"","ID.true","Word","Label","ConcValCombo","Task","BlockOrder","Group","Response","Accuracy","EventTime","Value","RT","ReactionTime","Key_value_F","Key_value_J","Comments","WhoseList","LogReactionTime","LogRT","TrialNumber"
"1","5ba286e8821f7600011d09f2","enlighten","test_val","abstract-positive","Valence","VC","negative;positive","positive",1,1730991001655,"positive",1691.5,1354,"positive","A","","Isidora",7.21081845347222,7.43337098822076,1
"2","5ba286e8821f7600011d09f2","impress","test_val","abstract-positive","Valence","VC","negative;positive","positive",1,1730991003378,"positive",1794.16666666667,965,"positive","A","","Isidora",6.87212810133899,7.49229594057041,2
"3","5ba286e8821f7600011d09f2","disappoint","test_val","abstract-negative","Valence","VC","negative;positive","negative",1,1730991005038,"negative",1934.83333333333,901,"positive","A","","Isidora",6.80350525760834,7.56777646910998,3
"4","5ba286e8821f7600011d09f2","hate","test_val","abstract-negative","Valence","VC","negative;positive","negative",1,1730991006905,"negative",1702.33333333333,1109,"positive","A","","Isidora",7.01121398735037,7.43975513797953,4
"5","5ba286e8821f7600011d09f2","perish","test_val","concrete-negative","Valence","VC","negative;positive","negative",1,1730991008704,"negative",1734.33333333333,1037,"positive","A","","Isidora",6.94408720822953,7.45837837262219,5
"6","5ba286e8821f7600011d09f2","bore","test_val","concrete-negative","Valence","VC","negative;positive","negative",1,1730991010564,"negative",1706.66666666667,1100,"positive","A","","Isidora",7.00306545878646,7.44229742936544,6
"7","5ba286e8821f7600011d09f2","irritate","test_val","concrete-negative","Valence","VC","negative;positive","negative",1,1730991012129,"negative",1730,809,"positive","A","","Isidora",6.69579891705849,7.45587668749182,7
"8","5ba286e8821f7600011d09f2","destroy","test_val","concrete-negative","Valence","VC","negative;positive","negative",1,1730991013652,"negative",1548.16666666667,765,"positive","A","","Isidora",6.63987583382654,7.34482671415947,8
"9","5ba286e8821f7600011d09f2","caress","test_val","concrete-positive","Valence","VC","negative;positive","positive",1,1730991015380,"positive",1551.83333333333,972,"positive","A","","Isidora",6.87935580446044,7.34719230666047,9
"10","5ba286e8821f7600011d09f2","prosper","test_val","concrete-positive","Valence","VC","negative;positive","positive",1,1730991016927,"positive",1647,789,"positive","A","","Isidora",6.67076632084587,7.40671073017764,10
"11","5ba286e8821f7600011d09f2","fail","test_val","concrete-negative","Valence","VC","negative;positive","negative",1,1730991018362,"negative",1772.83333333333,677,"positive","A","","Isidora",6.51767127291227,7.48033429902361,11
"12","5ba286e8821f7600011d09f2","improve","test_val","abstract-positive","Valence","VC","negative;positive","positive",1,1730991019793,"positive",1740.58333333333,670,"positive","A","","Isidora",6.50727771238501,7.46197558506732,12
"13","5ba286e8821f7600011d09f2","shine","test_val","concrete-positive","Valence","VC","negative;positive","positive",1,1730991021278,"positive",1551.83333333333,724,"positive","A","","Isidora",6.58479139238572,7.34719230666047,13
"14","5ba286e8821f7600011d09f2","adore","test_val","abstract-positive","Valence","VC","negative;positive","positive",1,1730991022637,"positive",1530.33333333333,599,"positive","A","","Isidora",6.39526159811545,7.33324085558111,14
"15","5ba286e8821f7600011d09f2","complete","test_val","concrete-positive","Valence","VC","negative;positive","positive",1,1730991024223,"positive",1692.83333333333,826,"positive","A","","Isidora",6.71659477352098,7.43415893271145,15
"16","5ba286e8821f7600011d09f2","rejuvenate","test_val","concrete-positive","Valence","VC","negative;positive","positive",1,1730991025836,"positive",1840.66666666667,857,"positive","A","","Isidora",6.75343791859778,7.51788310382199,16
"17","5ba286e8821f7600011d09f2","relax","test_val","concrete-positive","Valence","VC","negative;positive","positive",1,1730991027305,"positive",1652.66666666667,712,"positive","A","","Isidora",6.56807791141198,7.41014542392703,17
"18","5ba286e8821f7600011d09f2","love","test_val","abstract-positive","Valence","VC","negative;positive","positive",1,1730991028697,"positive",1439,632,"positive","A","","Isidora",6.44888939414686,7.27170370688737,18
"19","5ba286e8821f7600011d09f2","smile","test_val","concrete-positive","Valence","VC","negative;positive","positive",1,1730991030048,"positive",1409.66666666667,594,"positive","A","","Isidora",6.38687931936265,7.25110854880438,19
"20","5ba286e8821f7600011d09f2","suffer","test_val","abstract-negative","Valence","VC","negative;positive","negative",1,1730991031966,"negative",1709.5,1155,"positive","A","","Isidora",7.05185562295589,7.44395620907936,20
"21","5ba286e8821f7600011d09f2","kill","test_val","concrete-negative","Valence","VC","negative;positive","negative",1,1730991033446,"negative",1627.66666666667,717,"positive","A","","Isidora",6.57507584059962,7.39490277539355,21
"22","5ba286e8821f7600011d09f2","molest","test_val","abstract-negative","Valence","VC","negative;positive","negative",1,1730991034967,"negative",1885.33333333333,759,"positive","A","","Isidora",6.63200177739563,7.5418599189083,22
"23","5ba286e8821f7600011d09f2","reach","test_val","concrete-positive","Valence","VC","negative;positive","positive",1,1730991036753,"positive",1693.5,1033,"positive","A","","Isidora",6.94022246911964,7.43455267225783,23
"24","5ba286e8821f7600011d09f2","languish","test_val","abstract-negative","Valence","VC","negative;positive","negative",1,1730991038531,"negative",1886.83333333333,1022,"positive","A","","Isidora",6.92951677076365,7.54265521785005,24
"25","5ba286e8821f7600011d09f2","loathe","test_val","abstract-negative","Valence","VC","negative;positive","negative",1,1730991040061,"negative",1597.83333333333,767,"positive","A","","Isidora",6.64248680136726,7.37640382384894,25
"26","5ba286e8821f7600011d09f2","die","test_val","concrete-negative","Valence","VC","negative;positive","negative",1,1730991041540,"negative",1700.16666666667,722,"positive","A","","Isidora",6.58202513889283,7.43848156445446,26
"27","5ba286e8821f7600011d09f2","dislike","test_val","abstract-negative","Valence","VC","negative;positive","negative",1,1730991043085,"negative",1821.83333333333,786,"positive","A","","Isidora",6.66695679242921,7.50759859906578,27
"28","5ba286e8821f7600011d09f2","excell","test_val","abstract-positive","Valence","VC","negative;positive","positive",1,1730991044554,"positive",1781.83333333333,708,"positive","A","","Isidora",6.56244409369372,7.48539807578544,28
"29","5ba286e8821f7600011d09f2","rot","test_val","concrete-negative","Valence","VC","negative;positive","negative",1,1730991046027,"negative",1610.5,715,"positive","A","","Isidora",6.57228254269401,7.38429996877125,29
"30","5ba286e8821f7600011d09f2","admire","test_val","abstract-positive","Valence","VC","negative;positive","positive",1,1730991047456,"positive",1660.33333333333,666,"positive","A","","Isidora",6.50128967054039,7.41477366440517,30
"31","5ba286e8821f7600011d09f2","succumb","test_val","abstract-negative","Valence","VC","negative;positive","positive",0,1730991049024,"positive",1767.83333333333,808,"positive","A","","Isidora",6.69456205852109,7.47750997027742,31
"32","5ba286e8821f7600011d09f2","soothe","test_val","concrete-positive","Valence","VC","negative;positive","positive",1,1730991050519,"positive",1538.33333333333,737,"positive","A","","Isidora",6.60258789218934,7.33845485826884,32
"33","5ba286e8821f7600011d09f2","heal","test_val","concrete-positive","Valence","VC","negative;positive","positive",1,1730991052583,"positive",1901.83333333333,1307,"positive","A","","Isidora",7.17548971362422,7.55057361220662,33
"34","5ba286e8821f7600011d09f2","relieve","test_val","abstract-positive","Valence","VC","negative;positive","positive",1,1730991054028,"positive",1651.5,689,"positive","A","","Isidora",6.53524127101366,7.40943924483084,34
"35","5ba286e8821f7600011d09f2","despise","test_val","abstract-negative","Valence","VC","negative;positive","negative",1,1730991055479,"negative",1667.66666666667,694,"positive","A","","Isidora",6.5424719605068,7.4191807228201,35
"36","5ba286e8821f7600011d09f2","flourish","test_val","abstract-positive","Valence","VC","negative;positive","positive",1,1730991056981,"positive",1753.16666666667,747,"positive","A","","Isidora",6.61606518513282,7.46917895551122,36
"37","5ba286e8821f7600011d09f2","embelish","test_val","abstract-positive","Valence","VC","negative;positive","negative",0,1730991059181,"negative",2157.16666666667,1444,"positive","A","","Isidora",7.27517231945277,7.67655091121438,37
"38","5ba286e8821f7600011d09f2","demolish","test_val","concrete-negative","Valence","VC","negative;positive","negative",1,1730991060713,"negative",1715.5,773,"positive","A","","Isidora",6.65027904858742,7.4474598622985,38
"39","5ba286e8821f7600011d09f2","look down on","test_val","abstract-negative","Valence","VC","negative;positive","negative",1,1730991062698,"negative",1679.16666666667,1226,"positive","A","","Isidora",7.11151211649616,7.42605291758683,39
"40","5ba286e8821f7600011d09f2","smash","test_val","concrete-negative","Valence","VC","negative;positive","negative",1,1730991064281,"negative",1755.66666666667,825,"positive","A","","Isidora",6.71538338633468,7.47060393081528,40
"41","5ba286e8821f7600011d09f2","languish","test_val","abstract-negative","Valence","VC","negative;positive","negative",1,1730991066012,"negative",1886.83333333333,972,"positive","A","","Isidora",6.87935580446044,7.54265521785005,41
"42","5ba286e8821f7600011d09f2","dislike","test_val","abstract-negative","Valence","VC","negative;positive","negative",1,1730991067510,"negative",1821.83333333333,739,"positive","A","","Isidora",6.6052979209482,7.50759859906578,42
"43","5ba286e8821f7600011d09f2","improve","test_val","abstract-positive","Valence","VC","negative;positive","positive",1,1730991069117,"positive",1740.58333333333,851,"positive","A","","Isidora",6.74641212857337,7.46197558506732,43
"44","5ba286e8821f7600011d09f2","perish","test_val","concrete-negative","Valence","VC","negative;positive","negative",1,1730991070626,"negative",1734.33333333333,750,"positive","A","","Isidora",6.62007320653036,7.45837837262219,44
"45","5ba286e8821f7600011d09f2","succumb","test_val","abstract-negative","Valence","VC","negative;positive","negative",1,1730991072800,"negative",1767.83333333333,1415,"positive","A","","Isidora",7.25488481007734,7.47750997027742,45
"46","5ba286e8821f7600011d09f2","relax","test_val","concrete-positive","Valence","VC","negative;positive","positive",1,1730991074246,"positive",1652.66666666667,687,"positive","A","","Isidora",6.53233429222235,7.41014542392703,46
"47","5ba286e8821f7600011d09f2","shine","test_val","concrete-positive","Valence","VC","negative;positive","positive",1,1730991075750,"positive",1551.83333333333,745,"positive","A","","Isidora",6.61338421837956,7.34719230666047,47
"48","5ba286e8821f7600011d09f2","excell","test_val","abstract-positive","Valence","VC","negative;positive","positive",1,1730991077382,"positive",1781.83333333333,874,"positive","A","","Isidora",6.77308037565554,7.48539807578544,48
"49","5ba286e8821f7600011d09f2","kill","test_val","concrete-negative","Valence","VC","negative;positive","negative",1,1730991078758,"negative",1627.66666666667,617,"positive","A","","Isidora",6.42486902390539,7.39490277539355,49
"50","5ba286e8821f7600011d09f2","disappoint","test_val","abstract-negative","Valence","VC","negative;positive","negative",1,1730991080425,"negative",1934.83333333333,912,"positive","A","","Isidora",6.81563999007433,7.56777646910998,50
"51","5ba286e8821f7600011d09f2","fail","test_val","concrete-negative","Valence","VC","negative;positive","negative",1,1730991081902,"negative",1772.83333333333,718,"positive","A","","Isidora",6.57646956904822,7.48033429902361,51
"52","5ba286e8821f7600011d09f2","smile","test_val","concrete-positive","Valence","VC","negative;positive","positive",1,1730991083280,"positive",1409.66666666667,621,"positive","A","","Isidora",6.43133108193348,7.25110854880438,52
"53","5ba286e8821f7600011d09f2","rejuvenate","test_val","concrete-positive","Valence","VC","negative;positive","positive",1,1730991084848,"positive",1840.66666666667,812,"positive","A","","Isidora",6.69950034016168,7.51788310382199,53
"54","5ba286e8821f7600011d09f2","prosper","test_val","concrete-positive","Valence","VC","negative;positive","positive",1,1730991086321,"positive",1647,713,"positive","A","","Isidora",6.5694814204143,7.40671073017764,54
"55","5ba286e8821f7600011d09f2","impress","test_val","abstract-positive","Valence","VC","negative;positive","positive",1,1730991087735,"positive",1794.16666666667,660,"positive","A","","Isidora",6.49223983502047,7.49229594057041,55
"56","5ba286e8821f7600011d09f2","embelish","test_val","abstract-positive","Valence","VC","negative;positive","positive",1,1730991089211,"positive",2157.16666666667,720,"positive","A","","Isidora",6.5792512120101,7.67655091121438,56
"57","5ba286e8821f7600011d09f2","enlighten","test_val","abstract-positive","Valence","VC","negative;positive","positive",1,1730991090796,"positive",1691.5,828,"positive","A","","Isidora",6.71901315438526,7.43337098822076,57
"58","5ba286e8821f7600011d09f2","flourish","test_val","abstract-positive","Valence","VC","negative;positive","positive",1,1730991092429,"positive",1753.16666666667,877,"positive","A","","Isidora",6.77650699237218,7.46917895551122,58
"59","5ba286e8821f7600011d09f2","destroy","test_val","concrete-negative","Valence","VC","negative;positive","negative",1,1730991093877,"negative",1548.16666666667,692,"positive","A","","Isidora",6.53958595561767,7.34482671415947,59
"60","5ba286e8821f7600011d09f2","love","test_val","abstract-positive","Valence","VC","negative;positive","positive",1,1730991095276,"positive",1439,641,"positive","A","","Isidora",6.46302945692067,7.27170370688737,60
"61","5ba286e8821f7600011d09f2","soothe","test_val","concrete-positive","Valence","VC","negative;positive","positive",1,1730991096734,"positive",1538.33333333333,705,"positive","A","","Isidora",6.55819780281227,7.33845485826884,61
"62","5ba286e8821f7600011d09f2","complete","test_val","concrete-positive","Valence","VC","negative;positive","positive",1,1730991098153,"positive",1692.83333333333,664,"positive","A","","Isidora",6.49828214947643,7.43415893271145,62
"63","5ba286e8821f7600011d09f2","relieve","test_val","abstract-positive","Valence","VC","negative;positive","positive",1,1730991099488,"positive",1651.5,581,"positive","A","","Isidora",6.36475075685191,7.40943924483084,63
"64","5ba286e8821f7600011d09f2","die","test_val","concrete-negative","Valence","VC","negative;positive","negative",1,1730991100937,"negative",1700.16666666667,691,"positive","A","","Isidora",6.53813982376767,7.43848156445446,64
"65","5ba286e8821f7600011d09f2","smash","test_val","concrete-negative","Valence","VC","negative;positive","negative",1,1730991103498,"negative",1755.66666666667,1802,"positive","A","","Isidora",7.49665243816828,7.47060393081528,65
"66","5ba286e8821f7600011d09f2","rot","test_val","concrete-negative","Valence","VC","negative;positive","negative",1,1730991104860,"negative",1610.5,607,"positive","A","","Isidora",6.4085287910595,7.38429996877125,66
"67","5ba286e8821f7600011d09f2","admire","test_val","abstract-positive","Valence","VC","negative;positive","positive",1,1730991106190,"positive",1660.33333333333,573,"positive","A","","Isidora",6.35088571671474,7.41477366440517,67
"68","5ba286e8821f7600011d09f2","caress","test_val","concrete-positive","Valence","VC","negative;positive","positive",1,1730991107475,"positive",1551.83333333333,529,"positive","A","","Isidora",6.2709884318583,7.34719230666047,68
"69","5ba286e8821f7600011d09f2","suffer","test_val","abstract-negative","Valence","VC","negative;positive","negative",1,1730991108903,"negative",1709.5,667,"positive","A","","Isidora",6.50279004591562,7.44395620907936,69
"70","5ba286e8821f7600011d09f2","look down on","test_val","abstract-negative","Valence","VC","negative;positive","negative",1,1730991110499,"negative",1679.16666666667,836,"positive","A","","Isidora",6.7286286130847,7.42605291758683,70
"71","5ba286e8821f7600011d09f2","demolish","test_val","concrete-negative","Valence","VC","negative;positive","negative",1,1730991111965,"negative",1715.5,707,"positive","A","","Isidora",6.56103066589657,7.4474598622985,71
"72","5ba286e8821f7600011d09f2","heal","test_val","concrete-positive","Valence","VC","negative;positive","positive",1,1730991113443,"positive",1901.83333333333,721,"positive","A","","Isidora",6.58063913728495,7.55057361220662,72
"73","5ba286e8821f7600011d09f2","bore","test_val","concrete-negative","Valence","VC","negative;positive","negative",1,1730991115332,"negative",1706.66666666667,1132,"positive","A","","Isidora",7.03174125876313,7.44229742936544,73
"74","5ba286e8821f7600011d09f2","adore","test_val","abstract-positive","Valence","VC","negative;positive","positive",1,1730991116747,"positive",1530.33333333333,654,"positive","A","","Isidora",6.4831073514572,7.33324085558111,74
"75","5ba286e8821f7600011d09f2","irritate","test_val","concrete-negative","Valence","VC","negative;positive","negative",1,1730991118199,"negative",1730,694,"positive","A","","Isidora",6.5424719605068,7.45587668749182,75
"76","5ba286e8821f7600011d09f2","reach","test_val","concrete-positive","Valence","VC","negative;positive","positive",1,1730991119774,"positive",1693.5,819,"positive","A","","Isidora",6.70808408385307,7.43455267225783,76
"77","5ba286e8821f7600011d09f2","despise","test_val","abstract-negative","Valence","VC","negative;positive","negative",1,1730991121146,"negative",1667.66666666667,615,"positive","A","","Isidora",6.42162226780652,7.4191807228201,77
"78","5ba286e8821f7600011d09f2","loathe","test_val","abstract-negative","Valence","VC","negative;positive","negative",1,1730991122522,"negative",1597.83333333333,623,"positive","A","","Isidora",6.43454651878745,7.37640382384894,78
"79","5ba286e8821f7600011d09f2","hate","test_val","abstract-negative","Valence","VC","negative;positive","negative",1,1730991123856,"negative",1702.33333333333,579,"positive","A","","Isidora",6.361302477573,7.43975513797953,79
"80","5ba286e8821f7600011d09f2","molest","test_val","abstract-negative","Valence","VC","negative;positive","negative",1,1730991125246,"negative",1885.33333333333,634,"positive","A","","Isidora",6.45204895443723,7.5418599189083,80
"81","5ba286e8821f7600011d09f2","excell","test_val","abstract-positive","Valence","VC","negative;positive","positive",1,1730991126563,"positive",1781.83333333333,558,"positive","A","","Isidora",6.32435896238131,7.48539807578544,81
"82","5ba286e8821f7600011d09f2","fail","test_val","concrete-negative","Valence","VC","negative;positive","negative",1,1730991127947,"negative",1772.83333333333,626,"positive","A","","Isidora",6.4393503711001,7.48033429902361,82
"83","5ba286e8821f7600011d09f2","rot","test_val","concrete-negative","Valence","VC","negative;positive","negative",1,1730991129430,"negative",1610.5,724,"positive","A","","Isidora",6.58479139238572,7.38429996877125,83
"84","5ba286e8821f7600011d09f2","prosper","test_val","concrete-positive","Valence","VC","negative;positive","positive",1,1730991130798,"positive",1647,610,"positive","A","","Isidora",6.41345895716736,7.40671073017764,84
"85","5ba286e8821f7600011d09f2","irritate","test_val","concrete-negative","Valence","VC","negative;positive","negative",1,1730991132117,"negative",1730,561,"positive","A","","Isidora",6.3297209055227,7.45587668749182,85
"86","5ba286e8821f7600011d09f2","caress","test_val","concrete-positive","Valence","VC","negative;positive","positive",1,1730991133644,"positive",1551.83333333333,771,"positive","A","","Isidora",6.64768837356333,7.34719230666047,86
"87","5ba286e8821f7600011d09f2","bore","test_val","concrete-negative","Valence","VC","negative;positive","negative",1,1730991135081,"negative",1706.66666666667,679,"positive","A","","Isidora",6.5206211275587,7.44229742936544,87
"88","5ba286e8821f7600011d09f2","rejuvenate","test_val","concrete-positive","Valence","VC","negative;positive","positive",1,1730991136646,"positive",1840.66666666667,807,"positive","A","","Isidora",6.69332366826995,7.51788310382199,88
"89","5ba286e8821f7600011d09f2","succumb","test_val","abstract-negative","Valence","VC","negative;positive","negative",1,1730991138072,"negative",1767.83333333333,673,"positive","A","","Isidora",6.51174532964473,7.47750997027742,89
"90","5ba286e8821f7600011d09f2","languish","test_val","abstract-negative","Valence","VC","negative;positive","negative",1,1730991139611,"negative",1886.83333333333,783,"positive","A","","Isidora",6.6631326959908,7.54265521785005,90
"91","5ba286e8821f7600011d09f2","disappoint","test_val","abstract-negative","Valence","VC","negative;positive","negative",1,1730991141016,"negative",1934.83333333333,651,"positive","A","","Isidora",6.47850964220857,7.56777646910998,91
"92","5ba286e8821f7600011d09f2","embelish","test_val","abstract-positive","Valence","VC","negative;positive","negative",0,1730991142674,"negative",2157.16666666667,904,"positive","A","","Isidora",6.80682936039218,7.67655091121438,92
"93","5ba286e8821f7600011d09f2","demolish","test_val","concrete-negative","Valence","VC","negative;positive","negative",1,1730991144160,"negative",1715.5,730,"positive","A","","Isidora",6.59304453414244,7.4474598622985,93
"94","5ba286e8821f7600011d09f2","enlighten","test_val","abstract-positive","Valence","VC","negative;positive","positive",1,1730991145477,"positive",1691.5,564,"positive","A","","Isidora",6.33505425149806,7.43337098822076,94
"95","5ba286e8821f7600011d09f2","relieve","test_val","abstract-positive","Valence","VC","negative;positive","positive",1,1730991146776,"positive",1651.5,542,"positive","A","","Isidora",6.29526600143965,7.40943924483084,95
"96","5ba286e8821f7600011d09f2","die","test_val","concrete-negative","Valence","VC","negative;positive","negative",1,1730991148128,"negative",1700.16666666667,593,"positive","A","","Isidora",6.38519439899773,7.43848156445446,96
"97","5ba286e8821f7600011d09f2","kill","test_val","concrete-negative","Valence","VC","negative;positive","negative",1,1730991149494,"negative",1627.66666666667,605,"positive","A","","Isidora",6.40522845803084,7.39490277539355,97
"98","5ba286e8821f7600011d09f2","complete","test_val","concrete-positive","Valence","VC","negative;positive","positive",1,1730991150945,"positive",1692.83333333333,689,"positive","A","","Isidora",6.53524127101366,7.43415893271145,98
"99","5ba286e8821f7600011d09f2","loathe","test_val","abstract-negative","Valence","VC","negative;positive","negative",1,1730991152377,"negative",1597.83333333333,668,"positive","A","","Isidora",6.50428817353665,7.37640382384894,99
"100","5ba286e8821f7600011d09f2","love","test_val","abstract-positive","Valence","VC","negative;positive","positive",1,1730991153773,"positive",1439,641,"positive","A","","Isidora",6.46302945692067,7.27170370688737,100
"101","5ba286e8821f7600011d09f2","adore","test_val","abstract-positive","Valence","VC","negative;positive","positive",1,1730991155108,"positive",1530.33333333333,576,"positive","A","","Isidora",6.35610766069589,7.33324085558111,101
"102","5ba286e8821f7600011d09f2","smile","test_val","concrete-positive","Valence","VC","negative;positive","positive",1,1730991156413,"positive",1409.66666666667,551,"positive","A","","Isidora",6.31173480915291,7.25110854880438,102
"103","5ba286e8821f7600011d09f2","reach","test_val","concrete-positive","Valence","VC","negative;positive","positive",1,1730991157889,"positive",1693.5,718,"positive","A","","Isidora",6.57646956904822,7.43455267225783,103
"104","5ba286e8821f7600011d09f2","relax","test_val","concrete-positive","Valence","VC","negative;positive","positive",1,1730991159292,"positive",1652.66666666667,646,"positive","A","","Isidora",6.4707995037826,7.41014542392703,104
"105","5ba286e8821f7600011d09f2","smash","test_val","concrete-negative","Valence","VC","negative;positive","negative",1,1730991160655,"negative",1755.66666666667,601,"positive","A","","Isidora",6.39859493453521,7.47060393081528,105
"106","5ba286e8821f7600011d09f2","despise","test_val","abstract-negative","Valence","VC","negative;positive","negative",1,1730991162062,"negative",1667.66666666667,651,"positive","A","","Isidora",6.47850964220857,7.4191807228201,106
"107","5ba286e8821f7600011d09f2","improve","test_val","abstract-positive","Valence","VC","negative;positive","positive",1,1730991163605,"positive",1740.58333333333,786,"positive","A","","Isidora",6.66695679242921,7.46197558506732,107
"108","5ba286e8821f7600011d09f2","perish","test_val","concrete-negative","Valence","VC","negative;positive","negative",1,1730991165039,"negative",1734.33333333333,679,"positive","A","","Isidora",6.5206211275587,7.45837837262219,108
"109","5ba286e8821f7600011d09f2","admire","test_val","abstract-positive","Valence","VC","negative;positive","positive",1,1730991166551,"positive",1660.33333333333,755,"positive","A","","Isidora",6.62671774924902,7.41477366440517,109
"110","5ba286e8821f7600011d09f2","shine","test_val","concrete-positive","Valence","VC","negative;positive","positive",1,1730991167918,"positive",1551.83333333333,610,"positive","A","","Isidora",6.41345895716736,7.34719230666047,110
"111","5ba286e8821f7600011d09f2","impress","test_val","abstract-positive","Valence","VC","negative;positive","positive",1,1730991169271,"positive",1794.16666666667,597,"positive","A","","Isidora",6.3919171133926,7.49229594057041,111
"112","5ba286e8821f7600011d09f2","dislike","test_val","abstract-negative","Valence","VC","negative;positive","negative",1,1730991170860,"negative",1821.83333333333,833,"positive","A","","Isidora",6.72503364216684,7.50759859906578,112
"113","5ba286e8821f7600011d09f2","look down on","test_val","abstract-negative","Valence","VC","negative;positive","negative",1,1730991172365,"negative",1679.16666666667,749,"positive","A","","Isidora",6.61873898351722,7.42605291758683,113
"114","5ba286e8821f7600011d09f2","heal","test_val","concrete-positive","Valence","VC","negative;positive","positive",1,1730991173913,"positive",1901.83333333333,790,"positive","A","","Isidora",6.67203294546107,7.55057361220662,114
"115","5ba286e8821f7600011d09f2","destroy","test_val","concrete-negative","Valence","VC","negative;positive","negative",1,1730991175334,"negative",1548.16666666667,663,"positive","A","","Isidora",6.49677499018586,7.34482671415947,115
"116","5ba286e8821f7600011d09f2","hate","test_val","abstract-negative","Valence","VC","negative;positive","negative",1,1730991176741,"negative",1702.33333333333,652,"positive","A","","Isidora",6.48004456192665,7.43975513797953,116
"117","5ba286e8821f7600011d09f2","soothe","test_val","concrete-positive","Valence","VC","negative;positive","positive",1,1730991178144,"positive",1538.33333333333,645,"positive","A","","Isidora",6.46925031679577,7.33845485826884,117
"118","5ba286e8821f7600011d09f2","suffer","test_val","abstract-negative","Valence","VC","negative;positive","negative",1,1730991179635,"negative",1709.5,733,"positive","A","","Isidora",6.59714570188665,7.44395620907936,118
"119","5ba286e8821f7600011d09f2","molest","test_val","abstract-negative","Valence","VC","negative;positive","negative",1,1730991181050,"negative",1885.33333333333,657,"positive","A","","Isidora",6.48768401848461,7.5418599189083,119
"120","5ba286e8821f7600011d09f2","flourish","test_val","abstract-positive","Valence","VC","negative;positive","positive",1,1730991182495,"positive",1753.16666666667,686,"positive","A","","Isidora",6.53087762772588,7.46917895551122,120
"121","5ba286e8821f7600011d09f2","dislike","test_conc","abstract-negative","Concrete","VC","abstract;concrete","abstract",1,1730991303077,"abstract",1821.83333333333,1077,"concrete","A","","Isidora",6.98193467715639,7.50759859906578,121
"122","5ba286e8821f7600011d09f2","improve","test_conc","abstract-positive","Concrete","VC","abstract;concrete","abstract",1,1730991305133,"abstract",1740.58333333333,1297,"concrete","A","","Isidora",7.16780918431644,7.46197558506732,122
"123","5ba286e8821f7600011d09f2","perish","test_conc","concrete-negative","Concrete","VC","abstract;concrete","abstract",0,1730991306590,"abstract",1734.33333333333,697,"concrete","A","","Isidora",6.54678541076052,7.45837837262219,123
"124","5ba286e8821f7600011d09f2","rejuvenate","test_conc","concrete-positive","Concrete","VC","abstract;concrete","abstract",0,1730991308475,"abstract",1840.66666666667,1125,"concrete","A","","Isidora",7.02553831463852,7.51788310382199,124
"125","5ba286e8821f7600011d09f2","suffer","test_conc","abstract-negative","Concrete","VC","abstract;concrete","abstract",1,1730991310019,"abstract",1709.5,785,"concrete","A","","Isidora",6.66568371778241,7.44395620907936,125
"126","5ba286e8821f7600011d09f2","fail","test_conc","concrete-negative","Concrete","VC","abstract;concrete","concrete",1,1730991312800,"concrete",1772.83333333333,2022,"concrete","A","","Isidora",7.61184239958042,7.48033429902361,126
"127","5ba286e8821f7600011d09f2","heal","test_conc","concrete-positive","Concrete","VC","abstract;concrete","abstract",0,1730991315426,"abstract",1901.83333333333,1867,"concrete","A","","Isidora",7.53208814354172,7.55057361220662,127
"128","5ba286e8821f7600011d09f2","relax","test_conc","concrete-positive","Concrete","VC","abstract;concrete","concrete",1,1730991317460,"concrete",1652.66666666667,1273,"concrete","A","","Isidora",7.14913159855741,7.41014542392703,128
"129","5ba286e8821f7600011d09f2","flourish","test_conc","abstract-positive","Concrete","VC","abstract;concrete","abstract",1,1730991319795,"abstract",1753.16666666667,1579,"concrete","A","","Isidora",7.36454701425564,7.46917895551122,129
"130","5ba286e8821f7600011d09f2","molest","test_conc","abstract-negative","Concrete","VC","abstract;concrete","abstract",1,1730991322469,"abstract",1885.33333333333,1915,"concrete","A","","Isidora",7.55747290161475,7.5418599189083,130
"131","5ba286e8821f7600011d09f2","despise","test_conc","abstract-negative","Concrete","VC","abstract;concrete","concrete",0,1730991324721,"concrete",1667.66666666667,1493,"concrete","A","","Isidora",7.30854279753919,7.4191807228201,131
"132","5ba286e8821f7600011d09f2","kill","test_conc","concrete-negative","Concrete","VC","abstract;concrete","concrete",1,1730991326772,"concrete",1627.66666666667,1289,"concrete","A","","Isidora",7.16162200293919,7.39490277539355,132
"133","5ba286e8821f7600011d09f2","love","test_conc","abstract-positive","Concrete","VC","abstract;concrete","concrete",0,1730991328463,"concrete",1439,931,"concrete","A","","Isidora",6.83625927727707,7.27170370688737,133
"134","5ba286e8821f7600011d09f2","smile","test_conc","concrete-positive","Concrete","VC","abstract;concrete","concrete",1,1730991330056,"concrete",1409.66666666667,833,"concrete","A","","Isidora",6.72503364216684,7.25110854880438,134
"135","5ba286e8821f7600011d09f2","excell","test_conc","abstract-positive","Concrete","VC","abstract;concrete","abstract",1,1730991331978,"abstract",1781.83333333333,1165,"concrete","A","","Isidora",7.0604763659998,7.48539807578544,135
"136","5ba286e8821f7600011d09f2","caress","test_conc","concrete-positive","Concrete","VC","abstract;concrete","concrete",1,1730991333643,"concrete",1551.83333333333,909,"concrete","A","","Isidora",6.81234509417748,7.34719230666047,136
"137","5ba286e8821f7600011d09f2","complete","test_conc","concrete-positive","Concrete","VC","abstract;concrete","concrete",1,1730991335746,"concrete",1692.83333333333,1343,"concrete","A","","Isidora",7.20266119652324,7.43415893271145,137
"138","5ba286e8821f7600011d09f2","admire","test_conc","abstract-positive","Concrete","VC","abstract;concrete","concrete",0,1730991337539,"concrete",1660.33333333333,1029,"concrete","A","","Isidora",6.93634273583405,7.41477366440517,138
"139","5ba286e8821f7600011d09f2","demolish","test_conc","concrete-negative","Concrete","VC","abstract;concrete","concrete",1,1730991339623,"concrete",1715.5,1329,"concrete","A","","Isidora",7.19218205871325,7.4474598622985,139
"140","5ba286e8821f7600011d09f2","relieve","test_conc","abstract-positive","Concrete","VC","abstract;concrete","abstract",1,1730991341266,"abstract",1651.5,887,"concrete","A","","Isidora",6.78784498230958,7.40943924483084,140
"141","5ba286e8821f7600011d09f2","die","test_conc","concrete-negative","Concrete","VC","abstract;concrete","abstract",0,1730991343705,"abstract",1700.16666666667,1684,"concrete","A","","Isidora",7.42892719480227,7.43848156445446,141
"142","5ba286e8821f7600011d09f2","embelish","test_conc","abstract-positive","Concrete","VC","abstract;concrete","abstract",1,1730991345536,"abstract",2157.16666666667,1075,"concrete","A","","Isidora",6.98007594056176,7.67655091121438,142
"143","5ba286e8821f7600011d09f2","reach","test_conc","concrete-positive","Concrete","VC","abstract;concrete","abstract",0,1730991347388,"abstract",1693.5,1094,"concrete","A","","Isidora",6.99759598298193,7.43455267225783,143
"144","5ba286e8821f7600011d09f2","hate","test_conc","abstract-negative","Concrete","VC","abstract;concrete","concrete",0,1730991349232,"concrete",1702.33333333333,1088,"concrete","A","","Isidora",6.99209642741589,7.43975513797953,144
"145","5ba286e8821f7600011d09f2","shine","test_conc","concrete-positive","Concrete","VC","abstract;concrete","abstract",0,1730991351240,"abstract",1551.83333333333,1250,"concrete","A","","Isidora",7.13089883029635,7.34719230666047,145
"146","5ba286e8821f7600011d09f2","irritate","test_conc","concrete-negative","Concrete","VC","abstract;concrete","concrete",1,1730991353381,"concrete",1730,1381,"concrete","A","","Isidora",7.23056315340929,7.45587668749182,146
"147","5ba286e8821f7600011d09f2","bore","test_conc","concrete-negative","Concrete","VC","abstract;concrete","concrete",1,1730991355192,"concrete",1706.66666666667,1054,"concrete","A","","Isidora",6.96034772910131,7.44229742936544,147
"148","5ba286e8821f7600011d09f2","impress","test_conc","abstract-positive","Concrete","VC","abstract;concrete","concrete",0,1730991357629,"concrete",1794.16666666667,1679,"concrete","A","","Isidora",7.42595365707754,7.49229594057041,148
"149","5ba286e8821f7600011d09f2","rot","test_conc","concrete-negative","Concrete","VC","abstract;concrete","abstract",0,1730991359546,"abstract",1610.5,1161,"concrete","A","","Isidora",7.05703698169789,7.38429996877125,149
"150","5ba286e8821f7600011d09f2","disappoint","test_conc","abstract-negative","Concrete","VC","abstract;concrete","abstract",1,1730991362367,"abstract",1934.83333333333,2060,"concrete","A","","Isidora",7.63046126178363,7.56777646910998,150
"151","5ba286e8821f7600011d09f2","languish","test_conc","abstract-negative","Concrete","VC","abstract;concrete","abstract",1,1730991363932,"abstract",1886.83333333333,807,"concrete","A","","Isidora",6.69332366826995,7.54265521785005,151
"152","5ba286e8821f7600011d09f2","enlighten","test_conc","abstract-positive","Concrete","VC","abstract;concrete","abstract",1,1730991365402,"abstract",1691.5,712,"concrete","A","","Isidora",6.56807791141198,7.43337098822076,152
"153","5ba286e8821f7600011d09f2","adore","test_conc","abstract-positive","Concrete","VC","abstract;concrete","abstract",1,1730991367301,"abstract",1530.33333333333,1139,"concrete","A","","Isidora",7.03790596344718,7.33324085558111,153
"154","5ba286e8821f7600011d09f2","loathe","test_conc","abstract-negative","Concrete","VC","abstract;concrete","abstract",1,1730991368841,"abstract",1597.83333333333,785,"concrete","A","","Isidora",6.66568371778241,7.37640382384894,154
"155","5ba286e8821f7600011d09f2","soothe","test_conc","concrete-positive","Concrete","VC","abstract;concrete","concrete",1,1730991370663,"concrete",1538.33333333333,1064,"concrete","A","","Isidora",6.96979066990159,7.33845485826884,155
"156","5ba286e8821f7600011d09f2","look down on","test_conc","abstract-negative","Concrete","VC","abstract;concrete","abstract",1,1730991372520,"abstract",1679.16666666667,1098,"concrete","A","","Isidora",7.00124562206948,7.42605291758683,156
"157","5ba286e8821f7600011d09f2","destroy","test_conc","concrete-negative","Concrete","VC","abstract;concrete","concrete",1,1730991374304,"concrete",1548.16666666667,1025,"concrete","A","","Isidora",6.93244789157251,7.34482671415947,157
"158","5ba286e8821f7600011d09f2","succumb","test_conc","abstract-negative","Concrete","VC","abstract;concrete","concrete",0,1730991376047,"concrete",1767.83333333333,986,"concrete","A","","Isidora",6.89365635460264,7.47750997027742,158
"159","5ba286e8821f7600011d09f2","smash","test_conc","concrete-negative","Concrete","VC","abstract;concrete","concrete",1,1730991377729,"concrete",1755.66666666667,924,"concrete","A","","Isidora",6.82871207164168,7.47060393081528,159
"160","5ba286e8821f7600011d09f2","prosper","test_conc","concrete-positive","Concrete","VC","abstract;concrete","abstract",0,1730991379471,"abstract",1647,982,"concrete","A","","Isidora",6.88959130835447,7.40671073017764,160
"161","5ba286e8821f7600011d09f2","rot","test_conc","concrete-negative","Concrete","VC","abstract;concrete","abstract",0,1730991380932,"abstract",1610.5,705,"concrete","A","","Isidora",6.55819780281227,7.38429996877125,161
"162","5ba286e8821f7600011d09f2","suffer","test_conc","abstract-negative","Concrete","VC","abstract;concrete","abstract",1,1730991383192,"abstract",1709.5,1503,"concrete","A","","Isidora",7.31521838975297,7.44395620907936,162
"163","5ba286e8821f7600011d09f2","dislike","test_conc","abstract-negative","Concrete","VC","abstract;concrete","abstract",1,1730991384720,"abstract",1821.83333333333,771,"concrete","A","","Isidora",6.64768837356333,7.50759859906578,163
"164","5ba286e8821f7600011d09f2","succumb","test_conc","abstract-negative","Concrete","VC","abstract;concrete","abstract",1,1730991386397,"abstract",1767.83333333333,917,"concrete","A","","Isidora",6.82110747225646,7.47750997027742,164
"165","5ba286e8821f7600011d09f2","shine","test_conc","concrete-positive","Concrete","VC","abstract;concrete","concrete",1,1730991387866,"concrete",1551.83333333333,707,"concrete","A","","Isidora",6.56103066589657,7.34719230666047,165
"166","5ba286e8821f7600011d09f2","languish","test_conc","abstract-negative","Concrete","VC","abstract;concrete","abstract",1,1730991389970,"abstract",1886.83333333333,1347,"concrete","A","","Isidora",7.20563517641036,7.54265521785005,166
"167","5ba286e8821f7600011d09f2","reach","test_conc","concrete-positive","Concrete","VC","abstract;concrete","concrete",1,1730991391700,"concrete",1693.5,969,"concrete","A","","Isidora",6.87626461189077,7.43455267225783,167
"168","5ba286e8821f7600011d09f2","adore","test_conc","abstract-positive","Concrete","VC","abstract;concrete","concrete",0,1730991393330,"concrete",1530.33333333333,868,"concrete","A","","Isidora",6.76619171466035,7.33324085558111,168
"169","5ba286e8821f7600011d09f2","perish","test_conc","concrete-negative","Concrete","VC","abstract;concrete","abstract",0,1730991395417,"abstract",1734.33333333333,1326,"concrete","A","","Isidora",7.18992217074581,7.45837837262219,169
"170","5ba286e8821f7600011d09f2","impress","test_conc","abstract-positive","Concrete","VC","abstract;concrete","abstract",1,1730991397616,"abstract",1794.16666666667,1442,"concrete","A","","Isidora",7.27378631784489,7.49229594057041,170
"171","5ba286e8821f7600011d09f2","relax","test_conc","concrete-positive","Concrete","VC","abstract;concrete","concrete",1,1730991399475,"concrete",1652.66666666667,1101,"concrete","A","","Isidora",7.00397413672268,7.41014542392703,171
"172","5ba286e8821f7600011d09f2","fail","test_conc","concrete-negative","Concrete","VC","abstract;concrete","concrete",1,1730991401357,"concrete",1772.83333333333,1123,"concrete","A","","Isidora",7.02375895473844,7.48033429902361,172
"173","5ba286e8821f7600011d09f2","hate","test_conc","abstract-negative","Concrete","VC","abstract;concrete","abstract",1,1730991403091,"abstract",1702.33333333333,971,"concrete","A","","Isidora",6.87832646829133,7.43975513797953,173
"174","5ba286e8821f7600011d09f2","embelish","test_conc","abstract-positive","Concrete","VC","abstract;concrete","abstract",1,1730991404828,"abstract",2157.16666666667,978,"concrete","A","","Isidora",6.88550967003482,7.67655091121438,174
"175","5ba286e8821f7600011d09f2","admire","test_conc","abstract-positive","Concrete","VC","abstract;concrete","concrete",0,1730991406942,"concrete",1660.33333333333,1356,"concrete","A","","Isidora",7.21229446850034,7.41477366440517,175
"176","5ba286e8821f7600011d09f2","relieve","test_conc","abstract-positive","Concrete","VC","abstract;concrete","abstract",1,1730991408974,"abstract",1651.5,1275,"concrete","A","","Isidora",7.15070145759253,7.40943924483084,176
"177","5ba286e8821f7600011d09f2","complete","test_conc","concrete-positive","Concrete","VC","abstract;concrete","concrete",1,1730991410760,"concrete",1692.83333333333,1023,"concrete","A","","Isidora",6.93049476595163,7.43415893271145,177
"178","5ba286e8821f7600011d09f2","smash","test_conc","concrete-negative","Concrete","VC","abstract;concrete","concrete",1,1730991412547,"concrete",1755.66666666667,1032,"concrete","A","","Isidora",6.93925394604151,7.47060393081528,178
"179","5ba286e8821f7600011d09f2","demolish","test_conc","concrete-negative","Concrete","VC","abstract;concrete","concrete",1,1730991414182,"concrete",1715.5,877,"concrete","A","","Isidora",6.77650699237218,7.4474598622985,179
"180","5ba286e8821f7600011d09f2","kill","test_conc","concrete-negative","Concrete","VC","abstract;concrete","concrete",1,1730991416096,"concrete",1627.66666666667,1158,"concrete","A","","Isidora",7.05444965813294,7.39490277539355,180
"181","5ba286e8821f7600011d09f2","caress","test_conc","concrete-positive","Concrete","VC","abstract;concrete","concrete",1,1730991417694,"concrete",1551.83333333333,841,"concrete","A","","Isidora",6.73459165997295,7.34719230666047,181
"182","5ba286e8821f7600011d09f2","prosper","test_conc","concrete-positive","Concrete","VC","abstract;concrete","abstract",0,1730991419782,"abstract",1647,1327,"concrete","A","","Isidora",7.19067603433221,7.40671073017764,182
"183","5ba286e8821f7600011d09f2","flourish","test_conc","abstract-positive","Concrete","VC","abstract;concrete","abstract",1,1730991421479,"abstract",1753.16666666667,940,"concrete","A","","Isidora",6.84587987526405,7.46917895551122,183
"184","5ba286e8821f7600011d09f2","improve","test_conc","abstract-positive","Concrete","VC","abstract;concrete","abstract",1,1730991423532,"abstract",1740.58333333333,1287,"concrete","A","","Isidora",7.16006920759613,7.46197558506732,184
"185","5ba286e8821f7600011d09f2","heal","test_conc","concrete-positive","Concrete","VC","abstract;concrete","abstract",0,1730991425378,"abstract",1901.83333333333,1086,"concrete","A","","Isidora",6.99025650049388,7.55057361220662,185
"186","5ba286e8821f7600011d09f2","die","test_conc","concrete-negative","Concrete","VC","abstract;concrete","abstract",0,1730991427345,"abstract",1700.16666666667,1208,"concrete","A","","Isidora",7.09672137849476,7.43848156445446,186
"187","5ba286e8821f7600011d09f2","despise","test_conc","abstract-negative","Concrete","VC","abstract;concrete","abstract",1,1730991429107,"abstract",1667.66666666667,1001,"concrete","A","","Isidora",6.90875477931522,7.4191807228201,187
"188","5ba286e8821f7600011d09f2","excell","test_conc","abstract-positive","Concrete","VC","abstract;concrete","abstract",1,1730991431411,"abstract",1781.83333333333,1544,"concrete","A","","Isidora",7.34213173058472,7.48539807578544,188
"189","5ba286e8821f7600011d09f2","smile","test_conc","concrete-positive","Concrete","VC","abstract;concrete","concrete",1,1730991432791,"concrete",1409.66666666667,624,"concrete","A","","Isidora",6.43615036836943,7.25110854880438,189
"190","5ba286e8821f7600011d09f2","look down on","test_conc","abstract-negative","Concrete","VC","abstract;concrete","abstract",1,1730991434326,"abstract",1679.16666666667,774,"concrete","A","","Isidora",6.65157187358973,7.42605291758683,190
"191","5ba286e8821f7600011d09f2","irritate","test_conc","concrete-negative","Concrete","VC","abstract;concrete","abstract",0,1730991436563,"abstract",1730,1474,"concrete","A","","Isidora",7.29573507274928,7.45587668749182,191
"192","5ba286e8821f7600011d09f2","bore","test_conc","concrete-negative","Concrete","VC","abstract;concrete","concrete",1,1730991438169,"concrete",1706.66666666667,849,"concrete","A","","Isidora",6.74405918631135,7.44229742936544,192
"193","5ba286e8821f7600011d09f2","enlighten","test_conc","abstract-positive","Concrete","VC","abstract;concrete","abstract",1,1730991439881,"abstract",1691.5,956,"concrete","A","","Isidora",6.8627579130514,7.43337098822076,193
"194","5ba286e8821f7600011d09f2","molest","test_conc","abstract-negative","Concrete","VC","abstract;concrete","concrete",0,1730991442642,"concrete",1885.33333333333,2004,"concrete","A","","Isidora",7.60290046220476,7.5418599189083,194
"195","5ba286e8821f7600011d09f2","rejuvenate","test_conc","concrete-positive","Concrete","VC","abstract;concrete","abstract",0,1730991445155,"abstract",1840.66666666667,1756,"concrete","A","","Isidora",7.47079377419506,7.51788310382199,195
"196","5ba286e8821f7600011d09f2","love","test_conc","abstract-positive","Concrete","VC","abstract;concrete","concrete",0,1730991446534,"concrete",1439,623,"concrete","A","","Isidora",6.43454651878745,7.27170370688737,196
"197","5ba286e8821f7600011d09f2","disappoint","test_conc","abstract-negative","Concrete","VC","abstract;concrete","abstract",1,1730991448599,"abstract",1934.83333333333,1308,"concrete","A","","Isidora",7.17625453201714,7.56777646910998,197
"198","5ba286e8821f7600011d09f2","destroy","test_conc","concrete-negative","Concrete","VC","abstract;concrete","concrete",1,1730991450063,"concrete",1548.16666666667,704,"concrete","A","","Isidora",6.55677835615804,7.34482671415947,198
"199","5ba286e8821f7600011d09f2","loathe","test_conc","abstract-negative","Concrete","VC","abstract;concrete","abstract",1,1730991452020,"abstract",1597.83333333333,1199,"concrete","A","","Isidora",7.08924315502751,7.37640382384894,199
"200","5ba286e8821f7600011d09f2","soothe","test_conc","concrete-positive","Concrete","VC","abstract;concrete","concrete",1,1730991453579,"concrete",1538.33333333333,802,"concrete","A","","Isidora",6.68710860786651,7.33845485826884,200
"201","5ba286e8821f7600011d09f2","suffer","test_conc","abstract-negative","Concrete","VC","abstract;concrete","abstract",1,1730991455208,"abstract",1709.5,874,"concrete","A","","Isidora",6.77308037565554,7.44395620907936,201
"202","5ba286e8821f7600011d09f2","improve","test_conc","abstract-positive","Concrete","VC","abstract;concrete","concrete",0,1730991456981,"concrete",1740.58333333333,1014,"concrete","A","","Isidora",6.92165818415113,7.46197558506732,202
"203","5ba286e8821f7600011d09f2","prosper","test_conc","concrete-positive","Concrete","VC","abstract;concrete","abstract",0,1730991458660,"abstract",1647,924,"concrete","A","","Isidora",6.82871207164168,7.40671073017764,203
"204","5ba286e8821f7600011d09f2","disappoint","test_conc","abstract-negative","Concrete","VC","abstract;concrete","abstract",1,1730991460664,"abstract",1934.83333333333,1248,"concrete","A","","Isidora",7.12929754892937,7.56777646910998,204
"205","5ba286e8821f7600011d09f2","adore","test_conc","abstract-positive","Concrete","VC","abstract;concrete","concrete",0,1730991462225,"concrete",1530.33333333333,802,"concrete","A","","Isidora",6.68710860786651,7.33324085558111,205
"206","5ba286e8821f7600011d09f2","despise","test_conc","abstract-negative","Concrete","VC","abstract;concrete","abstract",1,1730991464003,"abstract",1667.66666666667,1020,"concrete","A","","Isidora",6.92755790627832,7.4191807228201,206
"207","5ba286e8821f7600011d09f2","look down on","test_conc","abstract-negative","Concrete","VC","abstract;concrete","abstract",1,1730991465612,"abstract",1679.16666666667,852,"concrete","A","","Isidora",6.74758652682932,7.42605291758683,207
"208","5ba286e8821f7600011d09f2","bore","test_conc","concrete-negative","Concrete","VC","abstract;concrete","concrete",1,1730991467264,"concrete",1706.66666666667,899,"concrete","A","","Isidora",6.80128303447162,7.44229742936544,208
"209","5ba286e8821f7600011d09f2","impress","test_conc","abstract-positive","Concrete","VC","abstract;concrete","concrete",0,1730991468916,"concrete",1794.16666666667,892,"concrete","A","","Isidora",6.79346613258001,7.49229594057041,209
"210","5ba286e8821f7600011d09f2","fail","test_conc","concrete-negative","Concrete","VC","abstract;concrete","abstract",0,1730991470611,"abstract",1772.83333333333,935,"concrete","A","","Isidora",6.84054652928869,7.48033429902361,210
"211","5ba286e8821f7600011d09f2","destroy","test_conc","concrete-negative","Concrete","VC","abstract;concrete","concrete",1,1730991472275,"concrete",1548.16666666667,908,"concrete","A","","Isidora",6.81124437860129,7.34482671415947,211
"212","5ba286e8821f7600011d09f2","languish","test_conc","abstract-negative","Concrete","VC","abstract;concrete","abstract",1,1730991474893,"abstract",1886.83333333333,1860,"concrete","A","","Isidora",7.52833176670725,7.54265521785005,212
"213","5ba286e8821f7600011d09f2","loathe","test_conc","abstract-negative","Concrete","VC","abstract;concrete","concrete",0,1730991476665,"concrete",1597.83333333333,1012,"concrete","A","","Isidora",6.91968384984741,7.37640382384894,213
"214","5ba286e8821f7600011d09f2","complete","test_conc","concrete-positive","Concrete","VC","abstract;concrete","concrete",1,1730991478492,"concrete",1692.83333333333,1071,"concrete","A","","Isidora",6.97634807044775,7.43415893271145,214
"215","5ba286e8821f7600011d09f2","flourish","test_conc","abstract-positive","Concrete","VC","abstract;concrete","abstract",1,1730991480413,"abstract",1753.16666666667,1162,"concrete","A","","Isidora",7.05789793741186,7.46917895551122,215
"216","5ba286e8821f7600011d09f2","kill","test_conc","concrete-negative","Concrete","VC","abstract;concrete","abstract",0,1730991482014,"abstract",1627.66666666667,847,"concrete","A","","Isidora",6.74170069465205,7.39490277539355,216
"217","5ba286e8821f7600011d09f2","molest","test_conc","abstract-negative","Concrete","VC","abstract;concrete","abstract",1,1730991483582,"abstract",1885.33333333333,808,"concrete","A","","Isidora",6.69456205852109,7.5418599189083,217
"218","5ba286e8821f7600011d09f2","embelish","test_conc","abstract-positive","Concrete","VC","abstract;concrete","abstract",1,1730991487639,"abstract",2157.16666666667,3302,"concrete","A","","Isidora",8.10228362448007,7.67655091121438,218
"219","5ba286e8821f7600011d09f2","demolish","test_conc","concrete-negative","Concrete","VC","abstract;concrete","concrete",1,1730991489741,"concrete",1715.5,1347,"concrete","A","","Isidora",7.20563517641036,7.4474598622985,219
"220","5ba286e8821f7600011d09f2","shine","test_conc","concrete-positive","Concrete","VC","abstract;concrete","concrete",1,1730991491232,"concrete",1551.83333333333,735,"concrete","A","","Isidora",6.59987049921284,7.34719230666047,220
"221","5ba286e8821f7600011d09f2","caress","test_conc","concrete-positive","Concrete","VC","abstract;concrete","concrete",1,1730991492756,"concrete",1551.83333333333,766,"concrete","A","","Isidora",6.64118216974059,7.34719230666047,221
"222","5ba286e8821f7600011d09f2","rejuvenate","test_conc","concrete-positive","Concrete","VC","abstract;concrete","abstract",0,1730991494672,"abstract",1840.66666666667,1161,"concrete","A","","Isidora",7.05703698169789,7.51788310382199,222
"223","5ba286e8821f7600011d09f2","love","test_conc","abstract-positive","Concrete","VC","abstract;concrete","concrete",0,1730991496062,"concrete",1439,633,"concrete","A","","Isidora",6.45047042214418,7.27170370688737,223
"224","5ba286e8821f7600011d09f2","enlighten","test_conc","abstract-positive","Concrete","VC","abstract;concrete","abstract",1,1730991498031,"abstract",1691.5,1208,"concrete","A","","Isidora",7.09672137849476,7.43337098822076,224
"225","5ba286e8821f7600011d09f2","succumb","test_conc","abstract-negative","Concrete","VC","abstract;concrete","abstract",1,1730991500063,"abstract",1767.83333333333,1274,"concrete","A","","Isidora",7.14991683613211,7.47750997027742,225
"226","5ba286e8821f7600011d09f2","heal","test_conc","concrete-positive","Concrete","VC","abstract;concrete","abstract",0,1730991501929,"abstract",1901.83333333333,1107,"concrete","A","","Isidora",7.00940893270864,7.55057361220662,226
"227","5ba286e8821f7600011d09f2","smash","test_conc","concrete-negative","Concrete","VC","abstract;concrete","concrete",1,1730991503504,"concrete",1755.66666666667,817,"concrete","A","","Isidora",6.70563909486,7.47060393081528,227
"228","5ba286e8821f7600011d09f2","perish","test_conc","concrete-negative","Concrete","VC","abstract;concrete","concrete",1,1730991505642,"concrete",1734.33333333333,1381,"concrete","A","","Isidora",7.23056315340929,7.45837837262219,228
"229","5ba286e8821f7600011d09f2","relax","test_conc","concrete-positive","Concrete","VC","abstract;concrete","concrete",1,1730991507363,"concrete",1652.66666666667,962,"concrete","A","","Isidora",6.86901445066571,7.41014542392703,229
"230","5ba286e8821f7600011d09f2","excell","test_conc","abstract-positive","Concrete","VC","abstract;concrete","abstract",1,1730991509428,"abstract",1781.83333333333,1305,"concrete","A","","Isidora",7.17395831975679,7.48539807578544,230
"231","5ba286e8821f7600011d09f2","dislike","test_conc","abstract-negative","Concrete","VC","abstract;concrete","abstract",1,1730991512376,"abstract",1821.83333333333,2193,"concrete","A","","Isidora",7.69302574841789,7.50759859906578,231
"232","5ba286e8821f7600011d09f2","soothe","test_conc","concrete-positive","Concrete","VC","abstract;concrete","concrete",1,1730991513884,"concrete",1538.33333333333,752,"concrete","A","","Isidora",6.62273632394984,7.33845485826884,232
"233","5ba286e8821f7600011d09f2","relieve","test_conc","abstract-positive","Concrete","VC","abstract;concrete","abstract",1,1730991516050,"abstract",1651.5,1408,"concrete","A","","Isidora",7.24992553671799,7.40943924483084,233
"234","5ba286e8821f7600011d09f2","admire","test_conc","abstract-positive","Concrete","VC","abstract;concrete","concrete",0,1730991517850,"concrete",1660.33333333333,1042,"concrete","A","","Isidora",6.94889722231331,7.41477366440517,234
"235","5ba286e8821f7600011d09f2","reach","test_conc","concrete-positive","Concrete","VC","abstract;concrete","concrete",1,1730991519607,"concrete",1693.5,997,"concrete","A","","Isidora",6.90475076996184,7.43455267225783,235
"236","5ba286e8821f7600011d09f2","rot","test_conc","concrete-negative","Concrete","VC","abstract;concrete","abstract",0,1730991521590,"abstract",1610.5,1225,"concrete","A","","Isidora",7.11069612297883,7.38429996877125,236
"237","5ba286e8821f7600011d09f2","irritate","test_conc","concrete-negative","Concrete","VC","abstract;concrete","abstract",0,1730991523272,"abstract",1730,928,"concrete","A","","Isidora",6.8330317327862,7.45587668749182,237
"238","5ba286e8821f7600011d09f2","smile","test_conc","concrete-positive","Concrete","VC","abstract;concrete","concrete",1,1730991524739,"concrete",1409.66666666667,710,"concrete","A","","Isidora",6.56526497003536,7.25110854880438,238
"239","5ba286e8821f7600011d09f2","hate","test_conc","abstract-negative","Concrete","VC","abstract;concrete","abstract",1,1730991526778,"abstract",1702.33333333333,1281,"concrete","A","","Isidora",7.15539630189673,7.43975513797953,239
"240","5ba286e8821f7600011d09f2","die","test_conc","concrete-negative","Concrete","VC","abstract;concrete","abstract",0,1730991528307,"abstract",1700.16666666667,769,"concrete","A","","Isidora",6.64509096950564,7.43848156445446,240
"241","5d3db07f00fd1d001cfbaddd","distrust","test_val","abstract-negative","Valence","VC","negative;positive","negative",1,1730986836726,"negative",1440.16666666667,792,"positive","A","","Anouch",6.67456139181443,7.27251412661334,1
"242","5d3db07f00fd1d001cfbaddd","break","test_val","concrete-negative","Valence","VC","negative;positive","positive",0,1730986838382,"positive",1573,899,"positive","A","","Anouch",6.80128303447162,7.36073990305828,2
"243","5d3db07f00fd1d001cfbaddd","cuddle","test_val","concrete-positive","Valence","VC","negative;positive","positive",1,1730986839620,"positive",1256.5,481,"positive","A","","Anouch",6.17586727010576,7.13608535698365,3
"244","5d3db07f00fd1d001cfbaddd","esteem","test_val","abstract-positive","Valence","VC","negative;positive","positive",1,1730986841008,"positive",1551.83333333333,628,"positive","A","","Anouch",6.4425401664682,7.34719230666047,4
"245","5d3db07f00fd1d001cfbaddd","scorn","test_val","abstract-negative","Valence","VC","negative;positive","negative",1,1730986842450,"negative",1497.33333333333,676,"positive","A","","Anouch",6.51619307604296,7.31144102719022,5
"246","5d3db07f00fd1d001cfbaddd","respect","test_val","abstract-positive","Valence","VC","negative;positive","positive",1,1730986843702,"positive",1512.33333333333,486,"positive","A","","Anouch",6.18620862390049,7.32140899099585,6
"247","5d3db07f00fd1d001cfbaddd","kill","test_val","concrete-negative","Valence","VC","negative;positive","negative",1,1730986845017,"negative",1275.66666666667,562,"positive","A","","Anouch",6.33150184989369,7.15122419675759,7
"248","5d3db07f00fd1d001cfbaddd","hug","test_val","concrete-positive","Valence","VC","negative;positive","positive",1,1730986846292,"positive",1351,520,"positive","A","","Anouch",6.25382881157547,7.2086003379602,8
"249","5d3db07f00fd1d001cfbaddd","stab","test_val","concrete-negative","Valence","VC","negative;positive","negative",1,1730986847581,"negative",1504.66666666667,526,"positive","A","","Anouch",6.26530121273771,7.31632666870937,9
"250","5d3db07f00fd1d001cfbaddd","praise","test_val","abstract-positive","Valence","VC","negative;positive","positive",1,1730986848835,"positive",1454.5,482,"positive","A","","Anouch",6.1779441140506,7.28241747793526,10
"251","5d3db07f00fd1d001cfbaddd","decorate","test_val","concrete-positive","Valence","VC","negative;positive","positive",1,1730986850147,"positive",1422.5,552,"positive","A","","Anouch",6.31354804627709,7.26017116600049,11
"252","5d3db07f00fd1d001cfbaddd","adorn","test_val","concrete-positive","Valence","VC","negative;positive","positive",1,1730986851535,"positive",1430,626,"positive","A","","Anouch",6.4393503711001,7.26542972325395,12
"253","5d3db07f00fd1d001cfbaddd","despise","test_val","abstract-negative","Valence","VC","negative;positive","negative",1,1730986852848,"negative",1335.5,557,"positive","A","","Anouch",6.32256523992728,7.19706103255002,13
"254","5d3db07f00fd1d001cfbaddd","improve","test_val","concrete-positive","Valence","VC","negative;positive","positive",1,1730986854184,"positive",1565.66666666667,570,"positive","A","","Anouch",6.3456363608286,7.35606699735889,14
"255","5d3db07f00fd1d001cfbaddd","build","test_val","concrete-positive","Valence","VC","negative;positive","positive",1,1730986856094,"positive",1488,1143,"positive","A","","Anouch",7.04141166379481,7.30518821539304,15
"256","5d3db07f00fd1d001cfbaddd","embellish","test_val","concrete-positive","Valence","VC","negative;positive","positive",1,1730986857347,"positive",1361.5,494,"positive","A","","Anouch",6.20253551718792,7.21634231211381,16
"257","5d3db07f00fd1d001cfbaddd","slaughter","test_val","concrete-negative","Valence","VC","negative;positive","negative",1,1730986858620,"negative",1318.5,510,"positive","A","","Anouch",6.23441072571837,7.18425000579334,17
"258","5d3db07f00fd1d001cfbaddd","adore","test_val","abstract-positive","Valence","VC","negative;positive","positive",1,1730986859861,"positive",1400.5,485,"positive","A","","Anouch",6.18414889093748,7.24458459470016,18
"259","5d3db07f00fd1d001cfbaddd","infect","test_val","concrete-negative","Valence","VC","negative;positive","negative",1,1730986861122,"negative",1301.66666666667,504,"positive","A","","Anouch",6.22257626807137,7.17140077360568,19
"260","5d3db07f00fd1d001cfbaddd","enjoy","test_val","abstract-positive","Valence","VC","negative;positive","positive",1,1730986862524,"positive",1511.66666666667,637,"positive","A","","Anouch",6.45676965557216,7.32096807388113,20
"261","5d3db07f00fd1d001cfbaddd","care","test_val","abstract-positive","Valence","VC","negative;positive","positive",1,1730986863782,"positive",1602.5,493,"positive","A","","Anouch",6.20050917404269,7.37932018879482,21
"262","5d3db07f00fd1d001cfbaddd","irritate","test_val","abstract-negative","Valence","VC","negative;positive","negative",1,1730986865184,"negative",1483.83333333333,622,"positive","A","","Anouch",6.43294009273918,7.30238410834562,22
"263","5d3db07f00fd1d001cfbaddd","heal","test_val","concrete-positive","Valence","VC","negative;positive","positive",1,1730986866450,"positive",1364.16666666667,491,"positive","A","","Anouch",6.19644412779452,7.21829902057718,23
"264","5d3db07f00fd1d001cfbaddd","pollute","test_val","concrete-negative","Valence","VC","negative;positive","negative",1,1730986867775,"negative",1467.83333333333,559,"positive","A","","Anouch",6.3261494731551,7.2915426695774,24
"265","5d3db07f00fd1d001cfbaddd","cherish","test_val","abstract-positive","Valence","VC","negative;positive","positive",1,1730986869019,"positive",1287.66666666667,477,"positive","A","","Anouch",6.16751649088834,7.16058707399817,25
"266","5d3db07f00fd1d001cfbaddd","kiss","test_val","concrete-positive","Valence","VC","negative;positive","positive",1,1730986870757,"positive",1443,981,"positive","A","","Anouch",6.88857245956536,7.27447955877387,26
"267","5d3db07f00fd1d001cfbaddd","encourage","test_val","abstract-positive","Valence","VC","negative;positive","positive",1,1730986871954,"positive",1394.66666666667,443,"positive","A","","Anouch",6.09356977004514,7.24041071707665,27
"268","5d3db07f00fd1d001cfbaddd","repair","test_val","concrete-positive","Valence","VC","negative;positive","positive",1,1730986873621,"positive",1571.33333333333,898,"positive","A","","Anouch",6.8001700683022,7.35967979482797,28
"269","5d3db07f00fd1d001cfbaddd","abhor","test_val","abstract-negative","Valence","VC","negative;positive","negative",1,1730986874965,"negative",1368.83333333333,589,"positive","A","","Anouch",6.37842618365159,7.22171407451214,29
"270","5d3db07f00fd1d001cfbaddd","murder","test_val","concrete-negative","Valence","VC","negative;positive","negative",1,1730986876373,"negative",1627,640,"positive","A","","Anouch",6.46146817635372,7.39449310721904,30
"271","5d3db07f00fd1d001cfbaddd","mourn","test_val","abstract-negative","Valence","VC","negative;positive","negative",1,1730986877910,"negative",1348.16666666667,779,"positive","A","","Anouch",6.65801104587075,7.2065009237899,31
"272","5d3db07f00fd1d001cfbaddd","vomit","test_val","concrete-negative","Valence","VC","negative;positive","negative",1,1730986879178,"negative",1335.33333333333,507,"positive","A","","Anouch",6.22851100359118,7.19693622755765,32
"273","5d3db07f00fd1d001cfbaddd","love","test_val","abstract-positive","Valence","VC","negative;positive","positive",1,1730986880374,"positive",1391,430,"positive","A","","Anouch",6.06378520868761,7.23777819192344,33
"274","5d3db07f00fd1d001cfbaddd","spit","test_val","concrete-negative","Valence","VC","negative;positive","negative",1,1730986881708,"negative",1401,574,"positive","A","","Anouch",6.35262939631957,7.24494154633701,34
"275","5d3db07f00fd1d001cfbaddd","hate","test_val","abstract-negative","Valence","VC","negative;positive","negative",1,1730986883153,"negative",1514.5,684,"positive","A","","Anouch",6.52795791762255,7.32284063046729,35
"276","5d3db07f00fd1d001cfbaddd","destroy","test_val","concrete-negative","Valence","VC","negative;positive","negative",1,1730986884473,"negative",1353.5,562,"positive","A","","Anouch",6.33150184989369,7.21044910905436,36
"277","5d3db07f00fd1d001cfbaddd","loathe","test_val","abstract-negative","Valence","VC","negative;positive","negative",1,1730986885836,"negative",1518.83333333333,601,"positive","A","","Anouch",6.39859493453521,7.32569777526807,37
"278","5d3db07f00fd1d001cfbaddd","dislike","test_val","abstract-negative","Valence","VC","negative;positive","negative",1,1730986887138,"negative",1472.5,523,"positive","A","","Anouch",6.25958146406492,7.29471691552574,38
"279","5d3db07f00fd1d001cfbaddd","admire","test_val","abstract-positive","Valence","VC","negative;positive","positive",1,1730986888373,"positive",1268.33333333333,460,"positive","A","","Anouch",6.13122648948314,7.14545898162768,39
"280","5d3db07f00fd1d001cfbaddd","criticize","test_val","abstract-negative","Valence","VC","negative;positive","negative",1,1730986889673,"negative",1395.33333333333,534,"positive","A","","Anouch",6.2803958389602,7.24088861433784,40
"281","5d3db07f00fd1d001cfbaddd","respect","test_val","abstract-positive","Valence","VC","negative;positive","positive",1,1730986890851,"positive",1512.33333333333,424,"positive","A","","Anouch",6.04973345523196,7.32140899099585,41
"282","5d3db07f00fd1d001cfbaddd","kill","test_val","concrete-negative","Valence","VC","negative;positive","negative",1,1730986892125,"negative",1275.66666666667,509,"positive","A","","Anouch",6.23244801655052,7.15122419675759,42
"283","5d3db07f00fd1d001cfbaddd","destroy","test_val","concrete-negative","Valence","VC","negative;positive","negative",1,1730986893375,"negative",1353.5,490,"positive","A","","Anouch",6.19440539110467,7.21044910905436,43
"284","5d3db07f00fd1d001cfbaddd","stab","test_val","concrete-negative","Valence","VC","negative;positive","negative",1,1730986894646,"negative",1504.66666666667,508,"positive","A","","Anouch",6.23048144757848,7.31632666870937,44
"285","5d3db07f00fd1d001cfbaddd","criticize","test_val","abstract-negative","Valence","VC","negative;positive","negative",1,1730986895933,"negative",1395.33333333333,529,"positive","A","","Anouch",6.2709884318583,7.24088861433784,45
"286","5d3db07f00fd1d001cfbaddd","encourage","test_val","abstract-positive","Valence","VC","negative;positive","positive",1,1730986897160,"positive",1394.66666666667,460,"positive","A","","Anouch",6.13122648948314,7.24041071707665,46
"287","5d3db07f00fd1d001cfbaddd","decorate","test_val","concrete-positive","Valence","VC","negative;positive","positive",1,1730986898596,"positive",1422.5,675,"positive","A","","Anouch",6.51471269087253,7.26017116600049,47
"288","5d3db07f00fd1d001cfbaddd","murder","test_val","concrete-negative","Valence","VC","negative;positive","negative",1,1730986899806,"negative",1627,442,"positive","A","","Anouch",6.0913098820777,7.39449310721904,48
"289","5d3db07f00fd1d001cfbaddd","loathe","test_val","abstract-negative","Valence","VC","negative;positive","negative",1,1730986901172,"negative",1518.83333333333,591,"positive","A","","Anouch",6.3818160174061,7.32569777526807,49
"290","5d3db07f00fd1d001cfbaddd","mourn","test_val","abstract-negative","Valence","VC","negative;positive","negative",1,1730986902436,"negative",1348.16666666667,492,"positive","A","","Anouch",6.19847871649231,7.2065009237899,50
"291","5d3db07f00fd1d001cfbaddd","embellish","test_val","concrete-positive","Valence","VC","negative;positive","positive",1,1730986904005,"positive",1361.5,799,"positive","A","","Anouch",6.68336094576627,7.21634231211381,51
"292","5d3db07f00fd1d001cfbaddd","kiss","test_val","concrete-positive","Valence","VC","negative;positive","positive",1,1730986905193,"positive",1443,406,"positive","A","","Anouch",6.00635315960173,7.27447955877387,52
"293","5d3db07f00fd1d001cfbaddd","break","test_val","concrete-negative","Valence","VC","negative;positive","negative",1,1730986906422,"negative",1573,462,"positive","A","","Anouch",6.13556489108174,7.36073990305828,53
"294","5d3db07f00fd1d001cfbaddd","improve","test_val","concrete-positive","Valence","VC","negative;positive","positive",1,1730986908293,"positive",1565.66666666667,1096,"positive","A","","Anouch",6.99942246750796,7.35606699735889,54
"295","5d3db07f00fd1d001cfbaddd","esteem","test_val","abstract-positive","Valence","VC","negative;positive","positive",1,1730986909628,"positive",1551.83333333333,567,"positive","A","","Anouch",6.34035930372775,7.34719230666047,55
"296","5d3db07f00fd1d001cfbaddd","abhor","test_val","abstract-negative","Valence","VC","negative;positive","negative",1,1730986910906,"negative",1368.83333333333,501,"positive","A","","Anouch",6.21660610108486,7.22171407451214,56
"297","5d3db07f00fd1d001cfbaddd","irritate","test_val","abstract-negative","Valence","VC","negative;positive","negative",1,1730986912256,"negative",1483.83333333333,597,"positive","A","","Anouch",6.3919171133926,7.30238410834562,57
"298","5d3db07f00fd1d001cfbaddd","build","test_val","concrete-positive","Valence","VC","negative;positive","negative",0,1730986913600,"negative",1488,576,"positive","A","","Anouch",6.35610766069589,7.30518821539304,58
"299","5d3db07f00fd1d001cfbaddd","heal","test_val","concrete-positive","Valence","VC","negative;positive","positive",1,1730986915157,"positive",1364.16666666667,789,"positive","A","","Anouch",6.67076632084587,7.21829902057718,59
"300","5d3db07f00fd1d001cfbaddd","pollute","test_val","concrete-negative","Valence","VC","negative;positive","negative",1,1730986916480,"negative",1467.83333333333,556,"positive","A","","Anouch",6.32076829425058,7.2915426695774,60
"301","5d3db07f00fd1d001cfbaddd","scorn","test_val","abstract-negative","Valence","VC","negative;positive","negative",1,1730986917759,"negative",1497.33333333333,516,"positive","A","","Anouch",6.24610676548156,7.31144102719022,61
"302","5d3db07f00fd1d001cfbaddd","love","test_val","abstract-positive","Valence","VC","negative;positive","positive",1,1730986919126,"positive",1391,609,"positive","A","","Anouch",6.4118182677099,7.23777819192344,62
"303","5d3db07f00fd1d001cfbaddd","enjoy","test_val","abstract-positive","Valence","VC","negative;positive","positive",1,1730986920325,"positive",1511.66666666667,438,"positive","A","","Anouch",6.08221891037645,7.32096807388113,63
"304","5d3db07f00fd1d001cfbaddd","admire","test_val","abstract-positive","Valence","VC","negative;positive","positive",1,1730986921624,"positive",1268.33333333333,537,"positive","A","","Anouch",6.28599809450886,7.14545898162768,64
"305","5d3db07f00fd1d001cfbaddd","infect","test_val","concrete-negative","Valence","VC","negative;positive","negative",1,1730986922891,"negative",1301.66666666667,509,"positive","A","","Anouch",6.23244801655052,7.17140077360568,65
"306","5d3db07f00fd1d001cfbaddd","distrust","test_val","abstract-negative","Valence","VC","negative;positive","negative",1,1730986924181,"negative",1440.16666666667,522,"positive","A","","Anouch",6.25766758788264,7.27251412661334,66
"307","5d3db07f00fd1d001cfbaddd","despise","test_val","abstract-negative","Valence","VC","negative;positive","negative",1,1730986925356,"negative",1335.5,413,"positive","A","","Anouch",6.02344759296103,7.19706103255002,67
"308","5d3db07f00fd1d001cfbaddd","care","test_val","abstract-positive","Valence","VC","negative;positive","positive",1,1730986926501,"positive",1602.5,373,"positive","A","","Anouch",5.92157841964382,7.37932018879482,68
"309","5d3db07f00fd1d001cfbaddd","dislike","test_val","abstract-negative","Valence","VC","negative;positive","negative",1,1730986927672,"negative",1472.5,408,"positive","A","","Anouch",6.01126717440416,7.29471691552574,69
"310","5d3db07f00fd1d001cfbaddd","spit","test_val","concrete-negative","Valence","VC","negative;positive","negative",1,1730986928935,"negative",1401,500,"positive","A","","Anouch",6.21460809842219,7.24494154633701,70
"311","5d3db07f00fd1d001cfbaddd","adorn","test_val","concrete-positive","Valence","VC","negative;positive","positive",1,1730986930178,"positive",1430,477,"positive","A","","Anouch",6.16751649088834,7.26542972325395,71
"312","5d3db07f00fd1d001cfbaddd","repair","test_val","concrete-positive","Valence","VC","negative;positive","positive",1,1730986931565,"positive",1571.33333333333,618,"positive","A","","Anouch",6.42648845745769,7.35967979482797,72
"313","5d3db07f00fd1d001cfbaddd","vomit","test_val","concrete-negative","Valence","VC","negative;positive","negative",1,1730986932795,"negative",1335.33333333333,461,"positive","A","","Anouch",6.13339804299665,7.19693622755765,73
"314","5d3db07f00fd1d001cfbaddd","adore","test_val","abstract-positive","Valence","VC","negative;positive","positive",1,1730986934038,"positive",1400.5,475,"positive","A","","Anouch",6.16331480403464,7.24458459470016,74
"315","5d3db07f00fd1d001cfbaddd","praise","test_val","abstract-positive","Valence","VC","negative;positive","positive",1,1730986935249,"positive",1454.5,451,"positive","A","","Anouch",6.11146733950268,7.28241747793526,75
"316","5d3db07f00fd1d001cfbaddd","cuddle","test_val","concrete-positive","Valence","VC","negative;positive","positive",1,1730986936472,"positive",1256.5,459,"positive","A","","Anouch",6.12905021006055,7.13608535698365,76
"317","5d3db07f00fd1d001cfbaddd","slaughter","test_val","concrete-negative","Valence","VC","negative;positive","negative",1,1730986937717,"negative",1318.5,476,"positive","A","","Anouch",6.16541785423142,7.18425000579334,77
"318","5d3db07f00fd1d001cfbaddd","hug","test_val","concrete-positive","Valence","VC","negative;positive","positive",1,1730986938987,"positive",1351,500,"positive","A","","Anouch",6.21460809842219,7.2086003379602,78
"319","5d3db07f00fd1d001cfbaddd","cherish","test_val","abstract-positive","Valence","VC","negative;positive","positive",1,1730986940453,"positive",1287.66666666667,709,"positive","A","","Anouch",6.56385552653213,7.16058707399817,79
"320","5d3db07f00fd1d001cfbaddd","hate","test_val","abstract-negative","Valence","VC","negative;positive","negative",1,1730986941660,"negative",1514.5,439,"positive","A","","Anouch",6.08449941307517,7.32284063046729,80
"321","5d3db07f00fd1d001cfbaddd","love","test_val","abstract-positive","Valence","VC","negative;positive","positive",1,1730986942848,"positive",1391,419,"positive","A","","Anouch",6.03787091992214,7.23777819192344,81
"322","5d3db07f00fd1d001cfbaddd","admire","test_val","abstract-positive","Valence","VC","negative;positive","positive",1,1730986944022,"positive",1268.33333333333,413,"positive","A","","Anouch",6.02344759296103,7.14545898162768,82
"323","5d3db07f00fd1d001cfbaddd","despise","test_val","abstract-negative","Valence","VC","negative;positive","negative",1,1730986945218,"negative",1335.5,429,"positive","A","","Anouch",6.06145691892802,7.19706103255002,83
"324","5d3db07f00fd1d001cfbaddd","adorn","test_val","concrete-positive","Valence","VC","negative;positive","positive",1,1730986946448,"positive",1430,475,"positive","A","","Anouch",6.16331480403464,7.26542972325395,84
"325","5d3db07f00fd1d001cfbaddd","respect","test_val","abstract-positive","Valence","VC","negative;positive","positive",1,1730986947602,"positive",1512.33333333333,388,"positive","A","","Anouch",5.96100533962327,7.32140899099585,85
"326","5d3db07f00fd1d001cfbaddd","embellish","test_val","concrete-positive","Valence","VC","negative;positive","positive",1,1730986948794,"positive",1361.5,434,"positive","A","","Anouch",6.07304453410041,7.21634231211381,86
"327","5d3db07f00fd1d001cfbaddd","pollute","test_val","concrete-negative","Valence","VC","negative;positive","negative",1,1730986950127,"negative",1467.83333333333,573,"positive","A","","Anouch",6.35088571671474,7.2915426695774,87
"328","5d3db07f00fd1d001cfbaddd","build","test_val","concrete-positive","Valence","VC","negative;positive","positive",1,1730986951447,"positive",1488,566,"positive","A","","Anouch",6.33859407820318,7.30518821539304,88
"329","5d3db07f00fd1d001cfbaddd","kiss","test_val","concrete-positive","Valence","VC","negative;positive","positive",1,1730986952652,"positive",1443,425,"positive","A","","Anouch",6.05208916892442,7.27447955877387,89
"330","5d3db07f00fd1d001cfbaddd","irritate","test_val","abstract-negative","Valence","VC","negative;positive","negative",1,1730986954151,"negative",1483.83333333333,733,"positive","A","","Anouch",6.59714570188665,7.30238410834562,90
"331","5d3db07f00fd1d001cfbaddd","care","test_val","abstract-positive","Valence","VC","negative;positive","positive",1,1730986956189,"positive",1602.5,1271,"positive","A","","Anouch",7.14755927118945,7.37932018879482,91
"332","5d3db07f00fd1d001cfbaddd","distrust","test_val","abstract-negative","Valence","VC","negative;positive","negative",1,1730986957339,"negative",1440.16666666667,382,"positive","A","","Anouch",5.94542060860658,7.27251412661334,92
"333","5d3db07f00fd1d001cfbaddd","repair","test_val","concrete-positive","Valence","VC","negative;positive","positive",1,1730986958737,"positive",1571.33333333333,629,"positive","A","","Anouch",6.44413125670044,7.35967979482797,93
"334","5d3db07f00fd1d001cfbaddd","hug","test_val","concrete-positive","Valence","VC","negative;positive","positive",1,1730986959971,"positive",1351,460,"positive","A","","Anouch",6.13122648948314,7.2086003379602,94
"335","5d3db07f00fd1d001cfbaddd","encourage","test_val","abstract-positive","Valence","VC","negative;positive","positive",1,1730986961166,"positive",1394.66666666667,433,"positive","A","","Anouch",6.07073772800249,7.24041071707665,95
"336","5d3db07f00fd1d001cfbaddd","destroy","test_val","concrete-negative","Valence","VC","negative;positive","negative",1,1730986962297,"negative",1353.5,360,"positive","A","","Anouch",5.88610403145016,7.21044910905436,96
"337","5d3db07f00fd1d001cfbaddd","slaughter","test_val","concrete-negative","Valence","VC","negative;positive","negative",1,1730986963606,"negative",1318.5,555,"positive","A","","Anouch",6.31896811374643,7.18425000579334,97
"338","5d3db07f00fd1d001cfbaddd","enjoy","test_val","abstract-positive","Valence","VC","negative;positive","positive",1,1730986964748,"positive",1511.66666666667,367,"positive","A","","Anouch",5.90536184805457,7.32096807388113,98
"339","5d3db07f00fd1d001cfbaddd","improve","test_val","concrete-positive","Valence","VC","negative;positive","positive",1,1730986966045,"positive",1565.66666666667,543,"positive","A","","Anouch",6.29710931993394,7.35606699735889,99
"340","5d3db07f00fd1d001cfbaddd","heal","test_val","concrete-positive","Valence","VC","negative;positive","positive",1,1730986967144,"positive",1364.16666666667,331,"positive","A","","Anouch",5.80211837537706,7.21829902057718,100
"341","5d3db07f00fd1d001cfbaddd","abhor","test_val","abstract-negative","Valence","VC","negative;positive","negative",1,1730986968363,"negative",1368.83333333333,458,"positive","A","","Anouch",6.12686918411419,7.22171407451214,101
"342","5d3db07f00fd1d001cfbaddd","loathe","test_val","abstract-negative","Valence","VC","negative;positive","negative",1,1730986969563,"negative",1518.83333333333,424,"positive","A","","Anouch",6.04973345523196,7.32569777526807,102
"343","5d3db07f00fd1d001cfbaddd","esteem","test_val","abstract-positive","Valence","VC","negative;positive","positive",1,1730986970803,"positive",1551.83333333333,460,"positive","A","","Anouch",6.13122648948314,7.34719230666047,103
"344","5d3db07f00fd1d001cfbaddd","vomit","test_val","concrete-negative","Valence","VC","negative;positive","negative",1,1730986971989,"negative",1335.33333333333,417,"positive","A","","Anouch",6.0330862217988,7.19693622755765,104
"345","5d3db07f00fd1d001cfbaddd","murder","test_val","concrete-negative","Valence","VC","negative;positive","negative",1,1730986973170,"negative",1627,420,"positive","A","","Anouch",6.04025471127741,7.39449310721904,105
"346","5d3db07f00fd1d001cfbaddd","stab","test_val","concrete-negative","Valence","VC","negative;positive","negative",1,1730986974369,"negative",1504.66666666667,431,"positive","A","","Anouch",6.06610809010375,7.31632666870937,106
"347","5d3db07f00fd1d001cfbaddd","kill","test_val","concrete-negative","Valence","VC","negative;positive","negative",1,1730986975526,"negative",1275.66666666667,392,"positive","A","","Anouch",5.97126183979046,7.15122419675759,107
"348","5d3db07f00fd1d001cfbaddd","infect","test_val","concrete-negative","Valence","VC","negative;positive","negative",1,1730986976700,"negative",1301.66666666667,419,"positive","A","","Anouch",6.03787091992214,7.17140077360568,108
"349","5d3db07f00fd1d001cfbaddd","cuddle","test_val","concrete-positive","Valence","VC","negative;positive","positive",1,1730986977919,"positive",1256.5,462,"positive","A","","Anouch",6.13556489108174,7.13608535698365,109
"350","5d3db07f00fd1d001cfbaddd","break","test_val","concrete-negative","Valence","VC","negative;positive","negative",1,1730986979035,"negative",1573,353,"positive","A","","Anouch",5.8664680569333,7.36073990305828,110
"351","5d3db07f00fd1d001cfbaddd","scorn","test_val","abstract-negative","Valence","VC","negative;positive","negative",1,1730986980586,"negative",1497.33333333333,789,"positive","A","","Anouch",6.67076632084587,7.31144102719022,111
"352","5d3db07f00fd1d001cfbaddd","mourn","test_val","abstract-negative","Valence","VC","negative;positive","negative",1,1730986981817,"negative",1348.16666666667,454,"positive","A","","Anouch",6.11809719804135,7.2065009237899,112
"353","5d3db07f00fd1d001cfbaddd","praise","test_val","abstract-positive","Valence","VC","negative;positive","positive",1,1730986982989,"positive",1454.5,407,"positive","A","","Anouch",6.00881318544259,7.28241747793526,113
"354","5d3db07f00fd1d001cfbaddd","cherish","test_val","abstract-positive","Valence","VC","negative;positive","positive",1,1730986984157,"positive",1287.66666666667,399,"positive","A","","Anouch",5.98896141688986,7.16058707399817,114
"355","5d3db07f00fd1d001cfbaddd","decorate","test_val","concrete-positive","Valence","VC","negative;positive","positive",1,1730986985390,"positive",1422.5,464,"positive","A","","Anouch",6.13988455222626,7.26017116600049,115
"356","5d3db07f00fd1d001cfbaddd","adore","test_val","abstract-positive","Valence","VC","negative;positive","positive",1,1730986986538,"positive",1400.5,388,"positive","A","","Anouch",5.96100533962327,7.24458459470016,116
"357","5d3db07f00fd1d001cfbaddd","criticize","test_val","abstract-negative","Valence","VC","negative;positive","negative",1,1730986987768,"negative",1395.33333333333,477,"positive","A","","Anouch",6.16751649088834,7.24088861433784,117
"358","5d3db07f00fd1d001cfbaddd","spit","test_val","concrete-negative","Valence","VC","negative;positive","negative",1,1730986989025,"negative",1401,492,"positive","A","","Anouch",6.19847871649231,7.24494154633701,118
"359","5d3db07f00fd1d001cfbaddd","hate","test_val","abstract-negative","Valence","VC","negative;positive","negative",1,1730986990255,"negative",1514.5,465,"positive","A","","Anouch",6.14203740558736,7.32284063046729,119
"360","5d3db07f00fd1d001cfbaddd","dislike","test_val","abstract-negative","Valence","VC","negative;positive","negative",1,1730986991530,"negative",1472.5,513,"positive","A","","Anouch",6.24027584517077,7.29471691552574,120
"361","5d3db07f00fd1d001cfbaddd","decorate","test_conc","concrete-positive","Concrete","VC","abstract;concrete","concrete",1,1730987073253,"concrete",1422.5,1052,"concrete","A","","Anouch",6.95844839329766,7.26017116600049,121
"362","5d3db07f00fd1d001cfbaddd","murder","test_conc","concrete-negative","Concrete","VC","abstract;concrete","concrete",1,1730987076336,"concrete",1627,2313,"concrete","A","","Anouch",7.74630066223144,7.39449310721904,122
"363","5d3db07f00fd1d001cfbaddd","criticize","test_conc","abstract-negative","Concrete","VC","abstract;concrete","abstract",1,1730987078136,"abstract",1395.33333333333,1026,"concrete","A","","Anouch",6.93342302573071,7.24088861433784,123
"364","5d3db07f00fd1d001cfbaddd","despise","test_conc","abstract-negative","Concrete","VC","abstract;concrete","abstract",1,1730987079501,"abstract",1335.5,596,"concrete","A","","Anouch",6.39024066706535,7.19706103255002,124
"365","5d3db07f00fd1d001cfbaddd","destroy","test_conc","concrete-negative","Concrete","VC","abstract;concrete","abstract",0,1730987081013,"abstract",1353.5,748,"concrete","A","","Anouch",6.61740297797448,7.21044910905436,125
"366","5d3db07f00fd1d001cfbaddd","heal","test_conc","concrete-positive","Concrete","VC","abstract;concrete","concrete",1,1730987082481,"concrete",1364.16666666667,704,"concrete","A","","Anouch",6.55677835615804,7.21829902057718,126
"367","5d3db07f00fd1d001cfbaddd","praise","test_conc","abstract-positive","Concrete","VC","abstract;concrete","abstract",1,1730987084583,"abstract",1454.5,1347,"concrete","A","","Anouch",7.20563517641036,7.28241747793526,127
"368","5d3db07f00fd1d001cfbaddd","stab","test_conc","concrete-negative","Concrete","VC","abstract;concrete","concrete",1,1730987087004,"concrete",1504.66666666667,1647,"concrete","A","","Anouch",7.40671073017764,7.31632666870937,128
"369","5d3db07f00fd1d001cfbaddd","irritate","test_conc","abstract-negative","Concrete","VC","abstract;concrete","abstract",1,1730987088813,"abstract",1483.83333333333,1042,"concrete","A","","Anouch",6.94889722231331,7.30238410834562,129
"370","5d3db07f00fd1d001cfbaddd","love","test_conc","abstract-positive","Concrete","VC","abstract;concrete","abstract",1,1730987090578,"abstract",1391,998,"concrete","A","","Anouch",6.90575327631146,7.23777819192344,130
"371","5d3db07f00fd1d001cfbaddd","admire","test_conc","abstract-positive","Concrete","VC","abstract;concrete","abstract",1,1730987091809,"abstract",1268.33333333333,464,"concrete","A","","Anouch",6.13988455222626,7.14545898162768,131
"372","5d3db07f00fd1d001cfbaddd","kill","test_conc","concrete-negative","Concrete","VC","abstract;concrete","abstract",0,1730987093165,"abstract",1275.66666666667,576,"concrete","A","","Anouch",6.35610766069589,7.15122419675759,132
"373","5d3db07f00fd1d001cfbaddd","enjoy","test_conc","abstract-positive","Concrete","VC","abstract;concrete","abstract",1,1730987095394,"abstract",1511.66666666667,1463,"concrete","A","","Anouch",7.28824440102012,7.32096807388113,133
"374","5d3db07f00fd1d001cfbaddd","spit","test_conc","concrete-negative","Concrete","VC","abstract;concrete","concrete",1,1730987096914,"concrete",1401,755,"concrete","A","","Anouch",6.62671774924902,7.24494154633701,134
"375","5d3db07f00fd1d001cfbaddd","abhor","test_conc","abstract-negative","Concrete","VC","abstract;concrete","abstract",1,1730987098598,"abstract",1368.83333333333,922,"concrete","A","","Anouch",6.82654522355659,7.22171407451214,135
"376","5d3db07f00fd1d001cfbaddd","hate","test_conc","abstract-negative","Concrete","VC","abstract;concrete","abstract",1,1730987099907,"abstract",1514.5,530,"concrete","A","","Anouch",6.27287700654617,7.32284063046729,136
"377","5d3db07f00fd1d001cfbaddd","build","test_conc","concrete-positive","Concrete","VC","abstract;concrete","concrete",1,1730987101456,"concrete",1488,769,"concrete","A","","Anouch",6.64509096950564,7.30518821539304,137
"378","5d3db07f00fd1d001cfbaddd","respect","test_conc","abstract-positive","Concrete","VC","abstract;concrete","abstract",1,1730987103490,"abstract",1512.33333333333,1256,"concrete","A","","Anouch",7.13568734702814,7.32140899099585,138
"379","5d3db07f00fd1d001cfbaddd","embellish","test_conc","concrete-positive","Concrete","VC","abstract;concrete","abstract",0,1730987104760,"abstract",1361.5,498,"concrete","A","","Anouch",6.21060007702465,7.21634231211381,139
"380","5d3db07f00fd1d001cfbaddd","adorn","test_conc","concrete-positive","Concrete","VC","abstract;concrete","abstract",0,1730987106622,"abstract",1430,1092,"concrete","A","","Anouch",6.99576615630485,7.26542972325395,140
"381","5d3db07f00fd1d001cfbaddd","break","test_conc","concrete-negative","Concrete","VC","abstract;concrete","concrete",1,1730987108301,"concrete",1573,916,"concrete","A","","Anouch",6.82001636467413,7.36073990305828,141
"382","5d3db07f00fd1d001cfbaddd","distrust","test_conc","abstract-negative","Concrete","VC","abstract;concrete","abstract",1,1730987110084,"abstract",1440.16666666667,1018,"concrete","A","","Anouch",6.92559519711047,7.27251412661334,142
"383","5d3db07f00fd1d001cfbaddd","vomit","test_conc","concrete-negative","Concrete","VC","abstract;concrete","abstract",0,1730987111399,"abstract",1335.33333333333,540,"concrete","A","","Anouch",6.29156913955832,7.19693622755765,143
"384","5d3db07f00fd1d001cfbaddd","care","test_conc","abstract-positive","Concrete","VC","abstract;concrete","abstract",1,1730987113308,"abstract",1602.5,1140,"concrete","A","","Anouch",7.03878354138854,7.37932018879482,144
"385","5d3db07f00fd1d001cfbaddd","encourage","test_conc","abstract-positive","Concrete","VC","abstract;concrete","concrete",0,1730987114924,"concrete",1394.66666666667,841,"concrete","A","","Anouch",6.73459165997295,7.24041071707665,145
"386","5d3db07f00fd1d001cfbaddd","infect","test_conc","concrete-negative","Concrete","VC","abstract;concrete","abstract",0,1730987116234,"abstract",1301.66666666667,544,"concrete","A","","Anouch",6.29894924685594,7.17140077360568,146
"387","5d3db07f00fd1d001cfbaddd","repair","test_conc","concrete-positive","Concrete","VC","abstract;concrete","concrete",1,1730987118652,"concrete",1571.33333333333,1640,"concrete","A","","Anouch",7.40245152081824,7.35967979482797,147
"388","5d3db07f00fd1d001cfbaddd","slaughter","test_conc","concrete-negative","Concrete","VC","abstract;concrete","abstract",0,1730987120072,"abstract",1318.5,645,"concrete","A","","Anouch",6.46925031679577,7.18425000579334,148
"389","5d3db07f00fd1d001cfbaddd","pollute","test_conc","concrete-negative","Concrete","VC","abstract;concrete","concrete",1,1730987121968,"concrete",1467.83333333333,1123,"concrete","A","","Anouch",7.02375895473844,7.2915426695774,149
"390","5d3db07f00fd1d001cfbaddd","hug","test_conc","concrete-positive","Concrete","VC","abstract;concrete","concrete",1,1730987123668,"concrete",1351,920,"concrete","A","","Anouch",6.82437367004309,7.2086003379602,150
"391","5d3db07f00fd1d001cfbaddd","cherish","test_conc","abstract-positive","Concrete","VC","abstract;concrete","concrete",0,1730987124888,"concrete",1287.66666666667,440,"concrete","A","","Anouch",6.08677472691231,7.16058707399817,151
"392","5d3db07f00fd1d001cfbaddd","kiss","test_conc","concrete-positive","Concrete","VC","abstract;concrete","concrete",1,1730987126791,"concrete",1443,1125,"concrete","A","","Anouch",7.02553831463852,7.27447955877387,152
"393","5d3db07f00fd1d001cfbaddd","scorn","test_conc","abstract-negative","Concrete","VC","abstract;concrete","abstract",1,1730987128552,"abstract",1497.33333333333,985,"concrete","A","","Anouch",6.89264164117209,7.31144102719022,153
"394","5d3db07f00fd1d001cfbaddd","cuddle","test_conc","concrete-positive","Concrete","VC","abstract;concrete","concrete",1,1730987129798,"concrete",1256.5,471,"concrete","A","","Anouch",6.15485809401642,7.13608535698365,154
"395","5d3db07f00fd1d001cfbaddd","dislike","test_conc","abstract-negative","Concrete","VC","abstract;concrete","abstract",1,1730987131836,"abstract",1472.5,1259,"concrete","A","","Anouch",7.13807303404435,7.29471691552574,155
"396","5d3db07f00fd1d001cfbaddd","improve","test_conc","concrete-positive","Concrete","VC","abstract;concrete","concrete",1,1730987133463,"concrete",1565.66666666667,871,"concrete","A","","Anouch",6.7696419768525,7.35606699735889,156
"397","5d3db07f00fd1d001cfbaddd","loathe","test_conc","abstract-negative","Concrete","VC","abstract;concrete","abstract",1,1730987135531,"abstract",1518.83333333333,1301,"concrete","A","","Anouch",7.1708884785125,7.32569777526807,157
"398","5d3db07f00fd1d001cfbaddd","mourn","test_conc","abstract-negative","Concrete","VC","abstract;concrete","abstract",1,1730987136722,"abstract",1348.16666666667,431,"concrete","A","","Anouch",6.06610809010375,7.2065009237899,158
"399","5d3db07f00fd1d001cfbaddd","adore","test_conc","abstract-positive","Concrete","VC","abstract;concrete","abstract",1,1730987138087,"abstract",1400.5,612,"concrete","A","","Anouch",6.41673228251233,7.24458459470016,159
"400","5d3db07f00fd1d001cfbaddd","esteem","test_conc","abstract-positive","Concrete","VC","abstract;concrete","abstract",1,1730987140228,"abstract",1551.83333333333,1362,"concrete","A","","Anouch",7.21670948670946,7.34719230666047,160
"401","5d3db07f00fd1d001cfbaddd","admire","test_conc","abstract-positive","Concrete","VC","abstract;concrete","abstract",1,1730987141702,"abstract",1268.33333333333,708,"concrete","A","","Anouch",6.56244409369372,7.14545898162768,161
"402","5d3db07f00fd1d001cfbaddd","stab","test_conc","concrete-negative","Concrete","VC","abstract;concrete","concrete",1,1730987143233,"concrete",1504.66666666667,771,"concrete","A","","Anouch",6.64768837356333,7.31632666870937,162
"403","5d3db07f00fd1d001cfbaddd","build","test_conc","concrete-positive","Concrete","VC","abstract;concrete","concrete",1,1730987144567,"concrete",1488,571,"concrete","A","","Anouch",6.34738920965601,7.30518821539304,163
"404","5d3db07f00fd1d001cfbaddd","distrust","test_conc","abstract-negative","Concrete","VC","abstract;concrete","abstract",1,1730987145964,"abstract",1440.16666666667,638,"concrete","A","","Anouch",6.45833828334479,7.27251412661334,164
"405","5d3db07f00fd1d001cfbaddd","break","test_conc","concrete-negative","Concrete","VC","abstract;concrete","concrete",1,1730987148422,"concrete",1573,1679,"concrete","A","","Anouch",7.42595365707754,7.36073990305828,165
"406","5d3db07f00fd1d001cfbaddd","scorn","test_conc","abstract-negative","Concrete","VC","abstract;concrete","abstract",1,1730987150200,"abstract",1497.33333333333,1024,"concrete","A","","Anouch",6.93147180559945,7.31144102719022,166
"407","5d3db07f00fd1d001cfbaddd","mourn","test_conc","abstract-negative","Concrete","VC","abstract;concrete","abstract",1,1730987151758,"abstract",1348.16666666667,802,"concrete","A","","Anouch",6.68710860786651,7.2065009237899,167
"408","5d3db07f00fd1d001cfbaddd","kiss","test_conc","concrete-positive","Concrete","VC","abstract;concrete","concrete",1,1730987153103,"concrete",1443,574,"concrete","A","","Anouch",6.35262939631957,7.27447955877387,168
"409","5d3db07f00fd1d001cfbaddd","repair","test_conc","concrete-positive","Concrete","VC","abstract;concrete","concrete",1,1730987154382,"concrete",1571.33333333333,511,"concrete","A","","Anouch",6.2363695902037,7.35967979482797,169
"410","5d3db07f00fd1d001cfbaddd","adorn","test_conc","concrete-positive","Concrete","VC","abstract;concrete","concrete",1,1730987155804,"concrete",1430,659,"concrete","A","","Anouch",6.49072353450251,7.26542972325395,170
"411","5d3db07f00fd1d001cfbaddd","esteem","test_conc","abstract-positive","Concrete","VC","abstract;concrete","abstract",1,1730987157728,"abstract",1551.83333333333,1162,"concrete","A","","Anouch",7.05789793741186,7.34719230666047,171
"412","5d3db07f00fd1d001cfbaddd","loathe","test_conc","abstract-negative","Concrete","VC","abstract;concrete","abstract",1,1730987159515,"abstract",1518.83333333333,1023,"concrete","A","","Anouch",6.93049476595163,7.32569777526807,172
"413","5d3db07f00fd1d001cfbaddd","improve","test_conc","concrete-positive","Concrete","VC","abstract;concrete","concrete",1,1730987161478,"concrete",1565.66666666667,1199,"concrete","A","","Anouch",7.08924315502751,7.35606699735889,173
"414","5d3db07f00fd1d001cfbaddd","heal","test_conc","concrete-positive","Concrete","VC","abstract;concrete","concrete",1,1730987162743,"concrete",1364.16666666667,486,"concrete","A","","Anouch",6.18620862390049,7.21829902057718,174
"415","5d3db07f00fd1d001cfbaddd","embellish","test_conc","concrete-positive","Concrete","VC","abstract;concrete","abstract",0,1730987164388,"abstract",1361.5,867,"concrete","A","","Anouch",6.76503897678054,7.21634231211381,175
"416","5d3db07f00fd1d001cfbaddd","praise","test_conc","abstract-positive","Concrete","VC","abstract;concrete","concrete",0,1730987165843,"concrete",1454.5,685,"concrete","A","","Anouch",6.52941883826223,7.28241747793526,176
"417","5d3db07f00fd1d001cfbaddd","decorate","test_conc","concrete-positive","Concrete","VC","abstract;concrete","concrete",1,1730987167206,"concrete",1422.5,599,"concrete","A","","Anouch",6.39526159811545,7.26017116600049,177
"418","5d3db07f00fd1d001cfbaddd","hate","test_conc","abstract-negative","Concrete","VC","abstract;concrete","abstract",1,1730987168415,"abstract",1514.5,434,"concrete","A","","Anouch",6.07304453410041,7.32284063046729,178
"419","5d3db07f00fd1d001cfbaddd","destroy","test_conc","concrete-negative","Concrete","VC","abstract;concrete","concrete",1,1730987169981,"concrete",1353.5,802,"concrete","A","","Anouch",6.68710860786651,7.21044910905436,179
"420","5d3db07f00fd1d001cfbaddd","respect","test_conc","abstract-positive","Concrete","VC","abstract;concrete","abstract",1,1730987171922,"abstract",1512.33333333333,1170,"concrete","A","","Anouch",7.0647590277918,7.32140899099585,180
"421","5d3db07f00fd1d001cfbaddd","despise","test_conc","abstract-negative","Concrete","VC","abstract;concrete","abstract",1,1730987173329,"abstract",1335.5,641,"concrete","A","","Anouch",6.46302945692067,7.19706103255002,181
"422","5d3db07f00fd1d001cfbaddd","love","test_conc","abstract-positive","Concrete","VC","abstract;concrete","abstract",1,1730987174573,"abstract",1391,466,"concrete","A","","Anouch",6.14418563412565,7.23777819192344,182
"423","5d3db07f00fd1d001cfbaddd","slaughter","test_conc","concrete-negative","Concrete","VC","abstract;concrete","abstract",0,1730987175851,"abstract",1318.5,513,"concrete","A","","Anouch",6.24027584517077,7.18425000579334,183
"424","5d3db07f00fd1d001cfbaddd","dislike","test_conc","abstract-negative","Concrete","VC","abstract;concrete","abstract",1,1730987177632,"abstract",1472.5,1016,"concrete","A","","Anouch",6.92362862813843,7.29471691552574,184
"425","5d3db07f00fd1d001cfbaddd","cuddle","test_conc","concrete-positive","Concrete","VC","abstract;concrete","concrete",1,1730987178975,"concrete",1256.5,568,"concrete","A","","Anouch",6.34212141872115,7.13608535698365,185
"426","5d3db07f00fd1d001cfbaddd","murder","test_conc","concrete-negative","Concrete","VC","abstract;concrete","concrete",1,1730987180480,"concrete",1627,743,"concrete","A","","Anouch",6.61069604471776,7.39449310721904,186
"427","5d3db07f00fd1d001cfbaddd","spit","test_conc","concrete-negative","Concrete","VC","abstract;concrete","concrete",1,1730987181915,"concrete",1401,678,"concrete","A","","Anouch",6.5191472879404,7.24494154633701,187
"428","5d3db07f00fd1d001cfbaddd","infect","test_conc","concrete-negative","Concrete","VC","abstract;concrete","concrete",1,1730987183433,"concrete",1301.66666666667,762,"concrete","A","","Anouch",6.63594655568665,7.17140077360568,188
"429","5d3db07f00fd1d001cfbaddd","pollute","test_conc","concrete-negative","Concrete","VC","abstract;concrete","concrete",1,1730987184758,"concrete",1467.83333333333,553,"concrete","A","","Anouch",6.31535800152233,7.2915426695774,189
"430","5d3db07f00fd1d001cfbaddd","kill","test_conc","concrete-negative","Concrete","VC","abstract;concrete","concrete",1,1730987185985,"concrete",1275.66666666667,454,"concrete","A","","Anouch",6.11809719804135,7.15122419675759,190
"431","5d3db07f00fd1d001cfbaddd","encourage","test_conc","abstract-positive","Concrete","VC","abstract;concrete","concrete",0,1730987187395,"concrete",1394.66666666667,631,"concrete","A","","Anouch",6.44730586254121,7.24041071707665,191
"432","5d3db07f00fd1d001cfbaddd","hug","test_conc","concrete-positive","Concrete","VC","abstract;concrete","concrete",1,1730987188724,"concrete",1351,556,"concrete","A","","Anouch",6.32076829425058,7.2086003379602,192
"433","5d3db07f00fd1d001cfbaddd","abhor","test_conc","abstract-negative","Concrete","VC","abstract;concrete","concrete",0,1730987190127,"concrete",1368.83333333333,634,"concrete","A","","Anouch",6.45204895443723,7.22171407451214,193
"434","5d3db07f00fd1d001cfbaddd","vomit","test_conc","concrete-negative","Concrete","VC","abstract;concrete","concrete",1,1730987191568,"concrete",1335.33333333333,671,"concrete","A","","Anouch",6.50876913697168,7.19693622755765,194
"435","5d3db07f00fd1d001cfbaddd","irritate","test_conc","abstract-negative","Concrete","VC","abstract;concrete","abstract",1,1730987193088,"abstract",1483.83333333333,755,"concrete","A","","Anouch",6.62671774924902,7.30238410834562,195
