"","ID.true","Word","Label","Task","BlockOrder","EventTime","Value","ReactionTime","Key_value_F","Key_value_J","Comments","Group","WhoseList","LogReactionTime","TrialNumber"
"1","5ba286e8821f7600011d09f2","industry","calibrator_val_feedback","Valence","VC",1730990932001,"positive",2106,"negative","positive","negative;positive","A","Isidora",7.65254569269392,1
"2","5ba286e8821f7600011d09f2","hat","calibrator_val_feedback","Valence","VC",1730990936911,"positive",2150,"negative","positive","negative;positive","A","Isidora",7.67322312112171,2
"3","5ba286e8821f7600011d09f2","kitten","calibrator_val_feedback","Valence","VC",1730990941274,"positive",1600,"negative","positive","negative;positive","A","Isidora",7.37775890822787,3
"4","5ba286e8821f7600011d09f2","grin","calibrator_val_feedback","Valence","VC",1730990945731,"positive",1699,"negative","positive","negative;positive","A","Isidora",7.43779512167193,4
"5","5ba286e8821f7600011d09f2","jail","calibrator_val_feedback","Valence","VC",1730990950153,"negative",1660,"negative","positive","negative;positive","A","Isidora",7.41457288135059,5
"6","5ba286e8821f7600011d09f2","insecure","calibrator_val_feedback","Valence","VC",1730990955407,"negative",2495,"negative","positive","negative;positive","A","Isidora",7.82204400818562,6
"7","5ba286e8821f7600011d09f2","icebox","calibrator_val_feedback","Valence","VC",1730990959723,"positive",1554,"negative","positive","negative;positive","A","Isidora",7.34858753092759,7
"8","5ba286e8821f7600011d09f2","free","calibrator_val_feedback","Valence","VC",1730990963805,"positive",1323,"negative","positive","negative;positive","A","Isidora",7.18765716411496,8
"9","5ba286e8821f7600011d09f2","joke","calibrator_val_feedback","Valence","VC",1730990967934,"positive",1365,"negative","positive","negative;positive","A","Isidora",7.21890970761906,9
"10","5ba286e8821f7600011d09f2","invader","calibrator_val_feedback","Valence","VC",1730990972093,"negative",1398,"negative","positive","negative;positive","A","Isidora",7.24279792279376,10
"11","5ba286e8821f7600011d09f2","free","calibrator_val_no_feedback","Valence","VC",1730990976174,"positive",1312,"A","negative;positive","","","Isidora",7.17930796950403,11
"12","5ba286e8821f7600011d09f2","joke","calibrator_val_no_feedback","Valence","VC",1730990978320,"positive",1391,"A","negative;positive","","","Isidora",7.23777819192344,12
"13","5ba286e8821f7600011d09f2","invader","calibrator_val_no_feedback","Valence","VC",1730990980302,"negative",1223,"A","negative;positive","","","Isidora",7.10906213568717,13
"14","5ba286e8821f7600011d09f2","insecure","calibrator_val_no_feedback","Valence","VC",1730990982471,"negative",1410,"A","negative;positive","","","Isidora",7.25134498337221,14
"15","5ba286e8821f7600011d09f2","industry","calibrator_val_no_feedback","Valence","VC",1730990985184,"positive",1953,"A","negative;positive","","","Isidora",7.57712193087668,15
"16","5ba286e8821f7600011d09f2","grin","calibrator_val_no_feedback","Valence","VC",1730990986889,"positive",946,"A","negative;positive","","","Isidora",6.85224256905188,16
"17","5ba286e8821f7600011d09f2","jail","calibrator_val_no_feedback","Valence","VC",1730990988685,"negative",1039,"A","negative;positive","","","Isidora",6.94601399109923,17
"18","5ba286e8821f7600011d09f2","hat","calibrator_val_no_feedback","Valence","VC",1730990990455,"positive",1011,"A","negative;positive","","","Isidora",6.91869521902047,18
"19","5ba286e8821f7600011d09f2","kitten","calibrator_val_no_feedback","Valence","VC",1730990992174,"positive",961,"A","negative;positive","","","Isidora",6.86797440897029,19
"20","5ba286e8821f7600011d09f2","icebox","calibrator_val_no_feedback","Valence","VC",1730990993850,"positive",917,"A","negative;positive","","","Isidora",6.82110747225646,20
"21","5ba286e8821f7600011d09f2","polite","calibrator_conc_feedback","Concrete","VC",1730991246414,"abstract",1683,"abstract","concrete","abstract;concrete","A","Isidora",7.42833319419081,21
"22","5ba286e8821f7600011d09f2","kick","calibrator_conc_feedback","Concrete","VC",1730991250515,"concrete",1340,"abstract","concrete","abstract;concrete","A","Isidora",7.20042489294496,22
"23","5ba286e8821f7600011d09f2","grasshopper","calibrator_conc_feedback","Concrete","VC",1730991254328,"concrete",1053,"abstract","concrete","abstract;concrete","A","Isidora",6.95939851213398,23
"24","5ba286e8821f7600011d09f2","whistle","calibrator_conc_feedback","Concrete","VC",1730991258077,"concrete",992,"abstract","concrete","abstract;concrete","A","Isidora",6.89972310728487,24
"25","5ba286e8821f7600011d09f2","marriage","calibrator_conc_feedback","Concrete","VC",1730991261748,"concrete",911,"abstract","concrete","abstract;concrete","A","Isidora",6.81454289725996,25
"26","5ba286e8821f7600011d09f2","insecure","calibrator_conc_feedback","Concrete","VC",1730991265752,"abstract",1246,"abstract","concrete","abstract;concrete","A","Isidora",7.1276936993474,26
"27","5ba286e8821f7600011d09f2","sugar","calibrator_conc_feedback","Concrete","VC",1730991269583,"concrete",1071,"abstract","concrete","abstract;concrete","A","Isidora",6.97634807044775,27
"28","5ba286e8821f7600011d09f2","gas","calibrator_conc_feedback","Concrete","VC",1730991273409,"concrete",1069,"abstract","concrete","abstract;concrete","A","Isidora",6.97447891102505,28
"29","5ba286e8821f7600011d09f2","shirt","calibrator_conc_feedback","Concrete","VC",1730991276976,"concrete",804,"abstract","concrete","abstract;concrete","A","Isidora",6.68959926917897,29
"30","5ba286e8821f7600011d09f2","theory","calibrator_conc_feedback","Concrete","VC",1730991280621,"abstract",884,"abstract","concrete","abstract;concrete","A","Isidora",6.78445706263764,30
"31","5ba286e8821f7600011d09f2","whistle","calibrator_conc_no_feedback","Concrete","VC",1730991284187,"concrete",801,"A","abstract;concrete","","","Isidora",6.68586094706836,31
"32","5ba286e8821f7600011d09f2","theory","calibrator_conc_no_feedback","Concrete","VC",1730991286333,"abstract",1386,"A","abstract;concrete","","","Isidora",7.23417717974985,32
"33","5ba286e8821f7600011d09f2","kick","calibrator_conc_no_feedback","Concrete","VC",1730991287692,"concrete",600,"A","abstract;concrete","","","Isidora",6.39692965521615,33
"34","5ba286e8821f7600011d09f2","marriage","calibrator_conc_no_feedback","Concrete","VC",1730991289475,"concrete",1024,"A","abstract;concrete","","","Isidora",6.93147180559945,34
"35","5ba286e8821f7600011d09f2","grasshopper","calibrator_conc_no_feedback","Concrete","VC",1730991291127,"concrete",895,"A","abstract;concrete","","","Isidora",6.79682371827486,35
"36","5ba286e8821f7600011d09f2","insecure","calibrator_conc_no_feedback","Concrete","VC",1730991292666,"abstract",780,"A","abstract;concrete","","","Isidora",6.65929391968364,36
"37","5ba286e8821f7600011d09f2","shirt","calibrator_conc_no_feedback","Concrete","VC",1730991294054,"concrete",628,"A","abstract;concrete","","","Isidora",6.4425401664682,37
"38","5ba286e8821f7600011d09f2","polite","calibrator_conc_no_feedback","Concrete","VC",1730991295866,"abstract",1055,"A","abstract;concrete","","","Isidora",6.96129604591017,38
"39","5ba286e8821f7600011d09f2","gas","calibrator_conc_no_feedback","Concrete","VC",1730991297382,"concrete",761,"A","abstract;concrete","","","Isidora",6.63463335786169,39
"40","5ba286e8821f7600011d09f2","sugar","calibrator_conc_no_feedback","Concrete","VC",1730991298851,"concrete",710,"A","abstract;concrete","","","Isidora",6.56526497003536,40
"41","5d3db07f00fd1d001cfbaddd","insecure","calibrator_val_feedback","Valence","VC",1730986773761,"negative",1677,"negative","positive","negative;positive","A","Anouch",7.42476176182321,1
"42","5d3db07f00fd1d001cfbaddd","icebox","calibrator_val_feedback","Valence","VC",1730986778887,"positive",2356,"negative","positive","negative;positive","A","Anouch",7.76472054477148,2
"43","5d3db07f00fd1d001cfbaddd","industry","calibrator_val_feedback","Valence","VC",1730986783980,"positive",2325,"negative","positive","negative;positive","A","Anouch",7.75147531802146,3
"44","5d3db07f00fd1d001cfbaddd","grin","calibrator_val_feedback","Valence","VC",1730986787869,"positive",1105,"negative","positive","negative;positive","A","Anouch",7.00760061395185,4
"45","5d3db07f00fd1d001cfbaddd","kitten","calibrator_val_feedback","Valence","VC",1730986792007,"positive",1356,"negative","positive","negative;positive","A","Anouch",7.21229446850034,5
"46","5d3db07f00fd1d001cfbaddd","hat","calibrator_val_feedback","Valence","VC",1730986798784,"positive",3991,"negative","positive","negative;positive","A","Anouch",8.29179710504873,6
"47","5d3db07f00fd1d001cfbaddd","free","calibrator_val_feedback","Valence","VC",1730986803197,"positive",1634,"negative","positive","negative;positive","A","Anouch",7.39878627541995,7
"48","5d3db07f00fd1d001cfbaddd","joke","calibrator_val_feedback","Valence","VC",1730986807475,"positive",1501,"negative","positive","negative;positive","A","Anouch",7.31388683163346,8
"49","5d3db07f00fd1d001cfbaddd","jail","calibrator_val_feedback","Valence","VC",1730986811203,"negative",948,"negative","positive","negative;positive","A","Anouch",6.85435450225502,9
"50","5d3db07f00fd1d001cfbaddd","invader","calibrator_val_feedback","Valence","VC",1730986815049,"negative",1075,"negative","positive","negative;positive","A","Anouch",6.98007594056176,10
"51","5d3db07f00fd1d001cfbaddd","hat","calibrator_val_no_feedback","Valence","VC",1730986818468,"positive",653,"A","negative;positive","","","Anouch",6.48157712927643,11
"52","5d3db07f00fd1d001cfbaddd","jail","calibrator_val_no_feedback","Valence","VC",1730986820404,"negative",1165,"A","negative;positive","","","Anouch",7.0604763659998,12
"53","5d3db07f00fd1d001cfbaddd","free","calibrator_val_no_feedback","Valence","VC",1730986821941,"positive",771,"A","negative;positive","","","Anouch",6.64768837356333,13
"54","5d3db07f00fd1d001cfbaddd","insecure","calibrator_val_no_feedback","Valence","VC",1730986823612,"negative",917,"A","negative;positive","","","Anouch",6.82110747225646,14
"55","5d3db07f00fd1d001cfbaddd","grin","calibrator_val_no_feedback","Valence","VC",1730986824940,"positive",564,"A","negative;positive","","","Anouch",6.33505425149806,15
"56","5d3db07f00fd1d001cfbaddd","icebox","calibrator_val_no_feedback","Valence","VC",1730986826494,"positive",788,"A","negative;positive","","","Anouch",6.66949808985788,16
"57","5d3db07f00fd1d001cfbaddd","kitten","calibrator_val_no_feedback","Valence","VC",1730986827897,"positive",638,"A","negative;positive","","","Anouch",6.45833828334479,17
"58","5d3db07f00fd1d001cfbaddd","joke","calibrator_val_no_feedback","Valence","VC",1730986829183,"positive",522,"A","negative;positive","","","Anouch",6.25766758788264,18
"59","5d3db07f00fd1d001cfbaddd","invader","calibrator_val_no_feedback","Valence","VC",1730986830427,"negative",484,"A","negative;positive","","","Anouch",6.18208490671663,19
"60","5d3db07f00fd1d001cfbaddd","industry","calibrator_val_no_feedback","Valence","VC",1730986831784,"positive",590,"A","negative;positive","","","Anouch",6.38012253689976,20
"61","5d3db07f00fd1d001cfbaddd","kick","calibrator_conc_feedback","Concrete","VC",1730987012496,"concrete",1325,"abstract","concrete","abstract;concrete","A","Anouch",7.18916773842032,21
"62","5d3db07f00fd1d001cfbaddd","marriage","calibrator_conc_feedback","Concrete","VC",1730987016303,"concrete",1014,"abstract","concrete","abstract;concrete","A","Anouch",6.92165818415113,22
"63","5d3db07f00fd1d001cfbaddd","insecure","calibrator_conc_feedback","Concrete","VC",1730987020267,"concrete",1193,"abstract","concrete","abstract;concrete","A","Anouch",7.08422642209792,23
"64","5d3db07f00fd1d001cfbaddd","polite","calibrator_conc_feedback","Concrete","VC",1730987024651,"abstract",1612,"abstract","concrete","abstract;concrete","A","Anouch",7.38523092306657,24
"65","5d3db07f00fd1d001cfbaddd","whistle","calibrator_conc_feedback","Concrete","VC",1730987027682,"abstract",249,"abstract","concrete","abstract;concrete","A","Anouch",5.51745289646471,25
"66","5d3db07f00fd1d001cfbaddd","theory","calibrator_conc_feedback","Concrete","VC",1730987031705,"abstract",1229,"abstract","concrete","abstract;concrete","A","Anouch",7.11395610956603,26
"67","5d3db07f00fd1d001cfbaddd","shirt","calibrator_conc_feedback","Concrete","VC",1730987035630,"concrete",1153,"abstract","concrete","abstract;concrete","A","Anouch",7.05012252026906,27
"68","5d3db07f00fd1d001cfbaddd","sugar","calibrator_conc_feedback","Concrete","VC",1730987039127,"concrete",704,"abstract","concrete","abstract;concrete","A","Anouch",6.55677835615804,28
"69","5d3db07f00fd1d001cfbaddd","grasshopper","calibrator_conc_feedback","Concrete","VC",1730987042690,"concrete",808,"abstract","concrete","abstract;concrete","A","Anouch",6.69456205852109,29
"70","5d3db07f00fd1d001cfbaddd","gas","calibrator_conc_feedback","Concrete","VC",1730987046487,"concrete",1009,"abstract","concrete","abstract;concrete","A","Anouch",6.91671502035361,30
"71","5d3db07f00fd1d001cfbaddd","gas","calibrator_conc_no_feedback","Concrete","VC",1730987053478,"concrete",4212,"A","abstract;concrete","","","Anouch",8.34569287325387,31
"72","5d3db07f00fd1d001cfbaddd","polite","calibrator_conc_no_feedback","Concrete","VC",1730987056011,"concrete",1760,"A","abstract;concrete","","","Anouch",7.4730690880322,32
"73","5d3db07f00fd1d001cfbaddd","marriage","calibrator_conc_no_feedback","Concrete","VC",1730987058357,"concrete",1591,"A","abstract;concrete","","","Anouch",7.37211802833779,33
"74","5d3db07f00fd1d001cfbaddd","whistle","calibrator_conc_no_feedback","Concrete","VC",1730987059820,"concrete",705,"A","abstract;concrete","","","Anouch",6.55819780281227,34
"75","5d3db07f00fd1d001cfbaddd","kick","calibrator_conc_no_feedback","Concrete","VC",1730987061165,"abstract",586,"A","abstract;concrete","","","Anouch",6.37331978957701,35
"76","5d3db07f00fd1d001cfbaddd","shirt","calibrator_conc_no_feedback","Concrete","VC",1730987062768,"concrete",847,"A","abstract;concrete","","","Anouch",6.74170069465205,36
"77","5d3db07f00fd1d001cfbaddd","theory","calibrator_conc_no_feedback","Concrete","VC",1730987064036,"abstract",497,"A","abstract;concrete","","","Anouch",6.20859002609663,37
"78","5d3db07f00fd1d001cfbaddd","sugar","calibrator_conc_no_feedback","Concrete","VC",1730987065323,"concrete",527,"A","abstract;concrete","","","Anouch",6.26720054854136,38
"79","5d3db07f00fd1d001cfbaddd","insecure","calibrator_conc_no_feedback","Concrete","VC",1730987066839,"abstract",755,"A","abstract;concrete","","","Anouch",6.62671774924902,39
"80","5d3db07f00fd1d001cfbaddd","grasshopper","calibrator_conc_no_feedback","Concrete","VC",1730987068330,"concrete",712,"A","abstract;concrete","","","Anouch",6.56807791141198,40
"81","6150fb8383f88eae3e5c795a","marriage","calibrator_conc_feedback","Concrete","CV",1730482147965,"concrete",5219,"abstract","concrete","abstract;concrete","A","Isidora",8.56006109164341,1
"82","6150fb8383f88eae3e5c795a","whistle","calibrator_conc_feedback","Concrete","CV",1730482152159,"abstract",1420,"abstract","concrete","abstract;concrete","A","Isidora",7.25841215059531,2
"83","6150fb8383f88eae3e5c795a","theory","calibrator_conc_feedback","Concrete","CV",1730482156869,"abstract",1932,"abstract","concrete","abstract;concrete","A","Isidora",7.56631101477246,3
"84","6150fb8383f88eae3e5c795a","insecure","calibrator_conc_feedback","Concrete","CV",1730482160563,"abstract",910,"abstract","concrete","abstract;concrete","A","Isidora",6.8134445995109,4
"85","6150fb8383f88eae3e5c795a","gas","calibrator_conc_feedback","Concrete","CV",1730482164706,"concrete",1370,"abstract","concrete","abstract;concrete","A","Isidora",7.22256601882217,5
"86","6150fb8383f88eae3e5c795a","shirt","calibrator_conc_feedback","Concrete","CV",1730482168578,"concrete",1108,"abstract","concrete","abstract;concrete","A","Isidora",7.01031186730723,6
"87","6150fb8383f88eae3e5c795a","grasshopper","calibrator_conc_feedback","Concrete","CV",1730482172373,"concrete",1031,"abstract","concrete","abstract;concrete","A","Isidora",6.93828448401696,7
"88","6150fb8383f88eae3e5c795a","polite","calibrator_conc_feedback","Concrete","CV",1730482176079,"abstract",936,"abstract","concrete","abstract;concrete","A","Isidora",6.84161547647759,8
"89","6150fb8383f88eae3e5c795a","kick","calibrator_conc_feedback","Concrete","CV",1730482179815,"concrete",964,"abstract","concrete","abstract;concrete","A","Isidora",6.87109129461055,9
"90","6150fb8383f88eae3e5c795a","sugar","calibrator_conc_feedback","Concrete","CV",1730482183647,"concrete",1062,"abstract","concrete","abstract;concrete","A","Isidora",6.96790920180188,10
"91","6150fb8383f88eae3e5c795a","shirt","calibrator_conc_no_feedback","Concrete","CV",1730482187066,"concrete",655,"A","abstract;concrete","","","Isidora",6.48463523563525,11
"92","6150fb8383f88eae3e5c795a","sugar","calibrator_conc_no_feedback","Concrete","CV",1730482189439,"concrete",1605,"A","abstract;concrete","","","Isidora",7.38087903556412,12
"93","6150fb8383f88eae3e5c795a","gas","calibrator_conc_no_feedback","Concrete","CV",1730482191271,"concrete",1068,"A","abstract;concrete","","","Isidora",6.97354301952014,13
"94","6150fb8383f88eae3e5c795a","theory","calibrator_conc_no_feedback","Concrete","CV",1730482193534,"abstract",1493,"A","abstract;concrete","","","Isidora",7.30854279753919,14
"95","6150fb8383f88eae3e5c795a","insecure","calibrator_conc_no_feedback","Concrete","CV",1730482195164,"abstract",865,"A","abstract;concrete","","","Isidora",6.76272950693188,15
"96","6150fb8383f88eae3e5c795a","kick","calibrator_conc_no_feedback","Concrete","CV",1730482196530,"concrete",596,"A","abstract;concrete","","","Isidora",6.39024066706535,16
"97","6150fb8383f88eae3e5c795a","marriage","calibrator_conc_no_feedback","Concrete","CV",1730482198191,"abstract",882,"A","abstract;concrete","","","Isidora",6.78219205600679,17
"98","6150fb8383f88eae3e5c795a","polite","calibrator_conc_no_feedback","Concrete","CV",1730482200323,"abstract",1370,"A","abstract;concrete","","","Isidora",7.22256601882217,18
"99","6150fb8383f88eae3e5c795a","grasshopper","calibrator_conc_no_feedback","Concrete","CV",1730482202192,"concrete",1101,"A","abstract;concrete","","","Isidora",7.00397413672268,19
"100","6150fb8383f88eae3e5c795a","whistle","calibrator_conc_no_feedback","Concrete","CV",1730482203864,"abstract",909,"A","abstract;concrete","","","Isidora",6.81234509417748,20
"101","6150fb8383f88eae3e5c795a","free","calibrator_val_feedback","Valence","CV",1730482693644,"positive",1814,"negative","positive","negative;positive","A","Isidora",7.50328963067508,21
"102","6150fb8383f88eae3e5c795a","industry","calibrator_val_feedback","Valence","CV",1730482698662,"positive",2256,"negative","positive","negative;positive","A","Isidora",7.72134861261795,22
"103","6150fb8383f88eae3e5c795a","invader","calibrator_val_feedback","Valence","CV",1730482702443,"negative",1013,"negative","positive","negative;positive","A","Isidora",6.92067150424868,23
"104","6150fb8383f88eae3e5c795a","insecure","calibrator_val_feedback","Valence","CV",1730482706235,"negative",1015,"negative","positive","negative;positive","A","Isidora",6.92264389147589,24
"105","6150fb8383f88eae3e5c795a","jail","calibrator_val_feedback","Valence","CV",1730482710496,"negative",1487,"negative","positive","negative;positive","A","Isidora",7.30451594646016,25
"106","6150fb8383f88eae3e5c795a","kitten","calibrator_val_feedback","Valence","CV",1730482714710,"positive",1443,"negative","positive","negative;positive","A","Isidora",7.27447955877387,26
"107","6150fb8383f88eae3e5c795a","hat","calibrator_val_feedback","Valence","CV",1730482719425,"positive",1941,"negative","positive","negative;positive","A","Isidora",7.57095858316901,27
"108","6150fb8383f88eae3e5c795a","joke","calibrator_val_feedback","Valence","CV",1730482723790,"positive",1592,"negative","positive","negative;positive","A","Isidora",7.37274636640433,28
"109","6150fb8383f88eae3e5c795a","grin","calibrator_val_feedback","Valence","CV",1730482727570,"positive",1006,"negative","positive","negative;positive","A","Isidora",6.91373735065968,29
"110","6150fb8383f88eae3e5c795a","icebox","calibrator_val_feedback","Valence","CV",1730482732416,"positive",2075,"negative","positive","negative;positive","A","Isidora",7.6377164326648,30
"111","6150fb8383f88eae3e5c795a","joke","calibrator_val_no_feedback","Valence","CV",1730482736415,"positive",1224,"A","negative;positive","","","Isidora",7.10987946307227,31
"112","6150fb8383f88eae3e5c795a","kitten","calibrator_val_no_feedback","Valence","CV",1730482738120,"positive",939,"A","negative;positive","","","Isidora",6.84481547920826,32
"113","6150fb8383f88eae3e5c795a","grin","calibrator_val_no_feedback","Valence","CV",1730482739531,"positive",640,"A","negative;positive","","","Isidora",6.46146817635372,33
"114","6150fb8383f88eae3e5c795a","invader","calibrator_val_no_feedback","Valence","CV",1730482740864,"negative",565,"A","negative;positive","","","Isidora",6.33682573114644,34
"115","6150fb8383f88eae3e5c795a","hat","calibrator_val_no_feedback","Valence","CV",1730482742287,"positive",655,"A","negative;positive","","","Isidora",6.48463523563525,35
"116","6150fb8383f88eae3e5c795a","jail","calibrator_val_no_feedback","Valence","CV",1730482743852,"negative",796,"A","negative;positive","","","Isidora",6.67959918584438,36
"117","6150fb8383f88eae3e5c795a","icebox","calibrator_val_no_feedback","Valence","CV",1730482745231,"positive",617,"A","negative;positive","","","Isidora",6.42486902390539,37
"118","6150fb8383f88eae3e5c795a","free","calibrator_val_no_feedback","Valence","CV",1730482746821,"positive",823,"A","negative;positive","","","Isidora",6.71295620067707,38
"119","6150fb8383f88eae3e5c795a","industry","calibrator_val_no_feedback","Valence","CV",1730482748318,"positive",728,"A","negative;positive","","","Isidora",6.59030104819669,39
"120","6150fb8383f88eae3e5c795a","insecure","calibrator_val_no_feedback","Valence","CV",1730482749880,"negative",798,"A","negative;positive","","","Isidora",6.68210859744981,40
"121","5c330cefca23620001b262b1","grin","calibrator_val_feedback","Valence","VC",1730995738651,"positive",2988,"negative","positive","negative;positive","A","Brent",8.00235954625271,1
"122","5c330cefca23620001b262b1","hat","calibrator_val_feedback","Valence","VC",1730995742746,"positive",1325,"negative","positive","negative;positive","A","Brent",7.18916773842032,2
"123","5c330cefca23620001b262b1","insecure","calibrator_val_feedback","Valence","VC",1730995746768,"negative",1245,"negative","positive","negative;positive","A","Brent",7.12689080889881,3
"124","5c330cefca23620001b262b1","invader","calibrator_val_feedback","Valence","VC",1730995750560,"negative",1014,"negative","positive","negative;positive","A","Brent",6.92165818415113,4
"125","5c330cefca23620001b262b1","industry","calibrator_val_feedback","Valence","VC",1730995755178,"positive",1843,"negative","positive","negative;positive","A","Brent",7.51914995766982,5
"126","5c330cefca23620001b262b1","free","calibrator_val_feedback","Valence","VC",1730995759572,"positive",1612,"negative","positive","negative;positive","A","Brent",7.38523092306657,6
"127","5c330cefca23620001b262b1","kitten","calibrator_val_feedback","Valence","VC",1730995763853,"positive",1511,"negative","positive","negative;positive","A","Brent",7.32052696227274,7
"128","5c330cefca23620001b262b1","joke","calibrator_val_feedback","Valence","VC",1730995767923,"positive",1300,"negative","positive","negative;positive","A","Brent",7.17011954344963,8
"129","5c330cefca23620001b262b1","icebox","calibrator_val_feedback","Valence","VC",1730995771930,"positive",1235,"negative","positive","negative;positive","A","Brent",7.11882624906208,9
"130","5c330cefca23620001b262b1","jail","calibrator_val_feedback","Valence","VC",1730995776260,"negative",1551,"negative","positive","negative;positive","A","Brent",7.34665516317654,10
"131","5c330cefca23620001b262b1","invader","calibrator_val_no_feedback","Valence","VC",1730995780620,"negative",1597,"A","negative;positive","","","Brent",7.37588214821501,11
"132","5c330cefca23620001b262b1","industry","calibrator_val_no_feedback","Valence","VC",1730995782431,"positive",1046,"A","negative;positive","","","Brent",6.95272864462487,12
"133","5c330cefca23620001b262b1","kitten","calibrator_val_no_feedback","Valence","VC",1730995784169,"positive",966,"A","negative;positive","","","Brent",6.87316383421252,13
"134","5c330cefca23620001b262b1","grin","calibrator_val_no_feedback","Valence","VC",1730995785693,"positive",756,"A","negative;positive","","","Brent",6.62804137617953,14
"135","5c330cefca23620001b262b1","icebox","calibrator_val_no_feedback","Valence","VC",1730995787102,"positive",649,"A","negative;positive","","","Brent",6.47543271670409,15
"136","5c330cefca23620001b262b1","joke","calibrator_val_no_feedback","Valence","VC",1730995788426,"positive",553,"A","negative;positive","","","Brent",6.31535800152233,16
"137","5c330cefca23620001b262b1","jail","calibrator_val_no_feedback","Valence","VC",1730995789947,"negative",750,"A","negative;positive","","","Brent",6.62007320653036,17
"138","5c330cefca23620001b262b1","free","calibrator_val_no_feedback","Valence","VC",1730995791438,"positive",717,"A","negative;positive","","","Brent",6.57507584059962,18
"139","5c330cefca23620001b262b1","insecure","calibrator_val_no_feedback","Valence","VC",1730995792825,"negative",619,"A","negative;positive","","","Brent",6.4281052726846,19
"140","5c330cefca23620001b262b1","hat","calibrator_val_no_feedback","Valence","VC",1730995794262,"positive",677,"A","negative;positive","","","Brent",6.51767127291227,20
"141","5c330cefca23620001b262b1","shirt","calibrator_conc_feedback","Concrete","VC",1730996023061,"concrete",1892,"abstract","concrete","abstract;concrete","A","Brent",7.54538974961182,21
"142","5c330cefca23620001b262b1","gas","calibrator_conc_feedback","Concrete","VC",1730996028286,"concrete",2450,"abstract","concrete","abstract;concrete","A","Brent",7.80384330353877,22
"143","5c330cefca23620001b262b1","kick","calibrator_conc_feedback","Concrete","VC",1730996033382,"abstract",2316,"abstract","concrete","abstract;concrete","A","Brent",7.74759683869289,23
"144","5c330cefca23620001b262b1","insecure","calibrator_conc_feedback","Concrete","VC",1730996037377,"abstract",1232,"abstract","concrete","abstract;concrete","A","Brent",7.11639414409346,24
"145","5c330cefca23620001b262b1","theory","calibrator_conc_feedback","Concrete","VC",1730996041070,"abstract",920,"abstract","concrete","abstract;concrete","A","Brent",6.82437367004309,25
"146","5c330cefca23620001b262b1","grasshopper","calibrator_conc_feedback","Concrete","VC",1730996044639,"concrete",803,"abstract","concrete","abstract;concrete","A","Brent",6.68835471394676,26
"147","5c330cefca23620001b262b1","whistle","calibrator_conc_feedback","Concrete","VC",1730996048698,"concrete",1284,"abstract","concrete","abstract;concrete","A","Brent",7.15773548424991,27
"148","5c330cefca23620001b262b1","sugar","calibrator_conc_feedback","Concrete","VC",1730996052345,"concrete",875,"abstract","concrete","abstract;concrete","A","Brent",6.77422388635761,28
"149","5c330cefca23620001b262b1","polite","calibrator_conc_feedback","Concrete","VC",1730996056088,"abstract",969,"abstract","concrete","abstract;concrete","A","Brent",6.87626461189077,29
"150","5c330cefca23620001b262b1","marriage","calibrator_conc_feedback","Concrete","VC",1730996059520,"abstract",664,"abstract","concrete","abstract;concrete","A","Brent",6.49828214947643,30
"151","5c330cefca23620001b262b1","gas","calibrator_conc_no_feedback","Concrete","VC",1730996063204,"concrete",899,"A","abstract;concrete","","","Brent",6.80128303447162,31
"152","5c330cefca23620001b262b1","marriage","calibrator_conc_no_feedback","Concrete","VC",1730996064963,"abstract",993,"A","abstract;concrete","","","Brent",6.90073066404517,32
"153","5c330cefca23620001b262b1","theory","calibrator_conc_no_feedback","Concrete","VC",1730996066375,"abstract",639,"A","abstract;concrete","","","Brent",6.45990445437753,33
"154","5c330cefca23620001b262b1","grasshopper","calibrator_conc_no_feedback","Concrete","VC",1730996067851,"concrete",710,"A","abstract;concrete","","","Brent",6.56526497003536,34
"155","5c330cefca23620001b262b1","insecure","calibrator_conc_no_feedback","Concrete","VC",1730996069466,"abstract",848,"A","abstract;concrete","","","Brent",6.7428806357919,35
"156","5c330cefca23620001b262b1","whistle","calibrator_conc_no_feedback","Concrete","VC",1730996078415,"concrete",8183,"A","abstract;concrete","","","Brent",9.00981411052738,36
"157","5c330cefca23620001b262b1","sugar","calibrator_conc_no_feedback","Concrete","VC",1730996080196,"concrete",1013,"A","abstract;concrete","","","Brent",6.92067150424868,37
"158","5c330cefca23620001b262b1","polite","calibrator_conc_no_feedback","Concrete","VC",1730996082420,"abstract",1455,"A","abstract;concrete","","","Brent",7.28276117960559,38
"159","5c330cefca23620001b262b1","shirt","calibrator_conc_no_feedback","Concrete","VC",1730996084561,"concrete",1374,"A","abstract;concrete","","","Brent",7.22548147278229,39
"160","5c330cefca23620001b262b1","kick","calibrator_conc_no_feedback","Concrete","VC",1730996086173,"abstract",840,"A","abstract;concrete","","","Brent",6.73340189183736,40
"161","5ee0e5063f7f190b2b3f3b14","polite","calibrator_conc_feedback","Concrete","CV",1730903436372,"abstract",2746,"abstract","concrete","abstract;concrete","A","Brent",7.91790058632792,1
"162","5ee0e5063f7f190b2b3f3b14","shirt","calibrator_conc_feedback","Concrete","CV",1730903440276,"concrete",1142,"abstract","concrete","abstract;concrete","A","Brent",7.04053639021596,2
"163","5ee0e5063f7f190b2b3f3b14","gas","calibrator_conc_feedback","Concrete","CV",1730903444574,"concrete",1539,"abstract","concrete","abstract;concrete","A","Brent",7.33888813383888,3
"164","5ee0e5063f7f190b2b3f3b14","marriage","calibrator_conc_feedback","Concrete","CV",1730903449539,"abstract",2207,"abstract","concrete","abstract;concrete","A","Brent",7.69938940625674,4
"165","5ee0e5063f7f190b2b3f3b14","whistle","calibrator_conc_feedback","Concrete","CV",1730903455229,"abstract",2928,"abstract","concrete","abstract;concrete","A","Brent",7.9820748750812,5
"166","5ee0e5063f7f190b2b3f3b14","kick","calibrator_conc_feedback","Concrete","CV",1730903459164,"abstract",1173,"abstract","concrete","abstract;concrete","A","Brent",7.06731984865348,6
"167","5ee0e5063f7f190b2b3f3b14","sugar","calibrator_conc_feedback","Concrete","CV",1730903462643,"concrete",721,"abstract","concrete","abstract;concrete","A","Brent",6.58063913728495,7
"168","5ee0e5063f7f190b2b3f3b14","grasshopper","calibrator_conc_feedback","Concrete","CV",1730903466564,"concrete",1162,"abstract","concrete","abstract;concrete","A","Brent",7.05789793741186,8
"169","5ee0e5063f7f190b2b3f3b14","theory","calibrator_conc_feedback","Concrete","CV",1730903470135,"abstract",812,"abstract","concrete","abstract;concrete","A","Brent",6.69950034016168,9
"170","5ee0e5063f7f190b2b3f3b14","insecure","calibrator_conc_feedback","Concrete","CV",1730903473940,"abstract",1043,"abstract","concrete","abstract;concrete","A","Brent",6.94985645500077,10
"171","5ee0e5063f7f190b2b3f3b14","gas","calibrator_conc_no_feedback","Concrete","CV",1730903477889,"concrete",1193,"A","abstract;concrete","","","Brent",7.08422642209792,11
"172","5ee0e5063f7f190b2b3f3b14","whistle","calibrator_conc_no_feedback","Concrete","CV",1730903480177,"abstract",1530,"A","abstract;concrete","","","Brent",7.33302301438648,12
"173","5ee0e5063f7f190b2b3f3b14","polite","calibrator_conc_no_feedback","Concrete","CV",1730903482710,"abstract",1773,"A","abstract;concrete","","","Brent",7.48042830607421,13
"174","5ee0e5063f7f190b2b3f3b14","shirt","calibrator_conc_no_feedback","Concrete","CV",1730903484741,"concrete",1276,"A","abstract;concrete","","","Brent",7.15148546390474,14
"175","5ee0e5063f7f190b2b3f3b14","insecure","calibrator_conc_no_feedback","Concrete","CV",1730903486909,"abstract",1409,"A","abstract;concrete","","","Brent",7.25063551189868,15
"176","5ee0e5063f7f190b2b3f3b14","grasshopper","calibrator_conc_no_feedback","Concrete","CV",1730903488405,"concrete",736,"A","abstract;concrete","","","Brent",6.60123011872888,16
"177","5ee0e5063f7f190b2b3f3b14","theory","calibrator_conc_no_feedback","Concrete","CV",1730903489828,"abstract",666,"A","abstract;concrete","","","Brent",6.50128967054039,17
"178","5ee0e5063f7f190b2b3f3b14","kick","calibrator_conc_no_feedback","Concrete","CV",1730903491596,"abstract",1009,"A","abstract;concrete","","","Brent",6.91671502035361,18
"179","5ee0e5063f7f190b2b3f3b14","sugar","calibrator_conc_no_feedback","Concrete","CV",1730903492997,"concrete",644,"A","abstract;concrete","","","Brent",6.46769872610435,19
"180","5ee0e5063f7f190b2b3f3b14","marriage","calibrator_conc_no_feedback","Concrete","CV",1730903494486,"abstract",732,"A","abstract;concrete","","","Brent",6.59578051396131,20
"181","5ee0e5063f7f190b2b3f3b14","kitten","calibrator_val_feedback","Valence","CV",1730903766440,"positive",1824,"negative","positive","negative;positive","A","Brent",7.50878717063428,21
"182","5ee0e5063f7f190b2b3f3b14","grin","calibrator_val_feedback","Valence","CV",1730903770202,"positive",999,"negative","positive","negative;positive","A","Brent",6.90675477864855,22
"183","5ee0e5063f7f190b2b3f3b14","jail","calibrator_val_feedback","Valence","CV",1730903773930,"negative",964,"negative","positive","negative;positive","A","Brent",6.87109129461055,23
"184","5ee0e5063f7f190b2b3f3b14","hat","calibrator_val_feedback","Valence","CV",1730903777885,"positive",1191,"negative","positive","negative;positive","A","Brent",7.0825485693553,24
"185","5ee0e5063f7f190b2b3f3b14","industry","calibrator_val_feedback","Valence","CV",1730903782659,"positive",2011,"negative","positive","negative;positive","A","Brent",7.60638738977265,25
"186","5ee0e5063f7f190b2b3f3b14","invader","calibrator_val_feedback","Valence","CV",1730903786354,"negative",926,"negative","positive","negative;positive","A","Brent",6.83087423464618,26
"187","5ee0e5063f7f190b2b3f3b14","free","calibrator_val_feedback","Valence","CV",1730903790109,"positive",993,"negative","positive","negative;positive","A","Brent",6.90073066404517,27
"188","5ee0e5063f7f190b2b3f3b14","insecure","calibrator_val_feedback","Valence","CV",1730903793770,"negative",901,"negative","positive","negative;positive","A","Brent",6.80350525760834,28
"189","5ee0e5063f7f190b2b3f3b14","icebox","calibrator_val_feedback","Valence","CV",1730903797697,"positive",1163,"negative","positive","negative;positive","A","Brent",7.05875815251866,29
"190","5ee0e5063f7f190b2b3f3b14","joke","calibrator_val_feedback","Valence","CV",1730903801448,"positive",989,"negative","positive","negative;positive","A","Brent",6.89669433162271,30
"191","5ee0e5063f7f190b2b3f3b14","jail","calibrator_val_no_feedback","Valence","CV",1730903804914,"negative",705,"A","negative;positive","","","Brent",6.55819780281227,31
"192","5ee0e5063f7f190b2b3f3b14","insecure","calibrator_val_no_feedback","Valence","CV",1730903806660,"negative",993,"A","negative;positive","","","Brent",6.90073066404517,32
"193","5ee0e5063f7f190b2b3f3b14","hat","calibrator_val_no_feedback","Valence","CV",1730903808142,"positive",725,"A","negative;positive","","","Brent",6.58617165485467,33
"194","5ee0e5063f7f190b2b3f3b14","free","calibrator_val_no_feedback","Valence","CV",1730903809607,"positive",703,"A","negative;positive","","","Brent",6.55535689181067,34
"195","5ee0e5063f7f190b2b3f3b14","kitten","calibrator_val_no_feedback","Valence","CV",1730903810968,"positive",602,"A","negative;positive","","","Brent",6.40025744530882,35
"196","5ee0e5063f7f190b2b3f3b14","industry","calibrator_val_no_feedback","Valence","CV",1730903812397,"positive",666,"A","negative;positive","","","Brent",6.50128967054039,36
"197","5ee0e5063f7f190b2b3f3b14","invader","calibrator_val_no_feedback","Valence","CV",1730903813860,"negative",701,"A","negative;positive","","","Brent",6.55250788703459,37
"198","5ee0e5063f7f190b2b3f3b14","icebox","calibrator_val_no_feedback","Valence","CV",1730903816479,"positive",1862,"A","negative;positive","","","Brent",7.52940645783701,38
"199","5ee0e5063f7f190b2b3f3b14","joke","calibrator_val_no_feedback","Valence","CV",1730903817915,"positive",675,"A","negative;positive","","","Brent",6.51471269087253,39
"200","5ee0e5063f7f190b2b3f3b14","grin","calibrator_val_no_feedback","Valence","CV",1730903819267,"positive",593,"A","negative;positive","","","Brent",6.38519439899773,40
"201","611e64ad7ea7083dd09ce1dc","grin","calibrator_val_feedback","Valence","VC",1730992029942,"negative",294,"negative","positive","negative;positive","A","Isidora",5.68357976733868,1
"202","611e64ad7ea7083dd09ce1dc","insecure","calibrator_val_feedback","Valence","VC",1730992032462,"negative",237,"negative","positive","negative;positive","A","Isidora",5.46806014113513,2
"203","611e64ad7ea7083dd09ce1dc","hat","calibrator_val_feedback","Valence","VC",1730992036006,"positive",173,"negative","positive","negative;positive","A","Isidora",5.15329159449778,3
"204","611e64ad7ea7083dd09ce1dc","invader","calibrator_val_feedback","Valence","VC",1730992039013,"negative",560,"negative","positive","negative;positive","A","Isidora",6.32793678372919,4
"205","611e64ad7ea7083dd09ce1dc","kitten","calibrator_val_feedback","Valence","VC",1730992042374,"negative",378,"negative","positive","negative;positive","A","Isidora",5.93489419561959,5
"206","611e64ad7ea7083dd09ce1dc","joke","calibrator_val_feedback","Valence","VC",1730992045294,"positive",67,"negative","positive","negative;positive","A","Isidora",4.20469261939097,6
"207","611e64ad7ea7083dd09ce1dc","jail","calibrator_val_feedback","Valence","VC",1730992048134,"negative",105,"negative","positive","negative;positive","A","Isidora",4.65396035015752,7
"208","611e64ad7ea7083dd09ce1dc","icebox","calibrator_val_feedback","Valence","VC",1730992050734,"negative",147,"negative","positive","negative;positive","A","Isidora",4.99043258677874,8
"209","611e64ad7ea7083dd09ce1dc","industry","calibrator_val_feedback","Valence","VC",1730992053966,"negative",121,"negative","positive","negative;positive","A","Isidora",4.79579054559674,9
"210","611e64ad7ea7083dd09ce1dc","free","calibrator_val_feedback","Valence","VC",1730992056702,"negative",76,"negative","positive","negative;positive","A","Isidora",4.33073334028633,10
"211","611e64ad7ea7083dd09ce1dc","insecure","calibrator_val_no_feedback","Valence","VC",1730992057870,"positive",234,"A","negative;positive","","","Isidora",5.4553211153577,11
"212","611e64ad7ea7083dd09ce1dc","invader","calibrator_val_no_feedback","Valence","VC",1730992058830,"positive",187,"A","negative;positive","","","Isidora",5.23110861685459,12
"213","611e64ad7ea7083dd09ce1dc","grin","calibrator_val_no_feedback","Valence","VC",1730992059693,"negative",95,"A","negative;positive","","","Isidora",4.55387689160054,13
"214","611e64ad7ea7083dd09ce1dc","jail","calibrator_val_no_feedback","Valence","VC",1730992060567,"positive",107,"A","negative;positive","","","Isidora",4.67282883446191,14
"215","611e64ad7ea7083dd09ce1dc","joke","calibrator_val_no_feedback","Valence","VC",1730992061367,"positive",34,"A","negative;positive","","","Isidora",3.52636052461616,15
"216","611e64ad7ea7083dd09ce1dc","hat","calibrator_val_no_feedback","Valence","VC",1730992062167,"positive",39,"A","negative;positive","","","Isidora",3.66356164612965,16
"217","611e64ad7ea7083dd09ce1dc","kitten","calibrator_val_no_feedback","Valence","VC",1730992062983,"positive",49,"A","negative;positive","","","Isidora",3.89182029811063,17
"218","611e64ad7ea7083dd09ce1dc","icebox","calibrator_val_no_feedback","Valence","VC",1730992063831,"positive",85,"A","negative;positive","","","Isidora",4.44265125649032,18
"219","611e64ad7ea7083dd09ce1dc","industry","calibrator_val_no_feedback","Valence","VC",1730992064694,"negative",96,"A","negative;positive","","","Isidora",4.56434819146784,19
"220","611e64ad7ea7083dd09ce1dc","free","calibrator_val_no_feedback","Valence","VC",1730992065558,"positive",102,"A","negative;positive","","","Isidora",4.62497281328427,20
"221","611e64ad7ea7083dd09ce1dc","theory","calibrator_conc_feedback","Concrete","VC",1730992197173,"concrete",556,"abstract","concrete","abstract;concrete","A","Isidora",6.32076829425058,21
"222","611e64ad7ea7083dd09ce1dc","shirt","calibrator_conc_feedback","Concrete","VC",1730992200181,"concrete",134,"abstract","concrete","abstract;concrete","A","Isidora",4.89783979995091,22
"223","611e64ad7ea7083dd09ce1dc","marriage","calibrator_conc_feedback","Concrete","VC",1730992201668,"concrete",629,"abstract","concrete","abstract;concrete","A","Isidora",6.44413125670044,23
"224","611e64ad7ea7083dd09ce1dc","whistle","calibrator_conc_feedback","Concrete","VC",1730992204820,"concrete",385,"abstract","concrete","abstract;concrete","A","Isidora",5.95324333428778,24
"225","611e64ad7ea7083dd09ce1dc","sugar","calibrator_conc_feedback","Concrete","VC",1730992209645,"concrete",149,"abstract","concrete","abstract;concrete","A","Isidora",5.00394630594546,25
"226","611e64ad7ea7083dd09ce1dc","gas","calibrator_conc_feedback","Concrete","VC",1730992212933,"concrete",474,"abstract","concrete","abstract;concrete","A","Isidora",6.16120732169508,26
"227","611e64ad7ea7083dd09ce1dc","grasshopper","calibrator_conc_feedback","Concrete","VC",1730992215733,"concrete",378,"abstract","concrete","abstract;concrete","A","Isidora",5.93489419561959,27
"228","611e64ad7ea7083dd09ce1dc","polite","calibrator_conc_feedback","Concrete","VC",1730992218973,"concrete",119,"abstract","concrete","abstract;concrete","A","Isidora",4.77912349311153,28
"229","611e64ad7ea7083dd09ce1dc","kick","calibrator_conc_feedback","Concrete","VC",1730992221701,"concrete",6,"abstract","concrete","abstract;concrete","A","Isidora",1.79175946922805,29
"230","611e64ad7ea7083dd09ce1dc","insecure","calibrator_conc_feedback","Concrete","VC",1730992224485,"concrete",52,"abstract","concrete","abstract;concrete","A","Isidora",3.95124371858143,30
"231","611e64ad7ea7083dd09ce1dc","gas","calibrator_conc_no_feedback","Concrete","VC",1730992225405,"concrete",48,"A","abstract;concrete","","","Isidora",3.87120101090789,31
"232","611e64ad7ea7083dd09ce1dc","theory","calibrator_conc_no_feedback","Concrete","VC",1730992226437,"concrete",271,"A","abstract;concrete","","","Isidora",5.6021188208797,32
"233","611e64ad7ea7083dd09ce1dc","polite","calibrator_conc_no_feedback","Concrete","VC",1730992227413,"concrete",212,"A","abstract;concrete","","","Isidora",5.35658627467201,33
"234","611e64ad7ea7083dd09ce1dc","shirt","calibrator_conc_no_feedback","Concrete","VC",1730992228301,"concrete",117,"A","abstract;concrete","","","Isidora",4.76217393479776,34
"235","611e64ad7ea7083dd09ce1dc","whistle","calibrator_conc_no_feedback","Concrete","VC",1730992229140,"concrete",77,"A","abstract;concrete","","","Isidora",4.34380542185368,35
"236","611e64ad7ea7083dd09ce1dc","kick","calibrator_conc_no_feedback","Concrete","VC",1730992230045,"concrete",151,"A","abstract;concrete","","","Isidora",5.01727983681492,36
"237","611e64ad7ea7083dd09ce1dc","insecure","calibrator_conc_no_feedback","Concrete","VC",1730992230932,"concrete",129,"A","abstract;concrete","","","Isidora",4.85981240436167,37
"238","611e64ad7ea7083dd09ce1dc","sugar","calibrator_conc_no_feedback","Concrete","VC",1730992231717,"concrete",27,"A","abstract;concrete","","","Isidora",3.29583686600433,38
"239","611e64ad7ea7083dd09ce1dc","marriage","calibrator_conc_no_feedback","Concrete","VC",1730992232893,"concrete",413,"A","abstract;concrete","","","Isidora",6.02344759296103,39
"240","611e64ad7ea7083dd09ce1dc","grasshopper","calibrator_conc_no_feedback","Concrete","VC",1730992233845,"concrete",191,"A","abstract;concrete","","","Isidora",5.25227342804663,40
"241","647fbfa8a2c006cbd09a7166","grin","calibrator_val_feedback","Valence","VC",1730991990240,"positive",1396,"negative","positive","negative;positive","A","Isidora",7.24136628332232,1
"242","647fbfa8a2c006cbd09a7166","invader","calibrator_val_feedback","Valence","VC",1730991994921,"negative",1915,"negative","positive","negative;positive","A","Isidora",7.55747290161475,2
"243","647fbfa8a2c006cbd09a7166","hat","calibrator_val_feedback","Valence","VC",1730991999592,"positive",1910,"negative","positive","negative;positive","A","Isidora",7.55485852104068,3
"244","647fbfa8a2c006cbd09a7166","industry","calibrator_val_feedback","Valence","VC",1730992004180,"positive",1825,"negative","positive","negative;positive","A","Isidora",7.50933526601659,4
"245","647fbfa8a2c006cbd09a7166","icebox","calibrator_val_feedback","Valence","VC",1730992008835,"negative",1892,"negative","positive","negative;positive","A","Isidora",7.54538974961182,5
"246","647fbfa8a2c006cbd09a7166","jail","calibrator_val_feedback","Valence","VC",1730992012404,"negative",802,"negative","positive","negative;positive","A","Isidora",6.68710860786651,6
"247","647fbfa8a2c006cbd09a7166","kitten","calibrator_val_feedback","Valence","VC",1730992016022,"positive",855,"negative","positive","negative;positive","A","Isidora",6.75110146893676,7
"248","647fbfa8a2c006cbd09a7166","joke","calibrator_val_feedback","Valence","VC",1730992019675,"positive",892,"negative","positive","negative;positive","A","Isidora",6.79346613258001,8
"249","647fbfa8a2c006cbd09a7166","free","calibrator_val_feedback","Valence","VC",1730992023362,"positive",929,"negative","positive","negative;positive","A","Isidora",6.83410873881384,9
"250","647fbfa8a2c006cbd09a7166","insecure","calibrator_val_feedback","Valence","VC",1730992027225,"negative",1103,"negative","positive","negative;positive","A","Isidora",7.0057890192535,10
"251","647fbfa8a2c006cbd09a7166","invader","calibrator_val_no_feedback","Valence","VC",1730992030835,"negative",849,"A","negative;positive","","","Isidora",6.74405918631135,11
"252","647fbfa8a2c006cbd09a7166","grin","calibrator_val_no_feedback","Valence","VC",1730992032527,"positive",935,"A","negative;positive","","","Isidora",6.84054652928869,12
"253","647fbfa8a2c006cbd09a7166","kitten","calibrator_val_no_feedback","Valence","VC",1730992034027,"positive",741,"A","negative;positive","","","Isidora",6.60800062529609,13
"254","647fbfa8a2c006cbd09a7166","icebox","calibrator_val_no_feedback","Valence","VC",1730992036531,"negative",1747,"A","negative;positive","","","Isidora",7.46565531013406,14
"255","647fbfa8a2c006cbd09a7166","insecure","calibrator_val_no_feedback","Valence","VC",1730992038574,"negative",1287,"A","negative;positive","","","Isidora",7.16006920759613,15
"256","647fbfa8a2c006cbd09a7166","jail","calibrator_val_no_feedback","Valence","VC",1730992040259,"negative",927,"A","negative;positive","","","Isidora",6.83195356556585,16
"257","647fbfa8a2c006cbd09a7166","free","calibrator_val_no_feedback","Valence","VC",1730992042648,"positive",1631,"A","negative;positive","","","Isidora",7.39694860262101,17
"258","647fbfa8a2c006cbd09a7166","hat","calibrator_val_no_feedback","Valence","VC",1730992044770,"positive",1367,"A","negative;positive","","","Isidora",7.22037383672395,18
"259","647fbfa8a2c006cbd09a7166","industry","calibrator_val_no_feedback","Valence","VC",1730992046454,"positive",924,"A","negative;positive","","","Isidora",6.82871207164168,19
"260","647fbfa8a2c006cbd09a7166","joke","calibrator_val_no_feedback","Valence","VC",1730992048391,"positive",1179,"A","negative;positive","","","Isidora",7.07242190053737,20
"261","647fbfa8a2c006cbd09a7166","theory","calibrator_conc_feedback","Concrete","VC",1730992335539,"abstract",2876,"abstract","concrete","abstract;concrete","A","Isidora",7.96415571884094,21
"262","647fbfa8a2c006cbd09a7166","kick","calibrator_conc_feedback","Concrete","VC",1730992341016,"concrete",4152,"abstract","concrete","abstract;concrete","A","Isidora",8.33134542484572,22
"263","647fbfa8a2c006cbd09a7166","whistle","calibrator_conc_feedback","Concrete","VC",1730992344816,"concrete",1040,"abstract","concrete","abstract;concrete","A","Isidora",6.94697599213542,23
"264","647fbfa8a2c006cbd09a7166","marriage","calibrator_conc_feedback","Concrete","VC",1730992350428,"abstract",2847,"abstract","concrete","abstract;concrete","A","Isidora",7.95402108727804,24
"265","647fbfa8a2c006cbd09a7166","sugar","calibrator_conc_feedback","Concrete","VC",1730992354505,"concrete",1317,"abstract","concrete","abstract;concrete","A","Isidora",7.18311170174328,25
"266","647fbfa8a2c006cbd09a7166","insecure","calibrator_conc_feedback","Concrete","VC",1730992359231,"abstract",1967,"abstract","concrete","abstract;concrete","A","Isidora",7.58426481838906,26
"267","647fbfa8a2c006cbd09a7166","grasshopper","calibrator_conc_feedback","Concrete","VC",1730992363220,"concrete",1229,"abstract","concrete","abstract;concrete","A","Isidora",7.11395610956603,27
"268","647fbfa8a2c006cbd09a7166","gas","calibrator_conc_feedback","Concrete","VC",1730992367119,"abstract",1134,"abstract","concrete","abstract;concrete","A","Isidora",7.0335064842877,28
"269","647fbfa8a2c006cbd09a7166","shirt","calibrator_conc_feedback","Concrete","VC",1730992370859,"concrete",984,"abstract","concrete","abstract;concrete","A","Isidora",6.89162589705225,29
"270","647fbfa8a2c006cbd09a7166","polite","calibrator_conc_feedback","Concrete","VC",1730992375344,"abstract",1728,"abstract","concrete","abstract;concrete","A","Isidora",7.454719949364,30
"271","647fbfa8a2c006cbd09a7166","whistle","calibrator_conc_no_feedback","Concrete","VC",1730992381003,"concrete",2896,"A","abstract;concrete","","","Isidora",7.97108575350561,31
"272","647fbfa8a2c006cbd09a7166","shirt","calibrator_conc_no_feedback","Concrete","VC",1730992382888,"concrete",1126,"A","abstract;concrete","","","Isidora",7.02642680869964,32
"273","647fbfa8a2c006cbd09a7166","sugar","calibrator_conc_no_feedback","Concrete","VC",1730992384443,"concrete",796,"A","abstract;concrete","","","Isidora",6.67959918584438,33
"274","647fbfa8a2c006cbd09a7166","gas","calibrator_conc_no_feedback","Concrete","VC",1730992386214,"abstract",1010,"A","abstract;concrete","","","Isidora",6.9177056098353,34
"275","647fbfa8a2c006cbd09a7166","theory","calibrator_conc_no_feedback","Concrete","VC",1730992388016,"abstract",1044,"A","abstract;concrete","","","Isidora",6.95081476844258,35
"276","647fbfa8a2c006cbd09a7166","polite","calibrator_conc_no_feedback","Concrete","VC",1730992389714,"abstract",943,"A","abstract;concrete","","","Isidora",6.84906628263346,36
"277","647fbfa8a2c006cbd09a7166","kick","calibrator_conc_no_feedback","Concrete","VC",1730992392009,"concrete",1537,"A","abstract;concrete","","","Isidora",7.3375877435386,37
"278","647fbfa8a2c006cbd09a7166","marriage","calibrator_conc_no_feedback","Concrete","VC",1730992397775,"concrete",5009,"A","abstract;concrete","","","Isidora",8.51899157335762,38
"279","647fbfa8a2c006cbd09a7166","grasshopper","calibrator_conc_no_feedback","Concrete","VC",1730992399871,"concrete",1336,"A","abstract;concrete","","","Isidora",7.19743535409659,39
"280","647fbfa8a2c006cbd09a7166","insecure","calibrator_conc_no_feedback","Concrete","VC",1730992401516,"abstract",887,"A","abstract;concrete","","","Isidora",6.78784498230958,40
"281","5afa5252672ea800010d97e6","icebox","calibrator_val_feedback","Valence","VC",1730991751186,"positive",1298,"negative","positive","negative;positive","A","Isidora",7.16857989726403,1
"282","5afa5252672ea800010d97e6","insecure","calibrator_val_feedback","Valence","VC",1730991755111,"negative",1167,"negative","positive","negative;positive","A","Isidora",7.06219163228656,2
"283","5afa5252672ea800010d97e6","free","calibrator_val_feedback","Valence","VC",1730991759019,"positive",1150,"negative","positive","negative;positive","A","Isidora",7.0475172213573,3
"284","5afa5252672ea800010d97e6","industry","calibrator_val_feedback","Valence","VC",1730991763142,"positive",1367,"negative","positive","negative;positive","A","Isidora",7.22037383672395,4
"285","5afa5252672ea800010d97e6","jail","calibrator_val_feedback","Valence","VC",1730991766876,"negative",969,"negative","positive","negative;positive","A","Isidora",6.87626461189077,5
"286","5afa5252672ea800010d97e6","joke","calibrator_val_feedback","Valence","VC",1730991770613,"positive",976,"negative","positive","negative;positive","A","Isidora",6.88346258641309,6
"287","5afa5252672ea800010d97e6","grin","calibrator_val_feedback","Valence","VC",1730991774175,"positive",795,"negative","positive","negative;positive","A","Isidora",6.67834211465433,7
"288","5afa5252672ea800010d97e6","invader","calibrator_val_feedback","Valence","VC",1730991778163,"negative",1229,"negative","positive","negative;positive","A","Isidora",7.11395610956603,8
"289","5afa5252672ea800010d97e6","kitten","calibrator_val_feedback","Valence","VC",1730991781731,"positive",808,"negative","positive","negative;positive","A","Isidora",6.69456205852109,9
"290","5afa5252672ea800010d97e6","hat","calibrator_val_feedback","Valence","VC",1730991785732,"positive",1237,"negative","positive","negative;positive","A","Isidora",7.12044437239249,10
"291","5afa5252672ea800010d97e6","icebox","calibrator_val_no_feedback","Valence","VC",1730991789480,"positive",987,"A","negative;positive","","","Isidora",6.89467003943348,11
"292","5afa5252672ea800010d97e6","hat","calibrator_val_no_feedback","Valence","VC",1730991791166,"positive",926,"A","negative;positive","","","Isidora",6.83087423464618,12
"293","5afa5252672ea800010d97e6","industry","calibrator_val_no_feedback","Valence","VC",1730991792999,"positive",1073,"A","negative;positive","","","Isidora",6.9782137426307,13
"294","5afa5252672ea800010d97e6","invader","calibrator_val_no_feedback","Valence","VC",1730991794424,"negative",667,"A","negative;positive","","","Isidora",6.50279004591562,14
"295","5afa5252672ea800010d97e6","joke","calibrator_val_no_feedback","Valence","VC",1730991795814,"positive",631,"A","negative;positive","","","Isidora",6.44730586254121,15
"296","5afa5252672ea800010d97e6","free","calibrator_val_no_feedback","Valence","VC",1730991797302,"positive",730,"A","negative;positive","","","Isidora",6.59304453414244,16
"297","5afa5252672ea800010d97e6","insecure","calibrator_val_no_feedback","Valence","VC",1730991798754,"negative",694,"A","negative;positive","","","Isidora",6.5424719605068,17
"298","5afa5252672ea800010d97e6","jail","calibrator_val_no_feedback","Valence","VC",1730991800105,"negative",599,"A","negative;positive","","","Isidora",6.39526159811545,18
"299","5afa5252672ea800010d97e6","kitten","calibrator_val_no_feedback","Valence","VC",1730991801590,"positive",727,"A","negative;positive","","","Isidora",6.58892647753352,19
"300","5afa5252672ea800010d97e6","grin","calibrator_val_no_feedback","Valence","VC",1730991803207,"positive",862,"A","negative;positive","","","Isidora",6.75925527066369,20
"301","5afa5252672ea800010d97e6","whistle","calibrator_conc_feedback","Concrete","VC",1730992020180,"concrete",1613,"abstract","concrete","abstract;concrete","A","Isidora",7.38585107812521,21
"302","5afa5252672ea800010d97e6","insecure","calibrator_conc_feedback","Concrete","VC",1730992025094,"abstract",2156,"abstract","concrete","abstract;concrete","A","Isidora",7.67600993202889,22
"303","5afa5252672ea800010d97e6","shirt","calibrator_conc_feedback","Concrete","VC",1730992028640,"concrete",786,"abstract","concrete","abstract;concrete","A","Isidora",6.66695679242921,23
"304","5afa5252672ea800010d97e6","gas","calibrator_conc_feedback","Concrete","VC",1730992032408,"concrete",1012,"abstract","concrete","abstract;concrete","A","Isidora",6.91968384984741,24
"305","5afa5252672ea800010d97e6","sugar","calibrator_conc_feedback","Concrete","VC",1730992035934,"concrete",764,"abstract","concrete","abstract;concrete","A","Isidora",6.63856778916652,25
"306","5afa5252672ea800010d97e6","theory","calibrator_conc_feedback","Concrete","VC",1730992039580,"abstract",888,"abstract","concrete","abstract;concrete","A","Isidora",6.78897174299217,26
"307","5afa5252672ea800010d97e6","grasshopper","calibrator_conc_feedback","Concrete","VC",1730992043292,"concrete",954,"abstract","concrete","abstract;concrete","A","Isidora",6.86066367144829,27
"308","5afa5252672ea800010d97e6","kick","calibrator_conc_feedback","Concrete","VC",1730992047580,"concrete",1529,"abstract","concrete","abstract;concrete","A","Isidora",7.33236920592906,28
"309","5afa5252672ea800010d97e6","polite","calibrator_conc_feedback","Concrete","VC",1730992051848,"concrete",1507,"abstract","concrete","abstract;concrete","A","Isidora",7.3178761986265,29
"310","5afa5252672ea800010d97e6","marriage","calibrator_conc_feedback","Concrete","VC",1730992055448,"concrete",842,"abstract","concrete","abstract;concrete","A","Isidora",6.73578001424233,30
"311","5afa5252672ea800010d97e6","whistle","calibrator_conc_no_feedback","Concrete","VC",1730992059112,"concrete",902,"A","abstract;concrete","","","Isidora",6.80461452006262,31
"312","5afa5252672ea800010d97e6","gas","calibrator_conc_no_feedback","Concrete","VC",1730992061127,"concrete",1258,"A","abstract;concrete","","","Isidora",7.13727843726039,32
"313","5afa5252672ea800010d97e6","grasshopper","calibrator_conc_no_feedback","Concrete","VC",1730992062577,"concrete",695,"A","abstract;concrete","","","Isidora",6.54391184556479,33
"314","5afa5252672ea800010d97e6","sugar","calibrator_conc_no_feedback","Concrete","VC",1730992064040,"concrete",707,"A","abstract;concrete","","","Isidora",6.56103066589657,34
"315","5afa5252672ea800010d97e6","marriage","calibrator_conc_no_feedback","Concrete","VC",1730992065527,"abstract",729,"A","abstract;concrete","","","Isidora",6.59167373200866,35
"316","5afa5252672ea800010d97e6","insecure","calibrator_conc_no_feedback","Concrete","VC",1730992067147,"abstract",859,"A","abstract;concrete","","","Isidora",6.75576892198425,36
"317","5afa5252672ea800010d97e6","kick","calibrator_conc_no_feedback","Concrete","VC",1730992068667,"concrete",762,"A","abstract;concrete","","","Isidora",6.63594655568665,37
"318","5afa5252672ea800010d97e6","shirt","calibrator_conc_no_feedback","Concrete","VC",1730992070141,"concrete",718,"A","abstract;concrete","","","Isidora",6.57646956904822,38
"319","5afa5252672ea800010d97e6","polite","calibrator_conc_no_feedback","Concrete","VC",1730992071912,"abstract",1017,"A","abstract;concrete","","","Isidora",6.92461239604856,39
"320","5afa5252672ea800010d97e6","theory","calibrator_conc_no_feedback","Concrete","VC",1730992073481,"abstract",813,"A","abstract;concrete","","","Isidora",6.70073110954781,40
"321","5d16badb7b0154001a282fdb","industry","calibrator_val_feedback","Valence","VC",1730986750703,"positive",2079,"positive","negative","positive;negative","B","Anouch",7.63964228785801,1
"322","5d16badb7b0154001a282fdb","free","calibrator_val_feedback","Valence","VC",1730986754582,"positive",1107,"positive","negative","positive;negative","B","Anouch",7.00940893270864,2
"323","5d16badb7b0154001a282fdb","kitten","calibrator_val_feedback","Valence","VC",1730986758399,"positive",1053,"positive","negative","positive;negative","B","Anouch",6.95939851213398,3
"324","5d16badb7b0154001a282fdb","grin","calibrator_val_feedback","Valence","VC",1730986762094,"negative",930,"positive","negative","positive;negative","B","Anouch",6.8351845861473,4
"325","5d16badb7b0154001a282fdb","jail","calibrator_val_feedback","Valence","VC",1730986765766,"negative",904,"positive","negative","positive;negative","B","Anouch",6.80682936039218,5
"326","5d16badb7b0154001a282fdb","invader","calibrator_val_feedback","Valence","VC",1730986769383,"negative",849,"positive","negative","positive;negative","B","Anouch",6.74405918631135,6
"327","5d16badb7b0154001a282fdb","hat","calibrator_val_feedback","Valence","VC",1730986772815,"positive",666,"positive","negative","positive;negative","B","Anouch",6.50128967054039,7
"328","5d16badb7b0154001a282fdb","insecure","calibrator_val_feedback","Valence","VC",1730986777454,"negative",1872,"positive","negative","positive;negative","B","Anouch",7.53476265703754,8
"329","5d16badb7b0154001a282fdb","joke","calibrator_val_feedback","Valence","VC",1730986781343,"positive",1119,"positive","negative","positive;negative","B","Anouch",7.02019070831193,9
"330","5d16badb7b0154001a282fdb","icebox","calibrator_val_feedback","Valence","VC",1730986785342,"positive",1230,"positive","negative","positive;negative","B","Anouch",7.11476944836646,10
"331","5d16badb7b0154001a282fdb","industry","calibrator_val_no_feedback","Valence","VC",1730986789047,"positive",939,"B","positive;negative","","","Anouch",6.84481547920826,11
"332","5d16badb7b0154001a282fdb","kitten","calibrator_val_no_feedback","Valence","VC",1730986790615,"positive",807,"B","positive;negative","","","Anouch",6.69332366826995,12
"333","5d16badb7b0154001a282fdb","hat","calibrator_val_no_feedback","Valence","VC",1730986792190,"positive",812,"B","positive;negative","","","Anouch",6.69950034016168,13
"334","5d16badb7b0154001a282fdb","insecure","calibrator_val_no_feedback","Valence","VC",1730986793630,"negative",683,"B","positive;negative","","","Anouch",6.52649485957079,14
"335","5d16badb7b0154001a282fdb","jail","calibrator_val_no_feedback","Valence","VC",1730986794982,"negative",587,"B","positive;negative","","","Anouch",6.3750248198281,15
"336","5d16badb7b0154001a282fdb","free","calibrator_val_no_feedback","Valence","VC",1730986796294,"positive",551,"B","positive;negative","","","Anouch",6.31173480915291,16
"337","5d16badb7b0154001a282fdb","joke","calibrator_val_no_feedback","Valence","VC",1730986797798,"positive",747,"B","positive;negative","","","Anouch",6.61606518513282,17
"338","5d16badb7b0154001a282fdb","icebox","calibrator_val_no_feedback","Valence","VC",1730986799278,"positive",717,"B","positive;negative","","","Anouch",6.57507584059962,18
"339","5d16badb7b0154001a282fdb","grin","calibrator_val_no_feedback","Valence","VC",1730986800678,"negative",635,"B","positive;negative","","","Anouch",6.45362499889269,19
"340","5d16badb7b0154001a282fdb","invader","calibrator_val_no_feedback","Valence","VC",1730986802006,"negative",566,"B","positive;negative","","","Anouch",6.33859407820318,20
"341","5d16badb7b0154001a282fdb","shirt","calibrator_conc_feedback","Concrete","VC",1730987075774,"abstract",1141,"concrete","abstract","concrete;abstract","B","Anouch",7.03966034986208,21
"342","5d16badb7b0154001a282fdb","gas","calibrator_conc_feedback","Concrete","VC",1730987080183,"abstract",1640,"concrete","abstract","concrete;abstract","B","Anouch",7.40245152081824,22
"343","5d16badb7b0154001a282fdb","polite","calibrator_conc_feedback","Concrete","VC",1730987084367,"concrete",1416,"concrete","abstract","concrete;abstract","B","Anouch",7.25559127425367,23
"344","5d16badb7b0154001a282fdb","insecure","calibrator_conc_feedback","Concrete","VC",1730987088670,"abstract",1537,"concrete","abstract","concrete;abstract","B","Anouch",7.3375877435386,24
"345","5d16badb7b0154001a282fdb","theory","calibrator_conc_feedback","Concrete","VC",1730987092502,"abstract",1070,"concrete","abstract","concrete;abstract","B","Anouch",6.97541392745595,25
"346","5d16badb7b0154001a282fdb","sugar","calibrator_conc_feedback","Concrete","VC",1730987096127,"concrete",860,"concrete","abstract","concrete;abstract","B","Anouch",6.75693238924755,26
"347","5d16badb7b0154001a282fdb","grasshopper","calibrator_conc_feedback","Concrete","VC",1730987099702,"concrete",809,"concrete","abstract","concrete;abstract","B","Anouch",6.69579891705849,27
"348","5d16badb7b0154001a282fdb","kick","calibrator_conc_feedback","Concrete","VC",1730987103351,"concrete",880,"concrete","abstract","concrete;abstract","B","Anouch",6.77992190747225,28
"349","5d16badb7b0154001a282fdb","whistle","calibrator_conc_feedback","Concrete","VC",1730987106927,"concrete",810,"concrete","abstract","concrete;abstract","B","Anouch",6.69703424766648,29
"350","5d16badb7b0154001a282fdb","marriage","calibrator_conc_feedback","Concrete","VC",1730987110654,"concrete",964,"concrete","abstract","concrete;abstract","B","Anouch",6.87109129461055,30
"351","5d16badb7b0154001a282fdb","shirt","calibrator_conc_no_feedback","Concrete","VC",1730987115062,"concrete",1639,"B","concrete;abstract","","","Anouch",7.40184157874383,31
"352","5d16badb7b0154001a282fdb","marriage","calibrator_conc_no_feedback","Concrete","VC",1730987116953,"concrete",1127,"B","concrete;abstract","","","Anouch",7.02731451403978,32
"353","5d16badb7b0154001a282fdb","gas","calibrator_conc_no_feedback","Concrete","VC",1730987118582,"concrete",866,"B","concrete;abstract","","","Anouch",6.76388490856244,33
"354","5d16badb7b0154001a282fdb","whistle","calibrator_conc_no_feedback","Concrete","VC",1730987120014,"concrete",669,"B","concrete;abstract","","","Anouch",6.50578406012823,34
"355","5d16badb7b0154001a282fdb","insecure","calibrator_conc_no_feedback","Concrete","VC",1730987121757,"abstract",981,"B","concrete;abstract","","","Anouch",6.88857245956536,35
"356","5d16badb7b0154001a282fdb","polite","calibrator_conc_no_feedback","Concrete","VC",1730987123246,"abstract",732,"B","concrete;abstract","","","Anouch",6.59578051396131,36
"357","5d16badb7b0154001a282fdb","grasshopper","calibrator_conc_no_feedback","Concrete","VC",1730987124654,"concrete",646,"B","concrete;abstract","","","Anouch",6.4707995037826,37
"358","5d16badb7b0154001a282fdb","kick","calibrator_conc_no_feedback","Concrete","VC",1730987126214,"concrete",797,"B","concrete;abstract","","","Anouch",6.68085467879022,38
"359","5d16badb7b0154001a282fdb","sugar","calibrator_conc_no_feedback","Concrete","VC",1730987127599,"concrete",622,"B","concrete;abstract","","","Anouch",6.43294009273918,39
"360","5d16badb7b0154001a282fdb","theory","calibrator_conc_no_feedback","Concrete","VC",1730987129006,"abstract",644,"B","concrete;abstract","","","Anouch",6.46769872610435,40
"361","5f7d01280241ec1d52e200c1","kitten","calibrator_val_feedback","Valence","VC",1730995577720,"positive",896,"negative","positive","negative;positive","A","Brent",6.79794041297493,1
"362","5f7d01280241ec1d52e200c1","industry","calibrator_val_feedback","Valence","VC",1730995580101,"negative",1125,"negative","positive","negative;positive","A","Brent",7.02553831463852,2
"363","5f7d01280241ec1d52e200c1","hat","calibrator_val_feedback","Valence","VC",1730995583958,"positive",1095,"negative","positive","negative;positive","A","Brent",6.9985096422506,3
"364","5f7d01280241ec1d52e200c1","jail","calibrator_val_feedback","Valence","VC",1730995587611,"negative",893,"negative","positive","negative;positive","A","Brent",6.7945865808765,4
"365","5f7d01280241ec1d52e200c1","insecure","calibrator_val_feedback","Valence","VC",1730995591118,"negative",746,"negative","positive","negative;positive","A","Brent",6.61472560020376,5
"366","5f7d01280241ec1d52e200c1","icebox","calibrator_val_feedback","Valence","VC",1730995596097,"negative",2219,"negative","positive","negative;positive","A","Brent",7.70481192293259,6
"367","5f7d01280241ec1d52e200c1","joke","calibrator_val_feedback","Valence","VC",1730995600416,"positive",1555,"negative","positive","negative;positive","A","Brent",7.34923082461333,7
"368","5f7d01280241ec1d52e200c1","invader","calibrator_val_feedback","Valence","VC",1730995604095,"negative",916,"negative","positive","negative;positive","A","Brent",6.82001636467413,8
"369","5f7d01280241ec1d52e200c1","grin","calibrator_val_feedback","Valence","VC",1730995607898,"positive",1044,"negative","positive","negative;positive","A","Brent",6.95081476844258,9
"370","5f7d01280241ec1d52e200c1","free","calibrator_val_feedback","Valence","VC",1730995611476,"positive",818,"negative","positive","negative;positive","A","Brent",6.70686233660275,10
"371","5f7d01280241ec1d52e200c1","icebox","calibrator_val_no_feedback","Valence","VC",1730995615632,"positive",1392,"A","negative;positive","","","Brent",7.23849684089437,11
"372","5f7d01280241ec1d52e200c1","invader","calibrator_val_no_feedback","Valence","VC",1730995617325,"negative",936,"A","negative;positive","","","Brent",6.84161547647759,12
"373","5f7d01280241ec1d52e200c1","kitten","calibrator_val_no_feedback","Valence","VC",1730995618786,"positive",704,"A","negative;positive","","","Brent",6.55677835615804,13
"374","5f7d01280241ec1d52e200c1","free","calibrator_val_no_feedback","Valence","VC",1730995620282,"positive",742,"A","negative;positive","","","Brent",6.60934924316738,14
"375","5f7d01280241ec1d52e200c1","hat","calibrator_val_no_feedback","Valence","VC",1730995621582,"positive",544,"A","negative;positive","","","Brent",6.29894924685594,15
"376","5f7d01280241ec1d52e200c1","insecure","calibrator_val_no_feedback","Valence","VC",1730995622904,"negative",567,"A","negative;positive","","","Brent",6.34035930372775,16
"377","5f7d01280241ec1d52e200c1","jail","calibrator_val_no_feedback","Valence","VC",1730995624419,"negative",757,"A","negative;positive","","","Brent",6.62936325343745,17
"378","5f7d01280241ec1d52e200c1","grin","calibrator_val_no_feedback","Valence","VC",1730995625765,"positive",589,"A","negative;positive","","","Brent",6.37842618365159,18
"379","5f7d01280241ec1d52e200c1","joke","calibrator_val_no_feedback","Valence","VC",1730995627209,"negative",689,"A","negative;positive","","","Brent",6.53524127101366,19
"380","5f7d01280241ec1d52e200c1","industry","calibrator_val_no_feedback","Valence","VC",1730995628612,"negative",645,"A","negative;positive","","","Brent",6.46925031679577,20
"381","5f7d01280241ec1d52e200c1","polite","calibrator_conc_feedback","Concrete","VC",1730996181290,"abstract",1451,"abstract","concrete","abstract;concrete","A","Brent",7.28000825288419,21
"382","5f7d01280241ec1d52e200c1","gas","calibrator_conc_feedback","Concrete","VC",1730996184923,"concrete",1651,"abstract","concrete","abstract;concrete","A","Brent",7.40913644392013,22
"383","5f7d01280241ec1d52e200c1","shirt","calibrator_conc_feedback","Concrete","VC",1730996188475,"concrete",798,"abstract","concrete","abstract;concrete","A","Brent",6.68210859744981,23
"384","5f7d01280241ec1d52e200c1","sugar","calibrator_conc_feedback","Concrete","VC",1730996192039,"concrete",805,"abstract","concrete","abstract;concrete","A","Brent",6.69084227741856,24
"385","5f7d01280241ec1d52e200c1","insecure","calibrator_conc_feedback","Concrete","VC",1730996195979,"abstract",1182,"abstract","concrete","abstract;concrete","A","Brent",7.07496319796604,25
"386","5f7d01280241ec1d52e200c1","kick","calibrator_conc_feedback","Concrete","VC",1730996199816,"concrete",1076,"abstract","concrete","abstract;concrete","A","Brent",6.98100574072173,26
"387","5f7d01280241ec1d52e200c1","marriage","calibrator_conc_feedback","Concrete","VC",1730996203308,"concrete",730,"abstract","concrete","abstract;concrete","A","Brent",6.59304453414244,27
"388","5f7d01280241ec1d52e200c1","grasshopper","calibrator_conc_feedback","Concrete","VC",1730996206868,"concrete",800,"abstract","concrete","abstract;concrete","A","Brent",6.68461172766793,28
"389","5f7d01280241ec1d52e200c1","theory","calibrator_conc_feedback","Concrete","VC",1730996210811,"abstract",1189,"abstract","concrete","abstract;concrete","A","Brent",7.08086789669078,29
"390","5f7d01280241ec1d52e200c1","whistle","calibrator_conc_feedback","Concrete","VC",1730996215395,"concrete",1824,"abstract","concrete","abstract;concrete","A","Brent",7.50878717063428,30
"391","5f7d01280241ec1d52e200c1","insecure","calibrator_conc_no_feedback","Concrete","VC",1730996219197,"abstract",1044,"A","abstract;concrete","","","Brent",6.95081476844258,31
"392","5f7d01280241ec1d52e200c1","whistle","calibrator_conc_no_feedback","Concrete","VC",1730996221235,"concrete",1284,"A","abstract;concrete","","","Brent",7.15773548424991,32
"393","5f7d01280241ec1d52e200c1","kick","calibrator_conc_no_feedback","Concrete","VC",1730996222705,"concrete",712,"A","abstract;concrete","","","Brent",6.56807791141198,33
"394","5f7d01280241ec1d52e200c1","gas","calibrator_conc_no_feedback","Concrete","VC",1730996224211,"concrete",749,"A","abstract;concrete","","","Brent",6.61873898351722,34
"395","5f7d01280241ec1d52e200c1","marriage","calibrator_conc_no_feedback","Concrete","VC",1730996225910,"concrete",943,"A","abstract;concrete","","","Brent",6.84906628263346,35
"396","5f7d01280241ec1d52e200c1","grasshopper","calibrator_conc_no_feedback","Concrete","VC",1730996227367,"concrete",700,"A","abstract;concrete","","","Brent",6.5510803350434,36
"397","5f7d01280241ec1d52e200c1","theory","calibrator_conc_no_feedback","Concrete","VC",1730996228792,"abstract",670,"A","abstract;concrete","","","Brent",6.50727771238501,37
"398","5f7d01280241ec1d52e200c1","polite","calibrator_conc_no_feedback","Concrete","VC",1730996230317,"concrete",767,"A","abstract;concrete","","","Brent",6.64248680136726,38
"399","5f7d01280241ec1d52e200c1","sugar","calibrator_conc_no_feedback","Concrete","VC",1730996232205,"concrete",1130,"A","abstract;concrete","","","Brent",7.02997291170639,39
"400","5f7d01280241ec1d52e200c1","shirt","calibrator_conc_no_feedback","Concrete","VC",1730996233569,"concrete",605,"A","abstract;concrete","","","Brent",6.40522845803084,40
"401","5ed2f6cb0777090009f71d01","invader","calibrator_val_feedback","Valence","VC",1730986660339,"negative",2077,"negative","positive","negative;positive","A","Anouch",7.63867982387611,1
"402","5ed2f6cb0777090009f71d01","industry","calibrator_val_feedback","Valence","VC",1730986664458,"negative",2029,"negative","positive","negative;positive","A","Anouch",7.61529833982581,2
"403","5ed2f6cb0777090009f71d01","grin","calibrator_val_feedback","Valence","VC",1730986668251,"positive",1034,"negative","positive","negative;positive","A","Anouch",6.94119005506837,3
"404","5ed2f6cb0777090009f71d01","free","calibrator_val_feedback","Valence","VC",1730986671700,"positive",693,"negative","positive","negative;positive","A","Anouch",6.5410299991899,4
"405","5ed2f6cb0777090009f71d01","jail","calibrator_val_feedback","Valence","VC",1730986675051,"negative",594,"negative","positive","negative;positive","A","Anouch",6.38687931936265,5
"406","5ed2f6cb0777090009f71d01","icebox","calibrator_val_feedback","Valence","VC",1730986679764,"positive",1952,"negative","positive","negative;positive","A","Anouch",7.57660976697304,6
"407","5ed2f6cb0777090009f71d01","hat","calibrator_val_feedback","Valence","VC",1730986683188,"positive",666,"negative","positive","negative;positive","A","Anouch",6.50128967054039,7
"408","5ed2f6cb0777090009f71d01","kitten","calibrator_val_feedback","Valence","VC",1730986686900,"positive",952,"negative","positive","negative;positive","A","Anouch",6.85856503479136,8
"409","5ed2f6cb0777090009f71d01","joke","calibrator_val_feedback","Valence","VC",1730986690452,"positive",796,"negative","positive","negative;positive","A","Anouch",6.67959918584438,9
"410","5ed2f6cb0777090009f71d01","insecure","calibrator_val_feedback","Valence","VC",1730986694035,"negative",824,"negative","positive","negative;positive","A","Anouch",6.71417052990947,10
"411","5ed2f6cb0777090009f71d01","free","calibrator_val_no_feedback","Valence","VC",1730986697668,"positive",870,"A","negative;positive","","","Anouch",6.76849321164863,11
"412","5ed2f6cb0777090009f71d01","industry","calibrator_val_no_feedback","Valence","VC",1730986700459,"positive",2037,"A","negative;positive","","","Anouch",7.61923341622681,12
"413","5ed2f6cb0777090009f71d01","grin","calibrator_val_no_feedback","Valence","VC",1730986701924,"positive",710,"A","negative;positive","","","Anouch",6.56526497003536,13
"414","5ed2f6cb0777090009f71d01","invader","calibrator_val_no_feedback","Valence","VC",1730986703379,"negative",696,"A","negative;positive","","","Anouch",6.54534966033442,14
"415","5ed2f6cb0777090009f71d01","hat","calibrator_val_no_feedback","Valence","VC",1730986705092,"positive",958,"A","negative;positive","","","Anouch",6.86484777797086,15
"416","5ed2f6cb0777090009f71d01","jail","calibrator_val_no_feedback","Valence","VC",1730986706444,"negative",596,"A","negative;positive","","","Anouch",6.39024066706535,16
"417","5ed2f6cb0777090009f71d01","joke","calibrator_val_no_feedback","Valence","VC",1730986707940,"positive",741,"A","negative;positive","","","Anouch",6.60800062529609,17
"418","5ed2f6cb0777090009f71d01","icebox","calibrator_val_no_feedback","Valence","VC",1730986709644,"positive",945,"A","negative;positive","","","Anouch",6.85118492749374,18
"419","5ed2f6cb0777090009f71d01","insecure","calibrator_val_no_feedback","Valence","VC",1730986711084,"negative",687,"A","negative;positive","","","Anouch",6.53233429222235,19
"420","5ed2f6cb0777090009f71d01","kitten","calibrator_val_no_feedback","Valence","VC",1730986712428,"positive",588,"A","negative;positive","","","Anouch",6.37672694789863,20
"421","5ed2f6cb0777090009f71d01","grasshopper","calibrator_conc_feedback","Concrete","VC",1730986961428,"concrete",2491,"abstract","concrete","abstract;concrete","A","Anouch",7.82043951526218,21
"422","5ed2f6cb0777090009f71d01","gas","calibrator_conc_feedback","Concrete","VC",1730986964924,"concrete",733,"abstract","concrete","abstract;concrete","A","Anouch",6.59714570188665,22
"423","5ed2f6cb0777090009f71d01","theory","calibrator_conc_feedback","Concrete","VC",1730986968291,"abstract",614,"abstract","concrete","abstract;concrete","A","Anouch",6.41999492814714,23
"424","5ed2f6cb0777090009f71d01","kick","calibrator_conc_feedback","Concrete","VC",1730986971867,"concrete",819,"abstract","concrete","abstract;concrete","A","Anouch",6.70808408385307,24
"425","5ed2f6cb0777090009f71d01","sugar","calibrator_conc_feedback","Concrete","VC",1730986975267,"concrete",641,"abstract","concrete","abstract;concrete","A","Anouch",6.46302945692067,25
"426","5ed2f6cb0777090009f71d01","whistle","calibrator_conc_feedback","Concrete","VC",1730986979195,"concrete",1166,"abstract","concrete","abstract;concrete","A","Anouch",7.06133436691044,26
"427","5ed2f6cb0777090009f71d01","insecure","calibrator_conc_feedback","Concrete","VC",1730986982979,"abstract",1025,"abstract","concrete","abstract;concrete","A","Anouch",6.93244789157251,27
"428","5ed2f6cb0777090009f71d01","shirt","calibrator_conc_feedback","Concrete","VC",1730986986275,"concrete",539,"abstract","concrete","abstract;concrete","A","Anouch",6.289715570909,28
"429","5ed2f6cb0777090009f71d01","marriage","calibrator_conc_feedback","Concrete","VC",1730986990011,"concrete",982,"abstract","concrete","abstract;concrete","A","Anouch",6.88959130835447,29
"430","5ed2f6cb0777090009f71d01","polite","calibrator_conc_feedback","Concrete","VC",1730986993963,"abstract",1193,"abstract","concrete","abstract;concrete","A","Anouch",7.08422642209792,30
"431","5ed2f6cb0777090009f71d01","insecure","calibrator_conc_no_feedback","Concrete","VC",1730986997987,"abstract",1271,"A","abstract;concrete","","","Anouch",7.14755927118945,31
"432","5ed2f6cb0777090009f71d01","theory","calibrator_conc_no_feedback","Concrete","VC",1730987000067,"abstract",1321,"A","abstract;concrete","","","Anouch",7.18614430452233,32
"433","5ed2f6cb0777090009f71d01","grasshopper","calibrator_conc_no_feedback","Concrete","VC",1730987001547,"concrete",724,"A","abstract;concrete","","","Anouch",6.58479139238572,33
"434","5ed2f6cb0777090009f71d01","gas","calibrator_conc_no_feedback","Concrete","VC",1730987003347,"concrete",1043,"A","abstract;concrete","","","Anouch",6.94985645500077,34
"435","5ed2f6cb0777090009f71d01","whistle","calibrator_conc_no_feedback","Concrete","VC",1730987005019,"concrete",917,"A","abstract;concrete","","","Anouch",6.82110747225646,35
"436","5ed2f6cb0777090009f71d01","marriage","calibrator_conc_no_feedback","Concrete","VC",1730987006883,"concrete",1104,"A","abstract;concrete","","","Anouch",7.00669522683704,36
"437","5ed2f6cb0777090009f71d01","shirt","calibrator_conc_no_feedback","Concrete","VC",1730987008210,"concrete",570,"A","abstract;concrete","","","Anouch",6.3456363608286,37
"438","5ed2f6cb0777090009f71d01","kick","calibrator_conc_no_feedback","Concrete","VC",1730987009906,"concrete",938,"A","abstract;concrete","","","Anouch",6.84374994900622,38
"439","5ed2f6cb0777090009f71d01","polite","calibrator_conc_no_feedback","Concrete","VC",1730987011515,"abstract",852,"A","abstract;concrete","","","Anouch",6.74758652682932,39
"440","5ed2f6cb0777090009f71d01","sugar","calibrator_conc_no_feedback","Concrete","VC",1730987012795,"concrete",525,"A","abstract;concrete","","","Anouch",6.26339826259162,40
"441","60fd2b7dcea367e25e07479a","shirt","calibrator_conc_feedback","Concrete","CV",1730481521546,"abstract",67301,"abstract","concrete","abstract;concrete","A","Isidora",11.1169303743634,1
"442","60fd2b7dcea367e25e07479a","kick","calibrator_conc_feedback","Concrete","CV",1730481528466,"concrete",4140,"abstract","concrete","abstract;concrete","A","Isidora",8.32845106681936,2
"443","60fd2b7dcea367e25e07479a","marriage","calibrator_conc_feedback","Concrete","CV",1730481558435,"abstract",27175,"abstract","concrete","abstract;concrete","A","Isidora",10.2100527119894,3
"444","60fd2b7dcea367e25e07479a","insecure","calibrator_conc_feedback","Concrete","CV",1730481564722,"abstract",3501,"abstract","concrete","abstract;concrete","A","Isidora",8.16080392095467,4
"445","60fd2b7dcea367e25e07479a","theory","calibrator_conc_feedback","Concrete","CV",1730481580378,"abstract",12864,"abstract","concrete","abstract;concrete","A","Isidora",9.46218799141875,5
"446","60fd2b7dcea367e25e07479a","grasshopper","calibrator_conc_feedback","Concrete","CV",1730481584110,"concrete",955,"abstract","concrete","abstract;concrete","A","Isidora",6.86171134048073,6
"447","60fd2b7dcea367e25e07479a","polite","calibrator_conc_feedback","Concrete","CV",1730481590653,"abstract",3752,"abstract","concrete","abstract;concrete","A","Isidora",8.23004431012611,7
"448","60fd2b7dcea367e25e07479a","sugar","calibrator_conc_feedback","Concrete","CV",1730481624334,"abstract",30896,"abstract","concrete","abstract;concrete","A","Isidora",10.3383820046683,8
"449","60fd2b7dcea367e25e07479a","gas","calibrator_conc_feedback","Concrete","CV",1730481630954,"concrete",3831,"abstract","concrete","abstract;concrete","A","Isidora",8.25088114470065,9
"450","60fd2b7dcea367e25e07479a","whistle","calibrator_conc_feedback","Concrete","CV",1730481637653,"abstract",3921,"abstract","concrete","abstract;concrete","A","Isidora",8.27410200229233,10
"451","60fd2b7dcea367e25e07479a","theory","calibrator_conc_no_feedback","Concrete","CV",1730481641978,"concrete",1535,"A","abstract;concrete","","","Isidora",7.3362856600213,11
"452","60fd2b7dcea367e25e07479a","shirt","calibrator_conc_no_feedback","Concrete","CV",1730481649729,"abstract",6979,"A","abstract;concrete","","","Isidora",8.85066091901715,12
"453","60fd2b7dcea367e25e07479a","sugar","calibrator_conc_no_feedback","Concrete","CV",1730481654253,"abstract",3760,"A","abstract;concrete","","","Isidora",8.23217423638394,13
"454","60fd2b7dcea367e25e07479a","kick","calibrator_conc_no_feedback","Concrete","CV",1730481656538,"concrete",1519,"A","abstract;concrete","","","Isidora",7.32580750259577,14
"455","60fd2b7dcea367e25e07479a","insecure","calibrator_conc_no_feedback","Concrete","CV",1730481767950,"abstract",110636,"A","abstract;concrete","","","Isidora",11.6140008123951,15
"456","60fd2b7dcea367e25e07479a","marriage","calibrator_conc_no_feedback","Concrete","CV",1730481787384,"abstract",18667,"A","abstract;concrete","","","Isidora",9.8345125380326,16
"457","60fd2b7dcea367e25e07479a","polite","calibrator_conc_no_feedback","Concrete","CV",1730481806029,"abstract",17866,"A","abstract;concrete","","","Isidora",9.79065474426178,17
"458","60fd2b7dcea367e25e07479a","gas","calibrator_conc_no_feedback","Concrete","CV",1730481809554,"concrete",2750,"A","abstract;concrete","","","Isidora",7.91935619066062,18
"459","60fd2b7dcea367e25e07479a","grasshopper","calibrator_conc_no_feedback","Concrete","CV",1730481812977,"concrete",2646,"A","abstract;concrete","","","Isidora",7.8808043446749,19
"460","60fd2b7dcea367e25e07479a","whistle","calibrator_conc_no_feedback","Concrete","CV",1730481816981,"abstract",3239,"A","abstract;concrete","","","Isidora",8.08301991917133,20
"461","60fd2b7dcea367e25e07479a","icebox","calibrator_val_feedback","Valence","CV",1730482295539,"positive",3203,"negative","positive","negative;positive","A","Isidora",8.07184314960916,21
"462","60fd2b7dcea367e25e07479a","invader","calibrator_val_feedback","Valence","CV",1730482302142,"negative",3823,"negative","positive","negative;positive","A","Isidora",8.24879073369641,22
"463","60fd2b7dcea367e25e07479a","jail","calibrator_val_feedback","Valence","CV",1730482307665,"negative",2731,"negative","positive","negative;positive","A","Isidora",7.91242312147371,23
"464","60fd2b7dcea367e25e07479a","insecure","calibrator_val_feedback","Valence","CV",1730482314694,"positive",4234,"negative","positive","negative;positive","A","Isidora",8.35090245169481,24
"465","60fd2b7dcea367e25e07479a","joke","calibrator_val_feedback","Valence","CV",1730482321639,"positive",4146,"negative","positive","negative;positive","A","Isidora",8.32989929299572,25
"466","60fd2b7dcea367e25e07479a","industry","calibrator_val_feedback","Valence","CV",1730482327426,"positive",2988,"negative","positive","negative;positive","A","Isidora",8.00235954625271,26
"467","60fd2b7dcea367e25e07479a","grin","calibrator_val_feedback","Valence","CV",1730482333527,"negative",3306,"negative","positive","negative;positive","A","Isidora",8.10349427838097,27
"468","60fd2b7dcea367e25e07479a","kitten","calibrator_val_feedback","Valence","CV",1730482341332,"positive",5023,"negative","positive","negative;positive","A","Isidora",8.52178264375005,28
"469","60fd2b7dcea367e25e07479a","hat","calibrator_val_feedback","Valence","CV",1730482348822,"positive",4697,"negative","positive","negative;positive","A","Isidora",8.45467928602699,29
"470","60fd2b7dcea367e25e07479a","free","calibrator_val_feedback","Valence","CV",1730482353860,"positive",2249,"negative","positive","negative;positive","A","Isidora",7.71824095195932,30
"471","60fd2b7dcea367e25e07479a","icebox","calibrator_val_no_feedback","Valence","CV",1730482358460,"positive",1809,"A","negative;positive","","","Isidora",7.50052948539529,31
"472","60fd2b7dcea367e25e07479a","industry","calibrator_val_no_feedback","Valence","CV",1730482360332,"positive",1104,"A","negative;positive","","","Isidora",7.00669522683704,32
"473","60fd2b7dcea367e25e07479a","joke","calibrator_val_no_feedback","Valence","CV",1730482362575,"positive",1458,"A","negative;positive","","","Isidora",7.2848209125686,33
"474","60fd2b7dcea367e25e07479a","hat","calibrator_val_no_feedback","Valence","CV",1730482365678,"negative",2334,"A","negative;positive","","","Isidora",7.7553388128465,34
"475","60fd2b7dcea367e25e07479a","free","calibrator_val_no_feedback","Valence","CV",1730482370438,"negative",3970,"A","negative;positive","","","Isidora",8.28652137368124,35
"476","60fd2b7dcea367e25e07479a","insecure","calibrator_val_no_feedback","Valence","CV",1730482373819,"negative",2597,"A","negative;positive","","","Isidora",7.86211221166275,36
"477","60fd2b7dcea367e25e07479a","invader","calibrator_val_no_feedback","Valence","CV",1730482375749,"negative",1154,"A","negative;positive","","","Isidora",7.05098944706805,37
"478","60fd2b7dcea367e25e07479a","jail","calibrator_val_no_feedback","Valence","CV",1730482377430,"negative",903,"A","negative;positive","","","Isidora",6.80572255341699,38
"479","60fd2b7dcea367e25e07479a","grin","calibrator_val_no_feedback","Valence","CV",1730482380336,"positive",2135,"A","negative;positive","","","Isidora",7.66622192566273,39
"480","60fd2b7dcea367e25e07479a","kitten","calibrator_val_no_feedback","Valence","CV",1730482382855,"positive",1744,"A","negative;positive","","","Isidora",7.46393660446893,40
"481","59d0ec2446447f00011f0254","jail","calibrator_val_feedback","Valence","VC",1730996755329,"negative",1140,"negative","positive","negative;positive","A","Brent",7.03878354138854,1
"482","59d0ec2446447f00011f0254","insecure","calibrator_val_feedback","Valence","VC",1730996759169,"negative",1080,"negative","positive","negative;positive","A","Brent",6.98471632011827,2
"483","59d0ec2446447f00011f0254","icebox","calibrator_val_feedback","Valence","VC",1730996763201,"positive",1274,"negative","positive","negative;positive","A","Brent",7.14991683613211,3
"484","59d0ec2446447f00011f0254","industry","calibrator_val_feedback","Valence","VC",1730996767129,"positive",1168,"negative","positive","negative;positive","A","Brent",7.06304816338817,4
"485","59d0ec2446447f00011f0254","kitten","calibrator_val_feedback","Valence","VC",1730996771217,"positive",1330,"negative","positive","negative;positive","A","Brent",7.1929342212158,5
"486","59d0ec2446447f00011f0254","invader","calibrator_val_feedback","Valence","VC",1730996775161,"negative",1181,"negative","positive","negative;positive","A","Brent",7.07411681619736,6
"487","59d0ec2446447f00011f0254","hat","calibrator_val_feedback","Valence","VC",1730996779289,"positive",1363,"negative","positive","negative;positive","A","Brent",7.21744343169653,7
"488","59d0ec2446447f00011f0254","joke","calibrator_val_feedback","Valence","VC",1730996782953,"positive",905,"negative","positive","negative;positive","A","Brent",6.80793494369993,8
"489","59d0ec2446447f00011f0254","free","calibrator_val_feedback","Valence","VC",1730996786609,"positive",902,"negative","positive","negative;positive","A","Brent",6.80461452006262,9
"490","59d0ec2446447f00011f0254","grin","calibrator_val_feedback","Valence","VC",1730996790329,"positive",961,"negative","positive","negative;positive","A","Brent",6.86797440897029,10
"491","59d0ec2446447f00011f0254","hat","calibrator_val_no_feedback","Valence","VC",1730996793921,"positive",830,"A","negative;positive","","","Brent",6.72142570079064,11
"492","59d0ec2446447f00011f0254","free","calibrator_val_no_feedback","Valence","VC",1730996795297,"positive",619,"A","negative;positive","","","Brent",6.4281052726846,12
"493","59d0ec2446447f00011f0254","invader","calibrator_val_no_feedback","Valence","VC",1730996796953,"negative",899,"A","negative;positive","","","Brent",6.80128303447162,13
"494","59d0ec2446447f00011f0254","kitten","calibrator_val_no_feedback","Valence","VC",1730996798577,"positive",870,"A","negative;positive","","","Brent",6.76849321164863,14
"495","59d0ec2446447f00011f0254","insecure","calibrator_val_no_feedback","Valence","VC",1730996800497,"negative",1163,"A","negative;positive","","","Brent",7.05875815251866,15
"496","59d0ec2446447f00011f0254","jail","calibrator_val_no_feedback","Valence","VC",1730996802193,"negative",941,"A","negative;positive","","","Brent",6.84694313958538,16
"497","59d0ec2446447f00011f0254","joke","calibrator_val_no_feedback","Valence","VC",1730996803681,"positive",729,"A","negative;positive","","","Brent",6.59167373200866,17
"498","59d0ec2446447f00011f0254","icebox","calibrator_val_no_feedback","Valence","VC",1730996805393,"positive",951,"A","negative;positive","","","Brent",6.85751406254539,18
"499","59d0ec2446447f00011f0254","industry","calibrator_val_no_feedback","Valence","VC",1730996806961,"positive",816,"A","negative;positive","","","Brent",6.70441435496411,19
"500","59d0ec2446447f00011f0254","grin","calibrator_val_no_feedback","Valence","VC",1730996808305,"positive",589,"A","negative;positive","","","Brent",6.37842618365159,20
"501","59d0ec2446447f00011f0254","grasshopper","calibrator_conc_feedback","Concrete","VC",1730997107783,"concrete",1374,"abstract","concrete","abstract;concrete","A","Brent",7.22548147278229,21
"502","59d0ec2446447f00011f0254","polite","calibrator_conc_feedback","Concrete","VC",1730997111694,"abstract",1155,"abstract","concrete","abstract;concrete","A","Brent",7.05185562295589,22
"503","59d0ec2446447f00011f0254","gas","calibrator_conc_feedback","Concrete","VC",1730997115590,"concrete",1137,"abstract","concrete","abstract;concrete","A","Brent",7.03614849375054,23
"504","59d0ec2446447f00011f0254","insecure","calibrator_conc_feedback","Concrete","VC",1730997119079,"abstract",730,"abstract","concrete","abstract;concrete","A","Brent",6.59304453414244,24
"505","59d0ec2446447f00011f0254","marriage","calibrator_conc_feedback","Concrete","VC",1730997122798,"concrete",959,"abstract","concrete","abstract;concrete","A","Brent",6.86589107488344,25
"506","59d0ec2446447f00011f0254","kick","calibrator_conc_feedback","Concrete","VC",1730997126959,"abstract",1399,"abstract","concrete","abstract;concrete","A","Brent",7.24351297466548,26
"507","59d0ec2446447f00011f0254","whistle","calibrator_conc_feedback","Concrete","VC",1730997130541,"concrete",821,"abstract","concrete","abstract;concrete","A","Brent",6.71052310945243,27
"508","59d0ec2446447f00011f0254","shirt","calibrator_conc_feedback","Concrete","VC",1730997134078,"concrete",780,"abstract","concrete","abstract;concrete","A","Brent",6.65929391968364,28
"509","59d0ec2446447f00011f0254","sugar","calibrator_conc_feedback","Concrete","VC",1730997137709,"concrete",871,"abstract","concrete","abstract;concrete","A","Brent",6.7696419768525,29
"510","59d0ec2446447f00011f0254","theory","calibrator_conc_feedback","Concrete","VC",1730997141238,"abstract",769,"abstract","concrete","abstract;concrete","A","Brent",6.64509096950564,30
"511","59d0ec2446447f00011f0254","insecure","calibrator_conc_no_feedback","Concrete","VC",1730997145197,"abstract",1199,"A","abstract;concrete","","","Brent",7.08924315502751,31
"512","59d0ec2446447f00011f0254","marriage","calibrator_conc_no_feedback","Concrete","VC",1730997147118,"abstract",1165,"A","abstract;concrete","","","Brent",7.0604763659998,32
"513","59d0ec2446447f00011f0254","shirt","calibrator_conc_no_feedback","Concrete","VC",1730997148725,"concrete",847,"A","abstract;concrete","","","Brent",6.74170069465205,33
"514","59d0ec2446447f00011f0254","kick","calibrator_conc_no_feedback","Concrete","VC",1730997150773,"concrete",1295,"A","abstract;concrete","","","Brent",7.16626597413364,34
"515","59d0ec2446447f00011f0254","theory","calibrator_conc_no_feedback","Concrete","VC",1730997152310,"abstract",782,"A","abstract;concrete","","","Brent",6.66185474054531,35
"516","59d0ec2446447f00011f0254","gas","calibrator_conc_no_feedback","Concrete","VC",1730997153725,"concrete",657,"A","abstract;concrete","","","Brent",6.48768401848461,36
"517","59d0ec2446447f00011f0254","polite","calibrator_conc_no_feedback","Concrete","VC",1730997155517,"abstract",1039,"A","abstract;concrete","","","Brent",6.94601399109923,37
"518","59d0ec2446447f00011f0254","sugar","calibrator_conc_no_feedback","Concrete","VC",1730997156933,"concrete",657,"A","abstract;concrete","","","Brent",6.48768401848461,38
"519","59d0ec2446447f00011f0254","grasshopper","calibrator_conc_no_feedback","Concrete","VC",1730997158485,"concrete",797,"A","abstract;concrete","","","Brent",6.68085467879022,39
"520","59d0ec2446447f00011f0254","whistle","calibrator_conc_no_feedback","Concrete","VC",1730997160109,"concrete",871,"A","abstract;concrete","","","Brent",6.7696419768525,40
"521","5fbae54831099083583afff0","polite","calibrator_conc_feedback","Concrete","CV",1730481297509,"abstract",2949,"abstract","concrete","abstract;concrete","A","Isidora",7.98922140881528,1
"522","5fbae54831099083583afff0","kick","calibrator_conc_feedback","Concrete","CV",1730481302517,"concrete",2253,"abstract","concrete","abstract;concrete","A","Isidora",7.72001794043224,2
"523","5fbae54831099083583afff0","gas","calibrator_conc_feedback","Concrete","CV",1730481307204,"concrete",1927,"abstract","concrete","abstract;concrete","A","Isidora",7.56371966841437,3
"524","5fbae54831099083583afff0","whistle","calibrator_conc_feedback","Concrete","CV",1730481311020,"concrete",1058,"abstract","concrete","abstract;concrete","A","Isidora",6.96413561241824,4
"525","5fbae54831099083583afff0","shirt","calibrator_conc_feedback","Concrete","CV",1730481315149,"concrete",1368,"abstract","concrete","abstract;concrete","A","Isidora",7.2211050981825,5
"526","5fbae54831099083583afff0","grasshopper","calibrator_conc_feedback","Concrete","CV",1730481318860,"concrete",950,"abstract","concrete","abstract;concrete","A","Isidora",6.85646198459459,6
"527","5fbae54831099083583afff0","insecure","calibrator_conc_feedback","Concrete","CV",1730481322972,"abstract",1356,"abstract","concrete","abstract;concrete","A","Isidora",7.21229446850034,7
"528","5fbae54831099083583afff0","sugar","calibrator_conc_feedback","Concrete","CV",1730481326957,"concrete",1223,"abstract","concrete","abstract;concrete","A","Isidora",7.10906213568717,8
"529","5fbae54831099083583afff0","marriage","calibrator_conc_feedback","Concrete","CV",1730481331372,"concrete",1653,"abstract","concrete","abstract;concrete","A","Isidora",7.41034709782102,9
"530","5fbae54831099083583afff0","theory","calibrator_conc_feedback","Concrete","CV",1730481337005,"abstract",2869,"abstract","concrete","abstract;concrete","A","Isidora",7.96171881598136,10
"531","5fbae54831099083583afff0","polite","calibrator_conc_no_feedback","Concrete","CV",1730481340981,"abstract",1213,"A","abstract;concrete","","","Isidora",7.10085190894405,11
"532","5fbae54831099083583afff0","whistle","calibrator_conc_no_feedback","Concrete","CV",1730481342717,"concrete",978,"A","abstract;concrete","","","Isidora",6.88550967003482,12
"533","5fbae54831099083583afff0","theory","calibrator_conc_no_feedback","Concrete","CV",1730481346501,"abstract",3031,"A","abstract;concrete","","","Isidora",8.0166478770578,13
"534","5fbae54831099083583afff0","gas","calibrator_conc_no_feedback","Concrete","CV",1730481348149,"concrete",893,"A","abstract;concrete","","","Isidora",6.7945865808765,14
"535","5fbae54831099083583afff0","marriage","calibrator_conc_no_feedback","Concrete","CV",1730481352821,"concrete",3916,"A","abstract;concrete","","","Isidora",8.2728260036504,15
"536","5fbae54831099083583afff0","grasshopper","calibrator_conc_no_feedback","Concrete","CV",1730481354597,"concrete",1015,"A","abstract;concrete","","","Isidora",6.92264389147589,16
"537","5fbae54831099083583afff0","shirt","calibrator_conc_no_feedback","Concrete","CV",1730481356237,"concrete",883,"A","abstract;concrete","","","Isidora",6.78332520060396,17
"538","5fbae54831099083583afff0","kick","calibrator_conc_no_feedback","Concrete","CV",1730481358100,"concrete",1109,"A","abstract;concrete","","","Isidora",7.01121398735037,18
"539","5fbae54831099083583afff0","sugar","calibrator_conc_no_feedback","Concrete","CV",1730481359805,"concrete",947,"A","abstract;concrete","","","Isidora",6.85329909318608,19
"540","5fbae54831099083583afff0","insecure","calibrator_conc_no_feedback","Concrete","CV",1730481361332,"abstract",770,"A","abstract;concrete","","","Isidora",6.64639051484773,20
"541","5fbae54831099083583afff0","jail","calibrator_val_feedback","Valence","CV",1730481645962,"negative",3181,"negative","positive","negative;positive","A","Isidora",8.06495089174914,21
"542","5fbae54831099083583afff0","industry","calibrator_val_feedback","Valence","CV",1730481650074,"positive",1353,"negative","positive","negative;positive","A","Isidora",7.21007962817079,22
"543","5fbae54831099083583afff0","grin","calibrator_val_feedback","Valence","CV",1730481654186,"positive",1360,"negative","positive","negative;positive","A","Isidora",7.2152399787301,23
"544","5fbae54831099083583afff0","insecure","calibrator_val_feedback","Valence","CV",1730481658130,"negative",1188,"negative","positive","negative;positive","A","Isidora",7.08002649992259,24
"545","5fbae54831099083583afff0","free","calibrator_val_feedback","Valence","CV",1730481662122,"positive",1234,"negative","positive","negative;positive","A","Isidora",7.11801620446533,25
"546","5fbae54831099083583afff0","kitten","calibrator_val_feedback","Valence","CV",1730481665722,"positive",842,"negative","positive","negative;positive","A","Isidora",6.73578001424233,26
"547","5fbae54831099083583afff0","joke","calibrator_val_feedback","Valence","CV",1730481669266,"positive",783,"negative","positive","negative;positive","A","Isidora",6.6631326959908,27
"548","5fbae54831099083583afff0","icebox","calibrator_val_feedback","Valence","CV",1730481673434,"positive",1409,"negative","positive","negative;positive","A","Isidora",7.25063551189868,28
"549","5fbae54831099083583afff0","hat","calibrator_val_feedback","Valence","CV",1730481677250,"positive",1055,"negative","positive","negative;positive","A","Isidora",6.96129604591017,29
