#
# Results on Fri, 01 Nov 2024 13:58:51 GMT
# USER AGENT: Mozilla/5.0 (Windows NT 10.0; Win64; x64; rv:131.0) Gecko/20100101 Firefox/131.0
# Design number was non-random = 0
#
# Columns below this comment are as follows:
# 1. Results reception time.
# 2. MD5 hash of participant's IP address.
# 3. Controller name.
# 4. Order number of item.
# 5. Inner element number.
# 6. Label.
# 7. Latin Square Group.
# 8. PennElementType.
# 9. PennElementName.
# 10. Parameter.
# 11. Value.
# 12. EventTime.
# 13. Comments.
1730469531,794a4133ac06b619431debfb734fe0d3,PennController,1,0,welcome,NULL,PennController,0,_Trial_,Start,1730468422387,NULL
1730469531,794a4133ac06b619431debfb734fe0d3,PennController,1,0,welcome,NULL,PennController,0,_Header_,Start,1730468422387,NULL
1730469531,794a4133ac06b619431debfb734fe0d3,PennController,1,0,welcome,NULL,PennController,0,_Header_,End,1730468422649,NULL
1730469531,794a4133ac06b619431debfb734fe0d3,PennController,1,0,welcome,NULL,PennController,0,_Trial_,End,1730468429060,NULL
# 13. ID.
# 14. Comments.
1730469531,794a4133ac06b619431debfb734fe0d3,PennController,124,0,consent,NULL,PennController,2,_Trial_,Start,1730468429069,60f32eb8d0fa43b7850ae16b,NULL
1730469531,794a4133ac06b619431debfb734fe0d3,PennController,124,0,consent,NULL,PennController,2,_Header_,Start,1730468429069,60f32eb8d0fa43b7850ae16b,NULL
1730469531,794a4133ac06b619431debfb734fe0d3,PennController,124,0,consent,NULL,PennController,2,_Header_,End,1730468429330,60f32eb8d0fa43b7850ae16b,NULL
1730469531,794a4133ac06b619431debfb734fe0d3,PennController,124,0,consent,NULL,TextInput,ID,First,,1730468433581,60f32eb8d0fa43b7850ae16b,Control
1730469531,794a4133ac06b619431debfb734fe0d3,PennController,124,0,consent,NULL,TextInput,ID,Final,60f32eb8d0fa43b7850ae16b,1730468437570,60f32eb8d0fa43b7850ae16b,NULL
1730469531,794a4133ac06b619431debfb734fe0d3,PennController,124,0,consent,NULL,PennController,2,_Trial_,End,1730468437572,60f32eb8d0fa43b7850ae16b,NULL
# 13. Comments.
1730469531,794a4133ac06b619431debfb734fe0d3,PennController,126,0,instructions1_conc,NULL,PennController,4,_Trial_,Start,1730468437578,NULL
1730469531,794a4133ac06b619431debfb734fe0d3,PennController,126,0,instructions1_conc,NULL,PennController,4,_Header_,Start,1730468437578,NULL
1730469531,794a4133ac06b619431debfb734fe0d3,PennController,126,0,instructions1_conc,NULL,PennController,4,_Header_,End,1730468437836,NULL
1730469531,794a4133ac06b619431debfb734fe0d3,PennController,126,0,instructions1_conc,NULL,PennController,4,_Trial_,End,1730468594346,NULL
1730469531,794a4133ac06b619431debfb734fe0d3,PennController,127,0,instructions2_conc,NULL,PennController,5,_Trial_,Start,1730468594352,NULL
1730469531,794a4133ac06b619431debfb734fe0d3,PennController,127,0,instructions2_conc,NULL,PennController,5,_Header_,Start,1730468594352,NULL
1730469531,794a4133ac06b619431debfb734fe0d3,PennController,127,0,instructions2_conc,NULL,PennController,5,_Header_,End,1730468594615,NULL
1730469531,794a4133ac06b619431debfb734fe0d3,PennController,127,0,instructions2_conc,NULL,PennController,5,_Trial_,End,1730468602586,NULL
1730469531,794a4133ac06b619431debfb734fe0d3,PennController,134,0,instructions3_hands,NULL,PennController,12,_Trial_,Start,1730468602590,NULL
1730469531,794a4133ac06b619431debfb734fe0d3,PennController,134,0,instructions3_hands,NULL,PennController,12,_Header_,Start,1730468602590,NULL
1730469531,794a4133ac06b619431debfb734fe0d3,PennController,134,0,instructions3_hands,NULL,PennController,12,_Header_,End,1730468602842,NULL
1730469531,794a4133ac06b619431debfb734fe0d3,PennController,134,0,instructions3_hands,NULL,PennController,12,_Trial_,End,1730468609532,NULL
1730469531,794a4133ac06b619431debfb734fe0d3,PennController,129,0,practice_intro_conc,NULL,PennController,7,_Trial_,Start,1730468609534,NULL
1730469531,794a4133ac06b619431debfb734fe0d3,PennController,129,0,practice_intro_conc,NULL,PennController,7,_Header_,Start,1730468609534,NULL
1730469531,794a4133ac06b619431debfb734fe0d3,PennController,129,0,practice_intro_conc,NULL,PennController,7,_Header_,End,1730468609797,NULL
1730469531,794a4133ac06b619431debfb734fe0d3,PennController,129,0,practice_intro_conc,NULL,PennController,7,_Trial_,End,1730468611515,NULL
# 13. ID.
# 14. ReactionTime.
# 15. Word.
# 16. selectedKey.
# 17. selectedValue.
# 18. Key_value_F.
# 19. Key_value_J.
# 20. Group.
# 21. Comments.
1730469531,794a4133ac06b619431debfb734fe0d3,PennController,85,0,calibrator_conc_feedback,NULL,PennController,96,_Trial_,Start,1730468611517,undefined,1685,grasshopper,undefined,concrete,abstract,concrete,A,NULL
1730469531,794a4133ac06b619431debfb734fe0d3,PennController,85,0,calibrator_conc_feedback,NULL,PennController,96,_Header_,Start,1730468611517,undefined,1685,grasshopper,undefined,concrete,abstract,concrete,A,NULL
1730469531,794a4133ac06b619431debfb734fe0d3,PennController,85,0,calibrator_conc_feedback,NULL,PennController,96,_Header_,End,1730468611773,undefined,1685,grasshopper,undefined,concrete,abstract,concrete,A,NULL
1730469531,794a4133ac06b619431debfb734fe0d3,PennController,85,0,calibrator_conc_feedback,NULL,Selector,Selection,Selection,concrete,1730468614938,undefined,1685,grasshopper,undefined,concrete,abstract,concrete,A,abstract;concrete
1730469531,794a4133ac06b619431debfb734fe0d3,PennController,85,0,calibrator_conc_feedback,NULL,PennController,96,_Trial_,End,1730468615993,undefined,1685,grasshopper,undefined,concrete,abstract,concrete,A,NULL
1730469531,794a4133ac06b619431debfb734fe0d3,PennController,91,0,calibrator_conc_feedback,NULL,PennController,102,_Trial_,Start,1730468615995,undefined,1205,theory,undefined,concrete,abstract,concrete,A,NULL
1730469531,794a4133ac06b619431debfb734fe0d3,PennController,91,0,calibrator_conc_feedback,NULL,PennController,102,_Header_,Start,1730468615995,undefined,1205,theory,undefined,concrete,abstract,concrete,A,NULL
1730469531,794a4133ac06b619431debfb734fe0d3,PennController,91,0,calibrator_conc_feedback,NULL,PennController,102,_Header_,End,1730468616255,undefined,1205,theory,undefined,concrete,abstract,concrete,A,NULL
1730469531,794a4133ac06b619431debfb734fe0d3,PennController,91,0,calibrator_conc_feedback,NULL,Selector,Selection,Selection,abstract,1730468617976,undefined,1205,theory,undefined,concrete,abstract,concrete,A,abstract;concrete
1730469531,794a4133ac06b619431debfb734fe0d3,PennController,91,0,calibrator_conc_feedback,NULL,PennController,102,_Trial_,End,1730468619995,undefined,1205,theory,undefined,concrete,abstract,concrete,A,NULL
1730469531,794a4133ac06b619431debfb734fe0d3,PennController,90,0,calibrator_conc_feedback,NULL,PennController,101,_Trial_,Start,1730468619998,undefined,1209,sugar,undefined,concrete,abstract,concrete,A,NULL
1730469531,794a4133ac06b619431debfb734fe0d3,PennController,90,0,calibrator_conc_feedback,NULL,PennController,101,_Header_,Start,1730468619998,undefined,1209,sugar,undefined,concrete,abstract,concrete,A,NULL
1730469531,794a4133ac06b619431debfb734fe0d3,PennController,90,0,calibrator_conc_feedback,NULL,PennController,101,_Header_,End,1730468620257,undefined,1209,sugar,undefined,concrete,abstract,concrete,A,NULL
1730469531,794a4133ac06b619431debfb734fe0d3,PennController,90,0,calibrator_conc_feedback,NULL,Selector,Selection,Selection,concrete,1730468621978,undefined,1209,sugar,undefined,concrete,abstract,concrete,A,abstract;concrete
1730469531,794a4133ac06b619431debfb734fe0d3,PennController,90,0,calibrator_conc_feedback,NULL,PennController,101,_Trial_,End,1730468623987,undefined,1209,sugar,undefined,concrete,abstract,concrete,A,NULL
1730469531,794a4133ac06b619431debfb734fe0d3,PennController,93,0,calibrator_conc_feedback,NULL,PennController,104,_Trial_,Start,1730468623989,undefined,950,insecure,undefined,concrete,abstract,concrete,A,NULL
1730469531,794a4133ac06b619431debfb734fe0d3,PennController,93,0,calibrator_conc_feedback,NULL,PennController,104,_Header_,Start,1730468623989,undefined,950,insecure,undefined,concrete,abstract,concrete,A,NULL
1730469531,794a4133ac06b619431debfb734fe0d3,PennController,93,0,calibrator_conc_feedback,NULL,PennController,104,_Header_,End,1730468624250,undefined,950,insecure,undefined,concrete,abstract,concrete,A,NULL
1730469531,794a4133ac06b619431debfb734fe0d3,PennController,93,0,calibrator_conc_feedback,NULL,Selector,Selection,Selection,abstract,1730468625702,undefined,950,insecure,undefined,concrete,abstract,concrete,A,abstract;concrete
1730469531,794a4133ac06b619431debfb734fe0d3,PennController,93,0,calibrator_conc_feedback,NULL,PennController,104,_Trial_,End,1730468627705,undefined,950,insecure,undefined,concrete,abstract,concrete,A,NULL
1730469531,794a4133ac06b619431debfb734fe0d3,PennController,84,0,calibrator_conc_feedback,NULL,PennController,95,_Trial_,Start,1730468627709,undefined,991,gas,undefined,concrete,abstract,concrete,A,NULL
1730469531,794a4133ac06b619431debfb734fe0d3,PennController,84,0,calibrator_conc_feedback,NULL,PennController,95,_Header_,Start,1730468627709,undefined,991,gas,undefined,concrete,abstract,concrete,A,NULL
1730469531,794a4133ac06b619431debfb734fe0d3,PennController,84,0,calibrator_conc_feedback,NULL,PennController,95,_Header_,End,1730468627969,undefined,991,gas,undefined,concrete,abstract,concrete,A,NULL
1730469531,794a4133ac06b619431debfb734fe0d3,PennController,84,0,calibrator_conc_feedback,NULL,Selector,Selection,Selection,abstract,1730468629476,undefined,991,gas,undefined,concrete,abstract,concrete,A,abstract;concrete
1730469531,794a4133ac06b619431debfb734fe0d3,PennController,84,0,calibrator_conc_feedback,NULL,PennController,95,_Trial_,End,1730468631485,undefined,991,gas,undefined,concrete,abstract,concrete,A,NULL
1730469531,794a4133ac06b619431debfb734fe0d3,PennController,86,0,calibrator_conc_feedback,NULL,PennController,97,_Trial_,Start,1730468631488,undefined,1062,kick,undefined,concrete,abstract,concrete,A,NULL
1730469531,794a4133ac06b619431debfb734fe0d3,PennController,86,0,calibrator_conc_feedback,NULL,PennController,97,_Header_,Start,1730468631488,undefined,1062,kick,undefined,concrete,abstract,concrete,A,NULL
1730469531,794a4133ac06b619431debfb734fe0d3,PennController,86,0,calibrator_conc_feedback,NULL,PennController,97,_Header_,End,1730468631747,undefined,1062,kick,undefined,concrete,abstract,concrete,A,NULL
1730469531,794a4133ac06b619431debfb734fe0d3,PennController,86,0,calibrator_conc_feedback,NULL,Selector,Selection,Selection,concrete,1730468633312,undefined,1062,kick,undefined,concrete,abstract,concrete,A,abstract;concrete
1730469531,794a4133ac06b619431debfb734fe0d3,PennController,86,0,calibrator_conc_feedback,NULL,PennController,97,_Trial_,End,1730468635331,undefined,1062,kick,undefined,concrete,abstract,concrete,A,NULL
1730469531,794a4133ac06b619431debfb734fe0d3,PennController,89,0,calibrator_conc_feedback,NULL,PennController,100,_Trial_,Start,1730468635335,undefined,832,shirt,undefined,concrete,abstract,concrete,A,NULL
1730469531,794a4133ac06b619431debfb734fe0d3,PennController,89,0,calibrator_conc_feedback,NULL,PennController,100,_Header_,Start,1730468635335,undefined,832,shirt,undefined,concrete,abstract,concrete,A,NULL
1730469531,794a4133ac06b619431debfb734fe0d3,PennController,89,0,calibrator_conc_feedback,NULL,PennController,100,_Header_,End,1730468635594,undefined,832,shirt,undefined,concrete,abstract,concrete,A,NULL
1730469531,794a4133ac06b619431debfb734fe0d3,PennController,89,0,calibrator_conc_feedback,NULL,Selector,Selection,Selection,concrete,1730468636938,undefined,832,shirt,undefined,concrete,abstract,concrete,A,abstract;concrete
1730469531,794a4133ac06b619431debfb734fe0d3,PennController,89,0,calibrator_conc_feedback,NULL,PennController,100,_Trial_,End,1730468638947,undefined,832,shirt,undefined,concrete,abstract,concrete,A,NULL
1730469531,794a4133ac06b619431debfb734fe0d3,PennController,88,0,calibrator_conc_feedback,NULL,PennController,99,_Trial_,Start,1730468638949,undefined,2689,polite,undefined,concrete,abstract,concrete,A,NULL
1730469531,794a4133ac06b619431debfb734fe0d3,PennController,88,0,calibrator_conc_feedback,NULL,PennController,99,_Header_,Start,1730468638949,undefined,2689,polite,undefined,concrete,abstract,concrete,A,NULL
1730469531,794a4133ac06b619431debfb734fe0d3,PennController,88,0,calibrator_conc_feedback,NULL,PennController,99,_Header_,End,1730468639209,undefined,2689,polite,undefined,concrete,abstract,concrete,A,NULL
1730469531,794a4133ac06b619431debfb734fe0d3,PennController,88,0,calibrator_conc_feedback,NULL,Selector,Selection,Selection,abstract,1730468642413,undefined,2689,polite,undefined,concrete,abstract,concrete,A,abstract;concrete
1730469531,794a4133ac06b619431debfb734fe0d3,PennController,88,0,calibrator_conc_feedback,NULL,PennController,99,_Trial_,End,1730468644422,undefined,2689,polite,undefined,concrete,abstract,concrete,A,NULL
1730469531,794a4133ac06b619431debfb734fe0d3,PennController,87,0,calibrator_conc_feedback,NULL,PennController,98,_Trial_,Start,1730468644425,undefined,1874,marriage,undefined,concrete,abstract,concrete,A,NULL
1730469531,794a4133ac06b619431debfb734fe0d3,PennController,87,0,calibrator_conc_feedback,NULL,PennController,98,_Header_,Start,1730468644425,undefined,1874,marriage,undefined,concrete,abstract,concrete,A,NULL
1730469531,794a4133ac06b619431debfb734fe0d3,PennController,87,0,calibrator_conc_feedback,NULL,PennController,98,_Header_,End,1730468644683,undefined,1874,marriage,undefined,concrete,abstract,concrete,A,NULL
1730469531,794a4133ac06b619431debfb734fe0d3,PennController,87,0,calibrator_conc_feedback,NULL,Selector,Selection,Selection,abstract,1730468647075,undefined,1874,marriage,undefined,concrete,abstract,concrete,A,abstract;concrete
1730469531,794a4133ac06b619431debfb734fe0d3,PennController,87,0,calibrator_conc_feedback,NULL,PennController,98,_Trial_,End,1730468649080,undefined,1874,marriage,undefined,concrete,abstract,concrete,A,NULL
1730469531,794a4133ac06b619431debfb734fe0d3,PennController,92,0,calibrator_conc_feedback,NULL,PennController,103,_Trial_,Start,1730468649085,undefined,2181,whistle,undefined,concrete,abstract,concrete,A,NULL
1730469531,794a4133ac06b619431debfb734fe0d3,PennController,92,0,calibrator_conc_feedback,NULL,PennController,103,_Header_,Start,1730468649085,undefined,2181,whistle,undefined,concrete,abstract,concrete,A,NULL
1730469531,794a4133ac06b619431debfb734fe0d3,PennController,92,0,calibrator_conc_feedback,NULL,PennController,103,_Header_,End,1730468649343,undefined,2181,whistle,undefined,concrete,abstract,concrete,A,NULL
1730469531,794a4133ac06b619431debfb734fe0d3,PennController,92,0,calibrator_conc_feedback,NULL,Selector,Selection,Selection,abstract,1730468652042,undefined,2181,whistle,undefined,concrete,abstract,concrete,A,abstract;concrete
1730469531,794a4133ac06b619431debfb734fe0d3,PennController,92,0,calibrator_conc_feedback,NULL,PennController,103,_Trial_,End,1730468654054,undefined,2181,whistle,undefined,concrete,abstract,concrete,A,NULL
# 16. Key_value_F.
# 17. Key_value_J.
# 18. Group.
# 19. Comments.
1730469531,794a4133ac06b619431debfb734fe0d3,PennController,103,0,calibrator_conc_no_feedback,NULL,PennController,114,_Trial_,Start,1730468654058,undefined,1246,insecure,abstract,concrete,A,NULL
1730469531,794a4133ac06b619431debfb734fe0d3,PennController,103,0,calibrator_conc_no_feedback,NULL,PennController,114,_Header_,Start,1730468654058,undefined,1246,insecure,abstract,concrete,A,NULL
1730469531,794a4133ac06b619431debfb734fe0d3,PennController,103,0,calibrator_conc_no_feedback,NULL,PennController,114,_Header_,End,1730468654316,undefined,1246,insecure,abstract,concrete,A,NULL
1730469531,794a4133ac06b619431debfb734fe0d3,PennController,103,0,calibrator_conc_no_feedback,NULL,Selector,unnamed-Selector,Selection,abstract,1730468656074,undefined,1246,insecure,abstract,concrete,A,abstract;concrete
1730469531,794a4133ac06b619431debfb734fe0d3,PennController,103,0,calibrator_conc_no_feedback,NULL,PennController,114,_Trial_,End,1730468656075,undefined,1246,insecure,abstract,concrete,A,NULL
1730469531,794a4133ac06b619431debfb734fe0d3,PennController,101,0,calibrator_conc_no_feedback,NULL,PennController,112,_Trial_,Start,1730468656077,undefined,897,theory,abstract,concrete,A,NULL
1730469531,794a4133ac06b619431debfb734fe0d3,PennController,101,0,calibrator_conc_no_feedback,NULL,PennController,112,_Header_,Start,1730468656077,undefined,897,theory,abstract,concrete,A,NULL
1730469531,794a4133ac06b619431debfb734fe0d3,PennController,101,0,calibrator_conc_no_feedback,NULL,PennController,112,_Header_,End,1730468656336,undefined,897,theory,abstract,concrete,A,NULL
1730469531,794a4133ac06b619431debfb734fe0d3,PennController,101,0,calibrator_conc_no_feedback,NULL,Selector,unnamed-Selector,Selection,abstract,1730468657751,undefined,897,theory,abstract,concrete,A,abstract;concrete
1730469531,794a4133ac06b619431debfb734fe0d3,PennController,101,0,calibrator_conc_no_feedback,NULL,PennController,112,_Trial_,End,1730468657753,undefined,897,theory,abstract,concrete,A,NULL
1730469531,794a4133ac06b619431debfb734fe0d3,PennController,102,0,calibrator_conc_no_feedback,NULL,PennController,113,_Trial_,Start,1730468657755,undefined,17122,whistle,abstract,concrete,A,NULL
1730469531,794a4133ac06b619431debfb734fe0d3,PennController,102,0,calibrator_conc_no_feedback,NULL,PennController,113,_Header_,Start,1730468657755,undefined,17122,whistle,abstract,concrete,A,NULL
1730469531,794a4133ac06b619431debfb734fe0d3,PennController,102,0,calibrator_conc_no_feedback,NULL,PennController,113,_Header_,End,1730468658007,undefined,17122,whistle,abstract,concrete,A,NULL
1730469531,794a4133ac06b619431debfb734fe0d3,PennController,102,0,calibrator_conc_no_feedback,NULL,Selector,unnamed-Selector,Selection,abstract,1730468675632,undefined,17122,whistle,abstract,concrete,A,abstract;concrete
1730469531,794a4133ac06b619431debfb734fe0d3,PennController,102,0,calibrator_conc_no_feedback,NULL,PennController,113,_Trial_,End,1730468675633,undefined,17122,whistle,abstract,concrete,A,NULL
1730469531,794a4133ac06b619431debfb734fe0d3,PennController,98,0,calibrator_conc_no_feedback,NULL,PennController,109,_Trial_,Start,1730468675635,undefined,2304,polite,abstract,concrete,A,NULL
1730469531,794a4133ac06b619431debfb734fe0d3,PennController,98,0,calibrator_conc_no_feedback,NULL,PennController,109,_Header_,Start,1730468675635,undefined,2304,polite,abstract,concrete,A,NULL
1730469531,794a4133ac06b619431debfb734fe0d3,PennController,98,0,calibrator_conc_no_feedback,NULL,PennController,109,_Header_,End,1730468675896,undefined,2304,polite,abstract,concrete,A,NULL
1730469531,794a4133ac06b619431debfb734fe0d3,PennController,98,0,calibrator_conc_no_feedback,NULL,Selector,unnamed-Selector,Selection,abstract,1730468678714,undefined,2304,polite,abstract,concrete,A,abstract;concrete
1730469531,794a4133ac06b619431debfb734fe0d3,PennController,98,0,calibrator_conc_no_feedback,NULL,PennController,109,_Trial_,End,1730468678715,undefined,2304,polite,abstract,concrete,A,NULL
1730469531,794a4133ac06b619431debfb734fe0d3,PennController,96,0,calibrator_conc_no_feedback,NULL,PennController,107,_Trial_,Start,1730468678717,undefined,1189,kick,abstract,concrete,A,NULL
1730469531,794a4133ac06b619431debfb734fe0d3,PennController,96,0,calibrator_conc_no_feedback,NULL,PennController,107,_Header_,Start,1730468678717,undefined,1189,kick,abstract,concrete,A,NULL
1730469531,794a4133ac06b619431debfb734fe0d3,PennController,96,0,calibrator_conc_no_feedback,NULL,PennController,107,_Header_,End,1730468678975,undefined,1189,kick,abstract,concrete,A,NULL
1730469531,794a4133ac06b619431debfb734fe0d3,PennController,96,0,calibrator_conc_no_feedback,NULL,Selector,unnamed-Selector,Selection,concrete,1730468680679,undefined,1189,kick,abstract,concrete,A,abstract;concrete
1730469531,794a4133ac06b619431debfb734fe0d3,PennController,96,0,calibrator_conc_no_feedback,NULL,PennController,107,_Trial_,End,1730468680680,undefined,1189,kick,abstract,concrete,A,NULL
1730469531,794a4133ac06b619431debfb734fe0d3,PennController,100,0,calibrator_conc_no_feedback,NULL,PennController,111,_Trial_,Start,1730468680681,undefined,1097,sugar,abstract,concrete,A,NULL
1730469531,794a4133ac06b619431debfb734fe0d3,PennController,100,0,calibrator_conc_no_feedback,NULL,PennController,111,_Header_,Start,1730468680681,undefined,1097,sugar,abstract,concrete,A,NULL
1730469531,794a4133ac06b619431debfb734fe0d3,PennController,100,0,calibrator_conc_no_feedback,NULL,PennController,111,_Header_,End,1730468680945,undefined,1097,sugar,abstract,concrete,A,NULL
1730469531,794a4133ac06b619431debfb734fe0d3,PennController,100,0,calibrator_conc_no_feedback,NULL,Selector,unnamed-Selector,Selection,concrete,1730468682556,undefined,1097,sugar,abstract,concrete,A,abstract;concrete
1730469531,794a4133ac06b619431debfb734fe0d3,PennController,100,0,calibrator_conc_no_feedback,NULL,PennController,111,_Trial_,End,1730468682559,undefined,1097,sugar,abstract,concrete,A,NULL
1730469531,794a4133ac06b619431debfb734fe0d3,PennController,95,0,calibrator_conc_no_feedback,NULL,PennController,106,_Trial_,Start,1730468682560,undefined,1895,grasshopper,abstract,concrete,A,NULL
1730469531,794a4133ac06b619431debfb734fe0d3,PennController,95,0,calibrator_conc_no_feedback,NULL,PennController,106,_Header_,Start,1730468682560,undefined,1895,grasshopper,abstract,concrete,A,NULL
1730469531,794a4133ac06b619431debfb734fe0d3,PennController,95,0,calibrator_conc_no_feedback,NULL,PennController,106,_Header_,End,1730468682823,undefined,1895,grasshopper,abstract,concrete,A,NULL
1730469531,794a4133ac06b619431debfb734fe0d3,PennController,95,0,calibrator_conc_no_feedback,NULL,Selector,unnamed-Selector,Selection,concrete,1730468685221,undefined,1895,grasshopper,abstract,concrete,A,abstract;concrete
1730469531,794a4133ac06b619431debfb734fe0d3,PennController,95,0,calibrator_conc_no_feedback,NULL,PennController,106,_Trial_,End,1730468685223,undefined,1895,grasshopper,abstract,concrete,A,NULL
1730469531,794a4133ac06b619431debfb734fe0d3,PennController,94,0,calibrator_conc_no_feedback,NULL,PennController,105,_Trial_,Start,1730468685226,undefined,929,gas,abstract,concrete,A,NULL
1730469531,794a4133ac06b619431debfb734fe0d3,PennController,94,0,calibrator_conc_no_feedback,NULL,PennController,105,_Header_,Start,1730468685226,undefined,929,gas,abstract,concrete,A,NULL
1730469531,794a4133ac06b619431debfb734fe0d3,PennController,94,0,calibrator_conc_no_feedback,NULL,PennController,105,_Header_,End,1730468685487,undefined,929,gas,abstract,concrete,A,NULL
1730469531,794a4133ac06b619431debfb734fe0d3,PennController,94,0,calibrator_conc_no_feedback,NULL,Selector,unnamed-Selector,Selection,abstract,1730468686931,undefined,929,gas,abstract,concrete,A,abstract;concrete
1730469531,794a4133ac06b619431debfb734fe0d3,PennController,94,0,calibrator_conc_no_feedback,NULL,PennController,105,_Trial_,End,1730468686933,undefined,929,gas,abstract,concrete,A,NULL
1730469531,794a4133ac06b619431debfb734fe0d3,PennController,97,0,calibrator_conc_no_feedback,NULL,PennController,108,_Trial_,Start,1730468686934,undefined,1002,marriage,abstract,concrete,A,NULL
1730469531,794a4133ac06b619431debfb734fe0d3,PennController,97,0,calibrator_conc_no_feedback,NULL,PennController,108,_Header_,Start,1730468686934,undefined,1002,marriage,abstract,concrete,A,NULL
1730469531,794a4133ac06b619431debfb734fe0d3,PennController,97,0,calibrator_conc_no_feedback,NULL,PennController,108,_Header_,End,1730468687199,undefined,1002,marriage,abstract,concrete,A,NULL
1730469531,794a4133ac06b619431debfb734fe0d3,PennController,97,0,calibrator_conc_no_feedback,NULL,Selector,unnamed-Selector,Selection,abstract,1730468688715,undefined,1002,marriage,abstract,concrete,A,abstract;concrete
1730469531,794a4133ac06b619431debfb734fe0d3,PennController,97,0,calibrator_conc_no_feedback,NULL,PennController,108,_Trial_,End,1730468688716,undefined,1002,marriage,abstract,concrete,A,NULL
1730469531,794a4133ac06b619431debfb734fe0d3,PennController,99,0,calibrator_conc_no_feedback,NULL,PennController,110,_Trial_,Start,1730468688717,undefined,1023,shirt,abstract,concrete,A,NULL
1730469531,794a4133ac06b619431debfb734fe0d3,PennController,99,0,calibrator_conc_no_feedback,NULL,PennController,110,_Header_,Start,1730468688717,undefined,1023,shirt,abstract,concrete,A,NULL
1730469531,794a4133ac06b619431debfb734fe0d3,PennController,99,0,calibrator_conc_no_feedback,NULL,PennController,110,_Header_,End,1730468688979,undefined,1023,shirt,abstract,concrete,A,NULL
1730469531,794a4133ac06b619431debfb734fe0d3,PennController,99,0,calibrator_conc_no_feedback,NULL,Selector,unnamed-Selector,Selection,concrete,1730468690515,undefined,1023,shirt,abstract,concrete,A,abstract;concrete
1730469531,794a4133ac06b619431debfb734fe0d3,PennController,99,0,calibrator_conc_no_feedback,NULL,PennController,110,_Trial_,End,1730468690517,undefined,1023,shirt,abstract,concrete,A,NULL
# 13. Comments.
1730469531,794a4133ac06b619431debfb734fe0d3,PennController,130,0,endinstructions_conc,NULL,PennController,8,_Trial_,Start,1730468690518,NULL
1730469531,794a4133ac06b619431debfb734fe0d3,PennController,130,0,endinstructions_conc,NULL,PennController,8,_Header_,Start,1730468690518,NULL
1730469531,794a4133ac06b619431debfb734fe0d3,PennController,130,0,endinstructions_conc,NULL,PennController,8,_Header_,End,1730468690774,NULL
1730469531,794a4133ac06b619431debfb734fe0d3,PennController,130,0,endinstructions_conc,NULL,PennController,8,_Trial_,End,1730468694679,NULL
# 13. ID.
# 14. ReactionTime.
# 15. Word.
# 16. ConcValCombo.
# 17. Key_value_F.
# 18. Key_value_J.
# 19. Group.
# 20. Comments.
1730469531,794a4133ac06b619431debfb734fe0d3,PennController,14,0,test_conc,NULL,PennController,25,_Trial_,Start,1730468694682,undefined,969,destroy,concrete-negative,abstract,concrete,A,NULL
1730469531,794a4133ac06b619431debfb734fe0d3,PennController,14,0,test_conc,NULL,PennController,25,_Header_,Start,1730468694682,undefined,969,destroy,concrete-negative,abstract,concrete,A,NULL
1730469531,794a4133ac06b619431debfb734fe0d3,PennController,14,0,test_conc,NULL,PennController,25,_Header_,End,1730468694946,undefined,969,destroy,concrete-negative,abstract,concrete,A,NULL
1730469531,794a4133ac06b619431debfb734fe0d3,PennController,14,0,test_conc,NULL,Selector,unnamed-Selector,Selection,abstract,1730468696428,undefined,969,destroy,concrete-negative,abstract,concrete,A,abstract;concrete
1730469531,794a4133ac06b619431debfb734fe0d3,PennController,14,0,test_conc,NULL,PennController,25,_Trial_,End,1730468696430,undefined,969,destroy,concrete-negative,abstract,concrete,A,NULL
1730469531,794a4133ac06b619431debfb734fe0d3,PennController,10,0,test_conc,NULL,PennController,21,_Trial_,Start,1730468696431,undefined,765,improve,concrete-positive,abstract,concrete,A,NULL
1730469531,794a4133ac06b619431debfb734fe0d3,PennController,10,0,test_conc,NULL,PennController,21,_Header_,Start,1730468696431,undefined,765,improve,concrete-positive,abstract,concrete,A,NULL
1730469531,794a4133ac06b619431debfb734fe0d3,PennController,10,0,test_conc,NULL,PennController,21,_Header_,End,1730468696695,undefined,765,improve,concrete-positive,abstract,concrete,A,NULL
1730469531,794a4133ac06b619431debfb734fe0d3,PennController,10,0,test_conc,NULL,Selector,unnamed-Selector,Selection,abstract,1730468697974,undefined,765,improve,concrete-positive,abstract,concrete,A,abstract;concrete
1730469531,794a4133ac06b619431debfb734fe0d3,PennController,10,0,test_conc,NULL,PennController,21,_Trial_,End,1730468697975,undefined,765,improve,concrete-positive,abstract,concrete,A,NULL
1730469531,794a4133ac06b619431debfb734fe0d3,PennController,22,0,test_conc,NULL,PennController,33,_Trial_,Start,1730468697977,undefined,812,stab,concrete-negative,abstract,concrete,A,NULL
1730469531,794a4133ac06b619431debfb734fe0d3,PennController,22,0,test_conc,NULL,PennController,33,_Header_,Start,1730468697977,undefined,812,stab,concrete-negative,abstract,concrete,A,NULL
1730469531,794a4133ac06b619431debfb734fe0d3,PennController,22,0,test_conc,NULL,PennController,33,_Header_,End,1730468698228,undefined,812,stab,concrete-negative,abstract,concrete,A,NULL
1730469531,794a4133ac06b619431debfb734fe0d3,PennController,22,0,test_conc,NULL,Selector,unnamed-Selector,Selection,concrete,1730468699558,undefined,812,stab,concrete-negative,abstract,concrete,A,abstract;concrete
1730469531,794a4133ac06b619431debfb734fe0d3,PennController,22,0,test_conc,NULL,PennController,33,_Trial_,End,1730468699559,undefined,812,stab,concrete-negative,abstract,concrete,A,NULL
1730469531,794a4133ac06b619431debfb734fe0d3,PennController,28,0,test_conc,NULL,PennController,39,_Trial_,Start,1730468699560,undefined,900,respect,abstract-positive,abstract,concrete,A,NULL
1730469531,794a4133ac06b619431debfb734fe0d3,PennController,28,0,test_conc,NULL,PennController,39,_Header_,Start,1730468699560,undefined,900,respect,abstract-positive,abstract,concrete,A,NULL
1730469531,794a4133ac06b619431debfb734fe0d3,PennController,28,0,test_conc,NULL,PennController,39,_Header_,End,1730468699814,undefined,900,respect,abstract-positive,abstract,concrete,A,NULL
1730469531,794a4133ac06b619431debfb734fe0d3,PennController,28,0,test_conc,NULL,Selector,unnamed-Selector,Selection,abstract,1730468701231,undefined,900,respect,abstract-positive,abstract,concrete,A,abstract;concrete
1730469531,794a4133ac06b619431debfb734fe0d3,PennController,28,0,test_conc,NULL,PennController,39,_Trial_,End,1730468701233,undefined,900,respect,abstract-positive,abstract,concrete,A,NULL
1730469531,794a4133ac06b619431debfb734fe0d3,PennController,32,0,test_conc,NULL,PennController,43,_Trial_,Start,1730468701234,undefined,866,adore,abstract-positive,abstract,concrete,A,NULL
1730469531,794a4133ac06b619431debfb734fe0d3,PennController,32,0,test_conc,NULL,PennController,43,_Header_,Start,1730468701234,undefined,866,adore,abstract-positive,abstract,concrete,A,NULL
1730469531,794a4133ac06b619431debfb734fe0d3,PennController,32,0,test_conc,NULL,PennController,43,_Header_,End,1730468701499,undefined,866,adore,abstract-positive,abstract,concrete,A,NULL
1730469531,794a4133ac06b619431debfb734fe0d3,PennController,32,0,test_conc,NULL,Selector,unnamed-Selector,Selection,abstract,1730468702880,undefined,866,adore,abstract-positive,abstract,concrete,A,abstract;concrete
1730469531,794a4133ac06b619431debfb734fe0d3,PennController,32,0,test_conc,NULL,PennController,43,_Trial_,End,1730468702880,undefined,866,adore,abstract-positive,abstract,concrete,A,NULL
1730469531,794a4133ac06b619431debfb734fe0d3,PennController,16,0,test_conc,NULL,PennController,27,_Trial_,Start,1730468702882,undefined,1124,slaughter,concrete-negative,abstract,concrete,A,NULL
1730469531,794a4133ac06b619431debfb734fe0d3,PennController,16,0,test_conc,NULL,PennController,27,_Header_,Start,1730468702882,undefined,1124,slaughter,concrete-negative,abstract,concrete,A,NULL
1730469531,794a4133ac06b619431debfb734fe0d3,PennController,16,0,test_conc,NULL,PennController,27,_Header_,End,1730468703133,undefined,1124,slaughter,concrete-negative,abstract,concrete,A,NULL
1730469531,794a4133ac06b619431debfb734fe0d3,PennController,16,0,test_conc,NULL,Selector,unnamed-Selector,Selection,concrete,1730468704770,undefined,1124,slaughter,concrete-negative,abstract,concrete,A,abstract;concrete
1730469531,794a4133ac06b619431debfb734fe0d3,PennController,16,0,test_conc,NULL,PennController,27,_Trial_,End,1730468704771,undefined,1124,slaughter,concrete-negative,abstract,concrete,A,NULL
1730469531,794a4133ac06b619431debfb734fe0d3,PennController,11,0,test_conc,NULL,PennController,22,_Trial_,Start,1730468704773,undefined,899,embellish,concrete-positive,abstract,concrete,A,NULL
1730469531,794a4133ac06b619431debfb734fe0d3,PennController,11,0,test_conc,NULL,PennController,22,_Header_,Start,1730468704773,undefined,899,embellish,concrete-positive,abstract,concrete,A,NULL
1730469531,794a4133ac06b619431debfb734fe0d3,PennController,11,0,test_conc,NULL,PennController,22,_Header_,End,1730468705029,undefined,899,embellish,concrete-positive,abstract,concrete,A,NULL
1730469531,794a4133ac06b619431debfb734fe0d3,PennController,11,0,test_conc,NULL,Selector,unnamed-Selector,Selection,abstract,1730468706442,undefined,899,embellish,concrete-positive,abstract,concrete,A,abstract;concrete
1730469531,794a4133ac06b619431debfb734fe0d3,PennController,11,0,test_conc,NULL,PennController,22,_Trial_,End,1730468706444,undefined,899,embellish,concrete-positive,abstract,concrete,A,NULL
1730469531,794a4133ac06b619431debfb734fe0d3,PennController,8,0,test_conc,NULL,PennController,19,_Trial_,Start,1730468706446,undefined,895,repair,concrete-positive,abstract,concrete,A,NULL
1730469531,794a4133ac06b619431debfb734fe0d3,PennController,8,0,test_conc,NULL,PennController,19,_Header_,Start,1730468706446,undefined,895,repair,concrete-positive,abstract,concrete,A,NULL
1730469531,794a4133ac06b619431debfb734fe0d3,PennController,8,0,test_conc,NULL,PennController,19,_Header_,End,1730468706703,undefined,895,repair,concrete-positive,abstract,concrete,A,NULL
1730469531,794a4133ac06b619431debfb734fe0d3,PennController,8,0,test_conc,NULL,Selector,unnamed-Selector,Selection,abstract,1730468708111,undefined,895,repair,concrete-positive,abstract,concrete,A,abstract;concrete
1730469531,794a4133ac06b619431debfb734fe0d3,PennController,8,0,test_conc,NULL,PennController,19,_Trial_,End,1730468708114,undefined,895,repair,concrete-positive,abstract,concrete,A,NULL
1730469531,794a4133ac06b619431debfb734fe0d3,PennController,24,0,test_conc,NULL,PennController,35,_Trial_,Start,1730468708116,undefined,925,love,abstract-positive,abstract,concrete,A,NULL
1730469531,794a4133ac06b619431debfb734fe0d3,PennController,24,0,test_conc,NULL,PennController,35,_Header_,Start,1730468708116,undefined,925,love,abstract-positive,abstract,concrete,A,NULL
1730469531,794a4133ac06b619431debfb734fe0d3,PennController,24,0,test_conc,NULL,PennController,35,_Header_,End,1730468708371,undefined,925,love,abstract-positive,abstract,concrete,A,NULL
1730469531,794a4133ac06b619431debfb734fe0d3,PennController,24,0,test_conc,NULL,Selector,unnamed-Selector,Selection,abstract,1730468709808,undefined,925,love,abstract-positive,abstract,concrete,A,abstract;concrete
1730469531,794a4133ac06b619431debfb734fe0d3,PennController,24,0,test_conc,NULL,PennController,35,_Trial_,End,1730468709811,undefined,925,love,abstract-positive,abstract,concrete,A,NULL
1730469531,794a4133ac06b619431debfb734fe0d3,PennController,40,0,test_conc,NULL,PennController,51,_Trial_,Start,1730468709813,undefined,1066,abhor,abstract-negative,abstract,concrete,A,NULL
1730469531,794a4133ac06b619431debfb734fe0d3,PennController,40,0,test_conc,NULL,PennController,51,_Header_,Start,1730468709813,undefined,1066,abhor,abstract-negative,abstract,concrete,A,NULL
1730469531,794a4133ac06b619431debfb734fe0d3,PennController,40,0,test_conc,NULL,PennController,51,_Header_,End,1730468710073,undefined,1066,abhor,abstract-negative,abstract,concrete,A,NULL
1730469531,794a4133ac06b619431debfb734fe0d3,PennController,40,0,test_conc,NULL,Selector,unnamed-Selector,Selection,abstract,1730468711654,undefined,1066,abhor,abstract-negative,abstract,concrete,A,abstract;concrete
1730469531,794a4133ac06b619431debfb734fe0d3,PennController,40,0,test_conc,NULL,PennController,51,_Trial_,End,1730468711655,undefined,1066,abhor,abstract-negative,abstract,concrete,A,NULL
1730469531,794a4133ac06b619431debfb734fe0d3,PennController,31,0,test_conc,NULL,PennController,42,_Trial_,Start,1730468711657,undefined,1125,cherish,abstract-positive,abstract,concrete,A,NULL
1730469531,794a4133ac06b619431debfb734fe0d3,PennController,31,0,test_conc,NULL,PennController,42,_Header_,Start,1730468711657,undefined,1125,cherish,abstract-positive,abstract,concrete,A,NULL
1730469531,794a4133ac06b619431debfb734fe0d3,PennController,31,0,test_conc,NULL,PennController,42,_Header_,End,1730468711917,undefined,1125,cherish,abstract-positive,abstract,concrete,A,NULL
1730469531,794a4133ac06b619431debfb734fe0d3,PennController,31,0,test_conc,NULL,Selector,unnamed-Selector,Selection,abstract,1730468713557,undefined,1125,cherish,abstract-positive,abstract,concrete,A,abstract;concrete
1730469531,794a4133ac06b619431debfb734fe0d3,PennController,31,0,test_conc,NULL,PennController,42,_Trial_,End,1730468713559,undefined,1125,cherish,abstract-positive,abstract,concrete,A,NULL
1730469531,794a4133ac06b619431debfb734fe0d3,PennController,36,0,test_conc,NULL,PennController,47,_Trial_,Start,1730468713560,undefined,936,dislike,abstract-negative,abstract,concrete,A,NULL
1730469531,794a4133ac06b619431debfb734fe0d3,PennController,36,0,test_conc,NULL,PennController,47,_Header_,Start,1730468713560,undefined,936,dislike,abstract-negative,abstract,concrete,A,NULL
1730469531,794a4133ac06b619431debfb734fe0d3,PennController,36,0,test_conc,NULL,PennController,47,_Header_,End,1730468713816,undefined,936,dislike,abstract-negative,abstract,concrete,A,NULL
1730469531,794a4133ac06b619431debfb734fe0d3,PennController,36,0,test_conc,NULL,Selector,unnamed-Selector,Selection,abstract,1730468715263,undefined,936,dislike,abstract-negative,abstract,concrete,A,abstract;concrete
1730469531,794a4133ac06b619431debfb734fe0d3,PennController,36,0,test_conc,NULL,PennController,47,_Trial_,End,1730468715265,undefined,936,dislike,abstract-negative,abstract,concrete,A,NULL
1730469531,794a4133ac06b619431debfb734fe0d3,PennController,21,0,test_conc,NULL,PennController,32,_Trial_,Start,1730468715267,undefined,934,pollute,concrete-negative,abstract,concrete,A,NULL
1730469531,794a4133ac06b619431debfb734fe0d3,PennController,21,0,test_conc,NULL,PennController,32,_Header_,Start,1730468715267,undefined,934,pollute,concrete-negative,abstract,concrete,A,NULL
1730469531,794a4133ac06b619431debfb734fe0d3,PennController,21,0,test_conc,NULL,PennController,32,_Header_,End,1730468715528,undefined,934,pollute,concrete-negative,abstract,concrete,A,NULL
1730469531,794a4133ac06b619431debfb734fe0d3,PennController,21,0,test_conc,NULL,Selector,unnamed-Selector,Selection,abstract,1730468716970,undefined,934,pollute,concrete-negative,abstract,concrete,A,abstract;concrete
1730469531,794a4133ac06b619431debfb734fe0d3,PennController,21,0,test_conc,NULL,PennController,32,_Trial_,End,1730468716972,undefined,934,pollute,concrete-negative,abstract,concrete,A,NULL
1730469531,794a4133ac06b619431debfb734fe0d3,PennController,4,0,test_conc,NULL,PennController,15,_Trial_,Start,1730468716974,undefined,823,kiss,concrete-positive,abstract,concrete,A,NULL
1730469531,794a4133ac06b619431debfb734fe0d3,PennController,4,0,test_conc,NULL,PennController,15,_Header_,Start,1730468716974,undefined,823,kiss,concrete-positive,abstract,concrete,A,NULL
1730469531,794a4133ac06b619431debfb734fe0d3,PennController,4,0,test_conc,NULL,PennController,15,_Header_,End,1730468717224,undefined,823,kiss,concrete-positive,abstract,concrete,A,NULL
1730469531,794a4133ac06b619431debfb734fe0d3,PennController,4,0,test_conc,NULL,Selector,unnamed-Selector,Selection,concrete,1730468718558,undefined,823,kiss,concrete-positive,abstract,concrete,A,abstract;concrete
1730469531,794a4133ac06b619431debfb734fe0d3,PennController,4,0,test_conc,NULL,PennController,15,_Trial_,End,1730468718560,undefined,823,kiss,concrete-positive,abstract,concrete,A,NULL
1730469531,794a4133ac06b619431debfb734fe0d3,PennController,7,0,test_conc,NULL,PennController,18,_Trial_,Start,1730468718561,undefined,1295,build,concrete-positive,abstract,concrete,A,NULL
1730469531,794a4133ac06b619431debfb734fe0d3,PennController,7,0,test_conc,NULL,PennController,18,_Header_,Start,1730468718561,undefined,1295,build,concrete-positive,abstract,concrete,A,NULL
1730469531,794a4133ac06b619431debfb734fe0d3,PennController,7,0,test_conc,NULL,PennController,18,_Header_,End,1730468718824,undefined,1295,build,concrete-positive,abstract,concrete,A,NULL
1730469531,794a4133ac06b619431debfb734fe0d3,PennController,7,0,test_conc,NULL,Selector,unnamed-Selector,Selection,concrete,1730468720634,undefined,1295,build,concrete-positive,abstract,concrete,A,abstract;concrete
1730469531,794a4133ac06b619431debfb734fe0d3,PennController,7,0,test_conc,NULL,PennController,18,_Trial_,End,1730468720635,undefined,1295,build,concrete-positive,abstract,concrete,A,NULL
1730469531,794a4133ac06b619431debfb734fe0d3,PennController,13,0,test_conc,NULL,PennController,24,_Trial_,Start,1730468720636,undefined,932,adorn,concrete-positive,abstract,concrete,A,NULL
1730469531,794a4133ac06b619431debfb734fe0d3,PennController,13,0,test_conc,NULL,PennController,24,_Header_,Start,1730468720636,undefined,932,adorn,concrete-positive,abstract,concrete,A,NULL
1730469531,794a4133ac06b619431debfb734fe0d3,PennController,13,0,test_conc,NULL,PennController,24,_Header_,End,1730468720895,undefined,932,adorn,concrete-positive,abstract,concrete,A,NULL
1730469531,794a4133ac06b619431debfb734fe0d3,PennController,13,0,test_conc,NULL,Selector,unnamed-Selector,Selection,abstract,1730468722345,undefined,932,adorn,concrete-positive,abstract,concrete,A,abstract;concrete
1730469531,794a4133ac06b619431debfb734fe0d3,PennController,13,0,test_conc,NULL,PennController,24,_Trial_,End,1730468722346,undefined,932,adorn,concrete-positive,abstract,concrete,A,NULL
1730469531,794a4133ac06b619431debfb734fe0d3,PennController,6,0,test_conc,NULL,PennController,17,_Trial_,Start,1730468722348,undefined,1047,cuddle,concrete-positive,abstract,concrete,A,NULL
1730469531,794a4133ac06b619431debfb734fe0d3,PennController,6,0,test_conc,NULL,PennController,17,_Header_,Start,1730468722348,undefined,1047,cuddle,concrete-positive,abstract,concrete,A,NULL
1730469531,794a4133ac06b619431debfb734fe0d3,PennController,6,0,test_conc,NULL,PennController,17,_Header_,End,1730468722614,undefined,1047,cuddle,concrete-positive,abstract,concrete,A,NULL
1730469531,794a4133ac06b619431debfb734fe0d3,PennController,6,0,test_conc,NULL,Selector,unnamed-Selector,Selection,concrete,1730468724172,undefined,1047,cuddle,concrete-positive,abstract,concrete,A,abstract;concrete
1730469531,794a4133ac06b619431debfb734fe0d3,PennController,6,0,test_conc,NULL,PennController,17,_Trial_,End,1730468724174,undefined,1047,cuddle,concrete-positive,abstract,concrete,A,NULL
1730469531,794a4133ac06b619431debfb734fe0d3,PennController,41,0,test_conc,NULL,PennController,52,_Trial_,Start,1730468724174,undefined,1046,mourn,abstract-negative,abstract,concrete,A,NULL
1730469531,794a4133ac06b619431debfb734fe0d3,PennController,41,0,test_conc,NULL,PennController,52,_Header_,Start,1730468724174,undefined,1046,mourn,abstract-negative,abstract,concrete,A,NULL
1730469531,794a4133ac06b619431debfb734fe0d3,PennController,41,0,test_conc,NULL,PennController,52,_Header_,End,1730468724427,undefined,1046,mourn,abstract-negative,abstract,concrete,A,NULL
1730469531,794a4133ac06b619431debfb734fe0d3,PennController,41,0,test_conc,NULL,Selector,unnamed-Selector,Selection,abstract,1730468725987,undefined,1046,mourn,abstract-negative,abstract,concrete,A,abstract;concrete
1730469531,794a4133ac06b619431debfb734fe0d3,PennController,41,0,test_conc,NULL,PennController,52,_Trial_,End,1730468725989,undefined,1046,mourn,abstract-negative,abstract,concrete,A,NULL
1730469531,794a4133ac06b619431debfb734fe0d3,PennController,34,0,test_conc,NULL,PennController,45,_Trial_,Start,1730468725990,undefined,835,criticize,abstract-negative,abstract,concrete,A,NULL
1730469531,794a4133ac06b619431debfb734fe0d3,PennController,34,0,test_conc,NULL,PennController,45,_Header_,Start,1730468725990,undefined,835,criticize,abstract-negative,abstract,concrete,A,NULL
1730469531,794a4133ac06b619431debfb734fe0d3,PennController,34,0,test_conc,NULL,PennController,45,_Header_,End,1730468726246,undefined,835,criticize,abstract-negative,abstract,concrete,A,NULL
1730469531,794a4133ac06b619431debfb734fe0d3,PennController,34,0,test_conc,NULL,Selector,unnamed-Selector,Selection,abstract,1730468727596,undefined,835,criticize,abstract-negative,abstract,concrete,A,abstract;concrete
1730469531,794a4133ac06b619431debfb734fe0d3,PennController,34,0,test_conc,NULL,PennController,45,_Trial_,End,1730468727596,undefined,835,criticize,abstract-negative,abstract,concrete,A,NULL
1730469531,794a4133ac06b619431debfb734fe0d3,PennController,9,0,test_conc,NULL,PennController,20,_Trial_,Start,1730468727598,undefined,1145,decorate,concrete-positive,abstract,concrete,A,NULL
1730469531,794a4133ac06b619431debfb734fe0d3,PennController,9,0,test_conc,NULL,PennController,20,_Header_,Start,1730468727598,undefined,1145,decorate,concrete-positive,abstract,concrete,A,NULL
1730469531,794a4133ac06b619431debfb734fe0d3,PennController,9,0,test_conc,NULL,PennController,20,_Header_,End,1730468727850,undefined,1145,decorate,concrete-positive,abstract,concrete,A,NULL
1730469531,794a4133ac06b619431debfb734fe0d3,PennController,9,0,test_conc,NULL,Selector,unnamed-Selector,Selection,abstract,1730468729512,undefined,1145,decorate,concrete-positive,abstract,concrete,A,abstract;concrete
1730469531,794a4133ac06b619431debfb734fe0d3,PennController,9,0,test_conc,NULL,PennController,20,_Trial_,End,1730468729514,undefined,1145,decorate,concrete-positive,abstract,concrete,A,NULL
1730469531,794a4133ac06b619431debfb734fe0d3,PennController,18,0,test_conc,NULL,PennController,29,_Trial_,Start,1730468729515,undefined,818,kill,concrete-negative,abstract,concrete,A,NULL
1730469531,794a4133ac06b619431debfb734fe0d3,PennController,18,0,test_conc,NULL,PennController,29,_Header_,Start,1730468729515,undefined,818,kill,concrete-negative,abstract,concrete,A,NULL
1730469531,794a4133ac06b619431debfb734fe0d3,PennController,18,0,test_conc,NULL,PennController,29,_Header_,End,1730468729772,undefined,818,kill,concrete-negative,abstract,concrete,A,NULL
1730469531,794a4133ac06b619431debfb734fe0d3,PennController,18,0,test_conc,NULL,Selector,unnamed-Selector,Selection,concrete,1730468731105,undefined,818,kill,concrete-negative,abstract,concrete,A,abstract;concrete
1730469531,794a4133ac06b619431debfb734fe0d3,PennController,18,0,test_conc,NULL,PennController,29,_Trial_,End,1730468731106,undefined,818,kill,concrete-negative,abstract,concrete,A,NULL
1730469531,794a4133ac06b619431debfb734fe0d3,PennController,15,0,test_conc,NULL,PennController,26,_Trial_,Start,1730468731107,undefined,676,murder,concrete-negative,abstract,concrete,A,NULL
1730469531,794a4133ac06b619431debfb734fe0d3,PennController,15,0,test_conc,NULL,PennController,26,_Header_,Start,1730468731107,undefined,676,murder,concrete-negative,abstract,concrete,A,NULL
1730469531,794a4133ac06b619431debfb734fe0d3,PennController,15,0,test_conc,NULL,PennController,26,_Header_,End,1730468731364,undefined,676,murder,concrete-negative,abstract,concrete,A,NULL
1730469531,794a4133ac06b619431debfb734fe0d3,PennController,15,0,test_conc,NULL,Selector,unnamed-Selector,Selection,concrete,1730468732553,undefined,676,murder,concrete-negative,abstract,concrete,A,abstract;concrete
1730469531,794a4133ac06b619431debfb734fe0d3,PennController,15,0,test_conc,NULL,PennController,26,_Trial_,End,1730468732554,undefined,676,murder,concrete-negative,abstract,concrete,A,NULL
1730469531,794a4133ac06b619431debfb734fe0d3,PennController,19,0,test_conc,NULL,PennController,30,_Trial_,Start,1730468732556,undefined,1152,spit,concrete-negative,abstract,concrete,A,NULL
1730469531,794a4133ac06b619431debfb734fe0d3,PennController,19,0,test_conc,NULL,PennController,30,_Header_,Start,1730468732556,undefined,1152,spit,concrete-negative,abstract,concrete,A,NULL
1730469531,794a4133ac06b619431debfb734fe0d3,PennController,19,0,test_conc,NULL,PennController,30,_Header_,End,1730468732807,undefined,1152,spit,concrete-negative,abstract,concrete,A,NULL
1730469531,794a4133ac06b619431debfb734fe0d3,PennController,19,0,test_conc,NULL,Selector,unnamed-Selector,Selection,concrete,1730468734472,undefined,1152,spit,concrete-negative,abstract,concrete,A,abstract;concrete
1730469531,794a4133ac06b619431debfb734fe0d3,PennController,19,0,test_conc,NULL,PennController,30,_Trial_,End,1730468734474,undefined,1152,spit,concrete-negative,abstract,concrete,A,NULL
1730469531,794a4133ac06b619431debfb734fe0d3,PennController,35,0,test_conc,NULL,PennController,46,_Trial_,Start,1730468734476,undefined,836,hate,abstract-negative,abstract,concrete,A,NULL
1730469531,794a4133ac06b619431debfb734fe0d3,PennController,35,0,test_conc,NULL,PennController,46,_Header_,Start,1730468734476,undefined,836,hate,abstract-negative,abstract,concrete,A,NULL
1730469531,794a4133ac06b619431debfb734fe0d3,PennController,35,0,test_conc,NULL,PennController,46,_Header_,End,1730468734726,undefined,836,hate,abstract-negative,abstract,concrete,A,NULL
1730469531,794a4133ac06b619431debfb734fe0d3,PennController,35,0,test_conc,NULL,Selector,unnamed-Selector,Selection,abstract,1730468736069,undefined,836,hate,abstract-negative,abstract,concrete,A,abstract;concrete
1730469531,794a4133ac06b619431debfb734fe0d3,PennController,35,0,test_conc,NULL,PennController,46,_Trial_,End,1730468736070,undefined,836,hate,abstract-negative,abstract,concrete,A,NULL
1730469531,794a4133ac06b619431debfb734fe0d3,PennController,25,0,test_conc,NULL,PennController,36,_Trial_,Start,1730468736071,undefined,740,encourage,abstract-positive,abstract,concrete,A,NULL
1730469531,794a4133ac06b619431debfb734fe0d3,PennController,25,0,test_conc,NULL,PennController,36,_Header_,Start,1730468736071,undefined,740,encourage,abstract-positive,abstract,concrete,A,NULL
1730469531,794a4133ac06b619431debfb734fe0d3,PennController,25,0,test_conc,NULL,PennController,36,_Header_,End,1730468736328,undefined,740,encourage,abstract-positive,abstract,concrete,A,NULL
1730469531,794a4133ac06b619431debfb734fe0d3,PennController,25,0,test_conc,NULL,Selector,unnamed-Selector,Selection,abstract,1730468737582,undefined,740,encourage,abstract-positive,abstract,concrete,A,abstract;concrete
1730469531,794a4133ac06b619431debfb734fe0d3,PennController,25,0,test_conc,NULL,PennController,36,_Trial_,End,1730468737583,undefined,740,encourage,abstract-positive,abstract,concrete,A,NULL
1730469531,794a4133ac06b619431debfb734fe0d3,PennController,26,0,test_conc,NULL,PennController,37,_Trial_,Start,1730468737586,undefined,635,care,abstract-positive,abstract,concrete,A,NULL
1730469531,794a4133ac06b619431debfb734fe0d3,PennController,26,0,test_conc,NULL,PennController,37,_Header_,Start,1730468737586,undefined,635,care,abstract-positive,abstract,concrete,A,NULL
1730469531,794a4133ac06b619431debfb734fe0d3,PennController,26,0,test_conc,NULL,PennController,37,_Header_,End,1730468737848,undefined,635,care,abstract-positive,abstract,concrete,A,NULL
1730469531,794a4133ac06b619431debfb734fe0d3,PennController,26,0,test_conc,NULL,Selector,unnamed-Selector,Selection,abstract,1730468738998,undefined,635,care,abstract-positive,abstract,concrete,A,abstract;concrete
1730469531,794a4133ac06b619431debfb734fe0d3,PennController,26,0,test_conc,NULL,PennController,37,_Trial_,End,1730468738999,undefined,635,care,abstract-positive,abstract,concrete,A,NULL
1730469531,794a4133ac06b619431debfb734fe0d3,PennController,5,0,test_conc,NULL,PennController,16,_Trial_,Start,1730468739000,undefined,598,hug,concrete-positive,abstract,concrete,A,NULL
1730469531,794a4133ac06b619431debfb734fe0d3,PennController,5,0,test_conc,NULL,PennController,16,_Header_,Start,1730468739000,undefined,598,hug,concrete-positive,abstract,concrete,A,NULL
1730469531,794a4133ac06b619431debfb734fe0d3,PennController,5,0,test_conc,NULL,PennController,16,_Header_,End,1730468739264,undefined,598,hug,concrete-positive,abstract,concrete,A,NULL
1730469531,794a4133ac06b619431debfb734fe0d3,PennController,5,0,test_conc,NULL,Selector,unnamed-Selector,Selection,concrete,1730468740378,undefined,598,hug,concrete-positive,abstract,concrete,A,abstract;concrete
1730469531,794a4133ac06b619431debfb734fe0d3,PennController,5,0,test_conc,NULL,PennController,16,_Trial_,End,1730468740379,undefined,598,hug,concrete-positive,abstract,concrete,A,NULL
1730469531,794a4133ac06b619431debfb734fe0d3,PennController,30,0,test_conc,NULL,PennController,41,_Trial_,Start,1730468740380,undefined,737,admire,abstract-positive,abstract,concrete,A,NULL
1730469531,794a4133ac06b619431debfb734fe0d3,PennController,30,0,test_conc,NULL,PennController,41,_Header_,Start,1730468740380,undefined,737,admire,abstract-positive,abstract,concrete,A,NULL
1730469531,794a4133ac06b619431debfb734fe0d3,PennController,30,0,test_conc,NULL,PennController,41,_Header_,End,1730468740645,undefined,737,admire,abstract-positive,abstract,concrete,A,NULL
1730469531,794a4133ac06b619431debfb734fe0d3,PennController,30,0,test_conc,NULL,Selector,unnamed-Selector,Selection,abstract,1730468741893,undefined,737,admire,abstract-positive,abstract,concrete,A,abstract;concrete
1730469531,794a4133ac06b619431debfb734fe0d3,PennController,30,0,test_conc,NULL,PennController,41,_Trial_,End,1730468741896,undefined,737,admire,abstract-positive,abstract,concrete,A,NULL
1730469531,794a4133ac06b619431debfb734fe0d3,PennController,12,0,test_conc,NULL,PennController,23,_Trial_,Start,1730468741897,undefined,625,heal,concrete-positive,abstract,concrete,A,NULL
1730469531,794a4133ac06b619431debfb734fe0d3,PennController,12,0,test_conc,NULL,PennController,23,_Header_,Start,1730468741897,undefined,625,heal,concrete-positive,abstract,concrete,A,NULL
1730469531,794a4133ac06b619431debfb734fe0d3,PennController,12,0,test_conc,NULL,PennController,23,_Header_,End,1730468742154,undefined,625,heal,concrete-positive,abstract,concrete,A,NULL
1730469531,794a4133ac06b619431debfb734fe0d3,PennController,12,0,test_conc,NULL,Selector,unnamed-Selector,Selection,abstract,1730468743292,undefined,625,heal,concrete-positive,abstract,concrete,A,abstract;concrete
1730469531,794a4133ac06b619431debfb734fe0d3,PennController,12,0,test_conc,NULL,PennController,23,_Trial_,End,1730468743294,undefined,625,heal,concrete-positive,abstract,concrete,A,NULL
1730469531,794a4133ac06b619431debfb734fe0d3,PennController,17,0,test_conc,NULL,PennController,28,_Trial_,Start,1730468743296,undefined,1417,break,concrete-negative,abstract,concrete,A,NULL
1730469531,794a4133ac06b619431debfb734fe0d3,PennController,17,0,test_conc,NULL,PennController,28,_Header_,Start,1730468743296,undefined,1417,break,concrete-negative,abstract,concrete,A,NULL
1730469531,794a4133ac06b619431debfb734fe0d3,PennController,17,0,test_conc,NULL,PennController,28,_Header_,End,1730468743553,undefined,1417,break,concrete-negative,abstract,concrete,A,NULL
1730469531,794a4133ac06b619431debfb734fe0d3,PennController,17,0,test_conc,NULL,Selector,unnamed-Selector,Selection,abstract,1730468745482,undefined,1417,break,concrete-negative,abstract,concrete,A,abstract;concrete
1730469531,794a4133ac06b619431debfb734fe0d3,PennController,17,0,test_conc,NULL,PennController,28,_Trial_,End,1730468745484,undefined,1417,break,concrete-negative,abstract,concrete,A,NULL
1730469531,794a4133ac06b619431debfb734fe0d3,PennController,23,0,test_conc,NULL,PennController,34,_Trial_,Start,1730468745486,undefined,683,infect,concrete-negative,abstract,concrete,A,NULL
1730469531,794a4133ac06b619431debfb734fe0d3,PennController,23,0,test_conc,NULL,PennController,34,_Header_,Start,1730468745486,undefined,683,infect,concrete-negative,abstract,concrete,A,NULL
1730469531,794a4133ac06b619431debfb734fe0d3,PennController,23,0,test_conc,NULL,PennController,34,_Header_,End,1730468745742,undefined,683,infect,concrete-negative,abstract,concrete,A,NULL
1730469531,794a4133ac06b619431debfb734fe0d3,PennController,23,0,test_conc,NULL,Selector,unnamed-Selector,Selection,abstract,1730468746941,undefined,683,infect,concrete-negative,abstract,concrete,A,abstract;concrete
1730469531,794a4133ac06b619431debfb734fe0d3,PennController,23,0,test_conc,NULL,PennController,34,_Trial_,End,1730468746942,undefined,683,infect,concrete-negative,abstract,concrete,A,NULL
1730469531,794a4133ac06b619431debfb734fe0d3,PennController,29,0,test_conc,NULL,PennController,40,_Trial_,Start,1730468746943,undefined,623,praise,abstract-positive,abstract,concrete,A,NULL
1730469531,794a4133ac06b619431debfb734fe0d3,PennController,29,0,test_conc,NULL,PennController,40,_Header_,Start,1730468746943,undefined,623,praise,abstract-positive,abstract,concrete,A,NULL
1730469531,794a4133ac06b619431debfb734fe0d3,PennController,29,0,test_conc,NULL,PennController,40,_Header_,End,1730468747198,undefined,623,praise,abstract-positive,abstract,concrete,A,NULL
1730469531,794a4133ac06b619431debfb734fe0d3,PennController,29,0,test_conc,NULL,Selector,unnamed-Selector,Selection,abstract,1730468748335,undefined,623,praise,abstract-positive,abstract,concrete,A,abstract;concrete
1730469531,794a4133ac06b619431debfb734fe0d3,PennController,29,0,test_conc,NULL,PennController,40,_Trial_,End,1730468748337,undefined,623,praise,abstract-positive,abstract,concrete,A,NULL
1730469531,794a4133ac06b619431debfb734fe0d3,PennController,33,0,test_conc,NULL,PennController,44,_Trial_,Start,1730468748338,undefined,623,esteem,abstract-positive,abstract,concrete,A,NULL
1730469531,794a4133ac06b619431debfb734fe0d3,PennController,33,0,test_conc,NULL,PennController,44,_Header_,Start,1730468748338,undefined,623,esteem,abstract-positive,abstract,concrete,A,NULL
1730469531,794a4133ac06b619431debfb734fe0d3,PennController,33,0,test_conc,NULL,PennController,44,_Header_,End,1730468748597,undefined,623,esteem,abstract-positive,abstract,concrete,A,NULL
1730469531,794a4133ac06b619431debfb734fe0d3,PennController,33,0,test_conc,NULL,Selector,unnamed-Selector,Selection,abstract,1730468749736,undefined,623,esteem,abstract-positive,abstract,concrete,A,abstract;concrete
1730469531,794a4133ac06b619431debfb734fe0d3,PennController,33,0,test_conc,NULL,PennController,44,_Trial_,End,1730468749739,undefined,623,esteem,abstract-positive,abstract,concrete,A,NULL
1730469531,794a4133ac06b619431debfb734fe0d3,PennController,20,0,test_conc,NULL,PennController,31,_Trial_,Start,1730468749740,undefined,692,vomit,concrete-negative,abstract,concrete,A,NULL
1730469531,794a4133ac06b619431debfb734fe0d3,PennController,20,0,test_conc,NULL,PennController,31,_Header_,Start,1730468749740,undefined,692,vomit,concrete-negative,abstract,concrete,A,NULL
1730469531,794a4133ac06b619431debfb734fe0d3,PennController,20,0,test_conc,NULL,PennController,31,_Header_,End,1730468750000,undefined,692,vomit,concrete-negative,abstract,concrete,A,NULL
1730469531,794a4133ac06b619431debfb734fe0d3,PennController,20,0,test_conc,NULL,Selector,unnamed-Selector,Selection,concrete,1730468751208,undefined,692,vomit,concrete-negative,abstract,concrete,A,abstract;concrete
1730469531,794a4133ac06b619431debfb734fe0d3,PennController,20,0,test_conc,NULL,PennController,31,_Trial_,End,1730468751209,undefined,692,vomit,concrete-negative,abstract,concrete,A,NULL
1730469531,794a4133ac06b619431debfb734fe0d3,PennController,37,0,test_conc,NULL,PennController,48,_Trial_,Start,1730468751210,undefined,640,loathe,abstract-negative,abstract,concrete,A,NULL
1730469531,794a4133ac06b619431debfb734fe0d3,PennController,37,0,test_conc,NULL,PennController,48,_Header_,Start,1730468751210,undefined,640,loathe,abstract-negative,abstract,concrete,A,NULL
1730469531,794a4133ac06b619431debfb734fe0d3,PennController,37,0,test_conc,NULL,PennController,48,_Header_,End,1730468751466,undefined,640,loathe,abstract-negative,abstract,concrete,A,NULL
1730469531,794a4133ac06b619431debfb734fe0d3,PennController,37,0,test_conc,NULL,Selector,unnamed-Selector,Selection,abstract,1730468752619,undefined,640,loathe,abstract-negative,abstract,concrete,A,abstract;concrete
1730469531,794a4133ac06b619431debfb734fe0d3,PennController,37,0,test_conc,NULL,PennController,48,_Trial_,End,1730468752620,undefined,640,loathe,abstract-negative,abstract,concrete,A,NULL
1730469531,794a4133ac06b619431debfb734fe0d3,PennController,27,0,test_conc,NULL,PennController,38,_Trial_,Start,1730468752622,undefined,705,enjoy,abstract-positive,abstract,concrete,A,NULL
1730469531,794a4133ac06b619431debfb734fe0d3,PennController,27,0,test_conc,NULL,PennController,38,_Header_,Start,1730468752622,undefined,705,enjoy,abstract-positive,abstract,concrete,A,NULL
1730469531,794a4133ac06b619431debfb734fe0d3,PennController,27,0,test_conc,NULL,PennController,38,_Header_,End,1730468752887,undefined,705,enjoy,abstract-positive,abstract,concrete,A,NULL
1730469531,794a4133ac06b619431debfb734fe0d3,PennController,27,0,test_conc,NULL,Selector,unnamed-Selector,Selection,abstract,1730468754106,undefined,705,enjoy,abstract-positive,abstract,concrete,A,abstract;concrete
1730469531,794a4133ac06b619431debfb734fe0d3,PennController,27,0,test_conc,NULL,PennController,38,_Trial_,End,1730468754109,undefined,705,enjoy,abstract-positive,abstract,concrete,A,NULL
1730469531,794a4133ac06b619431debfb734fe0d3,PennController,39,0,test_conc,NULL,PennController,50,_Trial_,Start,1730468754110,undefined,542,despise,abstract-negative,abstract,concrete,A,NULL
1730469531,794a4133ac06b619431debfb734fe0d3,PennController,39,0,test_conc,NULL,PennController,50,_Header_,Start,1730468754110,undefined,542,despise,abstract-negative,abstract,concrete,A,NULL
1730469531,794a4133ac06b619431debfb734fe0d3,PennController,39,0,test_conc,NULL,PennController,50,_Header_,End,1730468754365,undefined,542,despise,abstract-negative,abstract,concrete,A,NULL
1730469531,794a4133ac06b619431debfb734fe0d3,PennController,39,0,test_conc,NULL,Selector,unnamed-Selector,Selection,abstract,1730468755423,undefined,542,despise,abstract-negative,abstract,concrete,A,abstract;concrete
1730469531,794a4133ac06b619431debfb734fe0d3,PennController,39,0,test_conc,NULL,PennController,50,_Trial_,End,1730468755425,undefined,542,despise,abstract-negative,abstract,concrete,A,NULL
1730469531,794a4133ac06b619431debfb734fe0d3,PennController,42,0,test_conc,NULL,PennController,53,_Trial_,Start,1730468755426,undefined,586,distrust,abstract-negative,abstract,concrete,A,NULL
1730469531,794a4133ac06b619431debfb734fe0d3,PennController,42,0,test_conc,NULL,PennController,53,_Header_,Start,1730468755426,undefined,586,distrust,abstract-negative,abstract,concrete,A,NULL
1730469531,794a4133ac06b619431debfb734fe0d3,PennController,42,0,test_conc,NULL,PennController,53,_Header_,End,1730468755690,undefined,586,distrust,abstract-negative,abstract,concrete,A,NULL
1730469531,794a4133ac06b619431debfb734fe0d3,PennController,42,0,test_conc,NULL,Selector,unnamed-Selector,Selection,abstract,1730468756790,undefined,586,distrust,abstract-negative,abstract,concrete,A,abstract;concrete
1730469531,794a4133ac06b619431debfb734fe0d3,PennController,42,0,test_conc,NULL,PennController,53,_Trial_,End,1730468756792,undefined,586,distrust,abstract-negative,abstract,concrete,A,NULL
1730469531,794a4133ac06b619431debfb734fe0d3,PennController,38,0,test_conc,NULL,PennController,49,_Trial_,Start,1730468756793,undefined,587,scorn,abstract-negative,abstract,concrete,A,NULL
1730469531,794a4133ac06b619431debfb734fe0d3,PennController,38,0,test_conc,NULL,PennController,49,_Header_,Start,1730468756793,undefined,587,scorn,abstract-negative,abstract,concrete,A,NULL
1730469531,794a4133ac06b619431debfb734fe0d3,PennController,38,0,test_conc,NULL,PennController,49,_Header_,End,1730468757043,undefined,587,scorn,abstract-negative,abstract,concrete,A,NULL
1730469531,794a4133ac06b619431debfb734fe0d3,PennController,38,0,test_conc,NULL,Selector,unnamed-Selector,Selection,abstract,1730468758145,undefined,587,scorn,abstract-negative,abstract,concrete,A,abstract;concrete
1730469531,794a4133ac06b619431debfb734fe0d3,PennController,38,0,test_conc,NULL,PennController,49,_Trial_,End,1730468758147,undefined,587,scorn,abstract-negative,abstract,concrete,A,NULL
1730469531,794a4133ac06b619431debfb734fe0d3,PennController,43,0,test_conc,NULL,PennController,54,_Trial_,Start,1730468758149,undefined,640,irritate,abstract-negative,abstract,concrete,A,NULL
1730469531,794a4133ac06b619431debfb734fe0d3,PennController,43,0,test_conc,NULL,PennController,54,_Header_,Start,1730468758149,undefined,640,irritate,abstract-negative,abstract,concrete,A,NULL
1730469531,794a4133ac06b619431debfb734fe0d3,PennController,43,0,test_conc,NULL,PennController,54,_Header_,End,1730468758411,undefined,640,irritate,abstract-negative,abstract,concrete,A,NULL
1730469531,794a4133ac06b619431debfb734fe0d3,PennController,43,0,test_conc,NULL,Selector,unnamed-Selector,Selection,abstract,1730468759566,undefined,640,irritate,abstract-negative,abstract,concrete,A,abstract;concrete
1730469531,794a4133ac06b619431debfb734fe0d3,PennController,43,0,test_conc,NULL,PennController,54,_Trial_,End,1730468759568,undefined,640,irritate,abstract-negative,abstract,concrete,A,NULL
1730469531,794a4133ac06b619431debfb734fe0d3,PennController,27,0,test_conc,NULL,PennController,38,_Trial_,Start,1730468759569,undefined,898,enjoy,abstract-positive,abstract,concrete,A,NULL
1730469531,794a4133ac06b619431debfb734fe0d3,PennController,27,0,test_conc,NULL,PennController,38,_Header_,Start,1730468759569,undefined,898,enjoy,abstract-positive,abstract,concrete,A,NULL
1730469531,794a4133ac06b619431debfb734fe0d3,PennController,27,0,test_conc,NULL,PennController,38,_Header_,End,1730468759824,undefined,898,enjoy,abstract-positive,abstract,concrete,A,NULL
1730469531,794a4133ac06b619431debfb734fe0d3,PennController,27,0,test_conc,NULL,Selector,unnamed-Selector,Selection,abstract,1730468761253,undefined,898,enjoy,abstract-positive,abstract,concrete,A,abstract;concrete
1730469531,794a4133ac06b619431debfb734fe0d3,PennController,27,0,test_conc,NULL,PennController,38,_Trial_,End,1730468761255,undefined,898,enjoy,abstract-positive,abstract,concrete,A,NULL
1730469531,794a4133ac06b619431debfb734fe0d3,PennController,7,0,test_conc,NULL,PennController,18,_Trial_,Start,1730468761256,undefined,755,build,concrete-positive,abstract,concrete,A,NULL
1730469531,794a4133ac06b619431debfb734fe0d3,PennController,7,0,test_conc,NULL,PennController,18,_Header_,Start,1730468761256,undefined,755,build,concrete-positive,abstract,concrete,A,NULL
1730469531,794a4133ac06b619431debfb734fe0d3,PennController,7,0,test_conc,NULL,PennController,18,_Header_,End,1730468761520,undefined,755,build,concrete-positive,abstract,concrete,A,NULL
1730469531,794a4133ac06b619431debfb734fe0d3,PennController,7,0,test_conc,NULL,Selector,unnamed-Selector,Selection,concrete,1730468762789,undefined,755,build,concrete-positive,abstract,concrete,A,abstract;concrete
1730469531,794a4133ac06b619431debfb734fe0d3,PennController,7,0,test_conc,NULL,PennController,18,_Trial_,End,1730468762791,undefined,755,build,concrete-positive,abstract,concrete,A,NULL
1730469531,794a4133ac06b619431debfb734fe0d3,PennController,30,0,test_conc,NULL,PennController,41,_Trial_,Start,1730468762792,undefined,811,admire,abstract-positive,abstract,concrete,A,NULL
1730469531,794a4133ac06b619431debfb734fe0d3,PennController,30,0,test_conc,NULL,PennController,41,_Header_,Start,1730468762792,undefined,811,admire,abstract-positive,abstract,concrete,A,NULL
1730469531,794a4133ac06b619431debfb734fe0d3,PennController,30,0,test_conc,NULL,PennController,41,_Header_,End,1730468763049,undefined,811,admire,abstract-positive,abstract,concrete,A,NULL
1730469531,794a4133ac06b619431debfb734fe0d3,PennController,30,0,test_conc,NULL,Selector,unnamed-Selector,Selection,abstract,1730468764373,undefined,811,admire,abstract-positive,abstract,concrete,A,abstract;concrete
1730469531,794a4133ac06b619431debfb734fe0d3,PennController,30,0,test_conc,NULL,PennController,41,_Trial_,End,1730468764374,undefined,811,admire,abstract-positive,abstract,concrete,A,NULL
1730469531,794a4133ac06b619431debfb734fe0d3,PennController,4,0,test_conc,NULL,PennController,15,_Trial_,Start,1730468764375,undefined,567,kiss,concrete-positive,abstract,concrete,A,NULL
1730469531,794a4133ac06b619431debfb734fe0d3,PennController,4,0,test_conc,NULL,PennController,15,_Header_,Start,1730468764375,undefined,567,kiss,concrete-positive,abstract,concrete,A,NULL
1730469531,794a4133ac06b619431debfb734fe0d3,PennController,4,0,test_conc,NULL,PennController,15,_Header_,End,1730468764627,undefined,567,kiss,concrete-positive,abstract,concrete,A,NULL
1730469531,794a4133ac06b619431debfb734fe0d3,PennController,4,0,test_conc,NULL,Selector,unnamed-Selector,Selection,concrete,1730468765712,undefined,567,kiss,concrete-positive,abstract,concrete,A,abstract;concrete
1730469531,794a4133ac06b619431debfb734fe0d3,PennController,4,0,test_conc,NULL,PennController,15,_Trial_,End,1730468765713,undefined,567,kiss,concrete-positive,abstract,concrete,A,NULL
1730469531,794a4133ac06b619431debfb734fe0d3,PennController,32,0,test_conc,NULL,PennController,43,_Trial_,Start,1730468765714,undefined,722,adore,abstract-positive,abstract,concrete,A,NULL
1730469531,794a4133ac06b619431debfb734fe0d3,PennController,32,0,test_conc,NULL,PennController,43,_Header_,Start,1730468765714,undefined,722,adore,abstract-positive,abstract,concrete,A,NULL
1730469531,794a4133ac06b619431debfb734fe0d3,PennController,32,0,test_conc,NULL,PennController,43,_Header_,End,1730468765977,undefined,722,adore,abstract-positive,abstract,concrete,A,NULL
1730469531,794a4133ac06b619431debfb734fe0d3,PennController,32,0,test_conc,NULL,Selector,unnamed-Selector,Selection,abstract,1730468767216,undefined,722,adore,abstract-positive,abstract,concrete,A,abstract;concrete
1730469531,794a4133ac06b619431debfb734fe0d3,PennController,32,0,test_conc,NULL,PennController,43,_Trial_,End,1730468767217,undefined,722,adore,abstract-positive,abstract,concrete,A,NULL
1730469531,794a4133ac06b619431debfb734fe0d3,PennController,20,0,test_conc,NULL,PennController,31,_Trial_,Start,1730468767218,undefined,637,vomit,concrete-negative,abstract,concrete,A,NULL
1730469531,794a4133ac06b619431debfb734fe0d3,PennController,20,0,test_conc,NULL,PennController,31,_Header_,Start,1730468767218,undefined,637,vomit,concrete-negative,abstract,concrete,A,NULL
1730469531,794a4133ac06b619431debfb734fe0d3,PennController,20,0,test_conc,NULL,PennController,31,_Header_,End,1730468767473,undefined,637,vomit,concrete-negative,abstract,concrete,A,NULL
1730469531,794a4133ac06b619431debfb734fe0d3,PennController,20,0,test_conc,NULL,Selector,unnamed-Selector,Selection,concrete,1730468768626,undefined,637,vomit,concrete-negative,abstract,concrete,A,abstract;concrete
1730469531,794a4133ac06b619431debfb734fe0d3,PennController,20,0,test_conc,NULL,PennController,31,_Trial_,End,1730468768627,undefined,637,vomit,concrete-negative,abstract,concrete,A,NULL
1730469531,794a4133ac06b619431debfb734fe0d3,PennController,37,0,test_conc,NULL,PennController,48,_Trial_,Start,1730468768629,undefined,618,loathe,abstract-negative,abstract,concrete,A,NULL
1730469531,794a4133ac06b619431debfb734fe0d3,PennController,37,0,test_conc,NULL,PennController,48,_Header_,Start,1730468768629,undefined,618,loathe,abstract-negative,abstract,concrete,A,NULL
1730469531,794a4133ac06b619431debfb734fe0d3,PennController,37,0,test_conc,NULL,PennController,48,_Header_,End,1730468768889,undefined,618,loathe,abstract-negative,abstract,concrete,A,NULL
1730469531,794a4133ac06b619431debfb734fe0d3,PennController,37,0,test_conc,NULL,Selector,unnamed-Selector,Selection,abstract,1730468770020,undefined,618,loathe,abstract-negative,abstract,concrete,A,abstract;concrete
1730469531,794a4133ac06b619431debfb734fe0d3,PennController,37,0,test_conc,NULL,PennController,48,_Trial_,End,1730468770022,undefined,618,loathe,abstract-negative,abstract,concrete,A,NULL
1730469531,794a4133ac06b619431debfb734fe0d3,PennController,40,0,test_conc,NULL,PennController,51,_Trial_,Start,1730468770023,undefined,581,abhor,abstract-negative,abstract,concrete,A,NULL
1730469531,794a4133ac06b619431debfb734fe0d3,PennController,40,0,test_conc,NULL,PennController,51,_Header_,Start,1730468770023,undefined,581,abhor,abstract-negative,abstract,concrete,A,NULL
1730469531,794a4133ac06b619431debfb734fe0d3,PennController,40,0,test_conc,NULL,PennController,51,_Header_,End,1730468770285,undefined,581,abhor,abstract-negative,abstract,concrete,A,NULL
1730469531,794a4133ac06b619431debfb734fe0d3,PennController,40,0,test_conc,NULL,Selector,unnamed-Selector,Selection,abstract,1730468771375,undefined,581,abhor,abstract-negative,abstract,concrete,A,abstract;concrete
1730469531,794a4133ac06b619431debfb734fe0d3,PennController,40,0,test_conc,NULL,PennController,51,_Trial_,End,1730468771378,undefined,581,abhor,abstract-negative,abstract,concrete,A,NULL
1730469531,794a4133ac06b619431debfb734fe0d3,PennController,6,0,test_conc,NULL,PennController,17,_Trial_,Start,1730468771379,undefined,580,cuddle,concrete-positive,abstract,concrete,A,NULL
1730469531,794a4133ac06b619431debfb734fe0d3,PennController,6,0,test_conc,NULL,PennController,17,_Header_,Start,1730468771379,undefined,580,cuddle,concrete-positive,abstract,concrete,A,NULL
1730469531,794a4133ac06b619431debfb734fe0d3,PennController,6,0,test_conc,NULL,PennController,17,_Header_,End,1730468771634,undefined,580,cuddle,concrete-positive,abstract,concrete,A,NULL
1730469531,794a4133ac06b619431debfb734fe0d3,PennController,6,0,test_conc,NULL,Selector,unnamed-Selector,Selection,concrete,1730468772731,undefined,580,cuddle,concrete-positive,abstract,concrete,A,abstract;concrete
1730469531,794a4133ac06b619431debfb734fe0d3,PennController,6,0,test_conc,NULL,PennController,17,_Trial_,End,1730468772733,undefined,580,cuddle,concrete-positive,abstract,concrete,A,NULL
1730469531,794a4133ac06b619431debfb734fe0d3,PennController,29,0,test_conc,NULL,PennController,40,_Trial_,Start,1730468772734,undefined,595,praise,abstract-positive,abstract,concrete,A,NULL
1730469531,794a4133ac06b619431debfb734fe0d3,PennController,29,0,test_conc,NULL,PennController,40,_Header_,Start,1730468772734,undefined,595,praise,abstract-positive,abstract,concrete,A,NULL
1730469531,794a4133ac06b619431debfb734fe0d3,PennController,29,0,test_conc,NULL,PennController,40,_Header_,End,1730468772989,undefined,595,praise,abstract-positive,abstract,concrete,A,NULL
1730469531,794a4133ac06b619431debfb734fe0d3,PennController,29,0,test_conc,NULL,Selector,unnamed-Selector,Selection,abstract,1730468774097,undefined,595,praise,abstract-positive,abstract,concrete,A,abstract;concrete
1730469531,794a4133ac06b619431debfb734fe0d3,PennController,29,0,test_conc,NULL,PennController,40,_Trial_,End,1730468774099,undefined,595,praise,abstract-positive,abstract,concrete,A,NULL
1730469531,794a4133ac06b619431debfb734fe0d3,PennController,12,0,test_conc,NULL,PennController,23,_Trial_,Start,1730468774100,undefined,795,heal,concrete-positive,abstract,concrete,A,NULL
1730469531,794a4133ac06b619431debfb734fe0d3,PennController,12,0,test_conc,NULL,PennController,23,_Header_,Start,1730468774100,undefined,795,heal,concrete-positive,abstract,concrete,A,NULL
1730469531,794a4133ac06b619431debfb734fe0d3,PennController,12,0,test_conc,NULL,PennController,23,_Header_,End,1730468774357,undefined,795,heal,concrete-positive,abstract,concrete,A,NULL
1730469531,794a4133ac06b619431debfb734fe0d3,PennController,12,0,test_conc,NULL,Selector,unnamed-Selector,Selection,abstract,1730468775667,undefined,795,heal,concrete-positive,abstract,concrete,A,abstract;concrete
1730469531,794a4133ac06b619431debfb734fe0d3,PennController,12,0,test_conc,NULL,PennController,23,_Trial_,End,1730468775668,undefined,795,heal,concrete-positive,abstract,concrete,A,NULL
1730469531,794a4133ac06b619431debfb734fe0d3,PennController,39,0,test_conc,NULL,PennController,50,_Trial_,Start,1730468775670,undefined,537,despise,abstract-negative,abstract,concrete,A,NULL
1730469531,794a4133ac06b619431debfb734fe0d3,PennController,39,0,test_conc,NULL,PennController,50,_Header_,Start,1730468775670,undefined,537,despise,abstract-negative,abstract,concrete,A,NULL
1730469531,794a4133ac06b619431debfb734fe0d3,PennController,39,0,test_conc,NULL,PennController,50,_Header_,End,1730468775929,undefined,537,despise,abstract-negative,abstract,concrete,A,NULL
1730469531,794a4133ac06b619431debfb734fe0d3,PennController,39,0,test_conc,NULL,Selector,unnamed-Selector,Selection,abstract,1730468776984,undefined,537,despise,abstract-negative,abstract,concrete,A,abstract;concrete
1730469531,794a4133ac06b619431debfb734fe0d3,PennController,39,0,test_conc,NULL,PennController,50,_Trial_,End,1730468776986,undefined,537,despise,abstract-negative,abstract,concrete,A,NULL
1730469531,794a4133ac06b619431debfb734fe0d3,PennController,34,0,test_conc,NULL,PennController,45,_Trial_,Start,1730468776987,undefined,749,criticize,abstract-negative,abstract,concrete,A,NULL
1730469531,794a4133ac06b619431debfb734fe0d3,PennController,34,0,test_conc,NULL,PennController,45,_Header_,Start,1730468776987,undefined,749,criticize,abstract-negative,abstract,concrete,A,NULL
1730469531,794a4133ac06b619431debfb734fe0d3,PennController,34,0,test_conc,NULL,PennController,45,_Header_,End,1730468777239,undefined,749,criticize,abstract-negative,abstract,concrete,A,NULL
1730469531,794a4133ac06b619431debfb734fe0d3,PennController,34,0,test_conc,NULL,Selector,unnamed-Selector,Selection,abstract,1730468778501,undefined,749,criticize,abstract-negative,abstract,concrete,A,abstract;concrete
1730469531,794a4133ac06b619431debfb734fe0d3,PennController,34,0,test_conc,NULL,PennController,45,_Trial_,End,1730468778502,undefined,749,criticize,abstract-negative,abstract,concrete,A,NULL
1730469531,794a4133ac06b619431debfb734fe0d3,PennController,31,0,test_conc,NULL,PennController,42,_Trial_,Start,1730468778503,undefined,684,cherish,abstract-positive,abstract,concrete,A,NULL
1730469531,794a4133ac06b619431debfb734fe0d3,PennController,31,0,test_conc,NULL,PennController,42,_Header_,Start,1730468778503,undefined,684,cherish,abstract-positive,abstract,concrete,A,NULL
1730469531,794a4133ac06b619431debfb734fe0d3,PennController,31,0,test_conc,NULL,PennController,42,_Header_,End,1730468778754,undefined,684,cherish,abstract-positive,abstract,concrete,A,NULL
1730469531,794a4133ac06b619431debfb734fe0d3,PennController,31,0,test_conc,NULL,Selector,unnamed-Selector,Selection,abstract,1730468779954,undefined,684,cherish,abstract-positive,abstract,concrete,A,abstract;concrete
1730469531,794a4133ac06b619431debfb734fe0d3,PennController,31,0,test_conc,NULL,PennController,42,_Trial_,End,1730468779956,undefined,684,cherish,abstract-positive,abstract,concrete,A,NULL
1730469531,794a4133ac06b619431debfb734fe0d3,PennController,24,0,test_conc,NULL,PennController,35,_Trial_,Start,1730468779957,undefined,780,love,abstract-positive,abstract,concrete,A,NULL
1730469531,794a4133ac06b619431debfb734fe0d3,PennController,24,0,test_conc,NULL,PennController,35,_Header_,Start,1730468779957,undefined,780,love,abstract-positive,abstract,concrete,A,NULL
1730469531,794a4133ac06b619431debfb734fe0d3,PennController,24,0,test_conc,NULL,PennController,35,_Header_,End,1730468780209,undefined,780,love,abstract-positive,abstract,concrete,A,NULL
1730469531,794a4133ac06b619431debfb734fe0d3,PennController,24,0,test_conc,NULL,Selector,unnamed-Selector,Selection,abstract,1730468781501,undefined,780,love,abstract-positive,abstract,concrete,A,abstract;concrete
1730469531,794a4133ac06b619431debfb734fe0d3,PennController,24,0,test_conc,NULL,PennController,35,_Trial_,End,1730468781504,undefined,780,love,abstract-positive,abstract,concrete,A,NULL
1730469531,794a4133ac06b619431debfb734fe0d3,PennController,10,0,test_conc,NULL,PennController,21,_Trial_,Start,1730468781505,undefined,1105,improve,concrete-positive,abstract,concrete,A,NULL
1730469531,794a4133ac06b619431debfb734fe0d3,PennController,10,0,test_conc,NULL,PennController,21,_Header_,Start,1730468781505,undefined,1105,improve,concrete-positive,abstract,concrete,A,NULL
1730469531,794a4133ac06b619431debfb734fe0d3,PennController,10,0,test_conc,NULL,PennController,21,_Header_,End,1730468781763,undefined,1105,improve,concrete-positive,abstract,concrete,A,NULL
1730469531,794a4133ac06b619431debfb734fe0d3,PennController,10,0,test_conc,NULL,Selector,unnamed-Selector,Selection,abstract,1730468783371,undefined,1105,improve,concrete-positive,abstract,concrete,A,abstract;concrete
1730469531,794a4133ac06b619431debfb734fe0d3,PennController,10,0,test_conc,NULL,PennController,21,_Trial_,End,1730468783373,undefined,1105,improve,concrete-positive,abstract,concrete,A,NULL
1730469531,794a4133ac06b619431debfb734fe0d3,PennController,11,0,test_conc,NULL,PennController,22,_Trial_,Start,1730468783374,undefined,557,embellish,concrete-positive,abstract,concrete,A,NULL
1730469531,794a4133ac06b619431debfb734fe0d3,PennController,11,0,test_conc,NULL,PennController,22,_Header_,Start,1730468783374,undefined,557,embellish,concrete-positive,abstract,concrete,A,NULL
1730469531,794a4133ac06b619431debfb734fe0d3,PennController,11,0,test_conc,NULL,PennController,22,_Header_,End,1730468783639,undefined,557,embellish,concrete-positive,abstract,concrete,A,NULL
1730469531,794a4133ac06b619431debfb734fe0d3,PennController,11,0,test_conc,NULL,Selector,unnamed-Selector,Selection,abstract,1730468784709,undefined,557,embellish,concrete-positive,abstract,concrete,A,abstract;concrete
1730469531,794a4133ac06b619431debfb734fe0d3,PennController,11,0,test_conc,NULL,PennController,22,_Trial_,End,1730468784713,undefined,557,embellish,concrete-positive,abstract,concrete,A,NULL
1730469531,794a4133ac06b619431debfb734fe0d3,PennController,35,0,test_conc,NULL,PennController,46,_Trial_,Start,1730468784714,undefined,637,hate,abstract-negative,abstract,concrete,A,NULL
1730469531,794a4133ac06b619431debfb734fe0d3,PennController,35,0,test_conc,NULL,PennController,46,_Header_,Start,1730468784714,undefined,637,hate,abstract-negative,abstract,concrete,A,NULL
1730469531,794a4133ac06b619431debfb734fe0d3,PennController,35,0,test_conc,NULL,PennController,46,_Header_,End,1730468784975,undefined,637,hate,abstract-negative,abstract,concrete,A,NULL
1730469531,794a4133ac06b619431debfb734fe0d3,PennController,35,0,test_conc,NULL,Selector,unnamed-Selector,Selection,abstract,1730468786121,undefined,637,hate,abstract-negative,abstract,concrete,A,abstract;concrete
1730469531,794a4133ac06b619431debfb734fe0d3,PennController,35,0,test_conc,NULL,PennController,46,_Trial_,End,1730468786123,undefined,637,hate,abstract-negative,abstract,concrete,A,NULL
1730469531,794a4133ac06b619431debfb734fe0d3,PennController,26,0,test_conc,NULL,PennController,37,_Trial_,Start,1730468786124,undefined,535,care,abstract-positive,abstract,concrete,A,NULL
1730469531,794a4133ac06b619431debfb734fe0d3,PennController,26,0,test_conc,NULL,PennController,37,_Header_,Start,1730468786124,undefined,535,care,abstract-positive,abstract,concrete,A,NULL
1730469531,794a4133ac06b619431debfb734fe0d3,PennController,26,0,test_conc,NULL,PennController,37,_Header_,End,1730468786386,undefined,535,care,abstract-positive,abstract,concrete,A,NULL
1730469531,794a4133ac06b619431debfb734fe0d3,PennController,26,0,test_conc,NULL,Selector,unnamed-Selector,Selection,abstract,1730468787435,undefined,535,care,abstract-positive,abstract,concrete,A,abstract;concrete
1730469531,794a4133ac06b619431debfb734fe0d3,PennController,26,0,test_conc,NULL,PennController,37,_Trial_,End,1730468787437,undefined,535,care,abstract-positive,abstract,concrete,A,NULL
1730469531,794a4133ac06b619431debfb734fe0d3,PennController,25,0,test_conc,NULL,PennController,36,_Trial_,Start,1730468787438,undefined,627,encourage,abstract-positive,abstract,concrete,A,NULL
1730469531,794a4133ac06b619431debfb734fe0d3,PennController,25,0,test_conc,NULL,PennController,36,_Header_,Start,1730468787438,undefined,627,encourage,abstract-positive,abstract,concrete,A,NULL
1730469531,794a4133ac06b619431debfb734fe0d3,PennController,25,0,test_conc,NULL,PennController,36,_Header_,End,1730468787696,undefined,627,encourage,abstract-positive,abstract,concrete,A,NULL
1730469531,794a4133ac06b619431debfb734fe0d3,PennController,25,0,test_conc,NULL,Selector,unnamed-Selector,Selection,abstract,1730468788832,undefined,627,encourage,abstract-positive,abstract,concrete,A,abstract;concrete
1730469531,794a4133ac06b619431debfb734fe0d3,PennController,25,0,test_conc,NULL,PennController,36,_Trial_,End,1730468788834,undefined,627,encourage,abstract-positive,abstract,concrete,A,NULL
1730469531,794a4133ac06b619431debfb734fe0d3,PennController,22,0,test_conc,NULL,PennController,33,_Trial_,Start,1730468788836,undefined,935,stab,concrete-negative,abstract,concrete,A,NULL
1730469531,794a4133ac06b619431debfb734fe0d3,PennController,22,0,test_conc,NULL,PennController,33,_Header_,Start,1730468788836,undefined,935,stab,concrete-negative,abstract,concrete,A,NULL
1730469531,794a4133ac06b619431debfb734fe0d3,PennController,22,0,test_conc,NULL,PennController,33,_Header_,End,1730468789090,undefined,935,stab,concrete-negative,abstract,concrete,A,NULL
1730469531,794a4133ac06b619431debfb734fe0d3,PennController,22,0,test_conc,NULL,Selector,unnamed-Selector,Selection,concrete,1730468790540,undefined,935,stab,concrete-negative,abstract,concrete,A,abstract;concrete
1730469531,794a4133ac06b619431debfb734fe0d3,PennController,22,0,test_conc,NULL,PennController,33,_Trial_,End,1730468790542,undefined,935,stab,concrete-negative,abstract,concrete,A,NULL
1730469531,794a4133ac06b619431debfb734fe0d3,PennController,8,0,test_conc,NULL,PennController,19,_Trial_,Start,1730468790543,undefined,1138,repair,concrete-positive,abstract,concrete,A,NULL
1730469531,794a4133ac06b619431debfb734fe0d3,PennController,8,0,test_conc,NULL,PennController,19,_Header_,Start,1730468790543,undefined,1138,repair,concrete-positive,abstract,concrete,A,NULL
1730469531,794a4133ac06b619431debfb734fe0d3,PennController,8,0,test_conc,NULL,PennController,19,_Header_,End,1730468790803,undefined,1138,repair,concrete-positive,abstract,concrete,A,NULL
1730469531,794a4133ac06b619431debfb734fe0d3,PennController,8,0,test_conc,NULL,Selector,unnamed-Selector,Selection,concrete,1730468792452,undefined,1138,repair,concrete-positive,abstract,concrete,A,abstract;concrete
1730469531,794a4133ac06b619431debfb734fe0d3,PennController,8,0,test_conc,NULL,PennController,19,_Trial_,End,1730468792452,undefined,1138,repair,concrete-positive,abstract,concrete,A,NULL
1730469531,794a4133ac06b619431debfb734fe0d3,PennController,16,0,test_conc,NULL,PennController,27,_Trial_,Start,1730468792454,undefined,732,slaughter,concrete-negative,abstract,concrete,A,NULL
1730469531,794a4133ac06b619431debfb734fe0d3,PennController,16,0,test_conc,NULL,PennController,27,_Header_,Start,1730468792454,undefined,732,slaughter,concrete-negative,abstract,concrete,A,NULL
1730469531,794a4133ac06b619431debfb734fe0d3,PennController,16,0,test_conc,NULL,PennController,27,_Header_,End,1730468792716,undefined,732,slaughter,concrete-negative,abstract,concrete,A,NULL
1730469531,794a4133ac06b619431debfb734fe0d3,PennController,16,0,test_conc,NULL,Selector,unnamed-Selector,Selection,concrete,1730468793963,undefined,732,slaughter,concrete-negative,abstract,concrete,A,abstract;concrete
1730469531,794a4133ac06b619431debfb734fe0d3,PennController,16,0,test_conc,NULL,PennController,27,_Trial_,End,1730468793964,undefined,732,slaughter,concrete-negative,abstract,concrete,A,NULL
1730469531,794a4133ac06b619431debfb734fe0d3,PennController,15,0,test_conc,NULL,PennController,26,_Trial_,Start,1730468793965,undefined,569,murder,concrete-negative,abstract,concrete,A,NULL
1730469531,794a4133ac06b619431debfb734fe0d3,PennController,15,0,test_conc,NULL,PennController,26,_Header_,Start,1730468793965,undefined,569,murder,concrete-negative,abstract,concrete,A,NULL
1730469531,794a4133ac06b619431debfb734fe0d3,PennController,15,0,test_conc,NULL,PennController,26,_Header_,End,1730468794216,undefined,569,murder,concrete-negative,abstract,concrete,A,NULL
1730469531,794a4133ac06b619431debfb734fe0d3,PennController,15,0,test_conc,NULL,Selector,unnamed-Selector,Selection,concrete,1730468795300,undefined,569,murder,concrete-negative,abstract,concrete,A,abstract;concrete
1730469531,794a4133ac06b619431debfb734fe0d3,PennController,15,0,test_conc,NULL,PennController,26,_Trial_,End,1730468795302,undefined,569,murder,concrete-negative,abstract,concrete,A,NULL
1730469531,794a4133ac06b619431debfb734fe0d3,PennController,38,0,test_conc,NULL,PennController,49,_Trial_,Start,1730468795304,undefined,941,scorn,abstract-negative,abstract,concrete,A,NULL
1730469531,794a4133ac06b619431debfb734fe0d3,PennController,38,0,test_conc,NULL,PennController,49,_Header_,Start,1730468795305,undefined,941,scorn,abstract-negative,abstract,concrete,A,NULL
1730469531,794a4133ac06b619431debfb734fe0d3,PennController,38,0,test_conc,NULL,PennController,49,_Header_,End,1730468795559,undefined,941,scorn,abstract-negative,abstract,concrete,A,NULL
1730469531,794a4133ac06b619431debfb734fe0d3,PennController,38,0,test_conc,NULL,Selector,unnamed-Selector,Selection,abstract,1730468797020,undefined,941,scorn,abstract-negative,abstract,concrete,A,abstract;concrete
1730469531,794a4133ac06b619431debfb734fe0d3,PennController,38,0,test_conc,NULL,PennController,49,_Trial_,End,1730468797021,undefined,941,scorn,abstract-negative,abstract,concrete,A,NULL
1730469531,794a4133ac06b619431debfb734fe0d3,PennController,42,0,test_conc,NULL,PennController,53,_Trial_,Start,1730468797023,undefined,794,distrust,abstract-negative,abstract,concrete,A,NULL
1730469531,794a4133ac06b619431debfb734fe0d3,PennController,42,0,test_conc,NULL,PennController,53,_Header_,Start,1730468797023,undefined,794,distrust,abstract-negative,abstract,concrete,A,NULL
1730469531,794a4133ac06b619431debfb734fe0d3,PennController,42,0,test_conc,NULL,PennController,53,_Header_,End,1730468797275,undefined,794,distrust,abstract-negative,abstract,concrete,A,NULL
1730469531,794a4133ac06b619431debfb734fe0d3,PennController,42,0,test_conc,NULL,Selector,unnamed-Selector,Selection,abstract,1730468798584,undefined,794,distrust,abstract-negative,abstract,concrete,A,abstract;concrete
1730469531,794a4133ac06b619431debfb734fe0d3,PennController,42,0,test_conc,NULL,PennController,53,_Trial_,End,1730468798585,undefined,794,distrust,abstract-negative,abstract,concrete,A,NULL
1730469531,794a4133ac06b619431debfb734fe0d3,PennController,36,0,test_conc,NULL,PennController,47,_Trial_,Start,1730468798587,undefined,502,dislike,abstract-negative,abstract,concrete,A,NULL
1730469531,794a4133ac06b619431debfb734fe0d3,PennController,36,0,test_conc,NULL,PennController,47,_Header_,Start,1730468798587,undefined,502,dislike,abstract-negative,abstract,concrete,A,NULL
1730469531,794a4133ac06b619431debfb734fe0d3,PennController,36,0,test_conc,NULL,PennController,47,_Header_,End,1730468798847,undefined,502,dislike,abstract-negative,abstract,concrete,A,NULL
1730469531,794a4133ac06b619431debfb734fe0d3,PennController,36,0,test_conc,NULL,Selector,unnamed-Selector,Selection,abstract,1730468799860,undefined,502,dislike,abstract-negative,abstract,concrete,A,abstract;concrete
1730469531,794a4133ac06b619431debfb734fe0d3,PennController,36,0,test_conc,NULL,PennController,47,_Trial_,End,1730468799861,undefined,502,dislike,abstract-negative,abstract,concrete,A,NULL
1730469531,794a4133ac06b619431debfb734fe0d3,PennController,9,0,test_conc,NULL,PennController,20,_Trial_,Start,1730468799862,undefined,518,decorate,concrete-positive,abstract,concrete,A,NULL
1730469531,794a4133ac06b619431debfb734fe0d3,PennController,9,0,test_conc,NULL,PennController,20,_Header_,Start,1730468799862,undefined,518,decorate,concrete-positive,abstract,concrete,A,NULL
1730469531,794a4133ac06b619431debfb734fe0d3,PennController,9,0,test_conc,NULL,PennController,20,_Header_,End,1730468800124,undefined,518,decorate,concrete-positive,abstract,concrete,A,NULL
1730469531,794a4133ac06b619431debfb734fe0d3,PennController,9,0,test_conc,NULL,Selector,unnamed-Selector,Selection,abstract,1730468801155,undefined,518,decorate,concrete-positive,abstract,concrete,A,abstract;concrete
1730469531,794a4133ac06b619431debfb734fe0d3,PennController,9,0,test_conc,NULL,PennController,20,_Trial_,End,1730468801156,undefined,518,decorate,concrete-positive,abstract,concrete,A,NULL
1730469531,794a4133ac06b619431debfb734fe0d3,PennController,33,0,test_conc,NULL,PennController,44,_Trial_,Start,1730468801157,undefined,512,esteem,abstract-positive,abstract,concrete,A,NULL
1730469531,794a4133ac06b619431debfb734fe0d3,PennController,33,0,test_conc,NULL,PennController,44,_Header_,Start,1730468801157,undefined,512,esteem,abstract-positive,abstract,concrete,A,NULL
1730469531,794a4133ac06b619431debfb734fe0d3,PennController,33,0,test_conc,NULL,PennController,44,_Header_,End,1730468801411,undefined,512,esteem,abstract-positive,abstract,concrete,A,NULL
1730469531,794a4133ac06b619431debfb734fe0d3,PennController,33,0,test_conc,NULL,Selector,unnamed-Selector,Selection,abstract,1730468802438,undefined,512,esteem,abstract-positive,abstract,concrete,A,abstract;concrete
1730469531,794a4133ac06b619431debfb734fe0d3,PennController,33,0,test_conc,NULL,PennController,44,_Trial_,End,1730468802440,undefined,512,esteem,abstract-positive,abstract,concrete,A,NULL
1730469531,794a4133ac06b619431debfb734fe0d3,PennController,23,0,test_conc,NULL,PennController,34,_Trial_,Start,1730468802441,undefined,551,infect,concrete-negative,abstract,concrete,A,NULL
1730469531,794a4133ac06b619431debfb734fe0d3,PennController,23,0,test_conc,NULL,PennController,34,_Header_,Start,1730468802441,undefined,551,infect,concrete-negative,abstract,concrete,A,NULL
1730469531,794a4133ac06b619431debfb734fe0d3,PennController,23,0,test_conc,NULL,PennController,34,_Header_,End,1730468802703,undefined,551,infect,concrete-negative,abstract,concrete,A,NULL
1730469531,794a4133ac06b619431debfb734fe0d3,PennController,23,0,test_conc,NULL,Selector,unnamed-Selector,Selection,abstract,1730468803764,undefined,551,infect,concrete-negative,abstract,concrete,A,abstract;concrete
1730469531,794a4133ac06b619431debfb734fe0d3,PennController,23,0,test_conc,NULL,PennController,34,_Trial_,End,1730468803765,undefined,551,infect,concrete-negative,abstract,concrete,A,NULL
1730469531,794a4133ac06b619431debfb734fe0d3,PennController,17,0,test_conc,NULL,PennController,28,_Trial_,Start,1730468803768,undefined,740,break,concrete-negative,abstract,concrete,A,NULL
1730469531,794a4133ac06b619431debfb734fe0d3,PennController,17,0,test_conc,NULL,PennController,28,_Header_,Start,1730468803768,undefined,740,break,concrete-negative,abstract,concrete,A,NULL
1730469531,794a4133ac06b619431debfb734fe0d3,PennController,17,0,test_conc,NULL,PennController,28,_Header_,End,1730468804025,undefined,740,break,concrete-negative,abstract,concrete,A,NULL
1730469531,794a4133ac06b619431debfb734fe0d3,PennController,17,0,test_conc,NULL,Selector,unnamed-Selector,Selection,concrete,1730468805278,undefined,740,break,concrete-negative,abstract,concrete,A,abstract;concrete
1730469531,794a4133ac06b619431debfb734fe0d3,PennController,17,0,test_conc,NULL,PennController,28,_Trial_,End,1730468805280,undefined,740,break,concrete-negative,abstract,concrete,A,NULL
1730469531,794a4133ac06b619431debfb734fe0d3,PennController,14,0,test_conc,NULL,PennController,25,_Trial_,Start,1730468805282,undefined,637,destroy,concrete-negative,abstract,concrete,A,NULL
1730469531,794a4133ac06b619431debfb734fe0d3,PennController,14,0,test_conc,NULL,PennController,25,_Header_,Start,1730468805282,undefined,637,destroy,concrete-negative,abstract,concrete,A,NULL
1730469531,794a4133ac06b619431debfb734fe0d3,PennController,14,0,test_conc,NULL,PennController,25,_Header_,End,1730468805546,undefined,637,destroy,concrete-negative,abstract,concrete,A,NULL
1730469531,794a4133ac06b619431debfb734fe0d3,PennController,14,0,test_conc,NULL,Selector,unnamed-Selector,Selection,concrete,1730468806698,undefined,637,destroy,concrete-negative,abstract,concrete,A,abstract;concrete
1730469531,794a4133ac06b619431debfb734fe0d3,PennController,14,0,test_conc,NULL,PennController,25,_Trial_,End,1730468806700,undefined,637,destroy,concrete-negative,abstract,concrete,A,NULL
1730469531,794a4133ac06b619431debfb734fe0d3,PennController,5,0,test_conc,NULL,PennController,16,_Trial_,Start,1730468806702,undefined,518,hug,concrete-positive,abstract,concrete,A,NULL
1730469531,794a4133ac06b619431debfb734fe0d3,PennController,5,0,test_conc,NULL,PennController,16,_Header_,Start,1730468806702,undefined,518,hug,concrete-positive,abstract,concrete,A,NULL
1730469531,794a4133ac06b619431debfb734fe0d3,PennController,5,0,test_conc,NULL,PennController,16,_Header_,End,1730468806964,undefined,518,hug,concrete-positive,abstract,concrete,A,NULL
1730469531,794a4133ac06b619431debfb734fe0d3,PennController,5,0,test_conc,NULL,Selector,unnamed-Selector,Selection,concrete,1730468807995,undefined,518,hug,concrete-positive,abstract,concrete,A,abstract;concrete
1730469531,794a4133ac06b619431debfb734fe0d3,PennController,5,0,test_conc,NULL,PennController,16,_Trial_,End,1730468807996,undefined,518,hug,concrete-positive,abstract,concrete,A,NULL
1730469531,794a4133ac06b619431debfb734fe0d3,PennController,21,0,test_conc,NULL,PennController,32,_Trial_,Start,1730468807997,undefined,1085,pollute,concrete-negative,abstract,concrete,A,NULL
1730469531,794a4133ac06b619431debfb734fe0d3,PennController,21,0,test_conc,NULL,PennController,32,_Header_,Start,1730468807997,undefined,1085,pollute,concrete-negative,abstract,concrete,A,NULL
1730469531,794a4133ac06b619431debfb734fe0d3,PennController,21,0,test_conc,NULL,PennController,32,_Header_,End,1730468808254,undefined,1085,pollute,concrete-negative,abstract,concrete,A,NULL
1730469531,794a4133ac06b619431debfb734fe0d3,PennController,21,0,test_conc,NULL,Selector,unnamed-Selector,Selection,abstract,1730468809855,undefined,1085,pollute,concrete-negative,abstract,concrete,A,abstract;concrete
1730469531,794a4133ac06b619431debfb734fe0d3,PennController,21,0,test_conc,NULL,PennController,32,_Trial_,End,1730468809857,undefined,1085,pollute,concrete-negative,abstract,concrete,A,NULL
1730469531,794a4133ac06b619431debfb734fe0d3,PennController,28,0,test_conc,NULL,PennController,39,_Trial_,Start,1730468809858,undefined,540,respect,abstract-positive,abstract,concrete,A,NULL
1730469531,794a4133ac06b619431debfb734fe0d3,PennController,28,0,test_conc,NULL,PennController,39,_Header_,Start,1730468809858,undefined,540,respect,abstract-positive,abstract,concrete,A,NULL
1730469531,794a4133ac06b619431debfb734fe0d3,PennController,28,0,test_conc,NULL,PennController,39,_Header_,End,1730468810122,undefined,540,respect,abstract-positive,abstract,concrete,A,NULL
1730469531,794a4133ac06b619431debfb734fe0d3,PennController,28,0,test_conc,NULL,Selector,unnamed-Selector,Selection,abstract,1730468811174,undefined,540,respect,abstract-positive,abstract,concrete,A,abstract;concrete
1730469531,794a4133ac06b619431debfb734fe0d3,PennController,28,0,test_conc,NULL,PennController,39,_Trial_,End,1730468811176,undefined,540,respect,abstract-positive,abstract,concrete,A,NULL
1730469531,794a4133ac06b619431debfb734fe0d3,PennController,18,0,test_conc,NULL,PennController,29,_Trial_,Start,1730468811178,undefined,602,kill,concrete-negative,abstract,concrete,A,NULL
1730469531,794a4133ac06b619431debfb734fe0d3,PennController,18,0,test_conc,NULL,PennController,29,_Header_,Start,1730468811178,undefined,602,kill,concrete-negative,abstract,concrete,A,NULL
1730469531,794a4133ac06b619431debfb734fe0d3,PennController,18,0,test_conc,NULL,PennController,29,_Header_,End,1730468811441,undefined,602,kill,concrete-negative,abstract,concrete,A,NULL
1730469531,794a4133ac06b619431debfb734fe0d3,PennController,18,0,test_conc,NULL,Selector,unnamed-Selector,Selection,concrete,1730468812557,undefined,602,kill,concrete-negative,abstract,concrete,A,abstract;concrete
1730469531,794a4133ac06b619431debfb734fe0d3,PennController,18,0,test_conc,NULL,PennController,29,_Trial_,End,1730468812560,undefined,602,kill,concrete-negative,abstract,concrete,A,NULL
1730469531,794a4133ac06b619431debfb734fe0d3,PennController,43,0,test_conc,NULL,PennController,54,_Trial_,Start,1730468812561,undefined,613,irritate,abstract-negative,abstract,concrete,A,NULL
1730469531,794a4133ac06b619431debfb734fe0d3,PennController,43,0,test_conc,NULL,PennController,54,_Header_,Start,1730468812561,undefined,613,irritate,abstract-negative,abstract,concrete,A,NULL
1730469531,794a4133ac06b619431debfb734fe0d3,PennController,43,0,test_conc,NULL,PennController,54,_Header_,End,1730468812825,undefined,613,irritate,abstract-negative,abstract,concrete,A,NULL
1730469531,794a4133ac06b619431debfb734fe0d3,PennController,43,0,test_conc,NULL,Selector,unnamed-Selector,Selection,abstract,1730468813949,undefined,613,irritate,abstract-negative,abstract,concrete,A,abstract;concrete
