#
# Results on Wed, 06 Nov 2024 14:40:49 GMT
# USER AGENT: Mozilla/5.0 (Windows NT 10.0; Win64; x64) AppleWebKit/537.36 (KHTML, like Gecko) Chrome/130.0.0.0 Safari/537.36
# Design number was non-random = 0
#
# Columns below this comment are as follows:
# 1. Results reception time.
# 2. MD5 hash of participant's IP address.
# 3. Controller name.
# 4. Order number of item.
# 5. Inner element number.
# 6. Label.
# 7. Latin Square Group.
# 8. PennElementType.
# 9. PennElementName.
# 10. Parameter.
# 11. Value.
# 12. EventTime.
# 13. Comments.
1730904049,0ff9f7c3c0ce320f262fff7afb05e7d1,PennController,1,0,welcome,NULL,PennController,0,_Trial_,Start,1730903353369,NULL
1730904049,0ff9f7c3c0ce320f262fff7afb05e7d1,PennController,1,0,welcome,NULL,PennController,0,_Header_,Start,1730903353369,NULL
1730904049,0ff9f7c3c0ce320f262fff7afb05e7d1,PennController,1,0,welcome,NULL,PennController,0,_Header_,End,1730903353623,NULL
1730904049,0ff9f7c3c0ce320f262fff7afb05e7d1,PennController,1,0,welcome,NULL,PennController,0,_Trial_,End,1730903363213,NULL
# 13. ID.
# 14. Comments.
1730904049,0ff9f7c3c0ce320f262fff7afb05e7d1,PennController,124,0,consent,NULL,PennController,2,_Trial_,Start,1730903363216,5ee0e5063f7f190b2b3f3b14,NULL
1730904049,0ff9f7c3c0ce320f262fff7afb05e7d1,PennController,124,0,consent,NULL,PennController,2,_Header_,Start,1730903363216,5ee0e5063f7f190b2b3f3b14,NULL
1730904049,0ff9f7c3c0ce320f262fff7afb05e7d1,PennController,124,0,consent,NULL,PennController,2,_Header_,End,1730903363468,5ee0e5063f7f190b2b3f3b14,NULL
1730904049,0ff9f7c3c0ce320f262fff7afb05e7d1,PennController,124,0,consent,NULL,TextInput,ID,First,,1730903379831,5ee0e5063f7f190b2b3f3b14,Control
1730904049,0ff9f7c3c0ce320f262fff7afb05e7d1,PennController,124,0,consent,NULL,TextInput,ID,Final,5ee0e5063f7f190b2b3f3b14,1730903382021,5ee0e5063f7f190b2b3f3b14,NULL
1730904049,0ff9f7c3c0ce320f262fff7afb05e7d1,PennController,124,0,consent,NULL,PennController,2,_Trial_,End,1730903382022,5ee0e5063f7f190b2b3f3b14,NULL
# 13. Comments.
1730904049,0ff9f7c3c0ce320f262fff7afb05e7d1,PennController,126,0,instructions1_conc,NULL,PennController,4,_Trial_,Start,1730903382023,NULL
1730904049,0ff9f7c3c0ce320f262fff7afb05e7d1,PennController,126,0,instructions1_conc,NULL,PennController,4,_Header_,Start,1730903382023,NULL
1730904049,0ff9f7c3c0ce320f262fff7afb05e7d1,PennController,126,0,instructions1_conc,NULL,PennController,4,_Header_,End,1730903382275,NULL
1730904049,0ff9f7c3c0ce320f262fff7afb05e7d1,PennController,126,0,instructions1_conc,NULL,PennController,4,_Trial_,End,1730903405733,NULL
1730904049,0ff9f7c3c0ce320f262fff7afb05e7d1,PennController,127,0,instructions2_conc,NULL,PennController,5,_Trial_,Start,1730903405734,NULL
1730904049,0ff9f7c3c0ce320f262fff7afb05e7d1,PennController,127,0,instructions2_conc,NULL,PennController,5,_Header_,Start,1730903405734,NULL
1730904049,0ff9f7c3c0ce320f262fff7afb05e7d1,PennController,127,0,instructions2_conc,NULL,PennController,5,_Header_,End,1730903405984,NULL
1730904049,0ff9f7c3c0ce320f262fff7afb05e7d1,PennController,127,0,instructions2_conc,NULL,PennController,5,_Trial_,End,1730903412652,NULL
1730904049,0ff9f7c3c0ce320f262fff7afb05e7d1,PennController,134,0,instructions3_hands,NULL,PennController,12,_Trial_,Start,1730903412653,NULL
1730904049,0ff9f7c3c0ce320f262fff7afb05e7d1,PennController,134,0,instructions3_hands,NULL,PennController,12,_Header_,Start,1730903412653,NULL
1730904049,0ff9f7c3c0ce320f262fff7afb05e7d1,PennController,134,0,instructions3_hands,NULL,PennController,12,_Header_,End,1730903412903,NULL
1730904049,0ff9f7c3c0ce320f262fff7afb05e7d1,PennController,134,0,instructions3_hands,NULL,PennController,12,_Trial_,End,1730903430775,NULL
1730904049,0ff9f7c3c0ce320f262fff7afb05e7d1,PennController,129,0,practice_intro_conc,NULL,PennController,7,_Trial_,Start,1730903430776,NULL
1730904049,0ff9f7c3c0ce320f262fff7afb05e7d1,PennController,129,0,practice_intro_conc,NULL,PennController,7,_Header_,Start,1730903430776,NULL
1730904049,0ff9f7c3c0ce320f262fff7afb05e7d1,PennController,129,0,practice_intro_conc,NULL,PennController,7,_Header_,End,1730903431029,NULL
1730904049,0ff9f7c3c0ce320f262fff7afb05e7d1,PennController,129,0,practice_intro_conc,NULL,PennController,7,_Trial_,End,1730903432873,NULL
# 13. ID.
# 14. ReactionTime.
# 15. Word.
# 16. selectedKey.
# 17. selectedValue.
# 18. Key_value_F.
# 19. Key_value_J.
# 20. Group.
# 21. Comments.
1730904049,0ff9f7c3c0ce320f262fff7afb05e7d1,PennController,88,0,calibrator_conc_feedback,NULL,PennController,99,_Trial_,Start,1730903432874,undefined,2746,polite,undefined,concrete,abstract,concrete,A,NULL
1730904049,0ff9f7c3c0ce320f262fff7afb05e7d1,PennController,88,0,calibrator_conc_feedback,NULL,PennController,99,_Header_,Start,1730903432874,undefined,2746,polite,undefined,concrete,abstract,concrete,A,NULL
1730904049,0ff9f7c3c0ce320f262fff7afb05e7d1,PennController,88,0,calibrator_conc_feedback,NULL,PennController,99,_Header_,End,1730903433124,undefined,2746,polite,undefined,concrete,abstract,concrete,A,NULL
1730904049,0ff9f7c3c0ce320f262fff7afb05e7d1,PennController,88,0,calibrator_conc_feedback,NULL,Selector,Selection,Selection,abstract,1730903436372,undefined,2746,polite,undefined,concrete,abstract,concrete,A,abstract;concrete
1730904049,0ff9f7c3c0ce320f262fff7afb05e7d1,PennController,88,0,calibrator_conc_feedback,NULL,PennController,99,_Trial_,End,1730903438380,undefined,2746,polite,undefined,concrete,abstract,concrete,A,NULL
1730904049,0ff9f7c3c0ce320f262fff7afb05e7d1,PennController,89,0,calibrator_conc_feedback,NULL,PennController,100,_Trial_,Start,1730903438381,undefined,1142,shirt,undefined,concrete,abstract,concrete,A,NULL
1730904049,0ff9f7c3c0ce320f262fff7afb05e7d1,PennController,89,0,calibrator_conc_feedback,NULL,PennController,100,_Header_,Start,1730903438381,undefined,1142,shirt,undefined,concrete,abstract,concrete,A,NULL
1730904049,0ff9f7c3c0ce320f262fff7afb05e7d1,PennController,89,0,calibrator_conc_feedback,NULL,PennController,100,_Header_,End,1730903438632,undefined,1142,shirt,undefined,concrete,abstract,concrete,A,NULL
1730904049,0ff9f7c3c0ce320f262fff7afb05e7d1,PennController,89,0,calibrator_conc_feedback,NULL,Selector,Selection,Selection,concrete,1730903440276,undefined,1142,shirt,undefined,concrete,abstract,concrete,A,abstract;concrete
1730904049,0ff9f7c3c0ce320f262fff7afb05e7d1,PennController,89,0,calibrator_conc_feedback,NULL,PennController,100,_Trial_,End,1730903442277,undefined,1142,shirt,undefined,concrete,abstract,concrete,A,NULL
1730904049,0ff9f7c3c0ce320f262fff7afb05e7d1,PennController,84,0,calibrator_conc_feedback,NULL,PennController,95,_Trial_,Start,1730903442278,undefined,1539,gas,undefined,concrete,abstract,concrete,A,NULL
1730904049,0ff9f7c3c0ce320f262fff7afb05e7d1,PennController,84,0,calibrator_conc_feedback,NULL,PennController,95,_Header_,Start,1730903442278,undefined,1539,gas,undefined,concrete,abstract,concrete,A,NULL
1730904049,0ff9f7c3c0ce320f262fff7afb05e7d1,PennController,84,0,calibrator_conc_feedback,NULL,PennController,95,_Header_,End,1730903442533,undefined,1539,gas,undefined,concrete,abstract,concrete,A,NULL
1730904049,0ff9f7c3c0ce320f262fff7afb05e7d1,PennController,84,0,calibrator_conc_feedback,NULL,Selector,Selection,Selection,concrete,1730903444574,undefined,1539,gas,undefined,concrete,abstract,concrete,A,abstract;concrete
1730904049,0ff9f7c3c0ce320f262fff7afb05e7d1,PennController,84,0,calibrator_conc_feedback,NULL,PennController,95,_Trial_,End,1730903446578,undefined,1539,gas,undefined,concrete,abstract,concrete,A,NULL
1730904049,0ff9f7c3c0ce320f262fff7afb05e7d1,PennController,87,0,calibrator_conc_feedback,NULL,PennController,98,_Trial_,Start,1730903446579,undefined,2207,marriage,undefined,concrete,abstract,concrete,A,NULL
1730904049,0ff9f7c3c0ce320f262fff7afb05e7d1,PennController,87,0,calibrator_conc_feedback,NULL,PennController,98,_Header_,Start,1730903446579,undefined,2207,marriage,undefined,concrete,abstract,concrete,A,NULL
1730904049,0ff9f7c3c0ce320f262fff7afb05e7d1,PennController,87,0,calibrator_conc_feedback,NULL,PennController,98,_Header_,End,1730903446833,undefined,2207,marriage,undefined,concrete,abstract,concrete,A,NULL
1730904049,0ff9f7c3c0ce320f262fff7afb05e7d1,PennController,87,0,calibrator_conc_feedback,NULL,Selector,Selection,Selection,abstract,1730903449539,undefined,2207,marriage,undefined,concrete,abstract,concrete,A,abstract;concrete
1730904049,0ff9f7c3c0ce320f262fff7afb05e7d1,PennController,87,0,calibrator_conc_feedback,NULL,PennController,98,_Trial_,End,1730903451543,undefined,2207,marriage,undefined,concrete,abstract,concrete,A,NULL
1730904049,0ff9f7c3c0ce320f262fff7afb05e7d1,PennController,92,0,calibrator_conc_feedback,NULL,PennController,103,_Trial_,Start,1730903451544,undefined,2928,whistle,undefined,concrete,abstract,concrete,A,NULL
1730904049,0ff9f7c3c0ce320f262fff7afb05e7d1,PennController,92,0,calibrator_conc_feedback,NULL,PennController,103,_Header_,Start,1730903451544,undefined,2928,whistle,undefined,concrete,abstract,concrete,A,NULL
1730904049,0ff9f7c3c0ce320f262fff7afb05e7d1,PennController,92,0,calibrator_conc_feedback,NULL,PennController,103,_Header_,End,1730903451796,undefined,2928,whistle,undefined,concrete,abstract,concrete,A,NULL
1730904049,0ff9f7c3c0ce320f262fff7afb05e7d1,PennController,92,0,calibrator_conc_feedback,NULL,Selector,Selection,Selection,abstract,1730903455229,undefined,2928,whistle,undefined,concrete,abstract,concrete,A,abstract;concrete
1730904049,0ff9f7c3c0ce320f262fff7afb05e7d1,PennController,92,0,calibrator_conc_feedback,NULL,PennController,103,_Trial_,End,1730903457234,undefined,2928,whistle,undefined,concrete,abstract,concrete,A,NULL
1730904049,0ff9f7c3c0ce320f262fff7afb05e7d1,PennController,86,0,calibrator_conc_feedback,NULL,PennController,97,_Trial_,Start,1730903457235,undefined,1173,kick,undefined,concrete,abstract,concrete,A,NULL
1730904049,0ff9f7c3c0ce320f262fff7afb05e7d1,PennController,86,0,calibrator_conc_feedback,NULL,PennController,97,_Header_,Start,1730903457235,undefined,1173,kick,undefined,concrete,abstract,concrete,A,NULL
1730904049,0ff9f7c3c0ce320f262fff7afb05e7d1,PennController,86,0,calibrator_conc_feedback,NULL,PennController,97,_Header_,End,1730903457486,undefined,1173,kick,undefined,concrete,abstract,concrete,A,NULL
1730904049,0ff9f7c3c0ce320f262fff7afb05e7d1,PennController,86,0,calibrator_conc_feedback,NULL,Selector,Selection,Selection,abstract,1730903459164,undefined,1173,kick,undefined,concrete,abstract,concrete,A,abstract;concrete
1730904049,0ff9f7c3c0ce320f262fff7afb05e7d1,PennController,86,0,calibrator_conc_feedback,NULL,PennController,97,_Trial_,End,1730903461170,undefined,1173,kick,undefined,concrete,abstract,concrete,A,NULL
1730904049,0ff9f7c3c0ce320f262fff7afb05e7d1,PennController,90,0,calibrator_conc_feedback,NULL,PennController,101,_Trial_,Start,1730903461171,undefined,721,sugar,undefined,concrete,abstract,concrete,A,NULL
1730904049,0ff9f7c3c0ce320f262fff7afb05e7d1,PennController,90,0,calibrator_conc_feedback,NULL,PennController,101,_Header_,Start,1730903461171,undefined,721,sugar,undefined,concrete,abstract,concrete,A,NULL
1730904049,0ff9f7c3c0ce320f262fff7afb05e7d1,PennController,90,0,calibrator_conc_feedback,NULL,PennController,101,_Header_,End,1730903461421,undefined,721,sugar,undefined,concrete,abstract,concrete,A,NULL
1730904049,0ff9f7c3c0ce320f262fff7afb05e7d1,PennController,90,0,calibrator_conc_feedback,NULL,Selector,Selection,Selection,concrete,1730903462643,undefined,721,sugar,undefined,concrete,abstract,concrete,A,abstract;concrete
1730904049,0ff9f7c3c0ce320f262fff7afb05e7d1,PennController,90,0,calibrator_conc_feedback,NULL,PennController,101,_Trial_,End,1730903464646,undefined,721,sugar,undefined,concrete,abstract,concrete,A,NULL
1730904049,0ff9f7c3c0ce320f262fff7afb05e7d1,PennController,85,0,calibrator_conc_feedback,NULL,PennController,96,_Trial_,Start,1730903464647,undefined,1162,grasshopper,undefined,concrete,abstract,concrete,A,NULL
1730904049,0ff9f7c3c0ce320f262fff7afb05e7d1,PennController,85,0,calibrator_conc_feedback,NULL,PennController,96,_Header_,Start,1730903464647,undefined,1162,grasshopper,undefined,concrete,abstract,concrete,A,NULL
1730904049,0ff9f7c3c0ce320f262fff7afb05e7d1,PennController,85,0,calibrator_conc_feedback,NULL,PennController,96,_Header_,End,1730903464899,undefined,1162,grasshopper,undefined,concrete,abstract,concrete,A,NULL
1730904049,0ff9f7c3c0ce320f262fff7afb05e7d1,PennController,85,0,calibrator_conc_feedback,NULL,Selector,Selection,Selection,concrete,1730903466564,undefined,1162,grasshopper,undefined,concrete,abstract,concrete,A,abstract;concrete
1730904049,0ff9f7c3c0ce320f262fff7afb05e7d1,PennController,85,0,calibrator_conc_feedback,NULL,PennController,96,_Trial_,End,1730903468566,undefined,1162,grasshopper,undefined,concrete,abstract,concrete,A,NULL
1730904049,0ff9f7c3c0ce320f262fff7afb05e7d1,PennController,91,0,calibrator_conc_feedback,NULL,PennController,102,_Trial_,Start,1730903468567,undefined,812,theory,undefined,concrete,abstract,concrete,A,NULL
1730904049,0ff9f7c3c0ce320f262fff7afb05e7d1,PennController,91,0,calibrator_conc_feedback,NULL,PennController,102,_Header_,Start,1730903468567,undefined,812,theory,undefined,concrete,abstract,concrete,A,NULL
1730904049,0ff9f7c3c0ce320f262fff7afb05e7d1,PennController,91,0,calibrator_conc_feedback,NULL,PennController,102,_Header_,End,1730903468820,undefined,812,theory,undefined,concrete,abstract,concrete,A,NULL
1730904049,0ff9f7c3c0ce320f262fff7afb05e7d1,PennController,91,0,calibrator_conc_feedback,NULL,Selector,Selection,Selection,abstract,1730903470135,undefined,812,theory,undefined,concrete,abstract,concrete,A,abstract;concrete
1730904049,0ff9f7c3c0ce320f262fff7afb05e7d1,PennController,91,0,calibrator_conc_feedback,NULL,PennController,102,_Trial_,End,1730903472141,undefined,812,theory,undefined,concrete,abstract,concrete,A,NULL
1730904049,0ff9f7c3c0ce320f262fff7afb05e7d1,PennController,93,0,calibrator_conc_feedback,NULL,PennController,104,_Trial_,Start,1730903472143,undefined,1043,insecure,undefined,concrete,abstract,concrete,A,NULL
1730904049,0ff9f7c3c0ce320f262fff7afb05e7d1,PennController,93,0,calibrator_conc_feedback,NULL,PennController,104,_Header_,Start,1730903472143,undefined,1043,insecure,undefined,concrete,abstract,concrete,A,NULL
1730904049,0ff9f7c3c0ce320f262fff7afb05e7d1,PennController,93,0,calibrator_conc_feedback,NULL,PennController,104,_Header_,End,1730903472394,undefined,1043,insecure,undefined,concrete,abstract,concrete,A,NULL
1730904049,0ff9f7c3c0ce320f262fff7afb05e7d1,PennController,93,0,calibrator_conc_feedback,NULL,Selector,Selection,Selection,abstract,1730903473940,undefined,1043,insecure,undefined,concrete,abstract,concrete,A,abstract;concrete
1730904049,0ff9f7c3c0ce320f262fff7afb05e7d1,PennController,93,0,calibrator_conc_feedback,NULL,PennController,104,_Trial_,End,1730903475943,undefined,1043,insecure,undefined,concrete,abstract,concrete,A,NULL
# 16. Key_value_F.
# 17. Key_value_J.
# 18. Group.
# 19. Comments.
1730904049,0ff9f7c3c0ce320f262fff7afb05e7d1,PennController,94,0,calibrator_conc_no_feedback,NULL,PennController,105,_Trial_,Start,1730903475944,undefined,1193,gas,abstract,concrete,A,NULL
1730904049,0ff9f7c3c0ce320f262fff7afb05e7d1,PennController,94,0,calibrator_conc_no_feedback,NULL,PennController,105,_Header_,Start,1730903475944,undefined,1193,gas,abstract,concrete,A,NULL
1730904049,0ff9f7c3c0ce320f262fff7afb05e7d1,PennController,94,0,calibrator_conc_no_feedback,NULL,PennController,105,_Header_,End,1730903476194,undefined,1193,gas,abstract,concrete,A,NULL
1730904049,0ff9f7c3c0ce320f262fff7afb05e7d1,PennController,94,0,calibrator_conc_no_feedback,NULL,Selector,unnamed-Selector,Selection,concrete,1730903477889,undefined,1193,gas,abstract,concrete,A,abstract;concrete
1730904049,0ff9f7c3c0ce320f262fff7afb05e7d1,PennController,94,0,calibrator_conc_no_feedback,NULL,PennController,105,_Trial_,End,1730903477890,undefined,1193,gas,abstract,concrete,A,NULL
1730904049,0ff9f7c3c0ce320f262fff7afb05e7d1,PennController,102,0,calibrator_conc_no_feedback,NULL,PennController,113,_Trial_,Start,1730903477891,undefined,1530,whistle,abstract,concrete,A,NULL
1730904049,0ff9f7c3c0ce320f262fff7afb05e7d1,PennController,102,0,calibrator_conc_no_feedback,NULL,PennController,113,_Header_,Start,1730903477891,undefined,1530,whistle,abstract,concrete,A,NULL
1730904049,0ff9f7c3c0ce320f262fff7afb05e7d1,PennController,102,0,calibrator_conc_no_feedback,NULL,PennController,113,_Header_,End,1730903478145,undefined,1530,whistle,abstract,concrete,A,NULL
1730904049,0ff9f7c3c0ce320f262fff7afb05e7d1,PennController,102,0,calibrator_conc_no_feedback,NULL,Selector,unnamed-Selector,Selection,abstract,1730903480177,undefined,1530,whistle,abstract,concrete,A,abstract;concrete
1730904049,0ff9f7c3c0ce320f262fff7afb05e7d1,PennController,102,0,calibrator_conc_no_feedback,NULL,PennController,113,_Trial_,End,1730903480178,undefined,1530,whistle,abstract,concrete,A,NULL
1730904049,0ff9f7c3c0ce320f262fff7afb05e7d1,PennController,98,0,calibrator_conc_no_feedback,NULL,PennController,109,_Trial_,Start,1730903480180,undefined,1773,polite,abstract,concrete,A,NULL
1730904049,0ff9f7c3c0ce320f262fff7afb05e7d1,PennController,98,0,calibrator_conc_no_feedback,NULL,PennController,109,_Header_,Start,1730903480180,undefined,1773,polite,abstract,concrete,A,NULL
1730904049,0ff9f7c3c0ce320f262fff7afb05e7d1,PennController,98,0,calibrator_conc_no_feedback,NULL,PennController,109,_Header_,End,1730903480433,undefined,1773,polite,abstract,concrete,A,NULL
1730904049,0ff9f7c3c0ce320f262fff7afb05e7d1,PennController,98,0,calibrator_conc_no_feedback,NULL,Selector,unnamed-Selector,Selection,abstract,1730903482710,undefined,1773,polite,abstract,concrete,A,abstract;concrete
1730904049,0ff9f7c3c0ce320f262fff7afb05e7d1,PennController,98,0,calibrator_conc_no_feedback,NULL,PennController,109,_Trial_,End,1730903482711,undefined,1773,polite,abstract,concrete,A,NULL
1730904049,0ff9f7c3c0ce320f262fff7afb05e7d1,PennController,99,0,calibrator_conc_no_feedback,NULL,PennController,110,_Trial_,Start,1730903482711,undefined,1276,shirt,abstract,concrete,A,NULL
1730904049,0ff9f7c3c0ce320f262fff7afb05e7d1,PennController,99,0,calibrator_conc_no_feedback,NULL,PennController,110,_Header_,Start,1730903482711,undefined,1276,shirt,abstract,concrete,A,NULL
1730904049,0ff9f7c3c0ce320f262fff7afb05e7d1,PennController,99,0,calibrator_conc_no_feedback,NULL,PennController,110,_Header_,End,1730903482963,undefined,1276,shirt,abstract,concrete,A,NULL
1730904049,0ff9f7c3c0ce320f262fff7afb05e7d1,PennController,99,0,calibrator_conc_no_feedback,NULL,Selector,unnamed-Selector,Selection,concrete,1730903484741,undefined,1276,shirt,abstract,concrete,A,abstract;concrete
1730904049,0ff9f7c3c0ce320f262fff7afb05e7d1,PennController,99,0,calibrator_conc_no_feedback,NULL,PennController,110,_Trial_,End,1730903484744,undefined,1276,shirt,abstract,concrete,A,NULL
1730904049,0ff9f7c3c0ce320f262fff7afb05e7d1,PennController,103,0,calibrator_conc_no_feedback,NULL,PennController,114,_Trial_,Start,1730903484746,undefined,1409,insecure,abstract,concrete,A,NULL
1730904049,0ff9f7c3c0ce320f262fff7afb05e7d1,PennController,103,0,calibrator_conc_no_feedback,NULL,PennController,114,_Header_,Start,1730903484746,undefined,1409,insecure,abstract,concrete,A,NULL
1730904049,0ff9f7c3c0ce320f262fff7afb05e7d1,PennController,103,0,calibrator_conc_no_feedback,NULL,PennController,114,_Header_,End,1730903484996,undefined,1409,insecure,abstract,concrete,A,NULL
1730904049,0ff9f7c3c0ce320f262fff7afb05e7d1,PennController,103,0,calibrator_conc_no_feedback,NULL,Selector,unnamed-Selector,Selection,abstract,1730903486909,undefined,1409,insecure,abstract,concrete,A,abstract;concrete
1730904049,0ff9f7c3c0ce320f262fff7afb05e7d1,PennController,103,0,calibrator_conc_no_feedback,NULL,PennController,114,_Trial_,End,1730903486910,undefined,1409,insecure,abstract,concrete,A,NULL
1730904049,0ff9f7c3c0ce320f262fff7afb05e7d1,PennController,95,0,calibrator_conc_no_feedback,NULL,PennController,106,_Trial_,Start,1730903486912,undefined,736,grasshopper,abstract,concrete,A,NULL
1730904049,0ff9f7c3c0ce320f262fff7afb05e7d1,PennController,95,0,calibrator_conc_no_feedback,NULL,PennController,106,_Header_,Start,1730903486912,undefined,736,grasshopper,abstract,concrete,A,NULL
1730904049,0ff9f7c3c0ce320f262fff7afb05e7d1,PennController,95,0,calibrator_conc_no_feedback,NULL,PennController,106,_Header_,End,1730903487166,undefined,736,grasshopper,abstract,concrete,A,NULL
1730904049,0ff9f7c3c0ce320f262fff7afb05e7d1,PennController,95,0,calibrator_conc_no_feedback,NULL,Selector,unnamed-Selector,Selection,concrete,1730903488405,undefined,736,grasshopper,abstract,concrete,A,abstract;concrete
1730904049,0ff9f7c3c0ce320f262fff7afb05e7d1,PennController,95,0,calibrator_conc_no_feedback,NULL,PennController,106,_Trial_,End,1730903488406,undefined,736,grasshopper,abstract,concrete,A,NULL
1730904049,0ff9f7c3c0ce320f262fff7afb05e7d1,PennController,101,0,calibrator_conc_no_feedback,NULL,PennController,112,_Trial_,Start,1730903488407,undefined,666,theory,abstract,concrete,A,NULL
1730904049,0ff9f7c3c0ce320f262fff7afb05e7d1,PennController,101,0,calibrator_conc_no_feedback,NULL,PennController,112,_Header_,Start,1730903488407,undefined,666,theory,abstract,concrete,A,NULL
1730904049,0ff9f7c3c0ce320f262fff7afb05e7d1,PennController,101,0,calibrator_conc_no_feedback,NULL,PennController,112,_Header_,End,1730903488660,undefined,666,theory,abstract,concrete,A,NULL
1730904049,0ff9f7c3c0ce320f262fff7afb05e7d1,PennController,101,0,calibrator_conc_no_feedback,NULL,Selector,unnamed-Selector,Selection,abstract,1730903489828,undefined,666,theory,abstract,concrete,A,abstract;concrete
1730904049,0ff9f7c3c0ce320f262fff7afb05e7d1,PennController,101,0,calibrator_conc_no_feedback,NULL,PennController,112,_Trial_,End,1730903489830,undefined,666,theory,abstract,concrete,A,NULL
1730904049,0ff9f7c3c0ce320f262fff7afb05e7d1,PennController,96,0,calibrator_conc_no_feedback,NULL,PennController,107,_Trial_,Start,1730903489832,undefined,1009,kick,abstract,concrete,A,NULL
1730904049,0ff9f7c3c0ce320f262fff7afb05e7d1,PennController,96,0,calibrator_conc_no_feedback,NULL,PennController,107,_Header_,Start,1730903489832,undefined,1009,kick,abstract,concrete,A,NULL
1730904049,0ff9f7c3c0ce320f262fff7afb05e7d1,PennController,96,0,calibrator_conc_no_feedback,NULL,PennController,107,_Header_,End,1730903490083,undefined,1009,kick,abstract,concrete,A,NULL
1730904049,0ff9f7c3c0ce320f262fff7afb05e7d1,PennController,96,0,calibrator_conc_no_feedback,NULL,Selector,unnamed-Selector,Selection,abstract,1730903491596,undefined,1009,kick,abstract,concrete,A,abstract;concrete
1730904049,0ff9f7c3c0ce320f262fff7afb05e7d1,PennController,96,0,calibrator_conc_no_feedback,NULL,PennController,107,_Trial_,End,1730903491597,undefined,1009,kick,abstract,concrete,A,NULL
1730904049,0ff9f7c3c0ce320f262fff7afb05e7d1,PennController,100,0,calibrator_conc_no_feedback,NULL,PennController,111,_Trial_,Start,1730903491598,undefined,644,sugar,abstract,concrete,A,NULL
1730904049,0ff9f7c3c0ce320f262fff7afb05e7d1,PennController,100,0,calibrator_conc_no_feedback,NULL,PennController,111,_Header_,Start,1730903491598,undefined,644,sugar,abstract,concrete,A,NULL
1730904049,0ff9f7c3c0ce320f262fff7afb05e7d1,PennController,100,0,calibrator_conc_no_feedback,NULL,PennController,111,_Header_,End,1730903491851,undefined,644,sugar,abstract,concrete,A,NULL
1730904049,0ff9f7c3c0ce320f262fff7afb05e7d1,PennController,100,0,calibrator_conc_no_feedback,NULL,Selector,unnamed-Selector,Selection,concrete,1730903492997,undefined,644,sugar,abstract,concrete,A,abstract;concrete
1730904049,0ff9f7c3c0ce320f262fff7afb05e7d1,PennController,100,0,calibrator_conc_no_feedback,NULL,PennController,111,_Trial_,End,1730903492999,undefined,644,sugar,abstract,concrete,A,NULL
1730904049,0ff9f7c3c0ce320f262fff7afb05e7d1,PennController,97,0,calibrator_conc_no_feedback,NULL,PennController,108,_Trial_,Start,1730903493001,undefined,732,marriage,abstract,concrete,A,NULL
1730904049,0ff9f7c3c0ce320f262fff7afb05e7d1,PennController,97,0,calibrator_conc_no_feedback,NULL,PennController,108,_Header_,Start,1730903493001,undefined,732,marriage,abstract,concrete,A,NULL
1730904049,0ff9f7c3c0ce320f262fff7afb05e7d1,PennController,97,0,calibrator_conc_no_feedback,NULL,PennController,108,_Header_,End,1730903493251,undefined,732,marriage,abstract,concrete,A,NULL
1730904049,0ff9f7c3c0ce320f262fff7afb05e7d1,PennController,97,0,calibrator_conc_no_feedback,NULL,Selector,unnamed-Selector,Selection,abstract,1730903494486,undefined,732,marriage,abstract,concrete,A,abstract;concrete
1730904049,0ff9f7c3c0ce320f262fff7afb05e7d1,PennController,97,0,calibrator_conc_no_feedback,NULL,PennController,108,_Trial_,End,1730903494488,undefined,732,marriage,abstract,concrete,A,NULL
# 13. Comments.
1730904049,0ff9f7c3c0ce320f262fff7afb05e7d1,PennController,130,0,endinstructions_conc,NULL,PennController,8,_Trial_,Start,1730903494491,NULL
1730904049,0ff9f7c3c0ce320f262fff7afb05e7d1,PennController,130,0,endinstructions_conc,NULL,PennController,8,_Header_,Start,1730903494491,NULL
1730904049,0ff9f7c3c0ce320f262fff7afb05e7d1,PennController,130,0,endinstructions_conc,NULL,PennController,8,_Header_,End,1730903494741,NULL
1730904049,0ff9f7c3c0ce320f262fff7afb05e7d1,PennController,130,0,endinstructions_conc,NULL,PennController,8,_Trial_,End,1730903506605,NULL
# 13. ID.
# 14. ReactionTime.
# 15. Word.
# 16. ConcValCombo.
# 17. Key_value_F.
# 18. Key_value_J.
# 19. Group.
# 20. Comments.
1730904049,0ff9f7c3c0ce320f262fff7afb05e7d1,PennController,7,0,test_conc,NULL,PennController,18,_Trial_,Start,1730903506607,undefined,1256,deliver,concrete-positive,abstract,concrete,A,NULL
1730904049,0ff9f7c3c0ce320f262fff7afb05e7d1,PennController,7,0,test_conc,NULL,PennController,18,_Header_,Start,1730903506607,undefined,1256,deliver,concrete-positive,abstract,concrete,A,NULL
1730904049,0ff9f7c3c0ce320f262fff7afb05e7d1,PennController,7,0,test_conc,NULL,PennController,18,_Header_,End,1730903506857,undefined,1256,deliver,concrete-positive,abstract,concrete,A,NULL
1730904049,0ff9f7c3c0ce320f262fff7afb05e7d1,PennController,7,0,test_conc,NULL,Selector,unnamed-Selector,Selection,abstract,1730903508618,undefined,1256,deliver,concrete-positive,abstract,concrete,A,abstract;concrete
1730904049,0ff9f7c3c0ce320f262fff7afb05e7d1,PennController,7,0,test_conc,NULL,PennController,18,_Trial_,End,1730903508619,undefined,1256,deliver,concrete-positive,abstract,concrete,A,NULL
1730904049,0ff9f7c3c0ce320f262fff7afb05e7d1,PennController,18,0,test_conc,NULL,PennController,29,_Trial_,Start,1730903508620,undefined,849,destroy,concrete-negative,abstract,concrete,A,NULL
1730904049,0ff9f7c3c0ce320f262fff7afb05e7d1,PennController,18,0,test_conc,NULL,PennController,29,_Header_,Start,1730903508620,undefined,849,destroy,concrete-negative,abstract,concrete,A,NULL
1730904049,0ff9f7c3c0ce320f262fff7afb05e7d1,PennController,18,0,test_conc,NULL,PennController,29,_Header_,End,1730903508874,undefined,849,destroy,concrete-negative,abstract,concrete,A,NULL
1730904049,0ff9f7c3c0ce320f262fff7afb05e7d1,PennController,18,0,test_conc,NULL,Selector,unnamed-Selector,Selection,abstract,1730903510226,undefined,849,destroy,concrete-negative,abstract,concrete,A,abstract;concrete
1730904049,0ff9f7c3c0ce320f262fff7afb05e7d1,PennController,18,0,test_conc,NULL,PennController,29,_Trial_,End,1730903510228,undefined,849,destroy,concrete-negative,abstract,concrete,A,NULL
1730904049,0ff9f7c3c0ce320f262fff7afb05e7d1,PennController,6,0,test_conc,NULL,PennController,17,_Trial_,Start,1730903510230,undefined,755,support,concrete-positive,abstract,concrete,A,NULL
1730904049,0ff9f7c3c0ce320f262fff7afb05e7d1,PennController,6,0,test_conc,NULL,PennController,17,_Header_,Start,1730903510230,undefined,755,support,concrete-positive,abstract,concrete,A,NULL
1730904049,0ff9f7c3c0ce320f262fff7afb05e7d1,PennController,6,0,test_conc,NULL,PennController,17,_Header_,End,1730903510482,undefined,755,support,concrete-positive,abstract,concrete,A,NULL
1730904049,0ff9f7c3c0ce320f262fff7afb05e7d1,PennController,6,0,test_conc,NULL,Selector,unnamed-Selector,Selection,abstract,1730903511741,undefined,755,support,concrete-positive,abstract,concrete,A,abstract;concrete
1730904049,0ff9f7c3c0ce320f262fff7afb05e7d1,PennController,6,0,test_conc,NULL,PennController,17,_Trial_,End,1730903511744,undefined,755,support,concrete-positive,abstract,concrete,A,NULL
1730904049,0ff9f7c3c0ce320f262fff7afb05e7d1,PennController,37,0,test_conc,NULL,PennController,48,_Trial_,Start,1730903511745,undefined,620,resent,abstract-negative,abstract,concrete,A,NULL
1730904049,0ff9f7c3c0ce320f262fff7afb05e7d1,PennController,37,0,test_conc,NULL,PennController,48,_Header_,Start,1730903511745,undefined,620,resent,abstract-negative,abstract,concrete,A,NULL
1730904049,0ff9f7c3c0ce320f262fff7afb05e7d1,PennController,37,0,test_conc,NULL,PennController,48,_Header_,End,1730903511999,undefined,620,resent,abstract-negative,abstract,concrete,A,NULL
1730904049,0ff9f7c3c0ce320f262fff7afb05e7d1,PennController,37,0,test_conc,NULL,Selector,unnamed-Selector,Selection,abstract,1730903513120,undefined,620,resent,abstract-negative,abstract,concrete,A,abstract;concrete
1730904049,0ff9f7c3c0ce320f262fff7afb05e7d1,PennController,37,0,test_conc,NULL,PennController,48,_Trial_,End,1730903513122,undefined,620,resent,abstract-negative,abstract,concrete,A,NULL
1730904049,0ff9f7c3c0ce320f262fff7afb05e7d1,PennController,11,0,test_conc,NULL,PennController,22,_Trial_,Start,1730903513124,undefined,718,lift,concrete-positive,abstract,concrete,A,NULL
1730904049,0ff9f7c3c0ce320f262fff7afb05e7d1,PennController,11,0,test_conc,NULL,PennController,22,_Header_,Start,1730903513124,undefined,718,lift,concrete-positive,abstract,concrete,A,NULL
1730904049,0ff9f7c3c0ce320f262fff7afb05e7d1,PennController,11,0,test_conc,NULL,PennController,22,_Header_,End,1730903513377,undefined,718,lift,concrete-positive,abstract,concrete,A,NULL
1730904049,0ff9f7c3c0ce320f262fff7afb05e7d1,PennController,11,0,test_conc,NULL,Selector,unnamed-Selector,Selection,abstract,1730903514598,undefined,718,lift,concrete-positive,abstract,concrete,A,abstract;concrete
1730904049,0ff9f7c3c0ce320f262fff7afb05e7d1,PennController,11,0,test_conc,NULL,PennController,22,_Trial_,End,1730903514599,undefined,718,lift,concrete-positive,abstract,concrete,A,NULL
1730904049,0ff9f7c3c0ce320f262fff7afb05e7d1,PennController,4,0,test_conc,NULL,PennController,15,_Trial_,Start,1730903514599,undefined,1142,construct,concrete-positive,abstract,concrete,A,NULL
1730904049,0ff9f7c3c0ce320f262fff7afb05e7d1,PennController,4,0,test_conc,NULL,PennController,15,_Header_,Start,1730903514599,undefined,1142,construct,concrete-positive,abstract,concrete,A,NULL
1730904049,0ff9f7c3c0ce320f262fff7afb05e7d1,PennController,4,0,test_conc,NULL,PennController,15,_Header_,End,1730903514850,undefined,1142,construct,concrete-positive,abstract,concrete,A,NULL
1730904049,0ff9f7c3c0ce320f262fff7afb05e7d1,PennController,4,0,test_conc,NULL,Selector,unnamed-Selector,Selection,abstract,1730903516496,undefined,1142,construct,concrete-positive,abstract,concrete,A,abstract;concrete
1730904049,0ff9f7c3c0ce320f262fff7afb05e7d1,PennController,4,0,test_conc,NULL,PennController,15,_Trial_,End,1730903516497,undefined,1142,construct,concrete-positive,abstract,concrete,A,NULL
1730904049,0ff9f7c3c0ce320f262fff7afb05e7d1,PennController,10,0,test_conc,NULL,PennController,21,_Trial_,Start,1730903516498,undefined,1323,play,concrete-positive,abstract,concrete,A,NULL
1730904049,0ff9f7c3c0ce320f262fff7afb05e7d1,PennController,10,0,test_conc,NULL,PennController,21,_Header_,Start,1730903516498,undefined,1323,play,concrete-positive,abstract,concrete,A,NULL
1730904049,0ff9f7c3c0ce320f262fff7afb05e7d1,PennController,10,0,test_conc,NULL,PennController,21,_Header_,End,1730903516749,undefined,1323,play,concrete-positive,abstract,concrete,A,NULL
1730904049,0ff9f7c3c0ce320f262fff7afb05e7d1,PennController,10,0,test_conc,NULL,Selector,unnamed-Selector,Selection,abstract,1730903518578,undefined,1323,play,concrete-positive,abstract,concrete,A,abstract;concrete
1730904049,0ff9f7c3c0ce320f262fff7afb05e7d1,PennController,10,0,test_conc,NULL,PennController,21,_Trial_,End,1730903518579,undefined,1323,play,concrete-positive,abstract,concrete,A,NULL
1730904049,0ff9f7c3c0ce320f262fff7afb05e7d1,PennController,25,0,test_conc,NULL,PennController,36,_Trial_,Start,1730903518580,undefined,1008,empower,abstract-positive,abstract,concrete,A,NULL
1730904049,0ff9f7c3c0ce320f262fff7afb05e7d1,PennController,25,0,test_conc,NULL,PennController,36,_Header_,Start,1730903518580,undefined,1008,empower,abstract-positive,abstract,concrete,A,NULL
1730904049,0ff9f7c3c0ce320f262fff7afb05e7d1,PennController,25,0,test_conc,NULL,PennController,36,_Header_,End,1730903518833,undefined,1008,empower,abstract-positive,abstract,concrete,A,NULL
1730904049,0ff9f7c3c0ce320f262fff7afb05e7d1,PennController,25,0,test_conc,NULL,Selector,unnamed-Selector,Selection,abstract,1730903520346,undefined,1008,empower,abstract-positive,abstract,concrete,A,abstract;concrete
1730904049,0ff9f7c3c0ce320f262fff7afb05e7d1,PennController,25,0,test_conc,NULL,PennController,36,_Trial_,End,1730903520346,undefined,1008,empower,abstract-positive,abstract,concrete,A,NULL
1730904049,0ff9f7c3c0ce320f262fff7afb05e7d1,PennController,33,0,test_conc,NULL,PennController,44,_Trial_,Start,1730903520347,undefined,852,validate,abstract-positive,abstract,concrete,A,NULL
1730904049,0ff9f7c3c0ce320f262fff7afb05e7d1,PennController,33,0,test_conc,NULL,PennController,44,_Header_,Start,1730903520347,undefined,852,validate,abstract-positive,abstract,concrete,A,NULL
1730904049,0ff9f7c3c0ce320f262fff7afb05e7d1,PennController,33,0,test_conc,NULL,PennController,44,_Header_,End,1730903520597,undefined,852,validate,abstract-positive,abstract,concrete,A,NULL
1730904049,0ff9f7c3c0ce320f262fff7afb05e7d1,PennController,33,0,test_conc,NULL,Selector,unnamed-Selector,Selection,abstract,1730903521950,undefined,852,validate,abstract-positive,abstract,concrete,A,abstract;concrete
1730904049,0ff9f7c3c0ce320f262fff7afb05e7d1,PennController,33,0,test_conc,NULL,PennController,44,_Trial_,End,1730903521951,undefined,852,validate,abstract-positive,abstract,concrete,A,NULL
1730904049,0ff9f7c3c0ce320f262fff7afb05e7d1,PennController,27,0,test_conc,NULL,PennController,38,_Trial_,Start,1730903521951,undefined,1053,harmonize,abstract-positive,abstract,concrete,A,NULL
1730904049,0ff9f7c3c0ce320f262fff7afb05e7d1,PennController,27,0,test_conc,NULL,PennController,38,_Header_,Start,1730903521951,undefined,1053,harmonize,abstract-positive,abstract,concrete,A,NULL
1730904049,0ff9f7c3c0ce320f262fff7afb05e7d1,PennController,27,0,test_conc,NULL,PennController,38,_Header_,End,1730903522202,undefined,1053,harmonize,abstract-positive,abstract,concrete,A,NULL
1730904049,0ff9f7c3c0ce320f262fff7afb05e7d1,PennController,27,0,test_conc,NULL,Selector,unnamed-Selector,Selection,abstract,1730903523759,undefined,1053,harmonize,abstract-positive,abstract,concrete,A,abstract;concrete
1730904049,0ff9f7c3c0ce320f262fff7afb05e7d1,PennController,27,0,test_conc,NULL,PennController,38,_Trial_,End,1730903523760,undefined,1053,harmonize,abstract-positive,abstract,concrete,A,NULL
1730904049,0ff9f7c3c0ce320f262fff7afb05e7d1,PennController,26,0,test_conc,NULL,PennController,37,_Trial_,Start,1730903523761,undefined,752,innovate,abstract-positive,abstract,concrete,A,NULL
1730904049,0ff9f7c3c0ce320f262fff7afb05e7d1,PennController,26,0,test_conc,NULL,PennController,37,_Header_,Start,1730903523761,undefined,752,innovate,abstract-positive,abstract,concrete,A,NULL
1730904049,0ff9f7c3c0ce320f262fff7afb05e7d1,PennController,26,0,test_conc,NULL,PennController,37,_Header_,End,1730903524011,undefined,752,innovate,abstract-positive,abstract,concrete,A,NULL
1730904049,0ff9f7c3c0ce320f262fff7afb05e7d1,PennController,26,0,test_conc,NULL,Selector,unnamed-Selector,Selection,abstract,1730903525267,undefined,752,innovate,abstract-positive,abstract,concrete,A,abstract;concrete
1730904049,0ff9f7c3c0ce320f262fff7afb05e7d1,PennController,26,0,test_conc,NULL,PennController,37,_Trial_,End,1730903525268,undefined,752,innovate,abstract-positive,abstract,concrete,A,NULL
1730904049,0ff9f7c3c0ce320f262fff7afb05e7d1,PennController,19,0,test_conc,NULL,PennController,30,_Trial_,Start,1730903525269,undefined,1034,steal,concrete-negative,abstract,concrete,A,NULL
1730904049,0ff9f7c3c0ce320f262fff7afb05e7d1,PennController,19,0,test_conc,NULL,PennController,30,_Header_,Start,1730903525269,undefined,1034,steal,concrete-negative,abstract,concrete,A,NULL
1730904049,0ff9f7c3c0ce320f262fff7afb05e7d1,PennController,19,0,test_conc,NULL,PennController,30,_Header_,End,1730903525519,undefined,1034,steal,concrete-negative,abstract,concrete,A,NULL
1730904049,0ff9f7c3c0ce320f262fff7afb05e7d1,PennController,19,0,test_conc,NULL,Selector,unnamed-Selector,Selection,abstract,1730903527056,undefined,1034,steal,concrete-negative,abstract,concrete,A,abstract;concrete
1730904049,0ff9f7c3c0ce320f262fff7afb05e7d1,PennController,19,0,test_conc,NULL,PennController,30,_Trial_,End,1730903527058,undefined,1034,steal,concrete-negative,abstract,concrete,A,NULL
1730904049,0ff9f7c3c0ce320f262fff7afb05e7d1,PennController,8,0,test_conc,NULL,PennController,19,_Trial_,Start,1730903527061,undefined,937,clean,concrete-positive,abstract,concrete,A,NULL
1730904049,0ff9f7c3c0ce320f262fff7afb05e7d1,PennController,8,0,test_conc,NULL,PennController,19,_Header_,Start,1730903527061,undefined,937,clean,concrete-positive,abstract,concrete,A,NULL
1730904049,0ff9f7c3c0ce320f262fff7afb05e7d1,PennController,8,0,test_conc,NULL,PennController,19,_Header_,End,1730903527312,undefined,937,clean,concrete-positive,abstract,concrete,A,NULL
1730904049,0ff9f7c3c0ce320f262fff7afb05e7d1,PennController,8,0,test_conc,NULL,Selector,unnamed-Selector,Selection,abstract,1730903528755,undefined,937,clean,concrete-positive,abstract,concrete,A,abstract;concrete
1730904049,0ff9f7c3c0ce320f262fff7afb05e7d1,PennController,8,0,test_conc,NULL,PennController,19,_Trial_,End,1730903528757,undefined,937,clean,concrete-positive,abstract,concrete,A,NULL
1730904049,0ff9f7c3c0ce320f262fff7afb05e7d1,PennController,29,0,test_conc,NULL,PennController,40,_Trial_,Start,1730903528759,undefined,1061,encourage,abstract-positive,abstract,concrete,A,NULL
1730904049,0ff9f7c3c0ce320f262fff7afb05e7d1,PennController,29,0,test_conc,NULL,PennController,40,_Header_,Start,1730903528760,undefined,1061,encourage,abstract-positive,abstract,concrete,A,NULL
1730904049,0ff9f7c3c0ce320f262fff7afb05e7d1,PennController,29,0,test_conc,NULL,PennController,40,_Header_,End,1730903529011,undefined,1061,encourage,abstract-positive,abstract,concrete,A,NULL
1730904049,0ff9f7c3c0ce320f262fff7afb05e7d1,PennController,29,0,test_conc,NULL,Selector,unnamed-Selector,Selection,abstract,1730903530575,undefined,1061,encourage,abstract-positive,abstract,concrete,A,abstract;concrete
1730904049,0ff9f7c3c0ce320f262fff7afb05e7d1,PennController,29,0,test_conc,NULL,PennController,40,_Trial_,End,1730903530577,undefined,1061,encourage,abstract-positive,abstract,concrete,A,NULL
1730904049,0ff9f7c3c0ce320f262fff7afb05e7d1,PennController,30,0,test_conc,NULL,PennController,41,_Trial_,Start,1730903530579,undefined,1472,revitalize,abstract-positive,abstract,concrete,A,NULL
1730904049,0ff9f7c3c0ce320f262fff7afb05e7d1,PennController,30,0,test_conc,NULL,PennController,41,_Header_,Start,1730903530579,undefined,1472,revitalize,abstract-positive,abstract,concrete,A,NULL
1730904049,0ff9f7c3c0ce320f262fff7afb05e7d1,PennController,30,0,test_conc,NULL,PennController,41,_Header_,End,1730903530830,undefined,1472,revitalize,abstract-positive,abstract,concrete,A,NULL
1730904049,0ff9f7c3c0ce320f262fff7afb05e7d1,PennController,30,0,test_conc,NULL,Selector,unnamed-Selector,Selection,abstract,1730903532808,undefined,1472,revitalize,abstract-positive,abstract,concrete,A,abstract;concrete
1730904049,0ff9f7c3c0ce320f262fff7afb05e7d1,PennController,30,0,test_conc,NULL,PennController,41,_Trial_,End,1730903532810,undefined,1472,revitalize,abstract-positive,abstract,concrete,A,NULL
1730904049,0ff9f7c3c0ce320f262fff7afb05e7d1,PennController,22,0,test_conc,NULL,PennController,33,_Trial_,Start,1730903532812,undefined,908,choke,concrete-negative,abstract,concrete,A,NULL
1730904049,0ff9f7c3c0ce320f262fff7afb05e7d1,PennController,22,0,test_conc,NULL,PennController,33,_Header_,Start,1730903532812,undefined,908,choke,concrete-negative,abstract,concrete,A,NULL
1730904049,0ff9f7c3c0ce320f262fff7afb05e7d1,PennController,22,0,test_conc,NULL,PennController,33,_Header_,End,1730903533065,undefined,908,choke,concrete-negative,abstract,concrete,A,NULL
1730904049,0ff9f7c3c0ce320f262fff7afb05e7d1,PennController,22,0,test_conc,NULL,Selector,unnamed-Selector,Selection,abstract,1730903534477,undefined,908,choke,concrete-negative,abstract,concrete,A,abstract;concrete
1730904049,0ff9f7c3c0ce320f262fff7afb05e7d1,PennController,22,0,test_conc,NULL,PennController,33,_Trial_,End,1730903534479,undefined,908,choke,concrete-negative,abstract,concrete,A,NULL
1730904049,0ff9f7c3c0ce320f262fff7afb05e7d1,PennController,17,0,test_conc,NULL,PennController,28,_Trial_,Start,1730903534481,undefined,935,smash,concrete-negative,abstract,concrete,A,NULL
1730904049,0ff9f7c3c0ce320f262fff7afb05e7d1,PennController,17,0,test_conc,NULL,PennController,28,_Header_,Start,1730903534481,undefined,935,smash,concrete-negative,abstract,concrete,A,NULL
1730904049,0ff9f7c3c0ce320f262fff7afb05e7d1,PennController,17,0,test_conc,NULL,PennController,28,_Header_,End,1730903534731,undefined,935,smash,concrete-negative,abstract,concrete,A,NULL
1730904049,0ff9f7c3c0ce320f262fff7afb05e7d1,PennController,17,0,test_conc,NULL,Selector,unnamed-Selector,Selection,abstract,1730903536171,undefined,935,smash,concrete-negative,abstract,concrete,A,abstract;concrete
1730904049,0ff9f7c3c0ce320f262fff7afb05e7d1,PennController,17,0,test_conc,NULL,PennController,28,_Trial_,End,1730903536173,undefined,935,smash,concrete-negative,abstract,concrete,A,NULL
1730904049,0ff9f7c3c0ce320f262fff7afb05e7d1,PennController,40,0,test_conc,NULL,PennController,51,_Trial_,Start,1730903536173,undefined,755,deceive,abstract-negative,abstract,concrete,A,NULL
1730904049,0ff9f7c3c0ce320f262fff7afb05e7d1,PennController,40,0,test_conc,NULL,PennController,51,_Header_,Start,1730903536173,undefined,755,deceive,abstract-negative,abstract,concrete,A,NULL
1730904049,0ff9f7c3c0ce320f262fff7afb05e7d1,PennController,40,0,test_conc,NULL,PennController,51,_Header_,End,1730903536425,undefined,755,deceive,abstract-negative,abstract,concrete,A,NULL
1730904049,0ff9f7c3c0ce320f262fff7afb05e7d1,PennController,40,0,test_conc,NULL,Selector,unnamed-Selector,Selection,abstract,1730903537684,undefined,755,deceive,abstract-negative,abstract,concrete,A,abstract;concrete
1730904049,0ff9f7c3c0ce320f262fff7afb05e7d1,PennController,40,0,test_conc,NULL,PennController,51,_Trial_,End,1730903537687,undefined,755,deceive,abstract-negative,abstract,concrete,A,NULL
1730904049,0ff9f7c3c0ce320f262fff7afb05e7d1,PennController,42,0,test_conc,NULL,PennController,53,_Trial_,Start,1730903537689,undefined,850,manipulate,abstract-negative,abstract,concrete,A,NULL
1730904049,0ff9f7c3c0ce320f262fff7afb05e7d1,PennController,42,0,test_conc,NULL,PennController,53,_Header_,Start,1730903537689,undefined,850,manipulate,abstract-negative,abstract,concrete,A,NULL
1730904049,0ff9f7c3c0ce320f262fff7afb05e7d1,PennController,42,0,test_conc,NULL,PennController,53,_Header_,End,1730903537942,undefined,850,manipulate,abstract-negative,abstract,concrete,A,NULL
1730904049,0ff9f7c3c0ce320f262fff7afb05e7d1,PennController,42,0,test_conc,NULL,Selector,unnamed-Selector,Selection,abstract,1730903539294,undefined,850,manipulate,abstract-negative,abstract,concrete,A,abstract;concrete
1730904049,0ff9f7c3c0ce320f262fff7afb05e7d1,PennController,42,0,test_conc,NULL,PennController,53,_Trial_,End,1730903539296,undefined,850,manipulate,abstract-negative,abstract,concrete,A,NULL
1730904049,0ff9f7c3c0ce320f262fff7afb05e7d1,PennController,21,0,test_conc,NULL,PennController,32,_Trial_,Start,1730903539298,undefined,728,stab,concrete-negative,abstract,concrete,A,NULL
1730904049,0ff9f7c3c0ce320f262fff7afb05e7d1,PennController,21,0,test_conc,NULL,PennController,32,_Header_,Start,1730903539298,undefined,728,stab,concrete-negative,abstract,concrete,A,NULL
1730904049,0ff9f7c3c0ce320f262fff7afb05e7d1,PennController,21,0,test_conc,NULL,PennController,32,_Header_,End,1730903539551,undefined,728,stab,concrete-negative,abstract,concrete,A,NULL
1730904049,0ff9f7c3c0ce320f262fff7afb05e7d1,PennController,21,0,test_conc,NULL,Selector,unnamed-Selector,Selection,abstract,1730903540782,undefined,728,stab,concrete-negative,abstract,concrete,A,abstract;concrete
1730904049,0ff9f7c3c0ce320f262fff7afb05e7d1,PennController,21,0,test_conc,NULL,PennController,32,_Trial_,End,1730903540784,undefined,728,stab,concrete-negative,abstract,concrete,A,NULL
1730904049,0ff9f7c3c0ce320f262fff7afb05e7d1,PennController,16,0,test_conc,NULL,PennController,27,_Trial_,Start,1730903540786,undefined,2858,scratch,concrete-negative,abstract,concrete,A,NULL
1730904049,0ff9f7c3c0ce320f262fff7afb05e7d1,PennController,16,0,test_conc,NULL,PennController,27,_Header_,Start,1730903540786,undefined,2858,scratch,concrete-negative,abstract,concrete,A,NULL
1730904049,0ff9f7c3c0ce320f262fff7afb05e7d1,PennController,16,0,test_conc,NULL,PennController,27,_Header_,End,1730903541037,undefined,2858,scratch,concrete-negative,abstract,concrete,A,NULL
1730904049,0ff9f7c3c0ce320f262fff7afb05e7d1,PennController,16,0,test_conc,NULL,Selector,unnamed-Selector,Selection,abstract,1730903544399,undefined,2858,scratch,concrete-negative,abstract,concrete,A,abstract;concrete
1730904049,0ff9f7c3c0ce320f262fff7afb05e7d1,PennController,16,0,test_conc,NULL,PennController,27,_Trial_,End,1730903544401,undefined,2858,scratch,concrete-negative,abstract,concrete,A,NULL
1730904049,0ff9f7c3c0ce320f262fff7afb05e7d1,PennController,35,0,test_conc,NULL,PennController,46,_Trial_,Start,1730903544403,undefined,970,obsess,abstract-negative,abstract,concrete,A,NULL
1730904049,0ff9f7c3c0ce320f262fff7afb05e7d1,PennController,35,0,test_conc,NULL,PennController,46,_Header_,Start,1730903544403,undefined,970,obsess,abstract-negative,abstract,concrete,A,NULL
1730904049,0ff9f7c3c0ce320f262fff7afb05e7d1,PennController,35,0,test_conc,NULL,PennController,46,_Header_,End,1730903544656,undefined,970,obsess,abstract-negative,abstract,concrete,A,NULL
1730904049,0ff9f7c3c0ce320f262fff7afb05e7d1,PennController,35,0,test_conc,NULL,Selector,unnamed-Selector,Selection,abstract,1730903546131,undefined,970,obsess,abstract-negative,abstract,concrete,A,abstract;concrete
1730904049,0ff9f7c3c0ce320f262fff7afb05e7d1,PennController,35,0,test_conc,NULL,PennController,46,_Trial_,End,1730903546132,undefined,970,obsess,abstract-negative,abstract,concrete,A,NULL
1730904049,0ff9f7c3c0ce320f262fff7afb05e7d1,PennController,20,0,test_conc,NULL,PennController,31,_Trial_,Start,1730903546134,undefined,879,slap,concrete-negative,abstract,concrete,A,NULL
1730904049,0ff9f7c3c0ce320f262fff7afb05e7d1,PennController,20,0,test_conc,NULL,PennController,31,_Header_,Start,1730903546134,undefined,879,slap,concrete-negative,abstract,concrete,A,NULL
1730904049,0ff9f7c3c0ce320f262fff7afb05e7d1,PennController,20,0,test_conc,NULL,PennController,31,_Header_,End,1730903546388,undefined,879,slap,concrete-negative,abstract,concrete,A,NULL
1730904049,0ff9f7c3c0ce320f262fff7afb05e7d1,PennController,20,0,test_conc,NULL,Selector,unnamed-Selector,Selection,abstract,1730903547774,undefined,879,slap,concrete-negative,abstract,concrete,A,abstract;concrete
1730904049,0ff9f7c3c0ce320f262fff7afb05e7d1,PennController,20,0,test_conc,NULL,PennController,31,_Trial_,End,1730903547776,undefined,879,slap,concrete-negative,abstract,concrete,A,NULL
1730904049,0ff9f7c3c0ce320f262fff7afb05e7d1,PennController,43,0,test_conc,NULL,PennController,54,_Trial_,Start,1730903547778,undefined,804,neglect,abstract-negative,abstract,concrete,A,NULL
1730904049,0ff9f7c3c0ce320f262fff7afb05e7d1,PennController,43,0,test_conc,NULL,PennController,54,_Header_,Start,1730903547778,undefined,804,neglect,abstract-negative,abstract,concrete,A,NULL
1730904049,0ff9f7c3c0ce320f262fff7afb05e7d1,PennController,43,0,test_conc,NULL,PennController,54,_Header_,End,1730903548032,undefined,804,neglect,abstract-negative,abstract,concrete,A,NULL
1730904049,0ff9f7c3c0ce320f262fff7afb05e7d1,PennController,43,0,test_conc,NULL,Selector,unnamed-Selector,Selection,abstract,1730903549338,undefined,804,neglect,abstract-negative,abstract,concrete,A,abstract;concrete
1730904049,0ff9f7c3c0ce320f262fff7afb05e7d1,PennController,43,0,test_conc,NULL,PennController,54,_Trial_,End,1730903549340,undefined,804,neglect,abstract-negative,abstract,concrete,A,NULL
1730904049,0ff9f7c3c0ce320f262fff7afb05e7d1,PennController,24,0,test_conc,NULL,PennController,35,_Trial_,Start,1730903549342,undefined,745,appreciate,abstract-positive,abstract,concrete,A,NULL
1730904049,0ff9f7c3c0ce320f262fff7afb05e7d1,PennController,24,0,test_conc,NULL,PennController,35,_Header_,Start,1730903549342,undefined,745,appreciate,abstract-positive,abstract,concrete,A,NULL
1730904049,0ff9f7c3c0ce320f262fff7afb05e7d1,PennController,24,0,test_conc,NULL,PennController,35,_Header_,End,1730903549594,undefined,745,appreciate,abstract-positive,abstract,concrete,A,NULL
1730904049,0ff9f7c3c0ce320f262fff7afb05e7d1,PennController,24,0,test_conc,NULL,Selector,unnamed-Selector,Selection,abstract,1730903550843,undefined,745,appreciate,abstract-positive,abstract,concrete,A,abstract;concrete
1730904049,0ff9f7c3c0ce320f262fff7afb05e7d1,PennController,24,0,test_conc,NULL,PennController,35,_Trial_,End,1730903550845,undefined,745,appreciate,abstract-positive,abstract,concrete,A,NULL
1730904049,0ff9f7c3c0ce320f262fff7afb05e7d1,PennController,14,0,test_conc,NULL,PennController,25,_Trial_,Start,1730903550847,undefined,1472,punch,concrete-negative,abstract,concrete,A,NULL
1730904049,0ff9f7c3c0ce320f262fff7afb05e7d1,PennController,14,0,test_conc,NULL,PennController,25,_Header_,Start,1730903550847,undefined,1472,punch,concrete-negative,abstract,concrete,A,NULL
1730904049,0ff9f7c3c0ce320f262fff7afb05e7d1,PennController,14,0,test_conc,NULL,PennController,25,_Header_,End,1730903551098,undefined,1472,punch,concrete-negative,abstract,concrete,A,NULL
1730904049,0ff9f7c3c0ce320f262fff7afb05e7d1,PennController,14,0,test_conc,NULL,Selector,unnamed-Selector,Selection,abstract,1730903553076,undefined,1472,punch,concrete-negative,abstract,concrete,A,abstract;concrete
1730904049,0ff9f7c3c0ce320f262fff7afb05e7d1,PennController,14,0,test_conc,NULL,PennController,25,_Trial_,End,1730903553078,undefined,1472,punch,concrete-negative,abstract,concrete,A,NULL
1730904049,0ff9f7c3c0ce320f262fff7afb05e7d1,PennController,32,0,test_conc,NULL,PennController,43,_Trial_,Start,1730903553080,undefined,805,embolden,abstract-positive,abstract,concrete,A,NULL
1730904049,0ff9f7c3c0ce320f262fff7afb05e7d1,PennController,32,0,test_conc,NULL,PennController,43,_Header_,Start,1730903553080,undefined,805,embolden,abstract-positive,abstract,concrete,A,NULL
1730904049,0ff9f7c3c0ce320f262fff7afb05e7d1,PennController,32,0,test_conc,NULL,PennController,43,_Header_,End,1730903553330,undefined,805,embolden,abstract-positive,abstract,concrete,A,NULL
1730904049,0ff9f7c3c0ce320f262fff7afb05e7d1,PennController,32,0,test_conc,NULL,Selector,unnamed-Selector,Selection,abstract,1730903554637,undefined,805,embolden,abstract-positive,abstract,concrete,A,abstract;concrete
1730904049,0ff9f7c3c0ce320f262fff7afb05e7d1,PennController,32,0,test_conc,NULL,PennController,43,_Trial_,End,1730903554642,undefined,805,embolden,abstract-positive,abstract,concrete,A,NULL
1730904049,0ff9f7c3c0ce320f262fff7afb05e7d1,PennController,34,0,test_conc,NULL,PennController,45,_Trial_,Start,1730903554644,undefined,1459,dread,abstract-negative,abstract,concrete,A,NULL
1730904049,0ff9f7c3c0ce320f262fff7afb05e7d1,PennController,34,0,test_conc,NULL,PennController,45,_Header_,Start,1730903554644,undefined,1459,dread,abstract-negative,abstract,concrete,A,NULL
1730904049,0ff9f7c3c0ce320f262fff7afb05e7d1,PennController,34,0,test_conc,NULL,PennController,45,_Header_,End,1730903554896,undefined,1459,dread,abstract-negative,abstract,concrete,A,NULL
1730904049,0ff9f7c3c0ce320f262fff7afb05e7d1,PennController,34,0,test_conc,NULL,Selector,unnamed-Selector,Selection,abstract,1730903556858,undefined,1459,dread,abstract-negative,abstract,concrete,A,abstract;concrete
1730904049,0ff9f7c3c0ce320f262fff7afb05e7d1,PennController,34,0,test_conc,NULL,PennController,45,_Trial_,End,1730903556861,undefined,1459,dread,abstract-negative,abstract,concrete,A,NULL
1730904049,0ff9f7c3c0ce320f262fff7afb05e7d1,PennController,13,0,test_conc,NULL,PennController,24,_Trial_,Start,1730903556863,undefined,579,explore,concrete-positive,abstract,concrete,A,NULL
1730904049,0ff9f7c3c0ce320f262fff7afb05e7d1,PennController,13,0,test_conc,NULL,PennController,24,_Header_,Start,1730903556863,undefined,579,explore,concrete-positive,abstract,concrete,A,NULL
1730904049,0ff9f7c3c0ce320f262fff7afb05e7d1,PennController,13,0,test_conc,NULL,PennController,24,_Header_,End,1730903557117,undefined,579,explore,concrete-positive,abstract,concrete,A,NULL
1730904049,0ff9f7c3c0ce320f262fff7afb05e7d1,PennController,13,0,test_conc,NULL,Selector,unnamed-Selector,Selection,abstract,1730903558203,undefined,579,explore,concrete-positive,abstract,concrete,A,abstract;concrete
1730904049,0ff9f7c3c0ce320f262fff7afb05e7d1,PennController,13,0,test_conc,NULL,PennController,24,_Trial_,End,1730903558205,undefined,579,explore,concrete-positive,abstract,concrete,A,NULL
1730904049,0ff9f7c3c0ce320f262fff7afb05e7d1,PennController,12,0,test_conc,NULL,PennController,23,_Trial_,Start,1730903558207,undefined,912,play,concrete-positive,abstract,concrete,A,NULL
1730904049,0ff9f7c3c0ce320f262fff7afb05e7d1,PennController,12,0,test_conc,NULL,PennController,23,_Header_,Start,1730903558207,undefined,912,play,concrete-positive,abstract,concrete,A,NULL
1730904049,0ff9f7c3c0ce320f262fff7afb05e7d1,PennController,12,0,test_conc,NULL,PennController,23,_Header_,End,1730903558459,undefined,912,play,concrete-positive,abstract,concrete,A,NULL
1730904049,0ff9f7c3c0ce320f262fff7afb05e7d1,PennController,12,0,test_conc,NULL,Selector,unnamed-Selector,Selection,abstract,1730903559878,undefined,912,play,concrete-positive,abstract,concrete,A,abstract;concrete
1730904049,0ff9f7c3c0ce320f262fff7afb05e7d1,PennController,12,0,test_conc,NULL,PennController,23,_Trial_,End,1730903559880,undefined,912,play,concrete-positive,abstract,concrete,A,NULL
1730904049,0ff9f7c3c0ce320f262fff7afb05e7d1,PennController,28,0,test_conc,NULL,PennController,39,_Trial_,Start,1730903559882,undefined,938,inspire,abstract-positive,abstract,concrete,A,NULL
1730904049,0ff9f7c3c0ce320f262fff7afb05e7d1,PennController,28,0,test_conc,NULL,PennController,39,_Header_,Start,1730903559883,undefined,938,inspire,abstract-positive,abstract,concrete,A,NULL
1730904049,0ff9f7c3c0ce320f262fff7afb05e7d1,PennController,28,0,test_conc,NULL,PennController,39,_Header_,End,1730903560133,undefined,938,inspire,abstract-positive,abstract,concrete,A,NULL
1730904049,0ff9f7c3c0ce320f262fff7afb05e7d1,PennController,28,0,test_conc,NULL,Selector,unnamed-Selector,Selection,abstract,1730903561576,undefined,938,inspire,abstract-positive,abstract,concrete,A,abstract;concrete
1730904049,0ff9f7c3c0ce320f262fff7afb05e7d1,PennController,28,0,test_conc,NULL,PennController,39,_Trial_,End,1730903561578,undefined,938,inspire,abstract-positive,abstract,concrete,A,NULL
1730904049,0ff9f7c3c0ce320f262fff7afb05e7d1,PennController,38,0,test_conc,NULL,PennController,49,_Trial_,Start,1730903561580,undefined,645,envy,abstract-negative,abstract,concrete,A,NULL
1730904049,0ff9f7c3c0ce320f262fff7afb05e7d1,PennController,38,0,test_conc,NULL,PennController,49,_Header_,Start,1730903561580,undefined,645,envy,abstract-negative,abstract,concrete,A,NULL
1730904049,0ff9f7c3c0ce320f262fff7afb05e7d1,PennController,38,0,test_conc,NULL,PennController,49,_Header_,End,1730903561831,undefined,645,envy,abstract-negative,abstract,concrete,A,NULL
1730904049,0ff9f7c3c0ce320f262fff7afb05e7d1,PennController,38,0,test_conc,NULL,Selector,unnamed-Selector,Selection,abstract,1730903562979,undefined,645,envy,abstract-negative,abstract,concrete,A,abstract;concrete
1730904049,0ff9f7c3c0ce320f262fff7afb05e7d1,PennController,38,0,test_conc,NULL,PennController,49,_Trial_,End,1730903562982,undefined,645,envy,abstract-negative,abstract,concrete,A,NULL
1730904049,0ff9f7c3c0ce320f262fff7afb05e7d1,PennController,39,0,test_conc,NULL,PennController,50,_Trial_,Start,1730903562984,undefined,610,doubt,abstract-negative,abstract,concrete,A,NULL
1730904049,0ff9f7c3c0ce320f262fff7afb05e7d1,PennController,39,0,test_conc,NULL,PennController,50,_Header_,Start,1730903562984,undefined,610,doubt,abstract-negative,abstract,concrete,A,NULL
1730904049,0ff9f7c3c0ce320f262fff7afb05e7d1,PennController,39,0,test_conc,NULL,PennController,50,_Header_,End,1730903563236,undefined,610,doubt,abstract-negative,abstract,concrete,A,NULL
1730904049,0ff9f7c3c0ce320f262fff7afb05e7d1,PennController,39,0,test_conc,NULL,Selector,unnamed-Selector,Selection,abstract,1730903564352,undefined,610,doubt,abstract-negative,abstract,concrete,A,abstract;concrete
1730904049,0ff9f7c3c0ce320f262fff7afb05e7d1,PennController,39,0,test_conc,NULL,PennController,50,_Trial_,End,1730903564354,undefined,610,doubt,abstract-negative,abstract,concrete,A,NULL
1730904049,0ff9f7c3c0ce320f262fff7afb05e7d1,PennController,36,0,test_conc,NULL,PennController,47,_Trial_,Start,1730903564356,undefined,529,worry,abstract-negative,abstract,concrete,A,NULL
1730904049,0ff9f7c3c0ce320f262fff7afb05e7d1,PennController,36,0,test_conc,NULL,PennController,47,_Header_,Start,1730903564356,undefined,529,worry,abstract-negative,abstract,concrete,A,NULL
1730904049,0ff9f7c3c0ce320f262fff7afb05e7d1,PennController,36,0,test_conc,NULL,PennController,47,_Header_,End,1730903564606,undefined,529,worry,abstract-negative,abstract,concrete,A,NULL
1730904049,0ff9f7c3c0ce320f262fff7afb05e7d1,PennController,36,0,test_conc,NULL,Selector,unnamed-Selector,Selection,abstract,1730903565637,undefined,529,worry,abstract-negative,abstract,concrete,A,abstract;concrete
1730904049,0ff9f7c3c0ce320f262fff7afb05e7d1,PennController,36,0,test_conc,NULL,PennController,47,_Trial_,End,1730903565638,undefined,529,worry,abstract-negative,abstract,concrete,A,NULL
1730904049,0ff9f7c3c0ce320f262fff7afb05e7d1,PennController,31,0,test_conc,NULL,PennController,42,_Trial_,Start,1730903565639,undefined,97,thrive,abstract-positive,abstract,concrete,A,NULL
1730904049,0ff9f7c3c0ce320f262fff7afb05e7d1,PennController,31,0,test_conc,NULL,PennController,42,_Header_,Start,1730903565639,undefined,97,thrive,abstract-positive,abstract,concrete,A,NULL
1730904049,0ff9f7c3c0ce320f262fff7afb05e7d1,PennController,31,0,test_conc,NULL,PennController,42,_Header_,End,1730903565891,undefined,97,thrive,abstract-positive,abstract,concrete,A,NULL
1730904049,0ff9f7c3c0ce320f262fff7afb05e7d1,PennController,31,0,test_conc,NULL,Selector,unnamed-Selector,Selection,concrete,1730903566493,undefined,97,thrive,abstract-positive,abstract,concrete,A,abstract;concrete
1730904049,0ff9f7c3c0ce320f262fff7afb05e7d1,PennController,31,0,test_conc,NULL,PennController,42,_Trial_,End,1730903566496,undefined,97,thrive,abstract-positive,abstract,concrete,A,NULL
1730904049,0ff9f7c3c0ce320f262fff7afb05e7d1,PennController,41,0,test_conc,NULL,PennController,52,_Trial_,Start,1730903566498,undefined,2526,betray,abstract-negative,abstract,concrete,A,NULL
1730904049,0ff9f7c3c0ce320f262fff7afb05e7d1,PennController,41,0,test_conc,NULL,PennController,52,_Header_,Start,1730903566498,undefined,2526,betray,abstract-negative,abstract,concrete,A,NULL
1730904049,0ff9f7c3c0ce320f262fff7afb05e7d1,PennController,41,0,test_conc,NULL,PennController,52,_Header_,End,1730903566751,undefined,2526,betray,abstract-negative,abstract,concrete,A,NULL
1730904049,0ff9f7c3c0ce320f262fff7afb05e7d1,PennController,41,0,test_conc,NULL,Selector,unnamed-Selector,Selection,abstract,1730903569781,undefined,2526,betray,abstract-negative,abstract,concrete,A,abstract;concrete
1730904049,0ff9f7c3c0ce320f262fff7afb05e7d1,PennController,41,0,test_conc,NULL,PennController,52,_Trial_,End,1730903569783,undefined,2526,betray,abstract-negative,abstract,concrete,A,NULL
1730904049,0ff9f7c3c0ce320f262fff7afb05e7d1,PennController,15,0,test_conc,NULL,PennController,26,_Trial_,Start,1730903569785,undefined,921,strangle,concrete-negative,abstract,concrete,A,NULL
1730904049,0ff9f7c3c0ce320f262fff7afb05e7d1,PennController,15,0,test_conc,NULL,PennController,26,_Header_,Start,1730903569785,undefined,921,strangle,concrete-negative,abstract,concrete,A,NULL
1730904049,0ff9f7c3c0ce320f262fff7afb05e7d1,PennController,15,0,test_conc,NULL,PennController,26,_Header_,End,1730903570035,undefined,921,strangle,concrete-negative,abstract,concrete,A,NULL
1730904049,0ff9f7c3c0ce320f262fff7afb05e7d1,PennController,15,0,test_conc,NULL,Selector,unnamed-Selector,Selection,abstract,1730903571460,undefined,921,strangle,concrete-negative,abstract,concrete,A,abstract;concrete
1730904049,0ff9f7c3c0ce320f262fff7afb05e7d1,PennController,15,0,test_conc,NULL,PennController,26,_Trial_,End,1730903571462,undefined,921,strangle,concrete-negative,abstract,concrete,A,NULL
1730904049,0ff9f7c3c0ce320f262fff7afb05e7d1,PennController,23,0,test_conc,NULL,PennController,34,_Trial_,Start,1730903571463,undefined,2870,suffocate,concrete-negative,abstract,concrete,A,NULL
1730904049,0ff9f7c3c0ce320f262fff7afb05e7d1,PennController,23,0,test_conc,NULL,PennController,34,_Header_,Start,1730903571463,undefined,2870,suffocate,concrete-negative,abstract,concrete,A,NULL
1730904049,0ff9f7c3c0ce320f262fff7afb05e7d1,PennController,23,0,test_conc,NULL,PennController,34,_Header_,End,1730903571717,undefined,2870,suffocate,concrete-negative,abstract,concrete,A,NULL
1730904049,0ff9f7c3c0ce320f262fff7afb05e7d1,PennController,23,0,test_conc,NULL,Selector,unnamed-Selector,Selection,abstract,1730903575091,undefined,2870,suffocate,concrete-negative,abstract,concrete,A,abstract;concrete
1730904049,0ff9f7c3c0ce320f262fff7afb05e7d1,PennController,23,0,test_conc,NULL,PennController,34,_Trial_,End,1730903575093,undefined,2870,suffocate,concrete-negative,abstract,concrete,A,NULL
1730904049,0ff9f7c3c0ce320f262fff7afb05e7d1,PennController,5,0,test_conc,NULL,PennController,16,_Trial_,Start,1730903575095,undefined,2266,help,concrete-positive,abstract,concrete,A,NULL
1730904049,0ff9f7c3c0ce320f262fff7afb05e7d1,PennController,5,0,test_conc,NULL,PennController,16,_Header_,Start,1730903575095,undefined,2266,help,concrete-positive,abstract,concrete,A,NULL
1730904049,0ff9f7c3c0ce320f262fff7afb05e7d1,PennController,5,0,test_conc,NULL,PennController,16,_Header_,End,1730903575347,undefined,2266,help,concrete-positive,abstract,concrete,A,NULL
1730904049,0ff9f7c3c0ce320f262fff7afb05e7d1,PennController,5,0,test_conc,NULL,Selector,unnamed-Selector,Selection,abstract,1730903578117,undefined,2266,help,concrete-positive,abstract,concrete,A,abstract;concrete
1730904049,0ff9f7c3c0ce320f262fff7afb05e7d1,PennController,5,0,test_conc,NULL,PennController,16,_Trial_,End,1730903578119,undefined,2266,help,concrete-positive,abstract,concrete,A,NULL
1730904049,0ff9f7c3c0ce320f262fff7afb05e7d1,PennController,9,0,test_conc,NULL,PennController,20,_Trial_,Start,1730903578121,undefined,1338,dance,concrete-positive,abstract,concrete,A,NULL
1730904049,0ff9f7c3c0ce320f262fff7afb05e7d1,PennController,9,0,test_conc,NULL,PennController,20,_Header_,Start,1730903578121,undefined,1338,dance,concrete-positive,abstract,concrete,A,NULL
1730904049,0ff9f7c3c0ce320f262fff7afb05e7d1,PennController,9,0,test_conc,NULL,PennController,20,_Header_,End,1730903578374,undefined,1338,dance,concrete-positive,abstract,concrete,A,NULL
1730904049,0ff9f7c3c0ce320f262fff7afb05e7d1,PennController,9,0,test_conc,NULL,Selector,unnamed-Selector,Selection,concrete,1730903580216,undefined,1338,dance,concrete-positive,abstract,concrete,A,abstract;concrete
1730904049,0ff9f7c3c0ce320f262fff7afb05e7d1,PennController,9,0,test_conc,NULL,PennController,20,_Trial_,End,1730903580218,undefined,1338,dance,concrete-positive,abstract,concrete,A,NULL
1730904049,0ff9f7c3c0ce320f262fff7afb05e7d1,PennController,16,0,test_conc,NULL,PennController,27,_Trial_,Start,1730903580220,undefined,854,scratch,concrete-negative,abstract,concrete,A,NULL
1730904049,0ff9f7c3c0ce320f262fff7afb05e7d1,PennController,16,0,test_conc,NULL,PennController,27,_Header_,Start,1730903580220,undefined,854,scratch,concrete-negative,abstract,concrete,A,NULL
1730904049,0ff9f7c3c0ce320f262fff7afb05e7d1,PennController,16,0,test_conc,NULL,PennController,27,_Header_,End,1730903580471,undefined,854,scratch,concrete-negative,abstract,concrete,A,NULL
1730904049,0ff9f7c3c0ce320f262fff7afb05e7d1,PennController,16,0,test_conc,NULL,Selector,unnamed-Selector,Selection,concrete,1730903581829,undefined,854,scratch,concrete-negative,abstract,concrete,A,abstract;concrete
1730904049,0ff9f7c3c0ce320f262fff7afb05e7d1,PennController,16,0,test_conc,NULL,PennController,27,_Trial_,End,1730903581831,undefined,854,scratch,concrete-negative,abstract,concrete,A,NULL
1730904049,0ff9f7c3c0ce320f262fff7afb05e7d1,PennController,15,0,test_conc,NULL,PennController,26,_Trial_,Start,1730903581833,undefined,1089,strangle,concrete-negative,abstract,concrete,A,NULL
1730904049,0ff9f7c3c0ce320f262fff7afb05e7d1,PennController,15,0,test_conc,NULL,PennController,26,_Header_,Start,1730903581833,undefined,1089,strangle,concrete-negative,abstract,concrete,A,NULL
1730904049,0ff9f7c3c0ce320f262fff7afb05e7d1,PennController,15,0,test_conc,NULL,PennController,26,_Header_,End,1730903582086,undefined,1089,strangle,concrete-negative,abstract,concrete,A,NULL
1730904049,0ff9f7c3c0ce320f262fff7afb05e7d1,PennController,15,0,test_conc,NULL,Selector,unnamed-Selector,Selection,concrete,1730903583680,undefined,1089,strangle,concrete-negative,abstract,concrete,A,abstract;concrete
1730904049,0ff9f7c3c0ce320f262fff7afb05e7d1,PennController,15,0,test_conc,NULL,PennController,26,_Trial_,End,1730903583682,undefined,1089,strangle,concrete-negative,abstract,concrete,A,NULL
1730904049,0ff9f7c3c0ce320f262fff7afb05e7d1,PennController,36,0,test_conc,NULL,PennController,47,_Trial_,Start,1730903583685,undefined,2428,worry,abstract-negative,abstract,concrete,A,NULL
1730904049,0ff9f7c3c0ce320f262fff7afb05e7d1,PennController,36,0,test_conc,NULL,PennController,47,_Header_,Start,1730903583685,undefined,2428,worry,abstract-negative,abstract,concrete,A,NULL
1730904049,0ff9f7c3c0ce320f262fff7afb05e7d1,PennController,36,0,test_conc,NULL,PennController,47,_Header_,End,1730903583937,undefined,2428,worry,abstract-negative,abstract,concrete,A,NULL
1730904049,0ff9f7c3c0ce320f262fff7afb05e7d1,PennController,36,0,test_conc,NULL,Selector,unnamed-Selector,Selection,abstract,1730903586870,undefined,2428,worry,abstract-negative,abstract,concrete,A,abstract;concrete
1730904049,0ff9f7c3c0ce320f262fff7afb05e7d1,PennController,36,0,test_conc,NULL,PennController,47,_Trial_,End,1730903586872,undefined,2428,worry,abstract-negative,abstract,concrete,A,NULL
1730904049,0ff9f7c3c0ce320f262fff7afb05e7d1,PennController,23,0,test_conc,NULL,PennController,34,_Trial_,Start,1730903586874,undefined,1180,suffocate,concrete-negative,abstract,concrete,A,NULL
1730904049,0ff9f7c3c0ce320f262fff7afb05e7d1,PennController,23,0,test_conc,NULL,PennController,34,_Header_,Start,1730903586874,undefined,1180,suffocate,concrete-negative,abstract,concrete,A,NULL
1730904049,0ff9f7c3c0ce320f262fff7afb05e7d1,PennController,23,0,test_conc,NULL,PennController,34,_Header_,End,1730903587129,undefined,1180,suffocate,concrete-negative,abstract,concrete,A,NULL
1730904049,0ff9f7c3c0ce320f262fff7afb05e7d1,PennController,23,0,test_conc,NULL,Selector,unnamed-Selector,Selection,concrete,1730903588811,undefined,1180,suffocate,concrete-negative,abstract,concrete,A,abstract;concrete
1730904049,0ff9f7c3c0ce320f262fff7afb05e7d1,PennController,23,0,test_conc,NULL,PennController,34,_Trial_,End,1730903588813,undefined,1180,suffocate,concrete-negative,abstract,concrete,A,NULL
1730904049,0ff9f7c3c0ce320f262fff7afb05e7d1,PennController,8,0,test_conc,NULL,PennController,19,_Trial_,Start,1730903588814,undefined,861,clean,concrete-positive,abstract,concrete,A,NULL
1730904049,0ff9f7c3c0ce320f262fff7afb05e7d1,PennController,8,0,test_conc,NULL,PennController,19,_Header_,Start,1730903588814,undefined,861,clean,concrete-positive,abstract,concrete,A,NULL
1730904049,0ff9f7c3c0ce320f262fff7afb05e7d1,PennController,8,0,test_conc,NULL,PennController,19,_Header_,End,1730903589066,undefined,861,clean,concrete-positive,abstract,concrete,A,NULL
1730904049,0ff9f7c3c0ce320f262fff7afb05e7d1,PennController,8,0,test_conc,NULL,Selector,unnamed-Selector,Selection,abstract,1730903590431,undefined,861,clean,concrete-positive,abstract,concrete,A,abstract;concrete
1730904049,0ff9f7c3c0ce320f262fff7afb05e7d1,PennController,8,0,test_conc,NULL,PennController,19,_Trial_,End,1730903590433,undefined,861,clean,concrete-positive,abstract,concrete,A,NULL
1730904049,0ff9f7c3c0ce320f262fff7afb05e7d1,PennController,12,0,test_conc,NULL,PennController,23,_Trial_,Start,1730903590434,undefined,659,play,concrete-positive,abstract,concrete,A,NULL
1730904049,0ff9f7c3c0ce320f262fff7afb05e7d1,PennController,12,0,test_conc,NULL,PennController,23,_Header_,Start,1730903590434,undefined,659,play,concrete-positive,abstract,concrete,A,NULL
1730904049,0ff9f7c3c0ce320f262fff7afb05e7d1,PennController,12,0,test_conc,NULL,PennController,23,_Header_,End,1730903590687,undefined,659,play,concrete-positive,abstract,concrete,A,NULL
1730904049,0ff9f7c3c0ce320f262fff7afb05e7d1,PennController,12,0,test_conc,NULL,Selector,unnamed-Selector,Selection,abstract,1730903591851,undefined,659,play,concrete-positive,abstract,concrete,A,abstract;concrete
1730904049,0ff9f7c3c0ce320f262fff7afb05e7d1,PennController,12,0,test_conc,NULL,PennController,23,_Trial_,End,1730903591853,undefined,659,play,concrete-positive,abstract,concrete,A,NULL
1730904049,0ff9f7c3c0ce320f262fff7afb05e7d1,PennController,39,0,test_conc,NULL,PennController,50,_Trial_,Start,1730903591856,undefined,624,doubt,abstract-negative,abstract,concrete,A,NULL
1730904049,0ff9f7c3c0ce320f262fff7afb05e7d1,PennController,39,0,test_conc,NULL,PennController,50,_Header_,Start,1730903591856,undefined,624,doubt,abstract-negative,abstract,concrete,A,NULL
1730904049,0ff9f7c3c0ce320f262fff7afb05e7d1,PennController,39,0,test_conc,NULL,PennController,50,_Header_,End,1730903592108,undefined,624,doubt,abstract-negative,abstract,concrete,A,NULL
1730904049,0ff9f7c3c0ce320f262fff7afb05e7d1,PennController,39,0,test_conc,NULL,Selector,unnamed-Selector,Selection,abstract,1730903593235,undefined,624,doubt,abstract-negative,abstract,concrete,A,abstract;concrete
1730904049,0ff9f7c3c0ce320f262fff7afb05e7d1,PennController,39,0,test_conc,NULL,PennController,50,_Trial_,End,1730903593237,undefined,624,doubt,abstract-negative,abstract,concrete,A,NULL
1730904049,0ff9f7c3c0ce320f262fff7afb05e7d1,PennController,10,0,test_conc,NULL,PennController,21,_Trial_,Start,1730903593239,undefined,851,play,concrete-positive,abstract,concrete,A,NULL
1730904049,0ff9f7c3c0ce320f262fff7afb05e7d1,PennController,10,0,test_conc,NULL,PennController,21,_Header_,Start,1730903593239,undefined,851,play,concrete-positive,abstract,concrete,A,NULL
1730904049,0ff9f7c3c0ce320f262fff7afb05e7d1,PennController,10,0,test_conc,NULL,PennController,21,_Header_,End,1730903593492,undefined,851,play,concrete-positive,abstract,concrete,A,NULL
1730904049,0ff9f7c3c0ce320f262fff7afb05e7d1,PennController,10,0,test_conc,NULL,Selector,unnamed-Selector,Selection,abstract,1730903594848,undefined,851,play,concrete-positive,abstract,concrete,A,abstract;concrete
1730904049,0ff9f7c3c0ce320f262fff7afb05e7d1,PennController,10,0,test_conc,NULL,PennController,21,_Trial_,End,1730903594850,undefined,851,play,concrete-positive,abstract,concrete,A,NULL
1730904049,0ff9f7c3c0ce320f262fff7afb05e7d1,PennController,35,0,test_conc,NULL,PennController,46,_Trial_,Start,1730903594851,undefined,945,obsess,abstract-negative,abstract,concrete,A,NULL
1730904049,0ff9f7c3c0ce320f262fff7afb05e7d1,PennController,35,0,test_conc,NULL,PennController,46,_Header_,Start,1730903594851,undefined,945,obsess,abstract-negative,abstract,concrete,A,NULL
1730904049,0ff9f7c3c0ce320f262fff7afb05e7d1,PennController,35,0,test_conc,NULL,PennController,46,_Header_,End,1730903595102,undefined,945,obsess,abstract-negative,abstract,concrete,A,NULL
1730904049,0ff9f7c3c0ce320f262fff7afb05e7d1,PennController,35,0,test_conc,NULL,Selector,unnamed-Selector,Selection,abstract,1730903596551,undefined,945,obsess,abstract-negative,abstract,concrete,A,abstract;concrete
1730904049,0ff9f7c3c0ce320f262fff7afb05e7d1,PennController,35,0,test_conc,NULL,PennController,46,_Trial_,End,1730903596553,undefined,945,obsess,abstract-negative,abstract,concrete,A,NULL
1730904049,0ff9f7c3c0ce320f262fff7afb05e7d1,PennController,40,0,test_conc,NULL,PennController,51,_Trial_,Start,1730903596555,undefined,616,deceive,abstract-negative,abstract,concrete,A,NULL
1730904049,0ff9f7c3c0ce320f262fff7afb05e7d1,PennController,40,0,test_conc,NULL,PennController,51,_Header_,Start,1730903596555,undefined,616,deceive,abstract-negative,abstract,concrete,A,NULL
1730904049,0ff9f7c3c0ce320f262fff7afb05e7d1,PennController,40,0,test_conc,NULL,PennController,51,_Header_,End,1730903596807,undefined,616,deceive,abstract-negative,abstract,concrete,A,NULL
1730904049,0ff9f7c3c0ce320f262fff7afb05e7d1,PennController,40,0,test_conc,NULL,Selector,unnamed-Selector,Selection,abstract,1730903597927,undefined,616,deceive,abstract-negative,abstract,concrete,A,abstract;concrete
1730904049,0ff9f7c3c0ce320f262fff7afb05e7d1,PennController,40,0,test_conc,NULL,PennController,51,_Trial_,End,1730903597928,undefined,616,deceive,abstract-negative,abstract,concrete,A,NULL
1730904049,0ff9f7c3c0ce320f262fff7afb05e7d1,PennController,25,0,test_conc,NULL,PennController,36,_Trial_,Start,1730903597929,undefined,745,empower,abstract-positive,abstract,concrete,A,NULL
1730904049,0ff9f7c3c0ce320f262fff7afb05e7d1,PennController,25,0,test_conc,NULL,PennController,36,_Header_,Start,1730903597929,undefined,745,empower,abstract-positive,abstract,concrete,A,NULL
1730904049,0ff9f7c3c0ce320f262fff7afb05e7d1,PennController,25,0,test_conc,NULL,PennController,36,_Header_,End,1730903598182,undefined,745,empower,abstract-positive,abstract,concrete,A,NULL
1730904049,0ff9f7c3c0ce320f262fff7afb05e7d1,PennController,25,0,test_conc,NULL,Selector,unnamed-Selector,Selection,abstract,1730903599432,undefined,745,empower,abstract-positive,abstract,concrete,A,abstract;concrete
1730904049,0ff9f7c3c0ce320f262fff7afb05e7d1,PennController,25,0,test_conc,NULL,PennController,36,_Trial_,End,1730903599434,undefined,745,empower,abstract-positive,abstract,concrete,A,NULL
1730904049,0ff9f7c3c0ce320f262fff7afb05e7d1,PennController,21,0,test_conc,NULL,PennController,32,_Trial_,Start,1730903599437,undefined,740,stab,concrete-negative,abstract,concrete,A,NULL
1730904049,0ff9f7c3c0ce320f262fff7afb05e7d1,PennController,21,0,test_conc,NULL,PennController,32,_Header_,Start,1730903599437,undefined,740,stab,concrete-negative,abstract,concrete,A,NULL
1730904049,0ff9f7c3c0ce320f262fff7afb05e7d1,PennController,21,0,test_conc,NULL,PennController,32,_Header_,End,1730903599689,undefined,740,stab,concrete-negative,abstract,concrete,A,NULL
1730904049,0ff9f7c3c0ce320f262fff7afb05e7d1,PennController,21,0,test_conc,NULL,Selector,unnamed-Selector,Selection,concrete,1730903600932,undefined,740,stab,concrete-negative,abstract,concrete,A,abstract;concrete
1730904049,0ff9f7c3c0ce320f262fff7afb05e7d1,PennController,21,0,test_conc,NULL,PennController,32,_Trial_,End,1730903600934,undefined,740,stab,concrete-negative,abstract,concrete,A,NULL
1730904049,0ff9f7c3c0ce320f262fff7afb05e7d1,PennController,22,0,test_conc,NULL,PennController,33,_Trial_,Start,1730903600936,undefined,598,choke,concrete-negative,abstract,concrete,A,NULL
1730904049,0ff9f7c3c0ce320f262fff7afb05e7d1,PennController,22,0,test_conc,NULL,PennController,33,_Header_,Start,1730903600936,undefined,598,choke,concrete-negative,abstract,concrete,A,NULL
1730904049,0ff9f7c3c0ce320f262fff7afb05e7d1,PennController,22,0,test_conc,NULL,PennController,33,_Header_,End,1730903601190,undefined,598,choke,concrete-negative,abstract,concrete,A,NULL
1730904049,0ff9f7c3c0ce320f262fff7afb05e7d1,PennController,22,0,test_conc,NULL,Selector,unnamed-Selector,Selection,concrete,1730903602293,undefined,598,choke,concrete-negative,abstract,concrete,A,abstract;concrete
1730904049,0ff9f7c3c0ce320f262fff7afb05e7d1,PennController,22,0,test_conc,NULL,PennController,33,_Trial_,End,1730903602295,undefined,598,choke,concrete-negative,abstract,concrete,A,NULL
1730904049,0ff9f7c3c0ce320f262fff7afb05e7d1,PennController,18,0,test_conc,NULL,PennController,29,_Trial_,Start,1730903602297,undefined,1494,destroy,concrete-negative,abstract,concrete,A,NULL
1730904049,0ff9f7c3c0ce320f262fff7afb05e7d1,PennController,18,0,test_conc,NULL,PennController,29,_Header_,Start,1730903602297,undefined,1494,destroy,concrete-negative,abstract,concrete,A,NULL
1730904049,0ff9f7c3c0ce320f262fff7afb05e7d1,PennController,18,0,test_conc,NULL,PennController,29,_Header_,End,1730903602550,undefined,1494,destroy,concrete-negative,abstract,concrete,A,NULL
1730904049,0ff9f7c3c0ce320f262fff7afb05e7d1,PennController,18,0,test_conc,NULL,Selector,unnamed-Selector,Selection,concrete,1730903604547,undefined,1494,destroy,concrete-negative,abstract,concrete,A,abstract;concrete
1730904049,0ff9f7c3c0ce320f262fff7afb05e7d1,PennController,18,0,test_conc,NULL,PennController,29,_Trial_,End,1730903604549,undefined,1494,destroy,concrete-negative,abstract,concrete,A,NULL
1730904049,0ff9f7c3c0ce320f262fff7afb05e7d1,PennController,42,0,test_conc,NULL,PennController,53,_Trial_,Start,1730903604551,undefined,1954,manipulate,abstract-negative,abstract,concrete,A,NULL
1730904049,0ff9f7c3c0ce320f262fff7afb05e7d1,PennController,42,0,test_conc,NULL,PennController,53,_Header_,Start,1730903604551,undefined,1954,manipulate,abstract-negative,abstract,concrete,A,NULL
1730904049,0ff9f7c3c0ce320f262fff7afb05e7d1,PennController,42,0,test_conc,NULL,PennController,53,_Header_,End,1730903604801,undefined,1954,manipulate,abstract-negative,abstract,concrete,A,NULL
1730904049,0ff9f7c3c0ce320f262fff7afb05e7d1,PennController,42,0,test_conc,NULL,Selector,unnamed-Selector,Selection,abstract,1730903607261,undefined,1954,manipulate,abstract-negative,abstract,concrete,A,abstract;concrete
1730904049,0ff9f7c3c0ce320f262fff7afb05e7d1,PennController,42,0,test_conc,NULL,PennController,53,_Trial_,End,1730903607263,undefined,1954,manipulate,abstract-negative,abstract,concrete,A,NULL
1730904049,0ff9f7c3c0ce320f262fff7afb05e7d1,PennController,26,0,test_conc,NULL,PennController,37,_Trial_,Start,1730903607265,undefined,773,innovate,abstract-positive,abstract,concrete,A,NULL
1730904049,0ff9f7c3c0ce320f262fff7afb05e7d1,PennController,26,0,test_conc,NULL,PennController,37,_Header_,Start,1730903607265,undefined,773,innovate,abstract-positive,abstract,concrete,A,NULL
1730904049,0ff9f7c3c0ce320f262fff7afb05e7d1,PennController,26,0,test_conc,NULL,PennController,37,_Header_,End,1730903607518,undefined,773,innovate,abstract-positive,abstract,concrete,A,NULL
1730904049,0ff9f7c3c0ce320f262fff7afb05e7d1,PennController,26,0,test_conc,NULL,Selector,unnamed-Selector,Selection,abstract,1730903608798,undefined,773,innovate,abstract-positive,abstract,concrete,A,abstract;concrete
1730904049,0ff9f7c3c0ce320f262fff7afb05e7d1,PennController,26,0,test_conc,NULL,PennController,37,_Trial_,End,1730903608800,undefined,773,innovate,abstract-positive,abstract,concrete,A,NULL
1730904049,0ff9f7c3c0ce320f262fff7afb05e7d1,PennController,13,0,test_conc,NULL,PennController,24,_Trial_,Start,1730903608802,undefined,717,explore,concrete-positive,abstract,concrete,A,NULL
1730904049,0ff9f7c3c0ce320f262fff7afb05e7d1,PennController,13,0,test_conc,NULL,PennController,24,_Header_,Start,1730903608802,undefined,717,explore,concrete-positive,abstract,concrete,A,NULL
1730904049,0ff9f7c3c0ce320f262fff7afb05e7d1,PennController,13,0,test_conc,NULL,PennController,24,_Header_,End,1730903609053,undefined,717,explore,concrete-positive,abstract,concrete,A,NULL
1730904049,0ff9f7c3c0ce320f262fff7afb05e7d1,PennController,13,0,test_conc,NULL,Selector,unnamed-Selector,Selection,abstract,1730903610274,undefined,717,explore,concrete-positive,abstract,concrete,A,abstract;concrete
1730904049,0ff9f7c3c0ce320f262fff7afb05e7d1,PennController,13,0,test_conc,NULL,PennController,24,_Trial_,End,1730903610277,undefined,717,explore,concrete-positive,abstract,concrete,A,NULL
1730904049,0ff9f7c3c0ce320f262fff7afb05e7d1,PennController,4,0,test_conc,NULL,PennController,15,_Trial_,Start,1730903610279,undefined,836,construct,concrete-positive,abstract,concrete,A,NULL
1730904049,0ff9f7c3c0ce320f262fff7afb05e7d1,PennController,4,0,test_conc,NULL,PennController,15,_Header_,Start,1730903610279,undefined,836,construct,concrete-positive,abstract,concrete,A,NULL
1730904049,0ff9f7c3c0ce320f262fff7afb05e7d1,PennController,4,0,test_conc,NULL,PennController,15,_Header_,End,1730903610529,undefined,836,construct,concrete-positive,abstract,concrete,A,NULL
1730904049,0ff9f7c3c0ce320f262fff7afb05e7d1,PennController,4,0,test_conc,NULL,Selector,unnamed-Selector,Selection,abstract,1730903611872,undefined,836,construct,concrete-positive,abstract,concrete,A,abstract;concrete
1730904049,0ff9f7c3c0ce320f262fff7afb05e7d1,PennController,4,0,test_conc,NULL,PennController,15,_Trial_,End,1730903611874,undefined,836,construct,concrete-positive,abstract,concrete,A,NULL
1730904049,0ff9f7c3c0ce320f262fff7afb05e7d1,PennController,27,0,test_conc,NULL,PennController,38,_Trial_,Start,1730903611876,undefined,1752,harmonize,abstract-positive,abstract,concrete,A,NULL
1730904049,0ff9f7c3c0ce320f262fff7afb05e7d1,PennController,27,0,test_conc,NULL,PennController,38,_Header_,Start,1730903611876,undefined,1752,harmonize,abstract-positive,abstract,concrete,A,NULL
1730904049,0ff9f7c3c0ce320f262fff7afb05e7d1,PennController,27,0,test_conc,NULL,PennController,38,_Header_,End,1730903612130,undefined,1752,harmonize,abstract-positive,abstract,concrete,A,NULL
1730904049,0ff9f7c3c0ce320f262fff7afb05e7d1,PennController,27,0,test_conc,NULL,Selector,unnamed-Selector,Selection,abstract,1730903614385,undefined,1752,harmonize,abstract-positive,abstract,concrete,A,abstract;concrete
1730904049,0ff9f7c3c0ce320f262fff7afb05e7d1,PennController,27,0,test_conc,NULL,PennController,38,_Trial_,End,1730903614387,undefined,1752,harmonize,abstract-positive,abstract,concrete,A,NULL
1730904049,0ff9f7c3c0ce320f262fff7afb05e7d1,PennController,28,0,test_conc,NULL,PennController,39,_Trial_,Start,1730903614389,undefined,743,inspire,abstract-positive,abstract,concrete,A,NULL
1730904049,0ff9f7c3c0ce320f262fff7afb05e7d1,PennController,28,0,test_conc,NULL,PennController,39,_Header_,Start,1730903614389,undefined,743,inspire,abstract-positive,abstract,concrete,A,NULL
1730904049,0ff9f7c3c0ce320f262fff7afb05e7d1,PennController,28,0,test_conc,NULL,PennController,39,_Header_,End,1730903614641,undefined,743,inspire,abstract-positive,abstract,concrete,A,NULL
1730904049,0ff9f7c3c0ce320f262fff7afb05e7d1,PennController,28,0,test_conc,NULL,Selector,unnamed-Selector,Selection,abstract,1730903615887,undefined,743,inspire,abstract-positive,abstract,concrete,A,abstract;concrete
1730904049,0ff9f7c3c0ce320f262fff7afb05e7d1,PennController,28,0,test_conc,NULL,PennController,39,_Trial_,End,1730903615889,undefined,743,inspire,abstract-positive,abstract,concrete,A,NULL
1730904049,0ff9f7c3c0ce320f262fff7afb05e7d1,PennController,11,0,test_conc,NULL,PennController,22,_Trial_,Start,1730903615891,undefined,805,lift,concrete-positive,abstract,concrete,A,NULL
1730904049,0ff9f7c3c0ce320f262fff7afb05e7d1,PennController,11,0,test_conc,NULL,PennController,22,_Header_,Start,1730903615891,undefined,805,lift,concrete-positive,abstract,concrete,A,NULL
1730904049,0ff9f7c3c0ce320f262fff7afb05e7d1,PennController,11,0,test_conc,NULL,PennController,22,_Header_,End,1730903616149,undefined,805,lift,concrete-positive,abstract,concrete,A,NULL
1730904049,0ff9f7c3c0ce320f262fff7afb05e7d1,PennController,11,0,test_conc,NULL,Selector,unnamed-Selector,Selection,abstract,1730903617457,undefined,805,lift,concrete-positive,abstract,concrete,A,abstract;concrete
1730904049,0ff9f7c3c0ce320f262fff7afb05e7d1,PennController,11,0,test_conc,NULL,PennController,22,_Trial_,End,1730903617460,undefined,805,lift,concrete-positive,abstract,concrete,A,NULL
1730904049,0ff9f7c3c0ce320f262fff7afb05e7d1,PennController,7,0,test_conc,NULL,PennController,18,_Trial_,Start,1730903617462,undefined,916,deliver,concrete-positive,abstract,concrete,A,NULL
1730904049,0ff9f7c3c0ce320f262fff7afb05e7d1,PennController,7,0,test_conc,NULL,PennController,18,_Header_,Start,1730903617462,undefined,916,deliver,concrete-positive,abstract,concrete,A,NULL
1730904049,0ff9f7c3c0ce320f262fff7afb05e7d1,PennController,7,0,test_conc,NULL,PennController,18,_Header_,End,1730903617715,undefined,916,deliver,concrete-positive,abstract,concrete,A,NULL
1730904049,0ff9f7c3c0ce320f262fff7afb05e7d1,PennController,7,0,test_conc,NULL,Selector,unnamed-Selector,Selection,abstract,1730903619137,undefined,916,deliver,concrete-positive,abstract,concrete,A,abstract;concrete
1730904049,0ff9f7c3c0ce320f262fff7afb05e7d1,PennController,7,0,test_conc,NULL,PennController,18,_Trial_,End,1730903619139,undefined,916,deliver,concrete-positive,abstract,concrete,A,NULL
1730904049,0ff9f7c3c0ce320f262fff7afb05e7d1,PennController,24,0,test_conc,NULL,PennController,35,_Trial_,Start,1730903619141,undefined,834,appreciate,abstract-positive,abstract,concrete,A,NULL
1730904049,0ff9f7c3c0ce320f262fff7afb05e7d1,PennController,24,0,test_conc,NULL,PennController,35,_Header_,Start,1730903619141,undefined,834,appreciate,abstract-positive,abstract,concrete,A,NULL
1730904049,0ff9f7c3c0ce320f262fff7afb05e7d1,PennController,24,0,test_conc,NULL,PennController,35,_Header_,End,1730903619394,undefined,834,appreciate,abstract-positive,abstract,concrete,A,NULL
1730904049,0ff9f7c3c0ce320f262fff7afb05e7d1,PennController,24,0,test_conc,NULL,Selector,unnamed-Selector,Selection,abstract,1730903620733,undefined,834,appreciate,abstract-positive,abstract,concrete,A,abstract;concrete
1730904049,0ff9f7c3c0ce320f262fff7afb05e7d1,PennController,24,0,test_conc,NULL,PennController,35,_Trial_,End,1730903620736,undefined,834,appreciate,abstract-positive,abstract,concrete,A,NULL
1730904049,0ff9f7c3c0ce320f262fff7afb05e7d1,PennController,41,0,test_conc,NULL,PennController,52,_Trial_,Start,1730903620739,undefined,1265,betray,abstract-negative,abstract,concrete,A,NULL
1730904049,0ff9f7c3c0ce320f262fff7afb05e7d1,PennController,41,0,test_conc,NULL,PennController,52,_Header_,Start,1730903620739,undefined,1265,betray,abstract-negative,abstract,concrete,A,NULL
1730904049,0ff9f7c3c0ce320f262fff7afb05e7d1,PennController,41,0,test_conc,NULL,PennController,52,_Header_,End,1730903620993,undefined,1265,betray,abstract-negative,abstract,concrete,A,NULL
1730904049,0ff9f7c3c0ce320f262fff7afb05e7d1,PennController,41,0,test_conc,NULL,Selector,unnamed-Selector,Selection,abstract,1730903622764,undefined,1265,betray,abstract-negative,abstract,concrete,A,abstract;concrete
1730904049,0ff9f7c3c0ce320f262fff7afb05e7d1,PennController,41,0,test_conc,NULL,PennController,52,_Trial_,End,1730903622767,undefined,1265,betray,abstract-negative,abstract,concrete,A,NULL
1730904049,0ff9f7c3c0ce320f262fff7afb05e7d1,PennController,6,0,test_conc,NULL,PennController,17,_Trial_,Start,1730903622769,undefined,1233,support,concrete-positive,abstract,concrete,A,NULL
1730904049,0ff9f7c3c0ce320f262fff7afb05e7d1,PennController,6,0,test_conc,NULL,PennController,17,_Header_,Start,1730903622769,undefined,1233,support,concrete-positive,abstract,concrete,A,NULL
1730904049,0ff9f7c3c0ce320f262fff7afb05e7d1,PennController,6,0,test_conc,NULL,PennController,17,_Header_,End,1730903623022,undefined,1233,support,concrete-positive,abstract,concrete,A,NULL
1730904049,0ff9f7c3c0ce320f262fff7afb05e7d1,PennController,6,0,test_conc,NULL,Selector,unnamed-Selector,Selection,abstract,1730903624759,undefined,1233,support,concrete-positive,abstract,concrete,A,abstract;concrete
1730904049,0ff9f7c3c0ce320f262fff7afb05e7d1,PennController,6,0,test_conc,NULL,PennController,17,_Trial_,End,1730903624761,undefined,1233,support,concrete-positive,abstract,concrete,A,NULL
1730904049,0ff9f7c3c0ce320f262fff7afb05e7d1,PennController,30,0,test_conc,NULL,PennController,41,_Trial_,Start,1730903624763,undefined,1061,revitalize,abstract-positive,abstract,concrete,A,NULL
1730904049,0ff9f7c3c0ce320f262fff7afb05e7d1,PennController,30,0,test_conc,NULL,PennController,41,_Header_,Start,1730903624763,undefined,1061,revitalize,abstract-positive,abstract,concrete,A,NULL
1730904049,0ff9f7c3c0ce320f262fff7afb05e7d1,PennController,30,0,test_conc,NULL,PennController,41,_Header_,End,1730903625015,undefined,1061,revitalize,abstract-positive,abstract,concrete,A,NULL
1730904049,0ff9f7c3c0ce320f262fff7afb05e7d1,PennController,30,0,test_conc,NULL,Selector,unnamed-Selector,Selection,abstract,1730903626583,undefined,1061,revitalize,abstract-positive,abstract,concrete,A,abstract;concrete
1730904049,0ff9f7c3c0ce320f262fff7afb05e7d1,PennController,30,0,test_conc,NULL,PennController,41,_Trial_,End,1730903626585,undefined,1061,revitalize,abstract-positive,abstract,concrete,A,NULL
1730904049,0ff9f7c3c0ce320f262fff7afb05e7d1,PennController,20,0,test_conc,NULL,PennController,31,_Trial_,Start,1730903626588,undefined,914,slap,concrete-negative,abstract,concrete,A,NULL
1730904049,0ff9f7c3c0ce320f262fff7afb05e7d1,PennController,20,0,test_conc,NULL,PennController,31,_Header_,Start,1730903626588,undefined,914,slap,concrete-negative,abstract,concrete,A,NULL
1730904049,0ff9f7c3c0ce320f262fff7afb05e7d1,PennController,20,0,test_conc,NULL,PennController,31,_Header_,End,1730903626838,undefined,914,slap,concrete-negative,abstract,concrete,A,NULL
1730904049,0ff9f7c3c0ce320f262fff7afb05e7d1,PennController,20,0,test_conc,NULL,Selector,unnamed-Selector,Selection,concrete,1730903628254,undefined,914,slap,concrete-negative,abstract,concrete,A,abstract;concrete
1730904049,0ff9f7c3c0ce320f262fff7afb05e7d1,PennController,20,0,test_conc,NULL,PennController,31,_Trial_,End,1730903628256,undefined,914,slap,concrete-negative,abstract,concrete,A,NULL
1730904049,0ff9f7c3c0ce320f262fff7afb05e7d1,PennController,43,0,test_conc,NULL,PennController,54,_Trial_,Start,1730903628258,undefined,1963,neglect,abstract-negative,abstract,concrete,A,NULL
1730904049,0ff9f7c3c0ce320f262fff7afb05e7d1,PennController,43,0,test_conc,NULL,PennController,54,_Header_,Start,1730903628258,undefined,1963,neglect,abstract-negative,abstract,concrete,A,NULL
1730904049,0ff9f7c3c0ce320f262fff7afb05e7d1,PennController,43,0,test_conc,NULL,PennController,54,_Header_,End,1730903628512,undefined,1963,neglect,abstract-negative,abstract,concrete,A,NULL
1730904049,0ff9f7c3c0ce320f262fff7afb05e7d1,PennController,43,0,test_conc,NULL,Selector,unnamed-Selector,Selection,abstract,1730903630981,undefined,1963,neglect,abstract-negative,abstract,concrete,A,abstract;concrete
1730904049,0ff9f7c3c0ce320f262fff7afb05e7d1,PennController,43,0,test_conc,NULL,PennController,54,_Trial_,End,1730903630983,undefined,1963,neglect,abstract-negative,abstract,concrete,A,NULL
1730904049,0ff9f7c3c0ce320f262fff7afb05e7d1,PennController,34,0,test_conc,NULL,PennController,45,_Trial_,Start,1730903630985,undefined,775,dread,abstract-negative,abstract,concrete,A,NULL
1730904049,0ff9f7c3c0ce320f262fff7afb05e7d1,PennController,34,0,test_conc,NULL,PennController,45,_Header_,Start,1730903630985,undefined,775,dread,abstract-negative,abstract,concrete,A,NULL
1730904049,0ff9f7c3c0ce320f262fff7afb05e7d1,PennController,34,0,test_conc,NULL,PennController,45,_Header_,End,1730903631237,undefined,775,dread,abstract-negative,abstract,concrete,A,NULL
1730904049,0ff9f7c3c0ce320f262fff7afb05e7d1,PennController,34,0,test_conc,NULL,Selector,unnamed-Selector,Selection,abstract,1730903632517,undefined,775,dread,abstract-negative,abstract,concrete,A,abstract;concrete
1730904049,0ff9f7c3c0ce320f262fff7afb05e7d1,PennController,34,0,test_conc,NULL,PennController,45,_Trial_,End,1730903632519,undefined,775,dread,abstract-negative,abstract,concrete,A,NULL
1730904049,0ff9f7c3c0ce320f262fff7afb05e7d1,PennController,37,0,test_conc,NULL,PennController,48,_Trial_,Start,1730903632521,undefined,3376,resent,abstract-negative,abstract,concrete,A,NULL
1730904049,0ff9f7c3c0ce320f262fff7afb05e7d1,PennController,37,0,test_conc,NULL,PennController,48,_Header_,Start,1730903632521,undefined,3376,resent,abstract-negative,abstract,concrete,A,NULL
1730904049,0ff9f7c3c0ce320f262fff7afb05e7d1,PennController,37,0,test_conc,NULL,PennController,48,_Header_,End,1730903632774,undefined,3376,resent,abstract-negative,abstract,concrete,A,NULL
1730904049,0ff9f7c3c0ce320f262fff7afb05e7d1,PennController,37,0,test_conc,NULL,Selector,unnamed-Selector,Selection,abstract,1730903636654,undefined,3376,resent,abstract-negative,abstract,concrete,A,abstract;concrete
1730904049,0ff9f7c3c0ce320f262fff7afb05e7d1,PennController,37,0,test_conc,NULL,PennController,48,_Trial_,End,1730903636657,undefined,3376,resent,abstract-negative,abstract,concrete,A,NULL
1730904049,0ff9f7c3c0ce320f262fff7afb05e7d1,PennController,14,0,test_conc,NULL,PennController,25,_Trial_,Start,1730903636659,undefined,767,punch,concrete-negative,abstract,concrete,A,NULL
1730904049,0ff9f7c3c0ce320f262fff7afb05e7d1,PennController,14,0,test_conc,NULL,PennController,25,_Header_,Start,1730903636659,undefined,767,punch,concrete-negative,abstract,concrete,A,NULL
1730904049,0ff9f7c3c0ce320f262fff7afb05e7d1,PennController,14,0,test_conc,NULL,PennController,25,_Header_,End,1730903636909,undefined,767,punch,concrete-negative,abstract,concrete,A,NULL
1730904049,0ff9f7c3c0ce320f262fff7afb05e7d1,PennController,14,0,test_conc,NULL,Selector,unnamed-Selector,Selection,concrete,1730903638180,undefined,767,punch,concrete-negative,abstract,concrete,A,abstract;concrete
1730904049,0ff9f7c3c0ce320f262fff7afb05e7d1,PennController,14,0,test_conc,NULL,PennController,25,_Trial_,End,1730903638183,undefined,767,punch,concrete-negative,abstract,concrete,A,NULL
1730904049,0ff9f7c3c0ce320f262fff7afb05e7d1,PennController,9,0,test_conc,NULL,PennController,20,_Trial_,Start,1730903638185,undefined,676,dance,concrete-positive,abstract,concrete,A,NULL
1730904049,0ff9f7c3c0ce320f262fff7afb05e7d1,PennController,9,0,test_conc,NULL,PennController,20,_Header_,Start,1730903638185,undefined,676,dance,concrete-positive,abstract,concrete,A,NULL
1730904049,0ff9f7c3c0ce320f262fff7afb05e7d1,PennController,9,0,test_conc,NULL,PennController,20,_Header_,End,1730903638439,undefined,676,dance,concrete-positive,abstract,concrete,A,NULL
1730904049,0ff9f7c3c0ce320f262fff7afb05e7d1,PennController,9,0,test_conc,NULL,Selector,unnamed-Selector,Selection,concrete,1730903639621,undefined,676,dance,concrete-positive,abstract,concrete,A,abstract;concrete
1730904049,0ff9f7c3c0ce320f262fff7afb05e7d1,PennController,9,0,test_conc,NULL,PennController,20,_Trial_,End,1730903639623,undefined,676,dance,concrete-positive,abstract,concrete,A,NULL
1730904049,0ff9f7c3c0ce320f262fff7afb05e7d1,PennController,38,0,test_conc,NULL,PennController,49,_Trial_,Start,1730903639625,undefined,709,envy,abstract-negative,abstract,concrete,A,NULL
1730904049,0ff9f7c3c0ce320f262fff7afb05e7d1,PennController,38,0,test_conc,NULL,PennController,49,_Header_,Start,1730903639625,undefined,709,envy,abstract-negative,abstract,concrete,A,NULL
1730904049,0ff9f7c3c0ce320f262fff7afb05e7d1,PennController,38,0,test_conc,NULL,PennController,49,_Header_,End,1730903639876,undefined,709,envy,abstract-negative,abstract,concrete,A,NULL
1730904049,0ff9f7c3c0ce320f262fff7afb05e7d1,PennController,38,0,test_conc,NULL,Selector,unnamed-Selector,Selection,abstract,1730903641091,undefined,709,envy,abstract-negative,abstract,concrete,A,abstract;concrete
1730904049,0ff9f7c3c0ce320f262fff7afb05e7d1,PennController,38,0,test_conc,NULL,PennController,49,_Trial_,End,1730903641093,undefined,709,envy,abstract-negative,abstract,concrete,A,NULL
1730904049,0ff9f7c3c0ce320f262fff7afb05e7d1,PennController,5,0,test_conc,NULL,PennController,16,_Trial_,Start,1730903641095,undefined,804,help,concrete-positive,abstract,concrete,A,NULL
1730904049,0ff9f7c3c0ce320f262fff7afb05e7d1,PennController,5,0,test_conc,NULL,PennController,16,_Header_,Start,1730903641095,undefined,804,help,concrete-positive,abstract,concrete,A,NULL
1730904049,0ff9f7c3c0ce320f262fff7afb05e7d1,PennController,5,0,test_conc,NULL,PennController,16,_Header_,End,1730903641346,undefined,804,help,concrete-positive,abstract,concrete,A,NULL
1730904049,0ff9f7c3c0ce320f262fff7afb05e7d1,PennController,5,0,test_conc,NULL,Selector,unnamed-Selector,Selection,abstract,1730903642654,undefined,804,help,concrete-positive,abstract,concrete,A,abstract;concrete
1730904049,0ff9f7c3c0ce320f262fff7afb05e7d1,PennController,5,0,test_conc,NULL,PennController,16,_Trial_,End,1730903642656,undefined,804,help,concrete-positive,abstract,concrete,A,NULL
1730904049,0ff9f7c3c0ce320f262fff7afb05e7d1,PennController,29,0,test_conc,NULL,PennController,40,_Trial_,Start,1730903642658,undefined,1001,encourage,abstract-positive,abstract,concrete,A,NULL
1730904049,0ff9f7c3c0ce320f262fff7afb05e7d1,PennController,29,0,test_conc,NULL,PennController,40,_Header_,Start,1730903642658,undefined,1001,encourage,abstract-positive,abstract,concrete,A,NULL
1730904049,0ff9f7c3c0ce320f262fff7afb05e7d1,PennController,29,0,test_conc,NULL,PennController,40,_Header_,End,1730903642908,undefined,1001,encourage,abstract-positive,abstract,concrete,A,NULL
1730904049,0ff9f7c3c0ce320f262fff7afb05e7d1,PennController,29,0,test_conc,NULL,Selector,unnamed-Selector,Selection,abstract,1730903644413,undefined,1001,encourage,abstract-positive,abstract,concrete,A,abstract;concrete
1730904049,0ff9f7c3c0ce320f262fff7afb05e7d1,PennController,29,0,test_conc,NULL,PennController,40,_Trial_,End,1730903644415,undefined,1001,encourage,abstract-positive,abstract,concrete,A,NULL
1730904049,0ff9f7c3c0ce320f262fff7afb05e7d1,PennController,31,0,test_conc,NULL,PennController,42,_Trial_,Start,1730903644417,undefined,743,thrive,abstract-positive,abstract,concrete,A,NULL
1730904049,0ff9f7c3c0ce320f262fff7afb05e7d1,PennController,31,0,test_conc,NULL,PennController,42,_Header_,Start,1730903644417,undefined,743,thrive,abstract-positive,abstract,concrete,A,NULL
1730904049,0ff9f7c3c0ce320f262fff7afb05e7d1,PennController,31,0,test_conc,NULL,PennController,42,_Header_,End,1730903644668,undefined,743,thrive,abstract-positive,abstract,concrete,A,NULL
1730904049,0ff9f7c3c0ce320f262fff7afb05e7d1,PennController,31,0,test_conc,NULL,Selector,unnamed-Selector,Selection,abstract,1730903645915,undefined,743,thrive,abstract-positive,abstract,concrete,A,abstract;concrete
1730904049,0ff9f7c3c0ce320f262fff7afb05e7d1,PennController,31,0,test_conc,NULL,PennController,42,_Trial_,End,1730903645918,undefined,743,thrive,abstract-positive,abstract,concrete,A,NULL
1730904049,0ff9f7c3c0ce320f262fff7afb05e7d1,PennController,17,0,test_conc,NULL,PennController,28,_Trial_,Start,1730903645920,undefined,794,smash,concrete-negative,abstract,concrete,A,NULL
1730904049,0ff9f7c3c0ce320f262fff7afb05e7d1,PennController,17,0,test_conc,NULL,PennController,28,_Header_,Start,1730903645920,undefined,794,smash,concrete-negative,abstract,concrete,A,NULL
1730904049,0ff9f7c3c0ce320f262fff7afb05e7d1,PennController,17,0,test_conc,NULL,PennController,28,_Header_,End,1730903646172,undefined,794,smash,concrete-negative,abstract,concrete,A,NULL
