#
# Results on Thu, 07 Nov 2024 14:59:29 GMT
# USER AGENT: Mozilla/5.0 (Windows NT 10.0; Win64; x64) AppleWebKit/537.36 (KHTML, like Gecko) Chrome/130.0.0.0 Safari/537.36
# Design number was non-random = 0
#
# Columns below this comment are as follows:
# 1. Results reception time.
# 2. MD5 hash of participant's IP address.
# 3. Controller name.
# 4. Order number of item.
# 5. Inner element number.
# 6. Label.
# 7. Latin Square Group.
# 8. PennElementType.
# 9. PennElementName.
# 10. Parameter.
# 11. Value.
# 12. EventTime.
# 13. Comments.
1730991569,001e4b38ceea88e63c23b86904a6e72c,PennController,1,0,welcome,NULL,PennController,0,_Trial_,Start,1730990809631,NULL
1730991569,001e4b38ceea88e63c23b86904a6e72c,PennController,1,0,welcome,NULL,PennController,0,_Header_,Start,1730990809631,NULL
1730991569,001e4b38ceea88e63c23b86904a6e72c,PennController,1,0,welcome,NULL,PennController,0,_Header_,End,1730990809884,NULL
1730991569,001e4b38ceea88e63c23b86904a6e72c,PennController,1,0,welcome,NULL,PennController,0,_Trial_,End,1730990827908,NULL
# 13. ID.
# 14. Comments.
1730991569,001e4b38ceea88e63c23b86904a6e72c,PennController,124,0,consent,NULL,PennController,2,_Trial_,Start,1730990827911,5ba286e8821f7600011d09f2,NULL
1730991569,001e4b38ceea88e63c23b86904a6e72c,PennController,124,0,consent,NULL,PennController,2,_Header_,Start,1730990827911,5ba286e8821f7600011d09f2,NULL
1730991569,001e4b38ceea88e63c23b86904a6e72c,PennController,124,0,consent,NULL,PennController,2,_Header_,End,1730990828164,5ba286e8821f7600011d09f2,NULL
1730991569,001e4b38ceea88e63c23b86904a6e72c,PennController,124,0,consent,NULL,TextInput,ID,Final,5ba286e8821f7600011d09f2,1730990851173,5ba286e8821f7600011d09f2,NULL
1730991569,001e4b38ceea88e63c23b86904a6e72c,PennController,124,0,consent,NULL,PennController,2,_Trial_,End,1730990851173,5ba286e8821f7600011d09f2,NULL
# 13. Comments.
1730991569,001e4b38ceea88e63c23b86904a6e72c,PennController,126,0,instructions1_val,NULL,PennController,4,_Trial_,Start,1730990851174,NULL
1730991569,001e4b38ceea88e63c23b86904a6e72c,PennController,126,0,instructions1_val,NULL,PennController,4,_Header_,Start,1730990851174,NULL
1730991569,001e4b38ceea88e63c23b86904a6e72c,PennController,126,0,instructions1_val,NULL,PennController,4,_Header_,End,1730990851427,NULL
1730991569,001e4b38ceea88e63c23b86904a6e72c,PennController,126,0,instructions1_val,NULL,PennController,4,_Trial_,End,1730990894150,NULL
1730991569,001e4b38ceea88e63c23b86904a6e72c,PennController,127,0,instructions2_val,NULL,PennController,5,_Trial_,Start,1730990894151,NULL
1730991569,001e4b38ceea88e63c23b86904a6e72c,PennController,127,0,instructions2_val,NULL,PennController,5,_Header_,Start,1730990894151,NULL
1730991569,001e4b38ceea88e63c23b86904a6e72c,PennController,127,0,instructions2_val,NULL,PennController,5,_Header_,End,1730990894401,NULL
1730991569,001e4b38ceea88e63c23b86904a6e72c,PennController,127,0,instructions2_val,NULL,PennController,5,_Trial_,End,1730990912231,NULL
1730991569,001e4b38ceea88e63c23b86904a6e72c,PennController,128,0,instructions3_hands,NULL,PennController,6,_Trial_,Start,1730990912232,NULL
1730991569,001e4b38ceea88e63c23b86904a6e72c,PennController,128,0,instructions3_hands,NULL,PennController,6,_Header_,Start,1730990912232,NULL
1730991569,001e4b38ceea88e63c23b86904a6e72c,PennController,128,0,instructions3_hands,NULL,PennController,6,_Header_,End,1730990912482,NULL
1730991569,001e4b38ceea88e63c23b86904a6e72c,PennController,128,0,instructions3_hands,NULL,PennController,6,_Trial_,End,1730990925845,NULL
1730991569,001e4b38ceea88e63c23b86904a6e72c,PennController,129,0,practice_intro_val,NULL,PennController,7,_Trial_,Start,1730990925847,NULL
1730991569,001e4b38ceea88e63c23b86904a6e72c,PennController,129,0,practice_intro_val,NULL,PennController,7,_Header_,Start,1730990925847,NULL
1730991569,001e4b38ceea88e63c23b86904a6e72c,PennController,129,0,practice_intro_val,NULL,PennController,7,_Header_,End,1730990926098,NULL
1730991569,001e4b38ceea88e63c23b86904a6e72c,PennController,129,0,practice_intro_val,NULL,PennController,7,_Trial_,End,1730990929138,NULL
# 13. ID.
# 14. ReactionTime.
# 15. Word.
# 16. selectedKey.
# 17. selectedValue.
# 18. Key_value_F.
# 19. Key_value_J.
# 20. Group.
# 21. Comments.
1730991569,001e4b38ceea88e63c23b86904a6e72c,PennController,108,0,calibrator_val_feedback,NULL,PennController,119,_Trial_,Start,1730990929139,undefined,2106,industry,undefined,positive,negative,positive,A,NULL
1730991569,001e4b38ceea88e63c23b86904a6e72c,PennController,108,0,calibrator_val_feedback,NULL,PennController,119,_Header_,Start,1730990929139,undefined,2106,industry,undefined,positive,negative,positive,A,NULL
1730991569,001e4b38ceea88e63c23b86904a6e72c,PennController,108,0,calibrator_val_feedback,NULL,PennController,119,_Header_,End,1730990929391,undefined,2106,industry,undefined,positive,negative,positive,A,NULL
1730991569,001e4b38ceea88e63c23b86904a6e72c,PennController,108,0,calibrator_val_feedback,NULL,Selector,Selection,Selection,positive,1730990932001,undefined,2106,industry,undefined,positive,negative,positive,A,negative;positive
1730991569,001e4b38ceea88e63c23b86904a6e72c,PennController,108,0,calibrator_val_feedback,NULL,PennController,119,_Trial_,End,1730990934005,undefined,2106,industry,undefined,positive,negative,positive,A,NULL
1730991569,001e4b38ceea88e63c23b86904a6e72c,PennController,106,0,calibrator_val_feedback,NULL,PennController,117,_Trial_,Start,1730990934006,undefined,2150,hat,undefined,positive,negative,positive,A,NULL
1730991569,001e4b38ceea88e63c23b86904a6e72c,PennController,106,0,calibrator_val_feedback,NULL,PennController,117,_Header_,Start,1730990934006,undefined,2150,hat,undefined,positive,negative,positive,A,NULL
1730991569,001e4b38ceea88e63c23b86904a6e72c,PennController,106,0,calibrator_val_feedback,NULL,PennController,117,_Header_,End,1730990934258,undefined,2150,hat,undefined,positive,negative,positive,A,NULL
1730991569,001e4b38ceea88e63c23b86904a6e72c,PennController,106,0,calibrator_val_feedback,NULL,Selector,Selection,Selection,positive,1730990936911,undefined,2150,hat,undefined,positive,negative,positive,A,negative;positive
1730991569,001e4b38ceea88e63c23b86904a6e72c,PennController,106,0,calibrator_val_feedback,NULL,PennController,117,_Trial_,End,1730990938918,undefined,2150,hat,undefined,positive,negative,positive,A,NULL
1730991569,001e4b38ceea88e63c23b86904a6e72c,PennController,113,0,calibrator_val_feedback,NULL,PennController,124,_Trial_,Start,1730990938920,undefined,1600,kitten,undefined,positive,negative,positive,A,NULL
1730991569,001e4b38ceea88e63c23b86904a6e72c,PennController,113,0,calibrator_val_feedback,NULL,PennController,124,_Header_,Start,1730990938920,undefined,1600,kitten,undefined,positive,negative,positive,A,NULL
1730991569,001e4b38ceea88e63c23b86904a6e72c,PennController,113,0,calibrator_val_feedback,NULL,PennController,124,_Header_,End,1730990939172,undefined,1600,kitten,undefined,positive,negative,positive,A,NULL
1730991569,001e4b38ceea88e63c23b86904a6e72c,PennController,113,0,calibrator_val_feedback,NULL,Selector,Selection,Selection,positive,1730990941274,undefined,1600,kitten,undefined,positive,negative,positive,A,negative;positive
1730991569,001e4b38ceea88e63c23b86904a6e72c,PennController,113,0,calibrator_val_feedback,NULL,PennController,124,_Trial_,End,1730990943279,undefined,1600,kitten,undefined,positive,negative,positive,A,NULL
1730991569,001e4b38ceea88e63c23b86904a6e72c,PennController,105,0,calibrator_val_feedback,NULL,PennController,116,_Trial_,Start,1730990943280,undefined,1699,grin,undefined,positive,negative,positive,A,NULL
1730991569,001e4b38ceea88e63c23b86904a6e72c,PennController,105,0,calibrator_val_feedback,NULL,PennController,116,_Header_,Start,1730990943280,undefined,1699,grin,undefined,positive,negative,positive,A,NULL
1730991569,001e4b38ceea88e63c23b86904a6e72c,PennController,105,0,calibrator_val_feedback,NULL,PennController,116,_Header_,End,1730990943530,undefined,1699,grin,undefined,positive,negative,positive,A,NULL
1730991569,001e4b38ceea88e63c23b86904a6e72c,PennController,105,0,calibrator_val_feedback,NULL,Selector,Selection,Selection,positive,1730990945731,undefined,1699,grin,undefined,positive,negative,positive,A,negative;positive
1730991569,001e4b38ceea88e63c23b86904a6e72c,PennController,105,0,calibrator_val_feedback,NULL,PennController,116,_Trial_,End,1730990947737,undefined,1699,grin,undefined,positive,negative,positive,A,NULL
1730991569,001e4b38ceea88e63c23b86904a6e72c,PennController,111,0,calibrator_val_feedback,NULL,PennController,122,_Trial_,Start,1730990947738,undefined,1660,jail,undefined,positive,negative,positive,A,NULL
1730991569,001e4b38ceea88e63c23b86904a6e72c,PennController,111,0,calibrator_val_feedback,NULL,PennController,122,_Header_,Start,1730990947738,undefined,1660,jail,undefined,positive,negative,positive,A,NULL
1730991569,001e4b38ceea88e63c23b86904a6e72c,PennController,111,0,calibrator_val_feedback,NULL,PennController,122,_Header_,End,1730990947992,undefined,1660,jail,undefined,positive,negative,positive,A,NULL
1730991569,001e4b38ceea88e63c23b86904a6e72c,PennController,111,0,calibrator_val_feedback,NULL,Selector,Selection,Selection,negative,1730990950153,undefined,1660,jail,undefined,positive,negative,positive,A,negative;positive
1730991569,001e4b38ceea88e63c23b86904a6e72c,PennController,111,0,calibrator_val_feedback,NULL,PennController,122,_Trial_,End,1730990952157,undefined,1660,jail,undefined,positive,negative,positive,A,NULL
1730991569,001e4b38ceea88e63c23b86904a6e72c,PennController,109,0,calibrator_val_feedback,NULL,PennController,120,_Trial_,Start,1730990952158,undefined,2495,insecure,undefined,positive,negative,positive,A,NULL
1730991569,001e4b38ceea88e63c23b86904a6e72c,PennController,109,0,calibrator_val_feedback,NULL,PennController,120,_Header_,Start,1730990952158,undefined,2495,insecure,undefined,positive,negative,positive,A,NULL
1730991569,001e4b38ceea88e63c23b86904a6e72c,PennController,109,0,calibrator_val_feedback,NULL,PennController,120,_Header_,End,1730990952409,undefined,2495,insecure,undefined,positive,negative,positive,A,NULL
1730991569,001e4b38ceea88e63c23b86904a6e72c,PennController,109,0,calibrator_val_feedback,NULL,Selector,Selection,Selection,negative,1730990955407,undefined,2495,insecure,undefined,positive,negative,positive,A,negative;positive
1730991569,001e4b38ceea88e63c23b86904a6e72c,PennController,109,0,calibrator_val_feedback,NULL,PennController,120,_Trial_,End,1730990957412,undefined,2495,insecure,undefined,positive,negative,positive,A,NULL
1730991569,001e4b38ceea88e63c23b86904a6e72c,PennController,107,0,calibrator_val_feedback,NULL,PennController,118,_Trial_,Start,1730990957413,undefined,1554,icebox,undefined,positive,negative,positive,A,NULL
1730991569,001e4b38ceea88e63c23b86904a6e72c,PennController,107,0,calibrator_val_feedback,NULL,PennController,118,_Header_,Start,1730990957413,undefined,1554,icebox,undefined,positive,negative,positive,A,NULL
1730991569,001e4b38ceea88e63c23b86904a6e72c,PennController,107,0,calibrator_val_feedback,NULL,PennController,118,_Header_,End,1730990957664,undefined,1554,icebox,undefined,positive,negative,positive,A,NULL
1730991569,001e4b38ceea88e63c23b86904a6e72c,PennController,107,0,calibrator_val_feedback,NULL,Selector,Selection,Selection,positive,1730990959723,undefined,1554,icebox,undefined,positive,negative,positive,A,negative;positive
1730991569,001e4b38ceea88e63c23b86904a6e72c,PennController,107,0,calibrator_val_feedback,NULL,PennController,118,_Trial_,End,1730990961727,undefined,1554,icebox,undefined,positive,negative,positive,A,NULL
1730991569,001e4b38ceea88e63c23b86904a6e72c,PennController,104,0,calibrator_val_feedback,NULL,PennController,115,_Trial_,Start,1730990961728,undefined,1323,free,undefined,positive,negative,positive,A,NULL
1730991569,001e4b38ceea88e63c23b86904a6e72c,PennController,104,0,calibrator_val_feedback,NULL,PennController,115,_Header_,Start,1730990961728,undefined,1323,free,undefined,positive,negative,positive,A,NULL
1730991569,001e4b38ceea88e63c23b86904a6e72c,PennController,104,0,calibrator_val_feedback,NULL,PennController,115,_Header_,End,1730990961980,undefined,1323,free,undefined,positive,negative,positive,A,NULL
1730991569,001e4b38ceea88e63c23b86904a6e72c,PennController,104,0,calibrator_val_feedback,NULL,Selector,Selection,Selection,positive,1730990963805,undefined,1323,free,undefined,positive,negative,positive,A,negative;positive
1730991569,001e4b38ceea88e63c23b86904a6e72c,PennController,104,0,calibrator_val_feedback,NULL,PennController,115,_Trial_,End,1730990965812,undefined,1323,free,undefined,positive,negative,positive,A,NULL
1730991569,001e4b38ceea88e63c23b86904a6e72c,PennController,112,0,calibrator_val_feedback,NULL,PennController,123,_Trial_,Start,1730990965814,undefined,1365,joke,undefined,positive,negative,positive,A,NULL
1730991569,001e4b38ceea88e63c23b86904a6e72c,PennController,112,0,calibrator_val_feedback,NULL,PennController,123,_Header_,Start,1730990965814,undefined,1365,joke,undefined,positive,negative,positive,A,NULL
1730991569,001e4b38ceea88e63c23b86904a6e72c,PennController,112,0,calibrator_val_feedback,NULL,PennController,123,_Header_,End,1730990966067,undefined,1365,joke,undefined,positive,negative,positive,A,NULL
1730991569,001e4b38ceea88e63c23b86904a6e72c,PennController,112,0,calibrator_val_feedback,NULL,Selector,Selection,Selection,positive,1730990967934,undefined,1365,joke,undefined,positive,negative,positive,A,negative;positive
1730991569,001e4b38ceea88e63c23b86904a6e72c,PennController,112,0,calibrator_val_feedback,NULL,PennController,123,_Trial_,End,1730990969941,undefined,1365,joke,undefined,positive,negative,positive,A,NULL
1730991569,001e4b38ceea88e63c23b86904a6e72c,PennController,110,0,calibrator_val_feedback,NULL,PennController,121,_Trial_,Start,1730990969942,undefined,1398,invader,undefined,positive,negative,positive,A,NULL
1730991569,001e4b38ceea88e63c23b86904a6e72c,PennController,110,0,calibrator_val_feedback,NULL,PennController,121,_Header_,Start,1730990969942,undefined,1398,invader,undefined,positive,negative,positive,A,NULL
1730991569,001e4b38ceea88e63c23b86904a6e72c,PennController,110,0,calibrator_val_feedback,NULL,PennController,121,_Header_,End,1730990970192,undefined,1398,invader,undefined,positive,negative,positive,A,NULL
1730991569,001e4b38ceea88e63c23b86904a6e72c,PennController,110,0,calibrator_val_feedback,NULL,Selector,Selection,Selection,negative,1730990972093,undefined,1398,invader,undefined,positive,negative,positive,A,negative;positive
1730991569,001e4b38ceea88e63c23b86904a6e72c,PennController,110,0,calibrator_val_feedback,NULL,PennController,121,_Trial_,End,1730990974099,undefined,1398,invader,undefined,positive,negative,positive,A,NULL
# 16. Key_value_F.
# 17. Key_value_J.
# 18. Group.
# 19. Comments.
1730991569,001e4b38ceea88e63c23b86904a6e72c,PennController,114,0,calibrator_val_no_feedback,NULL,PennController,125,_Trial_,Start,1730990974100,undefined,1312,free,negative,positive,A,NULL
1730991569,001e4b38ceea88e63c23b86904a6e72c,PennController,114,0,calibrator_val_no_feedback,NULL,PennController,125,_Header_,Start,1730990974100,undefined,1312,free,negative,positive,A,NULL
1730991569,001e4b38ceea88e63c23b86904a6e72c,PennController,114,0,calibrator_val_no_feedback,NULL,PennController,125,_Header_,End,1730990974356,undefined,1312,free,negative,positive,A,NULL
1730991569,001e4b38ceea88e63c23b86904a6e72c,PennController,114,0,calibrator_val_no_feedback,NULL,Selector,unnamed-Selector,Selection,positive,1730990976174,undefined,1312,free,negative,positive,A,negative;positive
1730991569,001e4b38ceea88e63c23b86904a6e72c,PennController,114,0,calibrator_val_no_feedback,NULL,PennController,125,_Trial_,End,1730990976175,undefined,1312,free,negative,positive,A,NULL
1730991569,001e4b38ceea88e63c23b86904a6e72c,PennController,122,0,calibrator_val_no_feedback,NULL,PennController,133,_Trial_,Start,1730990976176,undefined,1391,joke,negative,positive,A,NULL
1730991569,001e4b38ceea88e63c23b86904a6e72c,PennController,122,0,calibrator_val_no_feedback,NULL,PennController,133,_Header_,Start,1730990976176,undefined,1391,joke,negative,positive,A,NULL
1730991569,001e4b38ceea88e63c23b86904a6e72c,PennController,122,0,calibrator_val_no_feedback,NULL,PennController,133,_Header_,End,1730990976428,undefined,1391,joke,negative,positive,A,NULL
1730991569,001e4b38ceea88e63c23b86904a6e72c,PennController,122,0,calibrator_val_no_feedback,NULL,Selector,unnamed-Selector,Selection,positive,1730990978320,undefined,1391,joke,negative,positive,A,negative;positive
1730991569,001e4b38ceea88e63c23b86904a6e72c,PennController,122,0,calibrator_val_no_feedback,NULL,PennController,133,_Trial_,End,1730990978322,undefined,1391,joke,negative,positive,A,NULL
1730991569,001e4b38ceea88e63c23b86904a6e72c,PennController,120,0,calibrator_val_no_feedback,NULL,PennController,131,_Trial_,Start,1730990978323,undefined,1223,invader,negative,positive,A,NULL
1730991569,001e4b38ceea88e63c23b86904a6e72c,PennController,120,0,calibrator_val_no_feedback,NULL,PennController,131,_Header_,Start,1730990978323,undefined,1223,invader,negative,positive,A,NULL
1730991569,001e4b38ceea88e63c23b86904a6e72c,PennController,120,0,calibrator_val_no_feedback,NULL,PennController,131,_Header_,End,1730990978576,undefined,1223,invader,negative,positive,A,NULL
1730991569,001e4b38ceea88e63c23b86904a6e72c,PennController,120,0,calibrator_val_no_feedback,NULL,Selector,unnamed-Selector,Selection,negative,1730990980302,undefined,1223,invader,negative,positive,A,negative;positive
1730991569,001e4b38ceea88e63c23b86904a6e72c,PennController,120,0,calibrator_val_no_feedback,NULL,PennController,131,_Trial_,End,1730990980304,undefined,1223,invader,negative,positive,A,NULL
1730991569,001e4b38ceea88e63c23b86904a6e72c,PennController,119,0,calibrator_val_no_feedback,NULL,PennController,130,_Trial_,Start,1730990980305,undefined,1410,insecure,negative,positive,A,NULL
1730991569,001e4b38ceea88e63c23b86904a6e72c,PennController,119,0,calibrator_val_no_feedback,NULL,PennController,130,_Header_,Start,1730990980305,undefined,1410,insecure,negative,positive,A,NULL
1730991569,001e4b38ceea88e63c23b86904a6e72c,PennController,119,0,calibrator_val_no_feedback,NULL,PennController,130,_Header_,End,1730990980556,undefined,1410,insecure,negative,positive,A,NULL
1730991569,001e4b38ceea88e63c23b86904a6e72c,PennController,119,0,calibrator_val_no_feedback,NULL,Selector,unnamed-Selector,Selection,negative,1730990982471,undefined,1410,insecure,negative,positive,A,negative;positive
1730991569,001e4b38ceea88e63c23b86904a6e72c,PennController,119,0,calibrator_val_no_feedback,NULL,PennController,130,_Trial_,End,1730990982472,undefined,1410,insecure,negative,positive,A,NULL
1730991569,001e4b38ceea88e63c23b86904a6e72c,PennController,118,0,calibrator_val_no_feedback,NULL,PennController,129,_Trial_,Start,1730990982472,undefined,1953,industry,negative,positive,A,NULL
1730991569,001e4b38ceea88e63c23b86904a6e72c,PennController,118,0,calibrator_val_no_feedback,NULL,PennController,129,_Header_,Start,1730990982472,undefined,1953,industry,negative,positive,A,NULL
1730991569,001e4b38ceea88e63c23b86904a6e72c,PennController,118,0,calibrator_val_no_feedback,NULL,PennController,129,_Header_,End,1730990982726,undefined,1953,industry,negative,positive,A,NULL
1730991569,001e4b38ceea88e63c23b86904a6e72c,PennController,118,0,calibrator_val_no_feedback,NULL,Selector,unnamed-Selector,Selection,positive,1730990985184,undefined,1953,industry,negative,positive,A,negative;positive
1730991569,001e4b38ceea88e63c23b86904a6e72c,PennController,118,0,calibrator_val_no_feedback,NULL,PennController,129,_Trial_,End,1730990985185,undefined,1953,industry,negative,positive,A,NULL
1730991569,001e4b38ceea88e63c23b86904a6e72c,PennController,115,0,calibrator_val_no_feedback,NULL,PennController,126,_Trial_,Start,1730990985187,undefined,946,grin,negative,positive,A,NULL
1730991569,001e4b38ceea88e63c23b86904a6e72c,PennController,115,0,calibrator_val_no_feedback,NULL,PennController,126,_Header_,Start,1730990985187,undefined,946,grin,negative,positive,A,NULL
1730991569,001e4b38ceea88e63c23b86904a6e72c,PennController,115,0,calibrator_val_no_feedback,NULL,PennController,126,_Header_,End,1730990985439,undefined,946,grin,negative,positive,A,NULL
1730991569,001e4b38ceea88e63c23b86904a6e72c,PennController,115,0,calibrator_val_no_feedback,NULL,Selector,unnamed-Selector,Selection,positive,1730990986889,undefined,946,grin,negative,positive,A,negative;positive
1730991569,001e4b38ceea88e63c23b86904a6e72c,PennController,115,0,calibrator_val_no_feedback,NULL,PennController,126,_Trial_,End,1730990986891,undefined,946,grin,negative,positive,A,NULL
1730991569,001e4b38ceea88e63c23b86904a6e72c,PennController,121,0,calibrator_val_no_feedback,NULL,PennController,132,_Trial_,Start,1730990986892,undefined,1039,jail,negative,positive,A,NULL
1730991569,001e4b38ceea88e63c23b86904a6e72c,PennController,121,0,calibrator_val_no_feedback,NULL,PennController,132,_Header_,Start,1730990986892,undefined,1039,jail,negative,positive,A,NULL
1730991569,001e4b38ceea88e63c23b86904a6e72c,PennController,121,0,calibrator_val_no_feedback,NULL,PennController,132,_Header_,End,1730990987145,undefined,1039,jail,negative,positive,A,NULL
1730991569,001e4b38ceea88e63c23b86904a6e72c,PennController,121,0,calibrator_val_no_feedback,NULL,Selector,unnamed-Selector,Selection,negative,1730990988685,undefined,1039,jail,negative,positive,A,negative;positive
1730991569,001e4b38ceea88e63c23b86904a6e72c,PennController,121,0,calibrator_val_no_feedback,NULL,PennController,132,_Trial_,End,1730990988687,undefined,1039,jail,negative,positive,A,NULL
1730991569,001e4b38ceea88e63c23b86904a6e72c,PennController,116,0,calibrator_val_no_feedback,NULL,PennController,127,_Trial_,Start,1730990988688,undefined,1011,hat,negative,positive,A,NULL
1730991569,001e4b38ceea88e63c23b86904a6e72c,PennController,116,0,calibrator_val_no_feedback,NULL,PennController,127,_Header_,Start,1730990988688,undefined,1011,hat,negative,positive,A,NULL
1730991569,001e4b38ceea88e63c23b86904a6e72c,PennController,116,0,calibrator_val_no_feedback,NULL,PennController,127,_Header_,End,1730990988941,undefined,1011,hat,negative,positive,A,NULL
1730991569,001e4b38ceea88e63c23b86904a6e72c,PennController,116,0,calibrator_val_no_feedback,NULL,Selector,unnamed-Selector,Selection,positive,1730990990455,undefined,1011,hat,negative,positive,A,negative;positive
1730991569,001e4b38ceea88e63c23b86904a6e72c,PennController,116,0,calibrator_val_no_feedback,NULL,PennController,127,_Trial_,End,1730990990456,undefined,1011,hat,negative,positive,A,NULL
1730991569,001e4b38ceea88e63c23b86904a6e72c,PennController,123,0,calibrator_val_no_feedback,NULL,PennController,134,_Trial_,Start,1730990990458,undefined,961,kitten,negative,positive,A,NULL
1730991569,001e4b38ceea88e63c23b86904a6e72c,PennController,123,0,calibrator_val_no_feedback,NULL,PennController,134,_Header_,Start,1730990990458,undefined,961,kitten,negative,positive,A,NULL
1730991569,001e4b38ceea88e63c23b86904a6e72c,PennController,123,0,calibrator_val_no_feedback,NULL,PennController,134,_Header_,End,1730990990711,undefined,961,kitten,negative,positive,A,NULL
1730991569,001e4b38ceea88e63c23b86904a6e72c,PennController,123,0,calibrator_val_no_feedback,NULL,Selector,unnamed-Selector,Selection,positive,1730990992174,undefined,961,kitten,negative,positive,A,negative;positive
1730991569,001e4b38ceea88e63c23b86904a6e72c,PennController,123,0,calibrator_val_no_feedback,NULL,PennController,134,_Trial_,End,1730990992175,undefined,961,kitten,negative,positive,A,NULL
1730991569,001e4b38ceea88e63c23b86904a6e72c,PennController,117,0,calibrator_val_no_feedback,NULL,PennController,128,_Trial_,Start,1730990992177,undefined,917,icebox,negative,positive,A,NULL
1730991569,001e4b38ceea88e63c23b86904a6e72c,PennController,117,0,calibrator_val_no_feedback,NULL,PennController,128,_Header_,Start,1730990992177,undefined,917,icebox,negative,positive,A,NULL
1730991569,001e4b38ceea88e63c23b86904a6e72c,PennController,117,0,calibrator_val_no_feedback,NULL,PennController,128,_Header_,End,1730990992429,undefined,917,icebox,negative,positive,A,NULL
1730991569,001e4b38ceea88e63c23b86904a6e72c,PennController,117,0,calibrator_val_no_feedback,NULL,Selector,unnamed-Selector,Selection,positive,1730990993850,undefined,917,icebox,negative,positive,A,negative;positive
1730991569,001e4b38ceea88e63c23b86904a6e72c,PennController,117,0,calibrator_val_no_feedback,NULL,PennController,128,_Trial_,End,1730990993851,undefined,917,icebox,negative,positive,A,NULL
# 13. Comments.
1730991569,001e4b38ceea88e63c23b86904a6e72c,PennController,130,0,endinstructions_val,NULL,PennController,8,_Trial_,Start,1730990993853,NULL
1730991569,001e4b38ceea88e63c23b86904a6e72c,PennController,130,0,endinstructions_val,NULL,PennController,8,_Header_,Start,1730990993853,NULL
1730991569,001e4b38ceea88e63c23b86904a6e72c,PennController,130,0,endinstructions_val,NULL,PennController,8,_Header_,End,1730990994103,NULL
1730991569,001e4b38ceea88e63c23b86904a6e72c,PennController,130,0,endinstructions_val,NULL,PennController,8,_Trial_,End,1730990999548,NULL
# 13. ID.
# 14. ReactionTime.
# 15. Word.
# 16. ConcValCombo.
# 17. Key_value_F.
# 18. Key_value_J.
# 19. Group.
# 20. Comments.
1730991569,001e4b38ceea88e63c23b86904a6e72c,PennController,69,0,test_val,NULL,PennController,80,_Trial_,Start,1730990999549,undefined,1354,enlighten,abstract-positive,negative,positive,A,NULL
1730991569,001e4b38ceea88e63c23b86904a6e72c,PennController,69,0,test_val,NULL,PennController,80,_Header_,Start,1730990999549,undefined,1354,enlighten,abstract-positive,negative,positive,A,NULL
1730991569,001e4b38ceea88e63c23b86904a6e72c,PennController,69,0,test_val,NULL,PennController,80,_Header_,End,1730990999800,undefined,1354,enlighten,abstract-positive,negative,positive,A,NULL
1730991569,001e4b38ceea88e63c23b86904a6e72c,PennController,69,0,test_val,NULL,Selector,unnamed-Selector,Selection,positive,1730991001655,undefined,1354,enlighten,abstract-positive,negative,positive,A,negative;positive
1730991569,001e4b38ceea88e63c23b86904a6e72c,PennController,69,0,test_val,NULL,PennController,80,_Trial_,End,1730991001657,undefined,1354,enlighten,abstract-positive,negative,positive,A,NULL
1730991569,001e4b38ceea88e63c23b86904a6e72c,PennController,71,0,test_val,NULL,PennController,82,_Trial_,Start,1730991001658,undefined,965,impress,abstract-positive,negative,positive,A,NULL
1730991569,001e4b38ceea88e63c23b86904a6e72c,PennController,71,0,test_val,NULL,PennController,82,_Header_,Start,1730991001658,undefined,965,impress,abstract-positive,negative,positive,A,NULL
1730991569,001e4b38ceea88e63c23b86904a6e72c,PennController,71,0,test_val,NULL,PennController,82,_Header_,End,1730991001911,undefined,965,impress,abstract-positive,negative,positive,A,NULL
1730991569,001e4b38ceea88e63c23b86904a6e72c,PennController,71,0,test_val,NULL,Selector,unnamed-Selector,Selection,positive,1730991003378,undefined,965,impress,abstract-positive,negative,positive,A,negative;positive
1730991569,001e4b38ceea88e63c23b86904a6e72c,PennController,71,0,test_val,NULL,PennController,82,_Trial_,End,1730991003380,undefined,965,impress,abstract-positive,negative,positive,A,NULL
1730991569,001e4b38ceea88e63c23b86904a6e72c,PennController,81,0,test_val,NULL,PennController,92,_Trial_,Start,1730991003382,undefined,901,disappoint,abstract-negative,negative,positive,A,NULL
1730991569,001e4b38ceea88e63c23b86904a6e72c,PennController,81,0,test_val,NULL,PennController,92,_Header_,Start,1730991003382,undefined,901,disappoint,abstract-negative,negative,positive,A,NULL
1730991569,001e4b38ceea88e63c23b86904a6e72c,PennController,81,0,test_val,NULL,PennController,92,_Header_,End,1730991003633,undefined,901,disappoint,abstract-negative,negative,positive,A,NULL
1730991569,001e4b38ceea88e63c23b86904a6e72c,PennController,81,0,test_val,NULL,Selector,unnamed-Selector,Selection,negative,1730991005038,undefined,901,disappoint,abstract-negative,negative,positive,A,negative;positive
1730991569,001e4b38ceea88e63c23b86904a6e72c,PennController,81,0,test_val,NULL,PennController,92,_Trial_,End,1730991005039,undefined,901,disappoint,abstract-negative,negative,positive,A,NULL
1730991569,001e4b38ceea88e63c23b86904a6e72c,PennController,74,0,test_val,NULL,PennController,85,_Trial_,Start,1730991005040,undefined,1109,hate,abstract-negative,negative,positive,A,NULL
1730991569,001e4b38ceea88e63c23b86904a6e72c,PennController,74,0,test_val,NULL,PennController,85,_Header_,Start,1730991005040,undefined,1109,hate,abstract-negative,negative,positive,A,NULL
1730991569,001e4b38ceea88e63c23b86904a6e72c,PennController,74,0,test_val,NULL,PennController,85,_Header_,End,1730991005292,undefined,1109,hate,abstract-negative,negative,positive,A,NULL
1730991569,001e4b38ceea88e63c23b86904a6e72c,PennController,74,0,test_val,NULL,Selector,unnamed-Selector,Selection,negative,1730991006905,undefined,1109,hate,abstract-negative,negative,positive,A,negative;positive
1730991569,001e4b38ceea88e63c23b86904a6e72c,PennController,74,0,test_val,NULL,PennController,85,_Trial_,End,1730991006907,undefined,1109,hate,abstract-negative,negative,positive,A,NULL
1730991569,001e4b38ceea88e63c23b86904a6e72c,PennController,58,0,test_val,NULL,PennController,69,_Trial_,Start,1730991006908,undefined,1037,perish,concrete-negative,negative,positive,A,NULL
1730991569,001e4b38ceea88e63c23b86904a6e72c,PennController,58,0,test_val,NULL,PennController,69,_Header_,Start,1730991006908,undefined,1037,perish,concrete-negative,negative,positive,A,NULL
1730991569,001e4b38ceea88e63c23b86904a6e72c,PennController,58,0,test_val,NULL,PennController,69,_Header_,End,1730991007163,undefined,1037,perish,concrete-negative,negative,positive,A,NULL
1730991569,001e4b38ceea88e63c23b86904a6e72c,PennController,58,0,test_val,NULL,Selector,unnamed-Selector,Selection,negative,1730991008704,undefined,1037,perish,concrete-negative,negative,positive,A,negative;positive
1730991569,001e4b38ceea88e63c23b86904a6e72c,PennController,58,0,test_val,NULL,PennController,69,_Trial_,End,1730991008706,undefined,1037,perish,concrete-negative,negative,positive,A,NULL
1730991569,001e4b38ceea88e63c23b86904a6e72c,PennController,63,0,test_val,NULL,PennController,74,_Trial_,Start,1730991008707,undefined,1100,bore,concrete-negative,negative,positive,A,NULL
1730991569,001e4b38ceea88e63c23b86904a6e72c,PennController,63,0,test_val,NULL,PennController,74,_Header_,Start,1730991008707,undefined,1100,bore,concrete-negative,negative,positive,A,NULL
1730991569,001e4b38ceea88e63c23b86904a6e72c,PennController,63,0,test_val,NULL,PennController,74,_Header_,End,1730991008961,undefined,1100,bore,concrete-negative,negative,positive,A,NULL
1730991569,001e4b38ceea88e63c23b86904a6e72c,PennController,63,0,test_val,NULL,Selector,unnamed-Selector,Selection,negative,1730991010564,undefined,1100,bore,concrete-negative,negative,positive,A,negative;positive
1730991569,001e4b38ceea88e63c23b86904a6e72c,PennController,63,0,test_val,NULL,PennController,74,_Trial_,End,1730991010565,undefined,1100,bore,concrete-negative,negative,positive,A,NULL
1730991569,001e4b38ceea88e63c23b86904a6e72c,PennController,60,0,test_val,NULL,PennController,71,_Trial_,Start,1730991010567,undefined,809,irritate,concrete-negative,negative,positive,A,NULL
1730991569,001e4b38ceea88e63c23b86904a6e72c,PennController,60,0,test_val,NULL,PennController,71,_Header_,Start,1730991010567,undefined,809,irritate,concrete-negative,negative,positive,A,NULL
1730991569,001e4b38ceea88e63c23b86904a6e72c,PennController,60,0,test_val,NULL,PennController,71,_Header_,End,1730991010819,undefined,809,irritate,concrete-negative,negative,positive,A,NULL
1730991569,001e4b38ceea88e63c23b86904a6e72c,PennController,60,0,test_val,NULL,Selector,unnamed-Selector,Selection,negative,1730991012129,undefined,809,irritate,concrete-negative,negative,positive,A,negative;positive
1730991569,001e4b38ceea88e63c23b86904a6e72c,PennController,60,0,test_val,NULL,PennController,71,_Trial_,End,1730991012131,undefined,809,irritate,concrete-negative,negative,positive,A,NULL
1730991569,001e4b38ceea88e63c23b86904a6e72c,PennController,55,0,test_val,NULL,PennController,66,_Trial_,Start,1730991012132,undefined,765,destroy,concrete-negative,negative,positive,A,NULL
1730991569,001e4b38ceea88e63c23b86904a6e72c,PennController,55,0,test_val,NULL,PennController,66,_Header_,Start,1730991012132,undefined,765,destroy,concrete-negative,negative,positive,A,NULL
1730991569,001e4b38ceea88e63c23b86904a6e72c,PennController,55,0,test_val,NULL,PennController,66,_Header_,End,1730991012383,undefined,765,destroy,concrete-negative,negative,positive,A,NULL
1730991569,001e4b38ceea88e63c23b86904a6e72c,PennController,55,0,test_val,NULL,Selector,unnamed-Selector,Selection,negative,1730991013652,undefined,765,destroy,concrete-negative,negative,positive,A,negative;positive
1730991569,001e4b38ceea88e63c23b86904a6e72c,PennController,55,0,test_val,NULL,PennController,66,_Trial_,End,1730991013653,undefined,765,destroy,concrete-negative,negative,positive,A,NULL
1730991569,001e4b38ceea88e63c23b86904a6e72c,PennController,47,0,test_val,NULL,PennController,58,_Trial_,Start,1730991013655,undefined,972,caress,concrete-positive,negative,positive,A,NULL
1730991569,001e4b38ceea88e63c23b86904a6e72c,PennController,47,0,test_val,NULL,PennController,58,_Header_,Start,1730991013655,undefined,972,caress,concrete-positive,negative,positive,A,NULL
1730991569,001e4b38ceea88e63c23b86904a6e72c,PennController,47,0,test_val,NULL,PennController,58,_Header_,End,1730991013905,undefined,972,caress,concrete-positive,negative,positive,A,NULL
1730991569,001e4b38ceea88e63c23b86904a6e72c,PennController,47,0,test_val,NULL,Selector,unnamed-Selector,Selection,positive,1730991015380,undefined,972,caress,concrete-positive,negative,positive,A,negative;positive
1730991569,001e4b38ceea88e63c23b86904a6e72c,PennController,47,0,test_val,NULL,PennController,58,_Trial_,End,1730991015382,undefined,972,caress,concrete-positive,negative,positive,A,NULL
1730991569,001e4b38ceea88e63c23b86904a6e72c,PennController,44,0,test_val,NULL,PennController,55,_Trial_,Start,1730991015383,undefined,789,prosper,concrete-positive,negative,positive,A,NULL
1730991569,001e4b38ceea88e63c23b86904a6e72c,PennController,44,0,test_val,NULL,PennController,55,_Header_,Start,1730991015383,undefined,789,prosper,concrete-positive,negative,positive,A,NULL
1730991569,001e4b38ceea88e63c23b86904a6e72c,PennController,44,0,test_val,NULL,PennController,55,_Header_,End,1730991015637,undefined,789,prosper,concrete-positive,negative,positive,A,NULL
1730991569,001e4b38ceea88e63c23b86904a6e72c,PennController,44,0,test_val,NULL,Selector,unnamed-Selector,Selection,positive,1730991016927,undefined,789,prosper,concrete-positive,negative,positive,A,negative;positive
1730991569,001e4b38ceea88e63c23b86904a6e72c,PennController,44,0,test_val,NULL,PennController,55,_Trial_,End,1730991016929,undefined,789,prosper,concrete-positive,negative,positive,A,NULL
1730991569,001e4b38ceea88e63c23b86904a6e72c,PennController,61,0,test_val,NULL,PennController,72,_Trial_,Start,1730991016931,undefined,677,fail,concrete-negative,negative,positive,A,NULL
1730991569,001e4b38ceea88e63c23b86904a6e72c,PennController,61,0,test_val,NULL,PennController,72,_Header_,Start,1730991016931,undefined,677,fail,concrete-negative,negative,positive,A,NULL
1730991569,001e4b38ceea88e63c23b86904a6e72c,PennController,61,0,test_val,NULL,PennController,72,_Header_,End,1730991017181,undefined,677,fail,concrete-negative,negative,positive,A,NULL
1730991569,001e4b38ceea88e63c23b86904a6e72c,PennController,61,0,test_val,NULL,Selector,unnamed-Selector,Selection,negative,1730991018362,undefined,677,fail,concrete-negative,negative,positive,A,negative;positive
1730991569,001e4b38ceea88e63c23b86904a6e72c,PennController,61,0,test_val,NULL,PennController,72,_Trial_,End,1730991018364,undefined,677,fail,concrete-negative,negative,positive,A,NULL
1730991569,001e4b38ceea88e63c23b86904a6e72c,PennController,67,0,test_val,NULL,PennController,78,_Trial_,Start,1730991018366,undefined,670,improve,abstract-positive,negative,positive,A,NULL
1730991569,001e4b38ceea88e63c23b86904a6e72c,PennController,67,0,test_val,NULL,PennController,78,_Header_,Start,1730991018366,undefined,670,improve,abstract-positive,negative,positive,A,NULL
1730991569,001e4b38ceea88e63c23b86904a6e72c,PennController,67,0,test_val,NULL,PennController,78,_Header_,End,1730991018620,undefined,670,improve,abstract-positive,negative,positive,A,NULL
1730991569,001e4b38ceea88e63c23b86904a6e72c,PennController,67,0,test_val,NULL,Selector,unnamed-Selector,Selection,positive,1730991019793,undefined,670,improve,abstract-positive,negative,positive,A,negative;positive
1730991569,001e4b38ceea88e63c23b86904a6e72c,PennController,67,0,test_val,NULL,PennController,78,_Trial_,End,1730991019795,undefined,670,improve,abstract-positive,negative,positive,A,NULL
1730991569,001e4b38ceea88e63c23b86904a6e72c,PennController,53,0,test_val,NULL,PennController,64,_Trial_,Start,1730991019796,undefined,724,shine,concrete-positive,negative,positive,A,NULL
1730991569,001e4b38ceea88e63c23b86904a6e72c,PennController,53,0,test_val,NULL,PennController,64,_Header_,Start,1730991019796,undefined,724,shine,concrete-positive,negative,positive,A,NULL
1730991569,001e4b38ceea88e63c23b86904a6e72c,PennController,53,0,test_val,NULL,PennController,64,_Header_,End,1730991020048,undefined,724,shine,concrete-positive,negative,positive,A,NULL
1730991569,001e4b38ceea88e63c23b86904a6e72c,PennController,53,0,test_val,NULL,Selector,unnamed-Selector,Selection,positive,1730991021278,undefined,724,shine,concrete-positive,negative,positive,A,negative;positive
1730991569,001e4b38ceea88e63c23b86904a6e72c,PennController,53,0,test_val,NULL,PennController,64,_Trial_,End,1730991021279,undefined,724,shine,concrete-positive,negative,positive,A,NULL
1730991569,001e4b38ceea88e63c23b86904a6e72c,PennController,66,0,test_val,NULL,PennController,77,_Trial_,Start,1730991021281,undefined,599,adore,abstract-positive,negative,positive,A,NULL
1730991569,001e4b38ceea88e63c23b86904a6e72c,PennController,66,0,test_val,NULL,PennController,77,_Header_,Start,1730991021281,undefined,599,adore,abstract-positive,negative,positive,A,NULL
1730991569,001e4b38ceea88e63c23b86904a6e72c,PennController,66,0,test_val,NULL,PennController,77,_Header_,End,1730991021533,undefined,599,adore,abstract-positive,negative,positive,A,NULL
1730991569,001e4b38ceea88e63c23b86904a6e72c,PennController,66,0,test_val,NULL,Selector,unnamed-Selector,Selection,positive,1730991022637,undefined,599,adore,abstract-positive,negative,positive,A,negative;positive
1730991569,001e4b38ceea88e63c23b86904a6e72c,PennController,66,0,test_val,NULL,PennController,77,_Trial_,End,1730991022639,undefined,599,adore,abstract-positive,negative,positive,A,NULL
1730991569,001e4b38ceea88e63c23b86904a6e72c,PennController,50,0,test_val,NULL,PennController,61,_Trial_,Start,1730991022640,undefined,826,complete,concrete-positive,negative,positive,A,NULL
1730991569,001e4b38ceea88e63c23b86904a6e72c,PennController,50,0,test_val,NULL,PennController,61,_Header_,Start,1730991022640,undefined,826,complete,concrete-positive,negative,positive,A,NULL
1730991569,001e4b38ceea88e63c23b86904a6e72c,PennController,50,0,test_val,NULL,PennController,61,_Header_,End,1730991022892,undefined,826,complete,concrete-positive,negative,positive,A,NULL
1730991569,001e4b38ceea88e63c23b86904a6e72c,PennController,50,0,test_val,NULL,Selector,unnamed-Selector,Selection,positive,1730991024223,undefined,826,complete,concrete-positive,negative,positive,A,negative;positive
1730991569,001e4b38ceea88e63c23b86904a6e72c,PennController,50,0,test_val,NULL,PennController,61,_Trial_,End,1730991024225,undefined,826,complete,concrete-positive,negative,positive,A,NULL
1730991569,001e4b38ceea88e63c23b86904a6e72c,PennController,49,0,test_val,NULL,PennController,60,_Trial_,Start,1730991024226,undefined,857,rejuvenate,concrete-positive,negative,positive,A,NULL
1730991569,001e4b38ceea88e63c23b86904a6e72c,PennController,49,0,test_val,NULL,PennController,60,_Header_,Start,1730991024226,undefined,857,rejuvenate,concrete-positive,negative,positive,A,NULL
1730991569,001e4b38ceea88e63c23b86904a6e72c,PennController,49,0,test_val,NULL,PennController,60,_Header_,End,1730991024478,undefined,857,rejuvenate,concrete-positive,negative,positive,A,NULL
1730991569,001e4b38ceea88e63c23b86904a6e72c,PennController,49,0,test_val,NULL,Selector,unnamed-Selector,Selection,positive,1730991025836,undefined,857,rejuvenate,concrete-positive,negative,positive,A,negative;positive
1730991569,001e4b38ceea88e63c23b86904a6e72c,PennController,49,0,test_val,NULL,PennController,60,_Trial_,End,1730991025838,undefined,857,rejuvenate,concrete-positive,negative,positive,A,NULL
1730991569,001e4b38ceea88e63c23b86904a6e72c,PennController,52,0,test_val,NULL,PennController,63,_Trial_,Start,1730991025839,undefined,712,relax,concrete-positive,negative,positive,A,NULL
1730991569,001e4b38ceea88e63c23b86904a6e72c,PennController,52,0,test_val,NULL,PennController,63,_Header_,Start,1730991025839,undefined,712,relax,concrete-positive,negative,positive,A,NULL
1730991569,001e4b38ceea88e63c23b86904a6e72c,PennController,52,0,test_val,NULL,PennController,63,_Header_,End,1730991026091,undefined,712,relax,concrete-positive,negative,positive,A,NULL
1730991569,001e4b38ceea88e63c23b86904a6e72c,PennController,52,0,test_val,NULL,Selector,unnamed-Selector,Selection,positive,1730991027305,undefined,712,relax,concrete-positive,negative,positive,A,negative;positive
1730991569,001e4b38ceea88e63c23b86904a6e72c,PennController,52,0,test_val,NULL,PennController,63,_Trial_,End,1730991027307,undefined,712,relax,concrete-positive,negative,positive,A,NULL
1730991569,001e4b38ceea88e63c23b86904a6e72c,PennController,64,0,test_val,NULL,PennController,75,_Trial_,Start,1730991027308,undefined,632,love,abstract-positive,negative,positive,A,NULL
1730991569,001e4b38ceea88e63c23b86904a6e72c,PennController,64,0,test_val,NULL,PennController,75,_Header_,Start,1730991027308,undefined,632,love,abstract-positive,negative,positive,A,NULL
1730991569,001e4b38ceea88e63c23b86904a6e72c,PennController,64,0,test_val,NULL,PennController,75,_Header_,End,1730991027561,undefined,632,love,abstract-positive,negative,positive,A,NULL
1730991569,001e4b38ceea88e63c23b86904a6e72c,PennController,64,0,test_val,NULL,Selector,unnamed-Selector,Selection,positive,1730991028697,undefined,632,love,abstract-positive,negative,positive,A,negative;positive
1730991569,001e4b38ceea88e63c23b86904a6e72c,PennController,64,0,test_val,NULL,PennController,75,_Trial_,End,1730991028699,undefined,632,love,abstract-positive,negative,positive,A,NULL
1730991569,001e4b38ceea88e63c23b86904a6e72c,PennController,48,0,test_val,NULL,PennController,59,_Trial_,Start,1730991028701,undefined,594,smile,concrete-positive,negative,positive,A,NULL
1730991569,001e4b38ceea88e63c23b86904a6e72c,PennController,48,0,test_val,NULL,PennController,59,_Header_,Start,1730991028701,undefined,594,smile,concrete-positive,negative,positive,A,NULL
1730991569,001e4b38ceea88e63c23b86904a6e72c,PennController,48,0,test_val,NULL,PennController,59,_Header_,End,1730991028951,undefined,594,smile,concrete-positive,negative,positive,A,NULL
1730991569,001e4b38ceea88e63c23b86904a6e72c,PennController,48,0,test_val,NULL,Selector,unnamed-Selector,Selection,positive,1730991030048,undefined,594,smile,concrete-positive,negative,positive,A,negative;positive
1730991569,001e4b38ceea88e63c23b86904a6e72c,PennController,48,0,test_val,NULL,PennController,59,_Trial_,End,1730991030050,undefined,594,smile,concrete-positive,negative,positive,A,NULL
1730991569,001e4b38ceea88e63c23b86904a6e72c,PennController,75,0,test_val,NULL,PennController,86,_Trial_,Start,1730991030051,undefined,1155,suffer,abstract-negative,negative,positive,A,NULL
1730991569,001e4b38ceea88e63c23b86904a6e72c,PennController,75,0,test_val,NULL,PennController,86,_Header_,Start,1730991030051,undefined,1155,suffer,abstract-negative,negative,positive,A,NULL
1730991569,001e4b38ceea88e63c23b86904a6e72c,PennController,75,0,test_val,NULL,PennController,86,_Header_,End,1730991030306,undefined,1155,suffer,abstract-negative,negative,positive,A,NULL
1730991569,001e4b38ceea88e63c23b86904a6e72c,PennController,75,0,test_val,NULL,Selector,unnamed-Selector,Selection,negative,1730991031966,undefined,1155,suffer,abstract-negative,negative,positive,A,negative;positive
1730991569,001e4b38ceea88e63c23b86904a6e72c,PennController,75,0,test_val,NULL,PennController,86,_Trial_,End,1730991031968,undefined,1155,suffer,abstract-negative,negative,positive,A,NULL
1730991569,001e4b38ceea88e63c23b86904a6e72c,PennController,62,0,test_val,NULL,PennController,73,_Trial_,Start,1730991031969,undefined,717,kill,concrete-negative,negative,positive,A,NULL
1730991569,001e4b38ceea88e63c23b86904a6e72c,PennController,62,0,test_val,NULL,PennController,73,_Header_,Start,1730991031969,undefined,717,kill,concrete-negative,negative,positive,A,NULL
1730991569,001e4b38ceea88e63c23b86904a6e72c,PennController,62,0,test_val,NULL,PennController,73,_Header_,End,1730991032224,undefined,717,kill,concrete-negative,negative,positive,A,NULL
1730991569,001e4b38ceea88e63c23b86904a6e72c,PennController,62,0,test_val,NULL,Selector,unnamed-Selector,Selection,negative,1730991033446,undefined,717,kill,concrete-negative,negative,positive,A,negative;positive
1730991569,001e4b38ceea88e63c23b86904a6e72c,PennController,62,0,test_val,NULL,PennController,73,_Trial_,End,1730991033448,undefined,717,kill,concrete-negative,negative,positive,A,NULL
1730991569,001e4b38ceea88e63c23b86904a6e72c,PennController,82,0,test_val,NULL,PennController,93,_Trial_,Start,1730991033450,undefined,759,molest,abstract-negative,negative,positive,A,NULL
1730991569,001e4b38ceea88e63c23b86904a6e72c,PennController,82,0,test_val,NULL,PennController,93,_Header_,Start,1730991033450,undefined,759,molest,abstract-negative,negative,positive,A,NULL
1730991569,001e4b38ceea88e63c23b86904a6e72c,PennController,82,0,test_val,NULL,PennController,93,_Header_,End,1730991033704,undefined,759,molest,abstract-negative,negative,positive,A,NULL
1730991569,001e4b38ceea88e63c23b86904a6e72c,PennController,82,0,test_val,NULL,Selector,unnamed-Selector,Selection,negative,1730991034967,undefined,759,molest,abstract-negative,negative,positive,A,negative;positive
1730991569,001e4b38ceea88e63c23b86904a6e72c,PennController,82,0,test_val,NULL,PennController,93,_Trial_,End,1730991034968,undefined,759,molest,abstract-negative,negative,positive,A,NULL
1730991569,001e4b38ceea88e63c23b86904a6e72c,PennController,51,0,test_val,NULL,PennController,62,_Trial_,Start,1730991034969,undefined,1033,reach,concrete-positive,negative,positive,A,NULL
1730991569,001e4b38ceea88e63c23b86904a6e72c,PennController,51,0,test_val,NULL,PennController,62,_Header_,Start,1730991034969,undefined,1033,reach,concrete-positive,negative,positive,A,NULL
1730991569,001e4b38ceea88e63c23b86904a6e72c,PennController,51,0,test_val,NULL,PennController,62,_Header_,End,1730991035219,undefined,1033,reach,concrete-positive,negative,positive,A,NULL
1730991569,001e4b38ceea88e63c23b86904a6e72c,PennController,51,0,test_val,NULL,Selector,unnamed-Selector,Selection,positive,1730991036753,undefined,1033,reach,concrete-positive,negative,positive,A,negative;positive
1730991569,001e4b38ceea88e63c23b86904a6e72c,PennController,51,0,test_val,NULL,PennController,62,_Trial_,End,1730991036755,undefined,1033,reach,concrete-positive,negative,positive,A,NULL
1730991569,001e4b38ceea88e63c23b86904a6e72c,PennController,77,0,test_val,NULL,PennController,88,_Trial_,Start,1730991036756,undefined,1022,languish,abstract-negative,negative,positive,A,NULL
1730991569,001e4b38ceea88e63c23b86904a6e72c,PennController,77,0,test_val,NULL,PennController,88,_Header_,Start,1730991036756,undefined,1022,languish,abstract-negative,negative,positive,A,NULL
1730991569,001e4b38ceea88e63c23b86904a6e72c,PennController,77,0,test_val,NULL,PennController,88,_Header_,End,1730991037006,undefined,1022,languish,abstract-negative,negative,positive,A,NULL
1730991569,001e4b38ceea88e63c23b86904a6e72c,PennController,77,0,test_val,NULL,Selector,unnamed-Selector,Selection,negative,1730991038531,undefined,1022,languish,abstract-negative,negative,positive,A,negative;positive
1730991569,001e4b38ceea88e63c23b86904a6e72c,PennController,77,0,test_val,NULL,PennController,88,_Trial_,End,1730991038533,undefined,1022,languish,abstract-negative,negative,positive,A,NULL
1730991569,001e4b38ceea88e63c23b86904a6e72c,PennController,79,0,test_val,NULL,PennController,90,_Trial_,Start,1730991038535,undefined,767,loathe,abstract-negative,negative,positive,A,NULL
1730991569,001e4b38ceea88e63c23b86904a6e72c,PennController,79,0,test_val,NULL,PennController,90,_Header_,Start,1730991038535,undefined,767,loathe,abstract-negative,negative,positive,A,NULL
1730991569,001e4b38ceea88e63c23b86904a6e72c,PennController,79,0,test_val,NULL,PennController,90,_Header_,End,1730991038788,undefined,767,loathe,abstract-negative,negative,positive,A,NULL
1730991569,001e4b38ceea88e63c23b86904a6e72c,PennController,79,0,test_val,NULL,Selector,unnamed-Selector,Selection,negative,1730991040061,undefined,767,loathe,abstract-negative,negative,positive,A,negative;positive
1730991569,001e4b38ceea88e63c23b86904a6e72c,PennController,79,0,test_val,NULL,PennController,90,_Trial_,End,1730991040062,undefined,767,loathe,abstract-negative,negative,positive,A,NULL
1730991569,001e4b38ceea88e63c23b86904a6e72c,PennController,54,0,test_val,NULL,PennController,65,_Trial_,Start,1730991040063,undefined,722,die,concrete-negative,negative,positive,A,NULL
1730991569,001e4b38ceea88e63c23b86904a6e72c,PennController,54,0,test_val,NULL,PennController,65,_Header_,Start,1730991040063,undefined,722,die,concrete-negative,negative,positive,A,NULL
1730991569,001e4b38ceea88e63c23b86904a6e72c,PennController,54,0,test_val,NULL,PennController,65,_Header_,End,1730991040313,undefined,722,die,concrete-negative,negative,positive,A,NULL
1730991569,001e4b38ceea88e63c23b86904a6e72c,PennController,54,0,test_val,NULL,Selector,unnamed-Selector,Selection,negative,1730991041540,undefined,722,die,concrete-negative,negative,positive,A,negative;positive
1730991569,001e4b38ceea88e63c23b86904a6e72c,PennController,54,0,test_val,NULL,PennController,65,_Trial_,End,1730991041542,undefined,722,die,concrete-negative,negative,positive,A,NULL
1730991569,001e4b38ceea88e63c23b86904a6e72c,PennController,83,0,test_val,NULL,PennController,94,_Trial_,Start,1730991041543,undefined,786,dislike,abstract-negative,negative,positive,A,NULL
1730991569,001e4b38ceea88e63c23b86904a6e72c,PennController,83,0,test_val,NULL,PennController,94,_Header_,Start,1730991041543,undefined,786,dislike,abstract-negative,negative,positive,A,NULL
1730991569,001e4b38ceea88e63c23b86904a6e72c,PennController,83,0,test_val,NULL,PennController,94,_Header_,End,1730991041796,undefined,786,dislike,abstract-negative,negative,positive,A,NULL
1730991569,001e4b38ceea88e63c23b86904a6e72c,PennController,83,0,test_val,NULL,Selector,unnamed-Selector,Selection,negative,1730991043085,undefined,786,dislike,abstract-negative,negative,positive,A,negative;positive
1730991569,001e4b38ceea88e63c23b86904a6e72c,PennController,83,0,test_val,NULL,PennController,94,_Trial_,End,1730991043088,undefined,786,dislike,abstract-negative,negative,positive,A,NULL
1730991569,001e4b38ceea88e63c23b86904a6e72c,PennController,70,0,test_val,NULL,PennController,81,_Trial_,Start,1730991043090,undefined,708,excell,abstract-positive,negative,positive,A,NULL
1730991569,001e4b38ceea88e63c23b86904a6e72c,PennController,70,0,test_val,NULL,PennController,81,_Header_,Start,1730991043090,undefined,708,excell,abstract-positive,negative,positive,A,NULL
1730991569,001e4b38ceea88e63c23b86904a6e72c,PennController,70,0,test_val,NULL,PennController,81,_Header_,End,1730991043342,undefined,708,excell,abstract-positive,negative,positive,A,NULL
1730991569,001e4b38ceea88e63c23b86904a6e72c,PennController,70,0,test_val,NULL,Selector,unnamed-Selector,Selection,positive,1730991044554,undefined,708,excell,abstract-positive,negative,positive,A,negative;positive
1730991569,001e4b38ceea88e63c23b86904a6e72c,PennController,70,0,test_val,NULL,PennController,81,_Trial_,End,1730991044556,undefined,708,excell,abstract-positive,negative,positive,A,NULL
1730991569,001e4b38ceea88e63c23b86904a6e72c,PennController,57,0,test_val,NULL,PennController,68,_Trial_,Start,1730991044557,undefined,715,rot,concrete-negative,negative,positive,A,NULL
1730991569,001e4b38ceea88e63c23b86904a6e72c,PennController,57,0,test_val,NULL,PennController,68,_Header_,Start,1730991044557,undefined,715,rot,concrete-negative,negative,positive,A,NULL
1730991569,001e4b38ceea88e63c23b86904a6e72c,PennController,57,0,test_val,NULL,PennController,68,_Header_,End,1730991044808,undefined,715,rot,concrete-negative,negative,positive,A,NULL
1730991569,001e4b38ceea88e63c23b86904a6e72c,PennController,57,0,test_val,NULL,Selector,unnamed-Selector,Selection,negative,1730991046027,undefined,715,rot,concrete-negative,negative,positive,A,negative;positive
1730991569,001e4b38ceea88e63c23b86904a6e72c,PennController,57,0,test_val,NULL,PennController,68,_Trial_,End,1730991046029,undefined,715,rot,concrete-negative,negative,positive,A,NULL
1730991569,001e4b38ceea88e63c23b86904a6e72c,PennController,65,0,test_val,NULL,PennController,76,_Trial_,Start,1730991046030,undefined,666,admire,abstract-positive,negative,positive,A,NULL
1730991569,001e4b38ceea88e63c23b86904a6e72c,PennController,65,0,test_val,NULL,PennController,76,_Header_,Start,1730991046030,undefined,666,admire,abstract-positive,negative,positive,A,NULL
1730991569,001e4b38ceea88e63c23b86904a6e72c,PennController,65,0,test_val,NULL,PennController,76,_Header_,End,1730991046285,undefined,666,admire,abstract-positive,negative,positive,A,NULL
1730991569,001e4b38ceea88e63c23b86904a6e72c,PennController,65,0,test_val,NULL,Selector,unnamed-Selector,Selection,positive,1730991047456,undefined,666,admire,abstract-positive,negative,positive,A,negative;positive
1730991569,001e4b38ceea88e63c23b86904a6e72c,PennController,65,0,test_val,NULL,PennController,76,_Trial_,End,1730991047458,undefined,666,admire,abstract-positive,negative,positive,A,NULL
1730991569,001e4b38ceea88e63c23b86904a6e72c,PennController,78,0,test_val,NULL,PennController,89,_Trial_,Start,1730991047459,undefined,808,succumb,abstract-negative,negative,positive,A,NULL
1730991569,001e4b38ceea88e63c23b86904a6e72c,PennController,78,0,test_val,NULL,PennController,89,_Header_,Start,1730991047459,undefined,808,succumb,abstract-negative,negative,positive,A,NULL
1730991569,001e4b38ceea88e63c23b86904a6e72c,PennController,78,0,test_val,NULL,PennController,89,_Header_,End,1730991047711,undefined,808,succumb,abstract-negative,negative,positive,A,NULL
1730991569,001e4b38ceea88e63c23b86904a6e72c,PennController,78,0,test_val,NULL,Selector,unnamed-Selector,Selection,positive,1730991049024,undefined,808,succumb,abstract-negative,negative,positive,A,negative;positive
1730991569,001e4b38ceea88e63c23b86904a6e72c,PennController,78,0,test_val,NULL,PennController,89,_Trial_,End,1730991049026,undefined,808,succumb,abstract-negative,negative,positive,A,NULL
1730991569,001e4b38ceea88e63c23b86904a6e72c,PennController,46,0,test_val,NULL,PennController,57,_Trial_,Start,1730991049027,undefined,737,soothe,concrete-positive,negative,positive,A,NULL
1730991569,001e4b38ceea88e63c23b86904a6e72c,PennController,46,0,test_val,NULL,PennController,57,_Header_,Start,1730991049027,undefined,737,soothe,concrete-positive,negative,positive,A,NULL
1730991569,001e4b38ceea88e63c23b86904a6e72c,PennController,46,0,test_val,NULL,PennController,57,_Header_,End,1730991049279,undefined,737,soothe,concrete-positive,negative,positive,A,NULL
1730991569,001e4b38ceea88e63c23b86904a6e72c,PennController,46,0,test_val,NULL,Selector,unnamed-Selector,Selection,positive,1730991050519,undefined,737,soothe,concrete-positive,negative,positive,A,negative;positive
1730991569,001e4b38ceea88e63c23b86904a6e72c,PennController,46,0,test_val,NULL,PennController,57,_Trial_,End,1730991050519,undefined,737,soothe,concrete-positive,negative,positive,A,NULL
1730991569,001e4b38ceea88e63c23b86904a6e72c,PennController,45,0,test_val,NULL,PennController,56,_Trial_,Start,1730991050520,undefined,1307,heal,concrete-positive,negative,positive,A,NULL
1730991569,001e4b38ceea88e63c23b86904a6e72c,PennController,45,0,test_val,NULL,PennController,56,_Header_,Start,1730991050520,undefined,1307,heal,concrete-positive,negative,positive,A,NULL
1730991569,001e4b38ceea88e63c23b86904a6e72c,PennController,45,0,test_val,NULL,PennController,56,_Header_,End,1730991050770,undefined,1307,heal,concrete-positive,negative,positive,A,NULL
1730991569,001e4b38ceea88e63c23b86904a6e72c,PennController,45,0,test_val,NULL,Selector,unnamed-Selector,Selection,positive,1730991052583,undefined,1307,heal,concrete-positive,negative,positive,A,negative;positive
1730991569,001e4b38ceea88e63c23b86904a6e72c,PennController,45,0,test_val,NULL,PennController,56,_Trial_,End,1730991052584,undefined,1307,heal,concrete-positive,negative,positive,A,NULL
1730991569,001e4b38ceea88e63c23b86904a6e72c,PennController,73,0,test_val,NULL,PennController,84,_Trial_,Start,1730991052584,undefined,689,relieve,abstract-positive,negative,positive,A,NULL
1730991569,001e4b38ceea88e63c23b86904a6e72c,PennController,73,0,test_val,NULL,PennController,84,_Header_,Start,1730991052584,undefined,689,relieve,abstract-positive,negative,positive,A,NULL
1730991569,001e4b38ceea88e63c23b86904a6e72c,PennController,73,0,test_val,NULL,PennController,84,_Header_,End,1730991052838,undefined,689,relieve,abstract-positive,negative,positive,A,NULL
1730991569,001e4b38ceea88e63c23b86904a6e72c,PennController,73,0,test_val,NULL,Selector,unnamed-Selector,Selection,positive,1730991054028,undefined,689,relieve,abstract-positive,negative,positive,A,negative;positive
1730991569,001e4b38ceea88e63c23b86904a6e72c,PennController,73,0,test_val,NULL,PennController,84,_Trial_,End,1730991054030,undefined,689,relieve,abstract-positive,negative,positive,A,NULL
1730991569,001e4b38ceea88e63c23b86904a6e72c,PennController,76,0,test_val,NULL,PennController,87,_Trial_,Start,1730991054031,undefined,694,despise,abstract-negative,negative,positive,A,NULL
1730991569,001e4b38ceea88e63c23b86904a6e72c,PennController,76,0,test_val,NULL,PennController,87,_Header_,Start,1730991054031,undefined,694,despise,abstract-negative,negative,positive,A,NULL
1730991569,001e4b38ceea88e63c23b86904a6e72c,PennController,76,0,test_val,NULL,PennController,87,_Header_,End,1730991054282,undefined,694,despise,abstract-negative,negative,positive,A,NULL
1730991569,001e4b38ceea88e63c23b86904a6e72c,PennController,76,0,test_val,NULL,Selector,unnamed-Selector,Selection,negative,1730991055479,undefined,694,despise,abstract-negative,negative,positive,A,negative;positive
1730991569,001e4b38ceea88e63c23b86904a6e72c,PennController,76,0,test_val,NULL,PennController,87,_Trial_,End,1730991055479,undefined,694,despise,abstract-negative,negative,positive,A,NULL
1730991569,001e4b38ceea88e63c23b86904a6e72c,PennController,72,0,test_val,NULL,PennController,83,_Trial_,Start,1730991055480,undefined,747,flourish,abstract-positive,negative,positive,A,NULL
1730991569,001e4b38ceea88e63c23b86904a6e72c,PennController,72,0,test_val,NULL,PennController,83,_Header_,Start,1730991055480,undefined,747,flourish,abstract-positive,negative,positive,A,NULL
1730991569,001e4b38ceea88e63c23b86904a6e72c,PennController,72,0,test_val,NULL,PennController,83,_Header_,End,1730991055732,undefined,747,flourish,abstract-positive,negative,positive,A,NULL
1730991569,001e4b38ceea88e63c23b86904a6e72c,PennController,72,0,test_val,NULL,Selector,unnamed-Selector,Selection,positive,1730991056981,undefined,747,flourish,abstract-positive,negative,positive,A,negative;positive
1730991569,001e4b38ceea88e63c23b86904a6e72c,PennController,72,0,test_val,NULL,PennController,83,_Trial_,End,1730991056983,undefined,747,flourish,abstract-positive,negative,positive,A,NULL
1730991569,001e4b38ceea88e63c23b86904a6e72c,PennController,68,0,test_val,NULL,PennController,79,_Trial_,Start,1730991056984,undefined,1444,embelish,abstract-positive,negative,positive,A,NULL
1730991569,001e4b38ceea88e63c23b86904a6e72c,PennController,68,0,test_val,NULL,PennController,79,_Header_,Start,1730991056984,undefined,1444,embelish,abstract-positive,negative,positive,A,NULL
1730991569,001e4b38ceea88e63c23b86904a6e72c,PennController,68,0,test_val,NULL,PennController,79,_Header_,End,1730991057238,undefined,1444,embelish,abstract-positive,negative,positive,A,NULL
1730991569,001e4b38ceea88e63c23b86904a6e72c,PennController,68,0,test_val,NULL,Selector,unnamed-Selector,Selection,negative,1730991059181,undefined,1444,embelish,abstract-positive,negative,positive,A,negative;positive
1730991569,001e4b38ceea88e63c23b86904a6e72c,PennController,68,0,test_val,NULL,PennController,79,_Trial_,End,1730991059182,undefined,1444,embelish,abstract-positive,negative,positive,A,NULL
1730991569,001e4b38ceea88e63c23b86904a6e72c,PennController,56,0,test_val,NULL,PennController,67,_Trial_,Start,1730991059184,undefined,773,demolish,concrete-negative,negative,positive,A,NULL
1730991569,001e4b38ceea88e63c23b86904a6e72c,PennController,56,0,test_val,NULL,PennController,67,_Header_,Start,1730991059184,undefined,773,demolish,concrete-negative,negative,positive,A,NULL
1730991569,001e4b38ceea88e63c23b86904a6e72c,PennController,56,0,test_val,NULL,PennController,67,_Header_,End,1730991059436,undefined,773,demolish,concrete-negative,negative,positive,A,NULL
1730991569,001e4b38ceea88e63c23b86904a6e72c,PennController,56,0,test_val,NULL,Selector,unnamed-Selector,Selection,negative,1730991060713,undefined,773,demolish,concrete-negative,negative,positive,A,negative;positive
1730991569,001e4b38ceea88e63c23b86904a6e72c,PennController,56,0,test_val,NULL,PennController,67,_Trial_,End,1730991060713,undefined,773,demolish,concrete-negative,negative,positive,A,NULL
1730991569,001e4b38ceea88e63c23b86904a6e72c,PennController,80,0,test_val,NULL,PennController,91,_Trial_,Start,1730991060714,undefined,1226,look down on,abstract-negative,negative,positive,A,NULL
1730991569,001e4b38ceea88e63c23b86904a6e72c,PennController,80,0,test_val,NULL,PennController,91,_Header_,Start,1730991060714,undefined,1226,look down on,abstract-negative,negative,positive,A,NULL
1730991569,001e4b38ceea88e63c23b86904a6e72c,PennController,80,0,test_val,NULL,PennController,91,_Header_,End,1730991060966,undefined,1226,look down on,abstract-negative,negative,positive,A,NULL
1730991569,001e4b38ceea88e63c23b86904a6e72c,PennController,80,0,test_val,NULL,Selector,unnamed-Selector,Selection,negative,1730991062698,undefined,1226,look down on,abstract-negative,negative,positive,A,negative;positive
1730991569,001e4b38ceea88e63c23b86904a6e72c,PennController,80,0,test_val,NULL,PennController,91,_Trial_,End,1730991062699,undefined,1226,look down on,abstract-negative,negative,positive,A,NULL
1730991569,001e4b38ceea88e63c23b86904a6e72c,PennController,59,0,test_val,NULL,PennController,70,_Trial_,Start,1730991062701,undefined,825,smash,concrete-negative,negative,positive,A,NULL
1730991569,001e4b38ceea88e63c23b86904a6e72c,PennController,59,0,test_val,NULL,PennController,70,_Header_,Start,1730991062701,undefined,825,smash,concrete-negative,negative,positive,A,NULL
1730991569,001e4b38ceea88e63c23b86904a6e72c,PennController,59,0,test_val,NULL,PennController,70,_Header_,End,1730991062951,undefined,825,smash,concrete-negative,negative,positive,A,NULL
1730991569,001e4b38ceea88e63c23b86904a6e72c,PennController,59,0,test_val,NULL,Selector,unnamed-Selector,Selection,negative,1730991064281,undefined,825,smash,concrete-negative,negative,positive,A,negative;positive
1730991569,001e4b38ceea88e63c23b86904a6e72c,PennController,59,0,test_val,NULL,PennController,70,_Trial_,End,1730991064282,undefined,825,smash,concrete-negative,negative,positive,A,NULL
1730991569,001e4b38ceea88e63c23b86904a6e72c,PennController,77,0,test_val,NULL,PennController,88,_Trial_,Start,1730991064282,undefined,972,languish,abstract-negative,negative,positive,A,NULL
1730991569,001e4b38ceea88e63c23b86904a6e72c,PennController,77,0,test_val,NULL,PennController,88,_Header_,Start,1730991064282,undefined,972,languish,abstract-negative,negative,positive,A,NULL
1730991569,001e4b38ceea88e63c23b86904a6e72c,PennController,77,0,test_val,NULL,PennController,88,_Header_,End,1730991064535,undefined,972,languish,abstract-negative,negative,positive,A,NULL
1730991569,001e4b38ceea88e63c23b86904a6e72c,PennController,77,0,test_val,NULL,Selector,unnamed-Selector,Selection,negative,1730991066012,undefined,972,languish,abstract-negative,negative,positive,A,negative;positive
1730991569,001e4b38ceea88e63c23b86904a6e72c,PennController,77,0,test_val,NULL,PennController,88,_Trial_,End,1730991066013,undefined,972,languish,abstract-negative,negative,positive,A,NULL
1730991569,001e4b38ceea88e63c23b86904a6e72c,PennController,83,0,test_val,NULL,PennController,94,_Trial_,Start,1730991066015,undefined,739,dislike,abstract-negative,negative,positive,A,NULL
1730991569,001e4b38ceea88e63c23b86904a6e72c,PennController,83,0,test_val,NULL,PennController,94,_Header_,Start,1730991066015,undefined,739,dislike,abstract-negative,negative,positive,A,NULL
1730991569,001e4b38ceea88e63c23b86904a6e72c,PennController,83,0,test_val,NULL,PennController,94,_Header_,End,1730991066268,undefined,739,dislike,abstract-negative,negative,positive,A,NULL
1730991569,001e4b38ceea88e63c23b86904a6e72c,PennController,83,0,test_val,NULL,Selector,unnamed-Selector,Selection,negative,1730991067510,undefined,739,dislike,abstract-negative,negative,positive,A,negative;positive
1730991569,001e4b38ceea88e63c23b86904a6e72c,PennController,83,0,test_val,NULL,PennController,94,_Trial_,End,1730991067511,undefined,739,dislike,abstract-negative,negative,positive,A,NULL
1730991569,001e4b38ceea88e63c23b86904a6e72c,PennController,67,0,test_val,NULL,PennController,78,_Trial_,Start,1730991067513,undefined,851,improve,abstract-positive,negative,positive,A,NULL
1730991569,001e4b38ceea88e63c23b86904a6e72c,PennController,67,0,test_val,NULL,PennController,78,_Header_,Start,1730991067513,undefined,851,improve,abstract-positive,negative,positive,A,NULL
1730991569,001e4b38ceea88e63c23b86904a6e72c,PennController,67,0,test_val,NULL,PennController,78,_Header_,End,1730991067763,undefined,851,improve,abstract-positive,negative,positive,A,NULL
1730991569,001e4b38ceea88e63c23b86904a6e72c,PennController,67,0,test_val,NULL,Selector,unnamed-Selector,Selection,positive,1730991069117,undefined,851,improve,abstract-positive,negative,positive,A,negative;positive
1730991569,001e4b38ceea88e63c23b86904a6e72c,PennController,67,0,test_val,NULL,PennController,78,_Trial_,End,1730991069118,undefined,851,improve,abstract-positive,negative,positive,A,NULL
1730991569,001e4b38ceea88e63c23b86904a6e72c,PennController,58,0,test_val,NULL,PennController,69,_Trial_,Start,1730991069119,undefined,750,perish,concrete-negative,negative,positive,A,NULL
1730991569,001e4b38ceea88e63c23b86904a6e72c,PennController,58,0,test_val,NULL,PennController,69,_Header_,Start,1730991069119,undefined,750,perish,concrete-negative,negative,positive,A,NULL
1730991569,001e4b38ceea88e63c23b86904a6e72c,PennController,58,0,test_val,NULL,PennController,69,_Header_,End,1730991069370,undefined,750,perish,concrete-negative,negative,positive,A,NULL
1730991569,001e4b38ceea88e63c23b86904a6e72c,PennController,58,0,test_val,NULL,Selector,unnamed-Selector,Selection,negative,1730991070626,undefined,750,perish,concrete-negative,negative,positive,A,negative;positive
1730991569,001e4b38ceea88e63c23b86904a6e72c,PennController,58,0,test_val,NULL,PennController,69,_Trial_,End,1730991070627,undefined,750,perish,concrete-negative,negative,positive,A,NULL
1730991569,001e4b38ceea88e63c23b86904a6e72c,PennController,78,0,test_val,NULL,PennController,89,_Trial_,Start,1730991070627,undefined,1415,succumb,abstract-negative,negative,positive,A,NULL
1730991569,001e4b38ceea88e63c23b86904a6e72c,PennController,78,0,test_val,NULL,PennController,89,_Header_,Start,1730991070627,undefined,1415,succumb,abstract-negative,negative,positive,A,NULL
1730991569,001e4b38ceea88e63c23b86904a6e72c,PennController,78,0,test_val,NULL,PennController,89,_Header_,End,1730991070880,undefined,1415,succumb,abstract-negative,negative,positive,A,NULL
1730991569,001e4b38ceea88e63c23b86904a6e72c,PennController,78,0,test_val,NULL,Selector,unnamed-Selector,Selection,negative,1730991072800,undefined,1415,succumb,abstract-negative,negative,positive,A,negative;positive
1730991569,001e4b38ceea88e63c23b86904a6e72c,PennController,78,0,test_val,NULL,PennController,89,_Trial_,End,1730991072801,undefined,1415,succumb,abstract-negative,negative,positive,A,NULL
1730991569,001e4b38ceea88e63c23b86904a6e72c,PennController,52,0,test_val,NULL,PennController,63,_Trial_,Start,1730991072802,undefined,687,relax,concrete-positive,negative,positive,A,NULL
1730991569,001e4b38ceea88e63c23b86904a6e72c,PennController,52,0,test_val,NULL,PennController,63,_Header_,Start,1730991072802,undefined,687,relax,concrete-positive,negative,positive,A,NULL
1730991569,001e4b38ceea88e63c23b86904a6e72c,PennController,52,0,test_val,NULL,PennController,63,_Header_,End,1730991073054,undefined,687,relax,concrete-positive,negative,positive,A,NULL
1730991569,001e4b38ceea88e63c23b86904a6e72c,PennController,52,0,test_val,NULL,Selector,unnamed-Selector,Selection,positive,1730991074246,undefined,687,relax,concrete-positive,negative,positive,A,negative;positive
1730991569,001e4b38ceea88e63c23b86904a6e72c,PennController,52,0,test_val,NULL,PennController,63,_Trial_,End,1730991074248,undefined,687,relax,concrete-positive,negative,positive,A,NULL
1730991569,001e4b38ceea88e63c23b86904a6e72c,PennController,53,0,test_val,NULL,PennController,64,_Trial_,Start,1730991074249,undefined,745,shine,concrete-positive,negative,positive,A,NULL
1730991569,001e4b38ceea88e63c23b86904a6e72c,PennController,53,0,test_val,NULL,PennController,64,_Header_,Start,1730991074249,undefined,745,shine,concrete-positive,negative,positive,A,NULL
1730991569,001e4b38ceea88e63c23b86904a6e72c,PennController,53,0,test_val,NULL,PennController,64,_Header_,End,1730991074500,undefined,745,shine,concrete-positive,negative,positive,A,NULL
1730991569,001e4b38ceea88e63c23b86904a6e72c,PennController,53,0,test_val,NULL,Selector,unnamed-Selector,Selection,positive,1730991075750,undefined,745,shine,concrete-positive,negative,positive,A,negative;positive
1730991569,001e4b38ceea88e63c23b86904a6e72c,PennController,53,0,test_val,NULL,PennController,64,_Trial_,End,1730991075751,undefined,745,shine,concrete-positive,negative,positive,A,NULL
1730991569,001e4b38ceea88e63c23b86904a6e72c,PennController,70,0,test_val,NULL,PennController,81,_Trial_,Start,1730991075751,undefined,874,excell,abstract-positive,negative,positive,A,NULL
1730991569,001e4b38ceea88e63c23b86904a6e72c,PennController,70,0,test_val,NULL,PennController,81,_Header_,Start,1730991075751,undefined,874,excell,abstract-positive,negative,positive,A,NULL
1730991569,001e4b38ceea88e63c23b86904a6e72c,PennController,70,0,test_val,NULL,PennController,81,_Header_,End,1730991076003,undefined,874,excell,abstract-positive,negative,positive,A,NULL
1730991569,001e4b38ceea88e63c23b86904a6e72c,PennController,70,0,test_val,NULL,Selector,unnamed-Selector,Selection,positive,1730991077382,undefined,874,excell,abstract-positive,negative,positive,A,negative;positive
1730991569,001e4b38ceea88e63c23b86904a6e72c,PennController,70,0,test_val,NULL,PennController,81,_Trial_,End,1730991077384,undefined,874,excell,abstract-positive,negative,positive,A,NULL
1730991569,001e4b38ceea88e63c23b86904a6e72c,PennController,62,0,test_val,NULL,PennController,73,_Trial_,Start,1730991077385,undefined,617,kill,concrete-negative,negative,positive,A,NULL
1730991569,001e4b38ceea88e63c23b86904a6e72c,PennController,62,0,test_val,NULL,PennController,73,_Header_,Start,1730991077385,undefined,617,kill,concrete-negative,negative,positive,A,NULL
1730991569,001e4b38ceea88e63c23b86904a6e72c,PennController,62,0,test_val,NULL,PennController,73,_Header_,End,1730991077635,undefined,617,kill,concrete-negative,negative,positive,A,NULL
1730991569,001e4b38ceea88e63c23b86904a6e72c,PennController,62,0,test_val,NULL,Selector,unnamed-Selector,Selection,negative,1730991078758,undefined,617,kill,concrete-negative,negative,positive,A,negative;positive
1730991569,001e4b38ceea88e63c23b86904a6e72c,PennController,62,0,test_val,NULL,PennController,73,_Trial_,End,1730991078758,undefined,617,kill,concrete-negative,negative,positive,A,NULL
1730991569,001e4b38ceea88e63c23b86904a6e72c,PennController,81,0,test_val,NULL,PennController,92,_Trial_,Start,1730991078759,undefined,912,disappoint,abstract-negative,negative,positive,A,NULL
1730991569,001e4b38ceea88e63c23b86904a6e72c,PennController,81,0,test_val,NULL,PennController,92,_Header_,Start,1730991078759,undefined,912,disappoint,abstract-negative,negative,positive,A,NULL
1730991569,001e4b38ceea88e63c23b86904a6e72c,PennController,81,0,test_val,NULL,PennController,92,_Header_,End,1730991079009,undefined,912,disappoint,abstract-negative,negative,positive,A,NULL
1730991569,001e4b38ceea88e63c23b86904a6e72c,PennController,81,0,test_val,NULL,Selector,unnamed-Selector,Selection,negative,1730991080425,undefined,912,disappoint,abstract-negative,negative,positive,A,negative;positive
1730991569,001e4b38ceea88e63c23b86904a6e72c,PennController,81,0,test_val,NULL,PennController,92,_Trial_,End,1730991080426,undefined,912,disappoint,abstract-negative,negative,positive,A,NULL
1730991569,001e4b38ceea88e63c23b86904a6e72c,PennController,61,0,test_val,NULL,PennController,72,_Trial_,Start,1730991080427,undefined,718,fail,concrete-negative,negative,positive,A,NULL
1730991569,001e4b38ceea88e63c23b86904a6e72c,PennController,61,0,test_val,NULL,PennController,72,_Header_,Start,1730991080427,undefined,718,fail,concrete-negative,negative,positive,A,NULL
1730991569,001e4b38ceea88e63c23b86904a6e72c,PennController,61,0,test_val,NULL,PennController,72,_Header_,End,1730991080680,undefined,718,fail,concrete-negative,negative,positive,A,NULL
1730991569,001e4b38ceea88e63c23b86904a6e72c,PennController,61,0,test_val,NULL,Selector,unnamed-Selector,Selection,negative,1730991081902,undefined,718,fail,concrete-negative,negative,positive,A,negative;positive
1730991569,001e4b38ceea88e63c23b86904a6e72c,PennController,61,0,test_val,NULL,PennController,72,_Trial_,End,1730991081903,undefined,718,fail,concrete-negative,negative,positive,A,NULL
1730991569,001e4b38ceea88e63c23b86904a6e72c,PennController,48,0,test_val,NULL,PennController,59,_Trial_,Start,1730991081905,undefined,621,smile,concrete-positive,negative,positive,A,NULL
1730991569,001e4b38ceea88e63c23b86904a6e72c,PennController,48,0,test_val,NULL,PennController,59,_Header_,Start,1730991081905,undefined,621,smile,concrete-positive,negative,positive,A,NULL
1730991569,001e4b38ceea88e63c23b86904a6e72c,PennController,48,0,test_val,NULL,PennController,59,_Header_,End,1730991082159,undefined,621,smile,concrete-positive,negative,positive,A,NULL
1730991569,001e4b38ceea88e63c23b86904a6e72c,PennController,48,0,test_val,NULL,Selector,unnamed-Selector,Selection,positive,1730991083280,undefined,621,smile,concrete-positive,negative,positive,A,negative;positive
1730991569,001e4b38ceea88e63c23b86904a6e72c,PennController,48,0,test_val,NULL,PennController,59,_Trial_,End,1730991083281,undefined,621,smile,concrete-positive,negative,positive,A,NULL
1730991569,001e4b38ceea88e63c23b86904a6e72c,PennController,49,0,test_val,NULL,PennController,60,_Trial_,Start,1730991083282,undefined,812,rejuvenate,concrete-positive,negative,positive,A,NULL
1730991569,001e4b38ceea88e63c23b86904a6e72c,PennController,49,0,test_val,NULL,PennController,60,_Header_,Start,1730991083282,undefined,812,rejuvenate,concrete-positive,negative,positive,A,NULL
1730991569,001e4b38ceea88e63c23b86904a6e72c,PennController,49,0,test_val,NULL,PennController,60,_Header_,End,1730991083532,undefined,812,rejuvenate,concrete-positive,negative,positive,A,NULL
1730991569,001e4b38ceea88e63c23b86904a6e72c,PennController,49,0,test_val,NULL,Selector,unnamed-Selector,Selection,positive,1730991084848,undefined,812,rejuvenate,concrete-positive,negative,positive,A,negative;positive
1730991569,001e4b38ceea88e63c23b86904a6e72c,PennController,49,0,test_val,NULL,PennController,60,_Trial_,End,1730991084849,undefined,812,rejuvenate,concrete-positive,negative,positive,A,NULL
1730991569,001e4b38ceea88e63c23b86904a6e72c,PennController,44,0,test_val,NULL,PennController,55,_Trial_,Start,1730991084850,undefined,713,prosper,concrete-positive,negative,positive,A,NULL
1730991569,001e4b38ceea88e63c23b86904a6e72c,PennController,44,0,test_val,NULL,PennController,55,_Header_,Start,1730991084850,undefined,713,prosper,concrete-positive,negative,positive,A,NULL
1730991569,001e4b38ceea88e63c23b86904a6e72c,PennController,44,0,test_val,NULL,PennController,55,_Header_,End,1730991085104,undefined,713,prosper,concrete-positive,negative,positive,A,NULL
1730991569,001e4b38ceea88e63c23b86904a6e72c,PennController,44,0,test_val,NULL,Selector,unnamed-Selector,Selection,positive,1730991086321,undefined,713,prosper,concrete-positive,negative,positive,A,negative;positive
1730991569,001e4b38ceea88e63c23b86904a6e72c,PennController,44,0,test_val,NULL,PennController,55,_Trial_,End,1730991086322,undefined,713,prosper,concrete-positive,negative,positive,A,NULL
1730991569,001e4b38ceea88e63c23b86904a6e72c,PennController,71,0,test_val,NULL,PennController,82,_Trial_,Start,1730991086323,undefined,660,impress,abstract-positive,negative,positive,A,NULL
1730991569,001e4b38ceea88e63c23b86904a6e72c,PennController,71,0,test_val,NULL,PennController,82,_Header_,Start,1730991086323,undefined,660,impress,abstract-positive,negative,positive,A,NULL
1730991569,001e4b38ceea88e63c23b86904a6e72c,PennController,71,0,test_val,NULL,PennController,82,_Header_,End,1730991086573,undefined,660,impress,abstract-positive,negative,positive,A,NULL
1730991569,001e4b38ceea88e63c23b86904a6e72c,PennController,71,0,test_val,NULL,Selector,unnamed-Selector,Selection,positive,1730991087735,undefined,660,impress,abstract-positive,negative,positive,A,negative;positive
1730991569,001e4b38ceea88e63c23b86904a6e72c,PennController,71,0,test_val,NULL,PennController,82,_Trial_,End,1730991087736,undefined,660,impress,abstract-positive,negative,positive,A,NULL
1730991569,001e4b38ceea88e63c23b86904a6e72c,PennController,68,0,test_val,NULL,PennController,79,_Trial_,Start,1730991087738,undefined,720,embelish,abstract-positive,negative,positive,A,NULL
1730991569,001e4b38ceea88e63c23b86904a6e72c,PennController,68,0,test_val,NULL,PennController,79,_Header_,Start,1730991087738,undefined,720,embelish,abstract-positive,negative,positive,A,NULL
1730991569,001e4b38ceea88e63c23b86904a6e72c,PennController,68,0,test_val,NULL,PennController,79,_Header_,End,1730991087990,undefined,720,embelish,abstract-positive,negative,positive,A,NULL
1730991569,001e4b38ceea88e63c23b86904a6e72c,PennController,68,0,test_val,NULL,Selector,unnamed-Selector,Selection,positive,1730991089211,undefined,720,embelish,abstract-positive,negative,positive,A,negative;positive
1730991569,001e4b38ceea88e63c23b86904a6e72c,PennController,68,0,test_val,NULL,PennController,79,_Trial_,End,1730991089212,undefined,720,embelish,abstract-positive,negative,positive,A,NULL
1730991569,001e4b38ceea88e63c23b86904a6e72c,PennController,69,0,test_val,NULL,PennController,80,_Trial_,Start,1730991089213,undefined,828,enlighten,abstract-positive,negative,positive,A,NULL
1730991569,001e4b38ceea88e63c23b86904a6e72c,PennController,69,0,test_val,NULL,PennController,80,_Header_,Start,1730991089213,undefined,828,enlighten,abstract-positive,negative,positive,A,NULL
1730991569,001e4b38ceea88e63c23b86904a6e72c,PennController,69,0,test_val,NULL,PennController,80,_Header_,End,1730991089463,undefined,828,enlighten,abstract-positive,negative,positive,A,NULL
1730991569,001e4b38ceea88e63c23b86904a6e72c,PennController,69,0,test_val,NULL,Selector,unnamed-Selector,Selection,positive,1730991090796,undefined,828,enlighten,abstract-positive,negative,positive,A,negative;positive
1730991569,001e4b38ceea88e63c23b86904a6e72c,PennController,69,0,test_val,NULL,PennController,80,_Trial_,End,1730991090797,undefined,828,enlighten,abstract-positive,negative,positive,A,NULL
1730991569,001e4b38ceea88e63c23b86904a6e72c,PennController,72,0,test_val,NULL,PennController,83,_Trial_,Start,1730991090798,undefined,877,flourish,abstract-positive,negative,positive,A,NULL
1730991569,001e4b38ceea88e63c23b86904a6e72c,PennController,72,0,test_val,NULL,PennController,83,_Header_,Start,1730991090798,undefined,877,flourish,abstract-positive,negative,positive,A,NULL
1730991569,001e4b38ceea88e63c23b86904a6e72c,PennController,72,0,test_val,NULL,PennController,83,_Header_,End,1730991091050,undefined,877,flourish,abstract-positive,negative,positive,A,NULL
1730991569,001e4b38ceea88e63c23b86904a6e72c,PennController,72,0,test_val,NULL,Selector,unnamed-Selector,Selection,positive,1730991092429,undefined,877,flourish,abstract-positive,negative,positive,A,negative;positive
1730991569,001e4b38ceea88e63c23b86904a6e72c,PennController,72,0,test_val,NULL,PennController,83,_Trial_,End,1730991092430,undefined,877,flourish,abstract-positive,negative,positive,A,NULL
1730991569,001e4b38ceea88e63c23b86904a6e72c,PennController,55,0,test_val,NULL,PennController,66,_Trial_,Start,1730991092432,undefined,692,destroy,concrete-negative,negative,positive,A,NULL
1730991569,001e4b38ceea88e63c23b86904a6e72c,PennController,55,0,test_val,NULL,PennController,66,_Header_,Start,1730991092432,undefined,692,destroy,concrete-negative,negative,positive,A,NULL
1730991569,001e4b38ceea88e63c23b86904a6e72c,PennController,55,0,test_val,NULL,PennController,66,_Header_,End,1730991092684,undefined,692,destroy,concrete-negative,negative,positive,A,NULL
1730991569,001e4b38ceea88e63c23b86904a6e72c,PennController,55,0,test_val,NULL,Selector,unnamed-Selector,Selection,negative,1730991093877,undefined,692,destroy,concrete-negative,negative,positive,A,negative;positive
1730991569,001e4b38ceea88e63c23b86904a6e72c,PennController,55,0,test_val,NULL,PennController,66,_Trial_,End,1730991093878,undefined,692,destroy,concrete-negative,negative,positive,A,NULL
1730991569,001e4b38ceea88e63c23b86904a6e72c,PennController,64,0,test_val,NULL,PennController,75,_Trial_,Start,1730991093879,undefined,641,love,abstract-positive,negative,positive,A,NULL
1730991569,001e4b38ceea88e63c23b86904a6e72c,PennController,64,0,test_val,NULL,PennController,75,_Header_,Start,1730991093879,undefined,641,love,abstract-positive,negative,positive,A,NULL
1730991569,001e4b38ceea88e63c23b86904a6e72c,PennController,64,0,test_val,NULL,PennController,75,_Header_,End,1730991094130,undefined,641,love,abstract-positive,negative,positive,A,NULL
1730991569,001e4b38ceea88e63c23b86904a6e72c,PennController,64,0,test_val,NULL,Selector,unnamed-Selector,Selection,positive,1730991095276,undefined,641,love,abstract-positive,negative,positive,A,negative;positive
1730991569,001e4b38ceea88e63c23b86904a6e72c,PennController,64,0,test_val,NULL,PennController,75,_Trial_,End,1730991095277,undefined,641,love,abstract-positive,negative,positive,A,NULL
1730991569,001e4b38ceea88e63c23b86904a6e72c,PennController,46,0,test_val,NULL,PennController,57,_Trial_,Start,1730991095278,undefined,705,soothe,concrete-positive,negative,positive,A,NULL
1730991569,001e4b38ceea88e63c23b86904a6e72c,PennController,46,0,test_val,NULL,PennController,57,_Header_,Start,1730991095278,undefined,705,soothe,concrete-positive,negative,positive,A,NULL
1730991569,001e4b38ceea88e63c23b86904a6e72c,PennController,46,0,test_val,NULL,PennController,57,_Header_,End,1730991095528,undefined,705,soothe,concrete-positive,negative,positive,A,NULL
1730991569,001e4b38ceea88e63c23b86904a6e72c,PennController,46,0,test_val,NULL,Selector,unnamed-Selector,Selection,positive,1730991096734,undefined,705,soothe,concrete-positive,negative,positive,A,negative;positive
1730991569,001e4b38ceea88e63c23b86904a6e72c,PennController,46,0,test_val,NULL,PennController,57,_Trial_,End,1730991096736,undefined,705,soothe,concrete-positive,negative,positive,A,NULL
1730991569,001e4b38ceea88e63c23b86904a6e72c,PennController,50,0,test_val,NULL,PennController,61,_Trial_,Start,1730991096737,undefined,664,complete,concrete-positive,negative,positive,A,NULL
1730991569,001e4b38ceea88e63c23b86904a6e72c,PennController,50,0,test_val,NULL,PennController,61,_Header_,Start,1730991096737,undefined,664,complete,concrete-positive,negative,positive,A,NULL
1730991569,001e4b38ceea88e63c23b86904a6e72c,PennController,50,0,test_val,NULL,PennController,61,_Header_,End,1730991096987,undefined,664,complete,concrete-positive,negative,positive,A,NULL
1730991569,001e4b38ceea88e63c23b86904a6e72c,PennController,50,0,test_val,NULL,Selector,unnamed-Selector,Selection,positive,1730991098153,undefined,664,complete,concrete-positive,negative,positive,A,negative;positive
1730991569,001e4b38ceea88e63c23b86904a6e72c,PennController,50,0,test_val,NULL,PennController,61,_Trial_,End,1730991098155,undefined,664,complete,concrete-positive,negative,positive,A,NULL
1730991569,001e4b38ceea88e63c23b86904a6e72c,PennController,73,0,test_val,NULL,PennController,84,_Trial_,Start,1730991098156,undefined,581,relieve,abstract-positive,negative,positive,A,NULL
1730991569,001e4b38ceea88e63c23b86904a6e72c,PennController,73,0,test_val,NULL,PennController,84,_Header_,Start,1730991098156,undefined,581,relieve,abstract-positive,negative,positive,A,NULL
1730991569,001e4b38ceea88e63c23b86904a6e72c,PennController,73,0,test_val,NULL,PennController,84,_Header_,End,1730991098408,undefined,581,relieve,abstract-positive,negative,positive,A,NULL
1730991569,001e4b38ceea88e63c23b86904a6e72c,PennController,73,0,test_val,NULL,Selector,unnamed-Selector,Selection,positive,1730991099488,undefined,581,relieve,abstract-positive,negative,positive,A,negative;positive
1730991569,001e4b38ceea88e63c23b86904a6e72c,PennController,73,0,test_val,NULL,PennController,84,_Trial_,End,1730991099489,undefined,581,relieve,abstract-positive,negative,positive,A,NULL
1730991569,001e4b38ceea88e63c23b86904a6e72c,PennController,54,0,test_val,NULL,PennController,65,_Trial_,Start,1730991099490,undefined,691,die,concrete-negative,negative,positive,A,NULL
1730991569,001e4b38ceea88e63c23b86904a6e72c,PennController,54,0,test_val,NULL,PennController,65,_Header_,Start,1730991099490,undefined,691,die,concrete-negative,negative,positive,A,NULL
1730991569,001e4b38ceea88e63c23b86904a6e72c,PennController,54,0,test_val,NULL,PennController,65,_Header_,End,1730991099744,undefined,691,die,concrete-negative,negative,positive,A,NULL
1730991569,001e4b38ceea88e63c23b86904a6e72c,PennController,54,0,test_val,NULL,Selector,unnamed-Selector,Selection,negative,1730991100937,undefined,691,die,concrete-negative,negative,positive,A,negative;positive
1730991569,001e4b38ceea88e63c23b86904a6e72c,PennController,54,0,test_val,NULL,PennController,65,_Trial_,End,1730991100938,undefined,691,die,concrete-negative,negative,positive,A,NULL
1730991569,001e4b38ceea88e63c23b86904a6e72c,PennController,59,0,test_val,NULL,PennController,70,_Trial_,Start,1730991100940,undefined,1802,smash,concrete-negative,negative,positive,A,NULL
1730991569,001e4b38ceea88e63c23b86904a6e72c,PennController,59,0,test_val,NULL,PennController,70,_Header_,Start,1730991100940,undefined,1802,smash,concrete-negative,negative,positive,A,NULL
1730991569,001e4b38ceea88e63c23b86904a6e72c,PennController,59,0,test_val,NULL,PennController,70,_Header_,End,1730991101191,undefined,1802,smash,concrete-negative,negative,positive,A,NULL
1730991569,001e4b38ceea88e63c23b86904a6e72c,PennController,59,0,test_val,NULL,Selector,unnamed-Selector,Selection,negative,1730991103498,undefined,1802,smash,concrete-negative,negative,positive,A,negative;positive
1730991569,001e4b38ceea88e63c23b86904a6e72c,PennController,59,0,test_val,NULL,PennController,70,_Trial_,End,1730991103499,undefined,1802,smash,concrete-negative,negative,positive,A,NULL
1730991569,001e4b38ceea88e63c23b86904a6e72c,PennController,57,0,test_val,NULL,PennController,68,_Trial_,Start,1730991103501,undefined,607,rot,concrete-negative,negative,positive,A,NULL
1730991569,001e4b38ceea88e63c23b86904a6e72c,PennController,57,0,test_val,NULL,PennController,68,_Header_,Start,1730991103501,undefined,607,rot,concrete-negative,negative,positive,A,NULL
1730991569,001e4b38ceea88e63c23b86904a6e72c,PennController,57,0,test_val,NULL,PennController,68,_Header_,End,1730991103751,undefined,607,rot,concrete-negative,negative,positive,A,NULL
1730991569,001e4b38ceea88e63c23b86904a6e72c,PennController,57,0,test_val,NULL,Selector,unnamed-Selector,Selection,negative,1730991104860,undefined,607,rot,concrete-negative,negative,positive,A,negative;positive
1730991569,001e4b38ceea88e63c23b86904a6e72c,PennController,57,0,test_val,NULL,PennController,68,_Trial_,End,1730991104861,undefined,607,rot,concrete-negative,negative,positive,A,NULL
1730991569,001e4b38ceea88e63c23b86904a6e72c,PennController,65,0,test_val,NULL,PennController,76,_Trial_,Start,1730991104862,undefined,573,admire,abstract-positive,negative,positive,A,NULL
1730991569,001e4b38ceea88e63c23b86904a6e72c,PennController,65,0,test_val,NULL,PennController,76,_Header_,Start,1730991104862,undefined,573,admire,abstract-positive,negative,positive,A,NULL
1730991569,001e4b38ceea88e63c23b86904a6e72c,PennController,65,0,test_val,NULL,PennController,76,_Header_,End,1730991105113,undefined,573,admire,abstract-positive,negative,positive,A,NULL
1730991569,001e4b38ceea88e63c23b86904a6e72c,PennController,65,0,test_val,NULL,Selector,unnamed-Selector,Selection,positive,1730991106190,undefined,573,admire,abstract-positive,negative,positive,A,negative;positive
1730991569,001e4b38ceea88e63c23b86904a6e72c,PennController,65,0,test_val,NULL,PennController,76,_Trial_,End,1730991106191,undefined,573,admire,abstract-positive,negative,positive,A,NULL
1730991569,001e4b38ceea88e63c23b86904a6e72c,PennController,47,0,test_val,NULL,PennController,58,_Trial_,Start,1730991106192,undefined,529,caress,concrete-positive,negative,positive,A,NULL
1730991569,001e4b38ceea88e63c23b86904a6e72c,PennController,47,0,test_val,NULL,PennController,58,_Header_,Start,1730991106192,undefined,529,caress,concrete-positive,negative,positive,A,NULL
1730991569,001e4b38ceea88e63c23b86904a6e72c,PennController,47,0,test_val,NULL,PennController,58,_Header_,End,1730991106444,undefined,529,caress,concrete-positive,negative,positive,A,NULL
1730991569,001e4b38ceea88e63c23b86904a6e72c,PennController,47,0,test_val,NULL,Selector,unnamed-Selector,Selection,positive,1730991107475,undefined,529,caress,concrete-positive,negative,positive,A,negative;positive
1730991569,001e4b38ceea88e63c23b86904a6e72c,PennController,47,0,test_val,NULL,PennController,58,_Trial_,End,1730991107476,undefined,529,caress,concrete-positive,negative,positive,A,NULL
1730991569,001e4b38ceea88e63c23b86904a6e72c,PennController,75,0,test_val,NULL,PennController,86,_Trial_,Start,1730991107478,undefined,667,suffer,abstract-negative,negative,positive,A,NULL
1730991569,001e4b38ceea88e63c23b86904a6e72c,PennController,75,0,test_val,NULL,PennController,86,_Header_,Start,1730991107478,undefined,667,suffer,abstract-negative,negative,positive,A,NULL
1730991569,001e4b38ceea88e63c23b86904a6e72c,PennController,75,0,test_val,NULL,PennController,86,_Header_,End,1730991107730,undefined,667,suffer,abstract-negative,negative,positive,A,NULL
1730991569,001e4b38ceea88e63c23b86904a6e72c,PennController,75,0,test_val,NULL,Selector,unnamed-Selector,Selection,negative,1730991108903,undefined,667,suffer,abstract-negative,negative,positive,A,negative;positive
1730991569,001e4b38ceea88e63c23b86904a6e72c,PennController,75,0,test_val,NULL,PennController,86,_Trial_,End,1730991108904,undefined,667,suffer,abstract-negative,negative,positive,A,NULL
1730991569,001e4b38ceea88e63c23b86904a6e72c,PennController,80,0,test_val,NULL,PennController,91,_Trial_,Start,1730991108906,undefined,836,look down on,abstract-negative,negative,positive,A,NULL
1730991569,001e4b38ceea88e63c23b86904a6e72c,PennController,80,0,test_val,NULL,PennController,91,_Header_,Start,1730991108906,undefined,836,look down on,abstract-negative,negative,positive,A,NULL
1730991569,001e4b38ceea88e63c23b86904a6e72c,PennController,80,0,test_val,NULL,PennController,91,_Header_,End,1730991109158,undefined,836,look down on,abstract-negative,negative,positive,A,NULL
1730991569,001e4b38ceea88e63c23b86904a6e72c,PennController,80,0,test_val,NULL,Selector,unnamed-Selector,Selection,negative,1730991110499,undefined,836,look down on,abstract-negative,negative,positive,A,negative;positive
1730991569,001e4b38ceea88e63c23b86904a6e72c,PennController,80,0,test_val,NULL,PennController,91,_Trial_,End,1730991110501,undefined,836,look down on,abstract-negative,negative,positive,A,NULL
1730991569,001e4b38ceea88e63c23b86904a6e72c,PennController,56,0,test_val,NULL,PennController,67,_Trial_,Start,1730991110502,undefined,707,demolish,concrete-negative,negative,positive,A,NULL
1730991569,001e4b38ceea88e63c23b86904a6e72c,PennController,56,0,test_val,NULL,PennController,67,_Header_,Start,1730991110502,undefined,707,demolish,concrete-negative,negative,positive,A,NULL
1730991569,001e4b38ceea88e63c23b86904a6e72c,PennController,56,0,test_val,NULL,PennController,67,_Header_,End,1730991110754,undefined,707,demolish,concrete-negative,negative,positive,A,NULL
1730991569,001e4b38ceea88e63c23b86904a6e72c,PennController,56,0,test_val,NULL,Selector,unnamed-Selector,Selection,negative,1730991111965,undefined,707,demolish,concrete-negative,negative,positive,A,negative;positive
1730991569,001e4b38ceea88e63c23b86904a6e72c,PennController,56,0,test_val,NULL,PennController,67,_Trial_,End,1730991111967,undefined,707,demolish,concrete-negative,negative,positive,A,NULL
1730991569,001e4b38ceea88e63c23b86904a6e72c,PennController,45,0,test_val,NULL,PennController,56,_Trial_,Start,1730991111969,undefined,721,heal,concrete-positive,negative,positive,A,NULL
1730991569,001e4b38ceea88e63c23b86904a6e72c,PennController,45,0,test_val,NULL,PennController,56,_Header_,Start,1730991111969,undefined,721,heal,concrete-positive,negative,positive,A,NULL
1730991569,001e4b38ceea88e63c23b86904a6e72c,PennController,45,0,test_val,NULL,PennController,56,_Header_,End,1730991112221,undefined,721,heal,concrete-positive,negative,positive,A,NULL
1730991569,001e4b38ceea88e63c23b86904a6e72c,PennController,45,0,test_val,NULL,Selector,unnamed-Selector,Selection,positive,1730991113443,undefined,721,heal,concrete-positive,negative,positive,A,negative;positive
1730991569,001e4b38ceea88e63c23b86904a6e72c,PennController,45,0,test_val,NULL,PennController,56,_Trial_,End,1730991113445,undefined,721,heal,concrete-positive,negative,positive,A,NULL
1730991569,001e4b38ceea88e63c23b86904a6e72c,PennController,63,0,test_val,NULL,PennController,74,_Trial_,Start,1730991113446,undefined,1132,bore,concrete-negative,negative,positive,A,NULL
1730991569,001e4b38ceea88e63c23b86904a6e72c,PennController,63,0,test_val,NULL,PennController,74,_Header_,Start,1730991113446,undefined,1132,bore,concrete-negative,negative,positive,A,NULL
1730991569,001e4b38ceea88e63c23b86904a6e72c,PennController,63,0,test_val,NULL,PennController,74,_Header_,End,1730991113698,undefined,1132,bore,concrete-negative,negative,positive,A,NULL
1730991569,001e4b38ceea88e63c23b86904a6e72c,PennController,63,0,test_val,NULL,Selector,unnamed-Selector,Selection,negative,1730991115332,undefined,1132,bore,concrete-negative,negative,positive,A,negative;positive
1730991569,001e4b38ceea88e63c23b86904a6e72c,PennController,63,0,test_val,NULL,PennController,74,_Trial_,End,1730991115334,undefined,1132,bore,concrete-negative,negative,positive,A,NULL
1730991569,001e4b38ceea88e63c23b86904a6e72c,PennController,66,0,test_val,NULL,PennController,77,_Trial_,Start,1730991115335,undefined,654,adore,abstract-positive,negative,positive,A,NULL
1730991569,001e4b38ceea88e63c23b86904a6e72c,PennController,66,0,test_val,NULL,PennController,77,_Header_,Start,1730991115335,undefined,654,adore,abstract-positive,negative,positive,A,NULL
1730991569,001e4b38ceea88e63c23b86904a6e72c,PennController,66,0,test_val,NULL,PennController,77,_Header_,End,1730991115588,undefined,654,adore,abstract-positive,negative,positive,A,NULL
1730991569,001e4b38ceea88e63c23b86904a6e72c,PennController,66,0,test_val,NULL,Selector,unnamed-Selector,Selection,positive,1730991116747,undefined,654,adore,abstract-positive,negative,positive,A,negative;positive
1730991569,001e4b38ceea88e63c23b86904a6e72c,PennController,66,0,test_val,NULL,PennController,77,_Trial_,End,1730991116749,undefined,654,adore,abstract-positive,negative,positive,A,NULL
1730991569,001e4b38ceea88e63c23b86904a6e72c,PennController,60,0,test_val,NULL,PennController,71,_Trial_,Start,1730991116750,undefined,694,irritate,concrete-negative,negative,positive,A,NULL
1730991569,001e4b38ceea88e63c23b86904a6e72c,PennController,60,0,test_val,NULL,PennController,71,_Header_,Start,1730991116750,undefined,694,irritate,concrete-negative,negative,positive,A,NULL
1730991569,001e4b38ceea88e63c23b86904a6e72c,PennController,60,0,test_val,NULL,PennController,71,_Header_,End,1730991117000,undefined,694,irritate,concrete-negative,negative,positive,A,NULL
1730991569,001e4b38ceea88e63c23b86904a6e72c,PennController,60,0,test_val,NULL,Selector,unnamed-Selector,Selection,negative,1730991118199,undefined,694,irritate,concrete-negative,negative,positive,A,negative;positive
1730991569,001e4b38ceea88e63c23b86904a6e72c,PennController,60,0,test_val,NULL,PennController,71,_Trial_,End,1730991118200,undefined,694,irritate,concrete-negative,negative,positive,A,NULL
1730991569,001e4b38ceea88e63c23b86904a6e72c,PennController,51,0,test_val,NULL,PennController,62,_Trial_,Start,1730991118201,undefined,819,reach,concrete-positive,negative,positive,A,NULL
1730991569,001e4b38ceea88e63c23b86904a6e72c,PennController,51,0,test_val,NULL,PennController,62,_Header_,Start,1730991118201,undefined,819,reach,concrete-positive,negative,positive,A,NULL
1730991569,001e4b38ceea88e63c23b86904a6e72c,PennController,51,0,test_val,NULL,PennController,62,_Header_,End,1730991118454,undefined,819,reach,concrete-positive,negative,positive,A,NULL
1730991569,001e4b38ceea88e63c23b86904a6e72c,PennController,51,0,test_val,NULL,Selector,unnamed-Selector,Selection,positive,1730991119774,undefined,819,reach,concrete-positive,negative,positive,A,negative;positive
1730991569,001e4b38ceea88e63c23b86904a6e72c,PennController,51,0,test_val,NULL,PennController,62,_Trial_,End,1730991119776,undefined,819,reach,concrete-positive,negative,positive,A,NULL
1730991569,001e4b38ceea88e63c23b86904a6e72c,PennController,76,0,test_val,NULL,PennController,87,_Trial_,Start,1730991119777,undefined,615,despise,abstract-negative,negative,positive,A,NULL
1730991569,001e4b38ceea88e63c23b86904a6e72c,PennController,76,0,test_val,NULL,PennController,87,_Header_,Start,1730991119777,undefined,615,despise,abstract-negative,negative,positive,A,NULL
1730991569,001e4b38ceea88e63c23b86904a6e72c,PennController,76,0,test_val,NULL,PennController,87,_Header_,End,1730991120029,undefined,615,despise,abstract-negative,negative,positive,A,NULL
1730991569,001e4b38ceea88e63c23b86904a6e72c,PennController,76,0,test_val,NULL,Selector,unnamed-Selector,Selection,negative,1730991121146,undefined,615,despise,abstract-negative,negative,positive,A,negative;positive
1730991569,001e4b38ceea88e63c23b86904a6e72c,PennController,76,0,test_val,NULL,PennController,87,_Trial_,End,1730991121147,undefined,615,despise,abstract-negative,negative,positive,A,NULL
1730991569,001e4b38ceea88e63c23b86904a6e72c,PennController,79,0,test_val,NULL,PennController,90,_Trial_,Start,1730991121147,undefined,623,loathe,abstract-negative,negative,positive,A,NULL
