"","X","ID.true","Word","Label","ConcValCombo","Task","BlockOrder","Group","Response","Accuracy","EventTime","Value","RT","ReactionTime","Key_value_F","Key_value_J","Comments","LogReactionTime","LogRT","TrialNumber","Switch","Response.n","CorrectedResponse","CorrectedAccuracy"
"1",1,"638f6f1ebb540eedd7097e44","degrade","test_val","abstract-negative","Valence","VC","A","negative",1,1728920983591,"negative",6336,10103,"positive","negative","positive;negative",9.22058768842773,8.75400293349426,1,"Switch",NA,"negative",1
"2",2,"638f6f1ebb540eedd7097e44","believe","test_val","abstract-positive","Valence","VC","A","positive",1,1728920987843,"positive",3047.5,3490,"positive","negative","positive;negative",8.15765701519647,8.02207686135543,2,"Switch",NA,"positive",1
"3",3,"638f6f1ebb540eedd7097e44","slap","test_val","concrete-negative","Valence","VC","A","negative",1,1728920991713,"negative",3127,3111,"positive","negative","positive;negative",8.04269949689764,8.04782935745784,3,"Switch",NA,"negative",1
"4",4,"638f6f1ebb540eedd7097e44","vomit","test_val","concrete-negative","Valence","VC","A","negative",1,1728920997272,"negative",3595.5,4797,"positive","negative","positive;negative",8.47574600150206,8.18743834254255,4,"Switch",NA,"negative",1
"5",5,"638f6f1ebb540eedd7097e44","zing","test_val","abstract-positive","Valence","VC","A","positive",1,1728921000194,"positive",2490.5,2158,"positive","negative","positive;negative",7.67693714581808,7.82023877251334,5,"Switch",NA,"positive",1
"6",6,"638f6f1ebb540eedd7097e44","bleed","test_val","concrete-negative","Valence","VC","A","negative",1,1728921002435,"negative",2406,1479,"positive","negative","positive;negative",7.2991214627108,7.78572089653462,6,"Switch",NA,"negative",1
"7",7,"638f6f1ebb540eedd7097e44","cook","test_val","concrete-positive","Valence","VC","A","positive",1,1728921004428,"positive",5794,1232,"positive","negative","positive;negative",7.11639414409346,8.66457817832929,7,"Switch",NA,"positive",1
"8",8,"638f6f1ebb540eedd7097e44","sing","test_val","concrete-positive","Valence","VC","A","positive",1,1728921006691,"positive",2187,1500,"positive","negative","positive;negative",7.3132203870903,7.69028602067677,8,"Switch",NA,"positive",1
"9",9,"638f6f1ebb540eedd7097e44","condemn","test_val","abstract-negative","Valence","VC","A","negative",1,1728921010409,"negative",2911,2959,"positive","negative","positive;negative",7.99260665240021,7.97625194374562,9,"Switch",NA,"negative",1
"10",10,"638f6f1ebb540eedd7097e44","laugh","test_val","concrete-positive","Valence","VC","A","positive",1,1728921012336,"positive",2336,1168,"positive","negative","positive;negative",7.06304816338817,7.75619534394812,10,"Switch",NA,"positive",1
"11",11,"638f6f1ebb540eedd7097e44","inspire","test_val","abstract-positive","Valence","VC","A","positive",1,1728921015651,"positive",2392.5,2556,"positive","negative","positive;negative",7.84619881549743,7.78009412332711,11,"Switch",NA,"positive",1
"12",12,"638f6f1ebb540eedd7097e44","weep","test_val","concrete-negative","Valence","VC","A","negative",1,1728921020780,"negative",3734.5,4367,"positive","negative","positive;negative",8.38183155348556,8.22536921979712,12,"Switch",NA,"negative",1
"13",13,"638f6f1ebb540eedd7097e44","spit","test_val","concrete-negative","Valence","VC","A","negative",1,1728921023858,"negative",2514,2317,"positive","negative","positive;negative",7.74802852443238,7.82963038915019,13,"Switch",NA,"negative",1
"14",14,"638f6f1ebb540eedd7097e44","disown","test_val","abstract-negative","Valence","VC","A","negative",1,1728921025876,"negative",1805.5,1260,"positive","negative","positive;negative",7.13886699994552,7.49859284071751,14,"Switch",NA,"negative",1
"15",15,"638f6f1ebb540eedd7097e44","enlighten","test_val","abstract-positive","Valence","VC","A","positive",1,1728921027631,"positive",1951,993,"positive","negative","positive;negative",6.90073066404517,7.57609734062311,15,"Switch",NA,"positive",1
"16",16,"638f6f1ebb540eedd7097e44","kiss","test_val","concrete-positive","Valence","VC","A","positive",1,1728921029591,"positive",1985,1201,"positive","negative","positive;negative",7.09090982207998,7.59337419312129,16,"Switch",NA,"positive",1
"17",17,"638f6f1ebb540eedd7097e44","barf","test_val","concrete-negative","Valence","VC","A","negative",1,1728921031371,"negative",1801.5,1018,"positive","negative","positive;negative",6.92559519711047,7.49637493018815,17,"Switch",NA,"negative",1
"18",18,"638f6f1ebb540eedd7097e44","fulfill","test_val","abstract-positive","Valence","VC","A","positive",1,1728921033177,"positive",1682.5,1046,"positive","negative","positive;negative",6.95272864462487,7.42803606151888,18,"Switch",NA,"positive",1
"19",19,"638f6f1ebb540eedd7097e44","profane","test_val","abstract-negative","Valence","VC","A","negative",1,1728921035677,"negative",2480.5,1737,"positive","negative","positive;negative",7.4599147662411,7.8162154317411,19,"Switch",NA,"negative",1
"20",20,"638f6f1ebb540eedd7097e44","smooch","test_val","concrete-positive","Valence","VC","A","positive",1,1728921037582,"positive",3874.5,1144,"positive","negative","positive;negative",7.04228617193974,8.262171901204,20,"Switch",NA,"positive",1
"21",21,"638f6f1ebb540eedd7097e44","excite","test_val","abstract-positive","Valence","VC","A","positive",1,1728921039620,"positive",1781,1279,"positive","negative","positive;negative",7.15383380157884,7.48493028328966,21,"Switch",NA,"positive",1
"22",22,"638f6f1ebb540eedd7097e44","admired","test_val","abstract-positive","Valence","VC","A","positive",1,1728921041053,"positive",1538.5,673,"positive","negative","positive;negative",6.51174532964473,7.3385631947621,22,"Switch",NA,"positive",1
"23",23,"638f6f1ebb540eedd7097e44","convict","test_val","concrete-negative","Valence","VC","A","positive",0,1728921042920,"positive",4063.5,1107,"positive","negative","positive;negative",7.00940893270864,8.30979995019326,23,"Switch",NA,"positive",0
"24",24,"638f6f1ebb540eedd7097e44","puke","test_val","concrete-negative","Valence","VC","A","negative",1,1728921047969,"negative",3408.5,4288,"positive","negative","positive;negative",8.36357570275064,8.13402759080284,24,"Switch",NA,"negative",1
"25",25,"638f6f1ebb540eedd7097e44","displease","test_val","abstract-negative","Valence","VC","A","negative",1,1728921050831,"negative",2381,2101,"positive","negative","positive;negative",7.650168700845,7.77527584648686,25,"Switch",NA,"negative",1
"26",26,"638f6f1ebb540eedd7097e44","wish","test_val","abstract-positive","Valence","VC","A","positive",1,1728921054246,"positive",3114.5,2655,"positive","negative","positive;negative",7.88419993367604,8.0438239046942,26,"Switch",NA,"positive",1
"27",27,"638f6f1ebb540eedd7097e44","carjack","test_val","concrete-negative","Valence","VC","A","negative",1,1728921056200,"negative",2070.5,1191,"positive","negative","positive;negative",7.0825485693553,7.63554540298562,27,"Switch",NA,"negative",1
"28",28,"638f6f1ebb540eedd7097e44","sleep","test_val","concrete-positive","Valence","VC","A","positive",1,1728921058545,"positive",2791,1584,"positive","negative","positive;negative",7.36770857237437,7.93415523353632,28,"Switch",NA,"positive",1
"29",29,"638f6f1ebb540eedd7097e44","intimidate","test_val","abstract-negative","Valence","VC","A","negative",1,1728921060732,"negative",1876.5,1428,"positive","negative","positive;negative",7.26403014289953,7.53716361857508,29,"Switch",NA,"negative",1
"30",30,"638f6f1ebb540eedd7097e44","distrust","test_val","abstract-negative","Valence","VC","A","negative",1,1728921062548,"negative",1679,1058,"positive","negative","positive;negative",6.96413561241824,7.42595365707754,30,"Switch",NA,"negative",1
"31",31,"638f6f1ebb540eedd7097e44","swing","test_val","concrete-positive","Valence","VC","A","positive",1,1728921065629,"positive",2709,2321,"positive","negative","positive;negative",7.74975340627444,7.9043348420851,31,"Switch",NA,"positive",1
"32",32,"638f6f1ebb540eedd7097e44","hate","test_val","abstract-negative","Valence","VC","A","negative",1,1728921067540,"negative",2498,1150,"positive","negative","positive;negative",7.0475172213573,7.82324569068552,32,"Switch",NA,"negative",1
"33",33,"638f6f1ebb540eedd7097e44","violate","test_val","abstract-negative","Valence","VC","A","negative",1,1728921069485,"negative",1858,1184,"positive","negative","positive;negative",7.07665381544395,7.52725591937378,33,"Switch",NA,"negative",1
"34",34,"638f6f1ebb540eedd7097e44","piss","test_val","concrete-negative","Valence","VC","A","positive",0,1728921074164,"positive",3306.5,3921,"positive","negative","positive;negative",8.27410200229233,8.10364550711472,34,"Switch",NA,"positive",0
"35",35,"638f6f1ebb540eedd7097e44","bathe","test_val","concrete-positive","Valence","VC","A","positive",1,1728921075740,"positive",1777,813,"positive","negative","positive;negative",6.70073110954781,7.48268182815465,35,"Switch",NA,"positive",1
"36",36,"638f6f1ebb540eedd7097e44","hope","test_val","abstract-positive","Valence","VC","A","positive",1,1728921077335,"positive",1894.5,838,"positive","negative","positive;negative",6.73101810048208,7.54671023045866,36,"Switch",NA,"positive",1
"37",37,"638f6f1ebb540eedd7097e44","dance","test_val","concrete-positive","Valence","VC","A","positive",1,1728921079242,"positive",2620,1146,"positive","negative","positive;negative",7.04403289727469,7.87092959675514,37,"Switch",NA,"positive",1
"38",38,"638f6f1ebb540eedd7097e44","imagine","test_val","abstract-positive","Valence","VC","A","positive",1,1728921081033,"positive",1657,1030,"positive","negative","positive;negative",6.93731408122368,7.41276401742656,38,"Switch",NA,"positive",1
"39",39,"638f6f1ebb540eedd7097e44","eat","test_val","concrete-positive","Valence","VC","A","positive",1,1728921082614,"positive",3226.5,821,"positive","negative","positive;negative",6.71052310945243,8.07915323737589,39,"Switch",NA,"positive",1
"40",40,"638f6f1ebb540eedd7097e44","annoy","test_val","abstract-negative","Valence","VC","A","negative",1,1728921085180,"negative",2062.5,1805,"positive","negative","positive;negative",7.49831587076698,7.63167411820884,40,"Switch",NA,"negative",1
"41",41,"638f6f1ebb540eedd7097e44","piss","test_conc","concrete-negative","Concrete","VC","A","abstract",0,1728921149147,"abstract",3306.5,1183,"abstract","concrete","concrete;abstract",7.07580886397839,8.10364550711472,41,"NoSwitch",NA,"concrete",1
"42",42,"638f6f1ebb540eedd7097e44","convict","test_conc","concrete-negative","Concrete","VC","A","concrete",1,1728921155413,"concrete",4063.5,5508,"abstract","concrete","concrete;abstract",8.61395685984855,8.30979995019326,42,"NoSwitch",NA,"abstract",0
"43",43,"638f6f1ebb540eedd7097e44","dance","test_conc","concrete-positive","Concrete","VC","A","abstract",0,1728921158753,"abstract",2620,2578,"abstract","concrete","concrete;abstract",7.85476918349913,7.87092959675514,43,"NoSwitch",NA,"concrete",1
"44",44,"638f6f1ebb540eedd7097e44","barf","test_conc","concrete-negative","Concrete","VC","A","abstract",0,1728921160583,"abstract",1801.5,1070,"abstract","concrete","concrete;abstract",6.97541392745595,7.49637493018815,44,"NoSwitch",NA,"concrete",1
"45",45,"638f6f1ebb540eedd7097e44","profane","test_conc","abstract-negative","Concrete","VC","A","concrete",0,1728921163050,"concrete",2480.5,1710,"abstract","concrete","concrete;abstract",7.44424864949671,7.8162154317411,45,"NoSwitch",NA,"abstract",1
"46",46,"638f6f1ebb540eedd7097e44","enlighten","test_conc","abstract-positive","Concrete","VC","A","concrete",0,1728921165203,"concrete",1951,1391,"abstract","concrete","concrete;abstract",7.23777819192344,7.57609734062311,46,"NoSwitch",NA,"abstract",1
"47",47,"638f6f1ebb540eedd7097e44","cook","test_conc","concrete-positive","Concrete","VC","A","concrete",1,1728921174805,"concrete",5794,8840,"abstract","concrete","concrete;abstract",9.08704215563169,8.66457817832929,47,"NoSwitch",NA,"abstract",0
"48",48,"638f6f1ebb540eedd7097e44","bathe","test_conc","concrete-positive","Concrete","VC","A","concrete",1,1728921176788,"concrete",1777,1225,"abstract","concrete","concrete;abstract",7.11069612297883,7.48268182815465,48,"NoSwitch",NA,"abstract",0
"49",49,"638f6f1ebb540eedd7097e44","displease","test_conc","abstract-negative","Concrete","VC","A","concrete",0,1728921178694,"concrete",2381,1147,"abstract","concrete","concrete;abstract",7.04490511712937,7.77527584648686,49,"NoSwitch",NA,"abstract",1
"50",50,"638f6f1ebb540eedd7097e44","distrust","test_conc","abstract-negative","Concrete","VC","A","concrete",0,1728921180241,"concrete",1679,786,"abstract","concrete","concrete;abstract",6.66695679242921,7.42595365707754,50,"NoSwitch",NA,"abstract",1
"51",51,"638f6f1ebb540eedd7097e44","smooch","test_conc","concrete-positive","Concrete","VC","A","abstract",0,1728921186091,"abstract",3874.5,5089,"abstract","concrete","concrete;abstract",8.53483662658883,8.262171901204,51,"NoSwitch",NA,"concrete",1
"52",52,"638f6f1ebb540eedd7097e44","fulfill","test_conc","abstract-positive","Concrete","VC","A","concrete",0,1728921187656,"concrete",1682.5,805,"abstract","concrete","concrete;abstract",6.69084227741856,7.42803606151888,52,"NoSwitch",NA,"abstract",1
"53",53,"638f6f1ebb540eedd7097e44","condemn","test_conc","abstract-negative","Concrete","VC","A","concrete",0,1728921189767,"concrete",2911,1350,"abstract","concrete","concrete;abstract",7.20785987143248,7.97625194374562,53,"NoSwitch",NA,"abstract",1
"54",54,"638f6f1ebb540eedd7097e44","believe","test_conc","abstract-positive","Concrete","VC","A","concrete",0,1728921191617,"concrete",3047.5,1089,"abstract","concrete","concrete;abstract",6.99301512293296,8.02207686135543,54,"NoSwitch",NA,"abstract",1
"55",55,"638f6f1ebb540eedd7097e44","swing","test_conc","concrete-positive","Concrete","VC","A","abstract",0,1728921193961,"abstract",2709,1588,"abstract","concrete","concrete;abstract",7.37023064180708,7.9043348420851,55,"NoSwitch",NA,"concrete",1
"56",56,"638f6f1ebb540eedd7097e44","zing","test_conc","abstract-positive","Concrete","VC","A","concrete",0,1728921196027,"concrete",2490.5,1307,"abstract","concrete","concrete;abstract",7.17548971362422,7.82023877251334,56,"NoSwitch",NA,"abstract",1
"57",57,"638f6f1ebb540eedd7097e44","admired","test_conc","abstract-positive","Concrete","VC","A","concrete",0,1728921197678,"concrete",1538.5,891,"abstract","concrete","concrete;abstract",6.79234442747081,7.3385631947621,57,"NoSwitch",NA,"abstract",1
"58",58,"638f6f1ebb540eedd7097e44","laugh","test_conc","concrete-positive","Concrete","VC","A","concrete",1,1728921200429,"concrete",2336,1991,"abstract","concrete","concrete;abstract",7.5963923040642,7.75619534394812,58,"NoSwitch",NA,"abstract",0
"59",59,"638f6f1ebb540eedd7097e44","sleep","test_conc","concrete-positive","Concrete","VC","A","concrete",1,1728921203673,"concrete",2791,2482,"abstract","concrete","concrete;abstract",7.81681996576455,7.93415523353632,59,"NoSwitch",NA,"abstract",0
"60",60,"638f6f1ebb540eedd7097e44","spit","test_conc","concrete-negative","Concrete","VC","A","abstract",0,1728921205628,"abstract",2514,1194,"abstract","concrete","concrete;abstract",7.08506429395255,7.82963038915019,60,"NoSwitch",NA,"concrete",1
"61",61,"638f6f1ebb540eedd7097e44","excite","test_conc","abstract-positive","Concrete","VC","A","concrete",0,1728921207158,"concrete",1781,771,"abstract","concrete","concrete;abstract",6.64768837356333,7.48493028328966,61,"NoSwitch",NA,"abstract",1
"62",62,"638f6f1ebb540eedd7097e44","hope","test_conc","abstract-positive","Concrete","VC","A","concrete",0,1728921209359,"concrete",1894.5,1443,"abstract","concrete","concrete;abstract",7.27447955877387,7.54671023045866,62,"NoSwitch",NA,"abstract",1
"63",63,"638f6f1ebb540eedd7097e44","imagine","test_conc","abstract-positive","Concrete","VC","A","concrete",0,1728921210889,"concrete",1657,774,"abstract","concrete","concrete;abstract",6.65157187358973,7.41276401742656,63,"NoSwitch",NA,"abstract",1
"64",64,"638f6f1ebb540eedd7097e44","carjack","test_conc","concrete-negative","Concrete","VC","A","concrete",1,1728921213082,"concrete",2070.5,1433,"abstract","concrete","concrete;abstract",7.26752542782817,7.63554540298562,64,"NoSwitch",NA,"abstract",0
"65",65,"638f6f1ebb540eedd7097e44","kiss","test_conc","concrete-positive","Concrete","VC","A","abstract",0,1728921215099,"abstract",1985,1255,"abstract","concrete","concrete;abstract",7.13489085156588,7.59337419312129,65,"NoSwitch",NA,"concrete",1
"66",66,"638f6f1ebb540eedd7097e44","disown","test_conc","abstract-negative","Concrete","VC","A","concrete",0,1728921216698,"concrete",1805.5,839,"abstract","concrete","concrete;abstract",6.73221070646721,7.49859284071751,66,"NoSwitch",NA,"abstract",1
"67",67,"638f6f1ebb540eedd7097e44","eat","test_conc","concrete-positive","Concrete","VC","A","concrete",1,1728921221577,"concrete",3226.5,4119,"abstract","concrete","concrete;abstract",8.32336569443608,8.07915323737589,67,"NoSwitch",NA,"abstract",0
"68",68,"638f6f1ebb540eedd7097e44","inspire","test_conc","abstract-positive","Concrete","VC","A","concrete",0,1728921223051,"concrete",2392.5,717,"abstract","concrete","concrete;abstract",6.57507584059962,7.78009412332711,68,"NoSwitch",NA,"abstract",1
"69",69,"638f6f1ebb540eedd7097e44","slap","test_conc","concrete-negative","Concrete","VC","A","abstract",0,1728921225441,"abstract",3127,1631,"abstract","concrete","concrete;abstract",7.39694860262101,8.04782935745784,69,"NoSwitch",NA,"concrete",1
"70",70,"638f6f1ebb540eedd7097e44","puke","test_conc","concrete-negative","Concrete","VC","A","abstract",0,1728921227216,"abstract",3408.5,1016,"abstract","concrete","concrete;abstract",6.92362862813843,8.13402759080284,70,"NoSwitch",NA,"concrete",1
"71",71,"638f6f1ebb540eedd7097e44","sing","test_conc","concrete-positive","Concrete","VC","A","concrete",1,1728921229334,"concrete",2187,1360,"abstract","concrete","concrete;abstract",7.2152399787301,7.69028602067677,71,"NoSwitch",NA,"abstract",0
"72",72,"638f6f1ebb540eedd7097e44","weep","test_conc","concrete-negative","Concrete","VC","A","concrete",1,1728921231680,"concrete",3734.5,1590,"abstract","concrete","concrete;abstract",7.37148929521428,8.22536921979712,72,"NoSwitch",NA,"abstract",0
"73",73,"638f6f1ebb540eedd7097e44","hate","test_conc","abstract-negative","Concrete","VC","A","concrete",0,1728921234769,"concrete",2498,2334,"abstract","concrete","concrete;abstract",7.7553388128465,7.82324569068552,73,"NoSwitch",NA,"abstract",1
"74",74,"638f6f1ebb540eedd7097e44","degrade","test_conc","abstract-negative","Concrete","VC","A","concrete",0,1728921236587,"concrete",6336,1060,"abstract","concrete","concrete;abstract",6.96602418710611,8.75400293349426,74,"NoSwitch",NA,"abstract",1
"75",75,"638f6f1ebb540eedd7097e44","bleed","test_conc","concrete-negative","Concrete","VC","A","abstract",0,1728921239164,"abstract",2406,1817,"abstract","concrete","concrete;abstract",7.50494206839617,7.78572089653462,75,"NoSwitch",NA,"concrete",1
"76",76,"638f6f1ebb540eedd7097e44","wish","test_conc","abstract-positive","Concrete","VC","A","concrete",0,1728921241983,"concrete",3114.5,2061,"abstract","concrete","concrete;abstract",7.63094658089046,8.0438239046942,76,"NoSwitch",NA,"abstract",1
"77",77,"638f6f1ebb540eedd7097e44","intimidate","test_conc","abstract-negative","Concrete","VC","A","concrete",0,1728921243556,"concrete",1876.5,812,"abstract","concrete","concrete;abstract",6.69950034016168,7.53716361857508,77,"NoSwitch",NA,"abstract",1
"78",78,"638f6f1ebb540eedd7097e44","vomit","test_conc","concrete-negative","Concrete","VC","A","abstract",0,1728921245194,"abstract",3595.5,881,"abstract","concrete","concrete;abstract",6.78105762593618,8.18743834254255,78,"NoSwitch",NA,"concrete",1
"79",79,"638f6f1ebb540eedd7097e44","annoy","test_conc","abstract-negative","Concrete","VC","A","concrete",0,1728921246759,"concrete",2062.5,802,"abstract","concrete","concrete;abstract",6.68710860786651,7.63167411820884,79,"NoSwitch",NA,"abstract",1
"80",80,"638f6f1ebb540eedd7097e44","violate","test_conc","abstract-negative","Concrete","VC","A","concrete",0,1728921248535,"concrete",1858,1013,"abstract","concrete","concrete;abstract",6.92067150424868,7.52725591937378,80,"NoSwitch",NA,"abstract",1
"81",81,"640d988c383c60ed564dd05e","enlighten","test_conc","abstract-positive","Concrete","CV","A","concrete",0,1728923718384,"concrete",1506,877,"abstract","concrete","concrete;abstract",6.77650699237218,7.31721240835984,1,"NoSwitch",NA,"abstract",1
"82",82,"640d988c383c60ed564dd05e","dance","test_conc","concrete-positive","Concrete","CV","A","abstract",0,1728923719882,"abstract",1557.5,737,"abstract","concrete","concrete;abstract",6.60258789218934,7.35083725066161,2,"NoSwitch",NA,"concrete",1
"83",83,"640d988c383c60ed564dd05e","vomit","test_conc","concrete-negative","Concrete","CV","A","abstract",0,1728923721754,"abstract",1740.5,1110,"abstract","concrete","concrete;abstract",7.01211529430638,7.46192770725149,3,"NoSwitch",NA,"concrete",1
"84",84,"640d988c383c60ed564dd05e","wish","test_conc","abstract-positive","Concrete","CV","A","concrete",0,1728923724789,"concrete",2143.5,2268,"abstract","concrete","concrete;abstract",7.72665366484764,7.67019528603803,4,"NoSwitch",NA,"abstract",1
"85",85,"640d988c383c60ed564dd05e","bathe","test_conc","concrete-positive","Concrete","CV","A","abstract",0,1728923726745,"abstract",1720.5,1191,"abstract","concrete","concrete;abstract",7.0825485693553,7.45037022523753,5,"NoSwitch",NA,"concrete",1
"86",86,"640d988c383c60ed564dd05e","imagine","test_conc","abstract-positive","Concrete","CV","A","concrete",0,1728923728788,"concrete",1653.5,1286,"abstract","concrete","concrete;abstract",7.15929190479756,7.41064953242185,6,"NoSwitch",NA,"abstract",1
"87",87,"640d988c383c60ed564dd05e","slap","test_conc","concrete-negative","Concrete","CV","A","abstract",0,1728923731788,"abstract",2334.5,2235,"abstract","concrete","concrete;abstract",7.71199650704767,7.75555301441099,7,"NoSwitch",NA,"concrete",1
"88",88,"640d988c383c60ed564dd05e","degrade","test_conc","abstract-negative","Concrete","CV","A","concrete",0,1728923733487,"concrete",1537,935,"abstract","concrete","concrete;abstract",6.84054652928869,7.3375877435386,8,"NoSwitch",NA,"abstract",1
"89",89,"640d988c383c60ed564dd05e","annoy","test_conc","abstract-negative","Concrete","CV","A","concrete",0,1728923735776,"concrete",1920.75,1526,"abstract","concrete","concrete;abstract",7.3304052118444,7.56047101374774,9,"NoSwitch",NA,"abstract",1
"90",90,"640d988c383c60ed564dd05e","inspire","test_conc","abstract-positive","Concrete","CV","A","concrete",0,1728923737429,"concrete",1529.5,891,"abstract","concrete","concrete;abstract",6.79234442747081,7.33269616359096,10,"NoSwitch",NA,"abstract",1
"91",91,"640d988c383c60ed564dd05e","swing","test_conc","concrete-positive","Concrete","CV","A","abstract",0,1728923739083,"abstract",1558.5,897,"abstract","concrete","concrete;abstract",6.7990558620588,7.35147909920739,11,"NoSwitch",NA,"concrete",1
"92",92,"640d988c383c60ed564dd05e","spit","test_conc","concrete-negative","Concrete","CV","A","abstract",0,1728923740932,"abstract",1665,1086,"abstract","concrete","concrete;abstract",6.99025650049388,7.41758040241454,12,"NoSwitch",NA,"concrete",1
"93",93,"640d988c383c60ed564dd05e","admired","test_conc","abstract-positive","Concrete","CV","A","concrete",0,1728923742888,"concrete",1649.5,1198,"abstract","concrete","concrete;abstract",7.08840877867539,7.40822749066864,13,"NoSwitch",NA,"abstract",1
"94",94,"640d988c383c60ed564dd05e","cook","test_conc","concrete-positive","Concrete","CV","A","abstract",0,1728923744628,"abstract",1563,985,"abstract","concrete","concrete;abstract",6.89264164117209,7.35436233042148,14,"NoSwitch",NA,"concrete",1
"95",95,"640d988c383c60ed564dd05e","disown","test_conc","abstract-negative","Concrete","CV","A","concrete",0,1728923746584,"concrete",1731.5,1194,"abstract","concrete","concrete;abstract",7.08506429395255,7.45674336384248,15,"NoSwitch",NA,"abstract",1
"96",96,"640d988c383c60ed564dd05e","bleed","test_conc","concrete-negative","Concrete","CV","A","abstract",0,1728923748813,"abstract",1934,1464,"abstract","concrete","concrete;abstract",7.28892769452126,7.56734567601324,16,"NoSwitch",NA,"concrete",1
"97",97,"640d988c383c60ed564dd05e","profane","test_conc","abstract-negative","Concrete","CV","A","concrete",0,1728923750480,"concrete",1533,904,"abstract","concrete","concrete;abstract",6.80682936039218,7.33498187887181,17,"NoSwitch",NA,"abstract",1
"98",98,"640d988c383c60ed564dd05e","violate","test_conc","abstract-negative","Concrete","CV","A","concrete",0,1728923752334,"concrete",1621,1092,"abstract","concrete","concrete;abstract",6.99576615630485,7.39079852173568,18,"NoSwitch",NA,"abstract",1
"99",99,"640d988c383c60ed564dd05e","intimidate","test_conc","abstract-negative","Concrete","CV","A","concrete",0,1728923754056,"concrete",1589.5,965,"abstract","concrete","concrete;abstract",6.87212810133899,7.37117478035086,19,"NoSwitch",NA,"abstract",1
"100",100,"640d988c383c60ed564dd05e","sleep","test_conc","concrete-positive","Concrete","CV","A","abstract",0,1728923755736,"abstract",1629.5,915,"abstract","concrete","concrete;abstract",6.81892406527552,7.39602849827762,20,"NoSwitch",NA,"concrete",1
"101",101,"640d988c383c60ed564dd05e","believe","test_conc","abstract-positive","Concrete","CV","A","concrete",0,1728923757418,"concrete",1530.5,919,"abstract","concrete","concrete;abstract",6.82328612235569,7.33334975838547,21,"NoSwitch",NA,"abstract",1
"102",102,"640d988c383c60ed564dd05e","hope","test_conc","abstract-positive","Concrete","CV","A","concrete",0,1728923759423,"concrete",1759,1252,"abstract","concrete","concrete;abstract",7.13249755166004,7.47250074473756,22,"NoSwitch",NA,"abstract",1
"103",103,"640d988c383c60ed564dd05e","piss","test_conc","concrete-negative","Concrete","CV","A","abstract",0,1728923761112,"abstract",1648,923,"abstract","concrete","concrete;abstract",6.82762923450285,7.40731771046942,23,"NoSwitch",NA,"concrete",1
"104",104,"640d988c383c60ed564dd05e","smooch","test_conc","concrete-positive","Concrete","CV","A","abstract",0,1728923762698,"abstract",1460,817,"abstract","concrete","concrete;abstract",6.70563909486,7.28619171470238,24,"NoSwitch",NA,"concrete",1
"105",105,"640d988c383c60ed564dd05e","hate","test_conc","abstract-negative","Concrete","CV","A","concrete",0,1728923764307,"concrete",1492.5,845,"abstract","concrete","concrete;abstract",6.73933662735717,7.30820784526676,25,"NoSwitch",NA,"abstract",1
"106",106,"640d988c383c60ed564dd05e","kiss","test_conc","concrete-positive","Concrete","CV","A","abstract",0,1728923765873,"abstract",1454,803,"abstract","concrete","concrete;abstract",6.68835471394676,7.28207365809346,26,"NoSwitch",NA,"concrete",1
"107",107,"640d988c383c60ed564dd05e","weep","test_conc","concrete-negative","Concrete","CV","A","abstract",0,1728923768149,"abstract",1937.5,1513,"abstract","concrete","concrete;abstract",7.32184971378836,7.5691537612275,27,"NoSwitch",NA,"concrete",1
"108",108,"640d988c383c60ed564dd05e","fulfill","test_conc","abstract-positive","Concrete","CV","A","concrete",0,1728923769670,"concrete",1425,759,"abstract","concrete","concrete;abstract",6.63200177739563,7.26192709270275,28,"NoSwitch",NA,"abstract",1
"109",109,"640d988c383c60ed564dd05e","distrust","test_conc","abstract-negative","Concrete","CV","A","concrete",0,1728923771554,"concrete",1786.5,1123,"abstract","concrete","concrete;abstract",7.02375895473844,7.48801367746346,29,"NoSwitch",NA,"abstract",1
"110",110,"640d988c383c60ed564dd05e","convict","test_conc","concrete-negative","Concrete","CV","A","concrete",1,1728923773720,"concrete",1788,1403,"abstract","concrete","concrete;abstract",7.24636808010246,7.48885295573346,30,"NoSwitch",NA,"abstract",0
"111",111,"640d988c383c60ed564dd05e","laugh","test_conc","concrete-positive","Concrete","CV","A","abstract",0,1728923775316,"abstract",1498.5,834,"abstract","concrete","concrete;abstract",6.72623340235875,7.31221988675672,31,"NoSwitch",NA,"concrete",1
"112",112,"640d988c383c60ed564dd05e","condemn","test_conc","abstract-negative","Concrete","CV","A","concrete",0,1728923777445,"concrete",1820.5,1362,"abstract","concrete","concrete;abstract",7.21670948670946,7.50686646761549,32,"NoSwitch",NA,"abstract",1
"113",113,"640d988c383c60ed564dd05e","excite","test_conc","abstract-positive","Concrete","CV","A","abstract",1,1728923779740,"abstract",1918.5,1526,"abstract","concrete","concrete;abstract",7.3304052118444,7.55929890968701,33,"NoSwitch",NA,"concrete",0
"114",114,"640d988c383c60ed564dd05e","carjack","test_conc","concrete-negative","Concrete","CV","A","abstract",0,1728923782460,"abstract",2064.5,1954,"abstract","concrete","concrete;abstract",7.57763383260273,7.63264334532615,34,"NoSwitch",NA,"concrete",1
"115",115,"640d988c383c60ed564dd05e","puke","test_conc","concrete-negative","Concrete","CV","A","abstract",0,1728923783951,"abstract",1478.5,729,"abstract","concrete","concrete;abstract",6.59167373200866,7.29878333929253,35,"NoSwitch",NA,"concrete",1
"116",116,"640d988c383c60ed564dd05e","zing","test_conc","abstract-positive","Concrete","CV","A","concrete",0,1728923786308,"concrete",2046.5,1596,"abstract","concrete","concrete;abstract",7.37525577800975,7.62388629593246,36,"NoSwitch",NA,"abstract",1
"117",117,"640d988c383c60ed564dd05e","displease","test_conc","abstract-negative","Concrete","CV","A","concrete",0,1728923788375,"concrete",1729.5,1306,"abstract","concrete","concrete;abstract",7.17472430983638,7.45558762837722,37,"NoSwitch",NA,"abstract",1
"118",118,"640d988c383c60ed564dd05e","eat","test_conc","concrete-positive","Concrete","CV","A","abstract",0,1728923789780,"abstract",1356.5,644,"abstract","concrete","concrete;abstract",6.46769872610435,7.21266313209899,38,"NoSwitch",NA,"concrete",1
"119",119,"640d988c383c60ed564dd05e","barf","test_conc","concrete-negative","Concrete","CV","A","abstract",0,1728923791147,"abstract",1369,614,"abstract","concrete","concrete;abstract",6.41999492814714,7.22183582528845,39,"NoSwitch",NA,"concrete",1
"120",120,"640d988c383c60ed564dd05e","sing","test_conc","concrete-positive","Concrete","CV","A","abstract",0,1728923792779,"abstract",1599,870,"abstract","concrete","concrete;abstract",6.76849321164863,7.37713371283395,40,"NoSwitch",NA,"concrete",1
"121",121,"640d988c383c60ed564dd05e","bathe","test_val","concrete-positive","Valence","CV","A","negative",0,1728923835684,"negative",1720.5,726,"positive","negative","positive;negative",6.5875500148248,7.45037022523753,41,"Switch",NA,"negative",0
"122",122,"640d988c383c60ed564dd05e","distrust","test_val","abstract-negative","Valence","CV","A","positive",0,1728923837377,"positive",1786.5,928,"positive","negative","positive;negative",6.8330317327862,7.48801367746346,42,"Switch",NA,"positive",0
"123",123,"640d988c383c60ed564dd05e","fulfill","test_val","abstract-positive","Valence","CV","A","negative",0,1728923838710,"negative",1425,573,"positive","negative","positive;negative",6.35088571671474,7.26192709270275,43,"Switch",NA,"negative",0
"124",124,"640d988c383c60ed564dd05e","kiss","test_val","concrete-positive","Valence","CV","A","negative",0,1728923840056,"negative",1454,583,"positive","negative","positive;negative",6.36818718635049,7.28207365809346,44,"Switch",NA,"negative",0
"125",125,"640d988c383c60ed564dd05e","barf","test_val","concrete-negative","Valence","CV","A","positive",0,1728923841430,"positive",1369,615,"positive","negative","positive;negative",6.42162226780652,7.22183582528845,45,"Switch",NA,"positive",0
"126",126,"640d988c383c60ed564dd05e","enlighten","test_val","abstract-positive","Valence","CV","A","negative",0,1728923842804,"negative",1506,609,"positive","negative","positive;negative",6.4118182677099,7.31721240835984,46,"Switch",NA,"negative",0
"127",127,"640d988c383c60ed564dd05e","excite","test_val","abstract-positive","Valence","CV","A","negative",0,1728923844350,"negative",1918.5,788,"positive","negative","positive;negative",6.66949808985788,7.55929890968701,47,"Switch",NA,"negative",0
"128",128,"640d988c383c60ed564dd05e","annoy","test_val","abstract-negative","Valence","CV","A","positive",0,1728923845906,"positive",1920.75,787,"positive","negative","positive;negative",6.6682282484174,7.56047101374774,48,"Switch",NA,"positive",0
"129",129,"640d988c383c60ed564dd05e","cook","test_val","concrete-positive","Valence","CV","A","negative",0,1728923847296,"negative",1563,627,"positive","negative","positive;negative",6.44094654063292,7.35436233042148,49,"Switch",NA,"negative",0
"130",130,"640d988c383c60ed564dd05e","eat","test_val","concrete-positive","Valence","CV","A","negative",0,1728923848608,"negative",1356.5,555,"positive","negative","positive;negative",6.31896811374643,7.21266313209899,50,"Switch",NA,"negative",0
"131",131,"640d988c383c60ed564dd05e","vomit","test_val","concrete-negative","Valence","CV","A","positive",0,1728923850222,"positive",1740.5,854,"positive","negative","positive;negative",6.74993119378857,7.46192770725149,51,"Switch",NA,"positive",0
"132",132,"640d988c383c60ed564dd05e","hope","test_val","abstract-positive","Valence","CV","A","negative",0,1728923851739,"negative",1759,755,"positive","negative","positive;negative",6.62671774924902,7.47250074473756,52,"Switch",NA,"negative",0
"133",133,"640d988c383c60ed564dd05e","inspire","test_val","abstract-positive","Valence","CV","A","negative",0,1728923853149,"negative",1529.5,650,"positive","negative","positive;negative",6.47697236288968,7.33269616359096,53,"Switch",NA,"negative",0
"134",134,"640d988c383c60ed564dd05e","bleed","test_val","concrete-negative","Valence","CV","A","positive",0,1728923854793,"positive",1934,877,"positive","negative","positive;negative",6.77650699237218,7.56734567601324,54,"Switch",NA,"positive",0
"135",135,"640d988c383c60ed564dd05e","imagine","test_val","abstract-positive","Valence","CV","A","negative",0,1728923856060,"negative",1653.5,502,"positive","negative","positive;negative",6.21860011969173,7.41064953242185,55,"Switch",NA,"negative",0
"136",136,"640d988c383c60ed564dd05e","condemn","test_val","abstract-negative","Valence","CV","A","positive",0,1728923857575,"positive",1820.5,759,"positive","negative","positive;negative",6.63200177739563,7.50686646761549,56,"Switch",NA,"positive",0
"137",137,"640d988c383c60ed564dd05e","admired","test_val","abstract-positive","Valence","CV","A","negative",0,1728923858920,"negative",1649.5,581,"positive","negative","positive;negative",6.36475075685191,7.40822749066864,57,"Switch",NA,"negative",0
"138",138,"640d988c383c60ed564dd05e","disown","test_val","abstract-negative","Valence","CV","A","positive",0,1728923860430,"positive",1731.5,749,"positive","negative","positive;negative",6.61873898351722,7.45674336384248,58,"Switch",NA,"positive",0
"139",139,"640d988c383c60ed564dd05e","sing","test_val","concrete-positive","Valence","CV","A","negative",0,1728923862000,"negative",1599,811,"positive","negative","positive;negative",6.69826805411541,7.37713371283395,59,"Switch",NA,"negative",0
"140",140,"640d988c383c60ed564dd05e","believe","test_val","abstract-positive","Valence","CV","A","negative",0,1728923863384,"negative",1530.5,628,"positive","negative","positive;negative",6.4425401664682,7.33334975838547,60,"Switch",NA,"negative",0
"141",141,"640d988c383c60ed564dd05e","laugh","test_val","concrete-positive","Valence","CV","A","negative",0,1728923864789,"negative",1498.5,643,"positive","negative","positive;negative",6.46614472423762,7.31221988675672,61,"Switch",NA,"negative",0
"142",142,"640d988c383c60ed564dd05e","profane","test_val","abstract-negative","Valence","CV","A","positive",0,1728923866191,"positive",1533,637,"positive","negative","positive;negative",6.45676965557216,7.33498187887181,62,"Switch",NA,"positive",0
"143",143,"640d988c383c60ed564dd05e","violate","test_val","abstract-negative","Valence","CV","A","positive",0,1728923867582,"positive",1621,628,"positive","negative","positive;negative",6.4425401664682,7.39079852173568,63,"Switch",NA,"positive",0
"144",144,"640d988c383c60ed564dd05e","piss","test_val","concrete-negative","Valence","CV","A","positive",0,1728923869193,"positive",1648,842,"positive","negative","positive;negative",6.73578001424233,7.40731771046942,64,"Switch",NA,"positive",0
"145",145,"640d988c383c60ed564dd05e","zing","test_val","abstract-positive","Valence","CV","A","negative",0,1728923870932,"negative",2046.5,978,"positive","negative","positive;negative",6.88550967003482,7.62388629593246,65,"Switch",NA,"negative",0
"146",146,"640d988c383c60ed564dd05e","dance","test_val","concrete-positive","Valence","CV","A","negative",0,1728923872553,"negative",1557.5,866,"positive","negative","positive;negative",6.76388490856244,7.35083725066161,66,"Switch",NA,"negative",0
"147",147,"640d988c383c60ed564dd05e","carjack","test_val","concrete-negative","Valence","CV","A","positive",0,1728923873966,"positive",2064.5,646,"positive","negative","positive;negative",6.4707995037826,7.63264334532615,67,"Switch",NA,"positive",0
"148",148,"640d988c383c60ed564dd05e","sleep","test_val","concrete-positive","Valence","CV","A","negative",0,1728923875550,"negative",1629.5,824,"positive","negative","positive;negative",6.71417052990947,7.39602849827762,68,"Switch",NA,"negative",0
"149",149,"640d988c383c60ed564dd05e","intimidate","test_val","abstract-negative","Valence","CV","A","positive",0,1728923877010,"positive",1589.5,703,"positive","negative","positive;negative",6.55535689181067,7.37117478035086,69,"Switch",NA,"positive",0
"150",150,"640d988c383c60ed564dd05e","smooch","test_val","concrete-positive","Valence","CV","A","negative",0,1728923878347,"negative",1460,572,"positive","negative","positive;negative",6.3491389913798,7.28619171470238,70,"Switch",NA,"negative",0
"151",151,"640d988c383c60ed564dd05e","puke","test_val","concrete-negative","Valence","CV","A","positive",0,1728923879818,"positive",1478.5,703,"positive","negative","positive;negative",6.55535689181067,7.29878333929253,71,"Switch",NA,"positive",0
"152",152,"640d988c383c60ed564dd05e","swing","test_val","concrete-positive","Valence","CV","A","negative",0,1728923881285,"negative",1558.5,711,"positive","negative","positive;negative",6.56667242980324,7.35147909920739,72,"Switch",NA,"negative",0
"153",153,"640d988c383c60ed564dd05e","slap","test_val","concrete-negative","Valence","CV","A","positive",0,1728923882958,"positive",2334.5,909,"positive","negative","positive;negative",6.81234509417748,7.75555301441099,73,"Switch",NA,"positive",0
"154",154,"640d988c383c60ed564dd05e","displease","test_val","abstract-negative","Valence","CV","A","positive",0,1728923884354,"positive",1729.5,632,"positive","negative","positive;negative",6.44888939414686,7.45558762837722,74,"Switch",NA,"positive",0
"155",155,"640d988c383c60ed564dd05e","spit","test_val","concrete-negative","Valence","CV","A","positive",0,1728923885839,"positive",1665,719,"positive","negative","positive;negative",6.57786135772105,7.41758040241454,75,"Switch",NA,"positive",0
"156",156,"640d988c383c60ed564dd05e","weep","test_val","concrete-negative","Valence","CV","A","positive",0,1728923887442,"positive",1937.5,837,"positive","negative","positive;negative",6.72982407048948,7.5691537612275,76,"Switch",NA,"positive",0
"157",157,"640d988c383c60ed564dd05e","hate","test_val","abstract-negative","Valence","CV","A","positive",0,1728923888822,"positive",1492.5,626,"positive","negative","positive;negative",6.4393503711001,7.30820784526676,77,"Switch",NA,"positive",0
"158",158,"640d988c383c60ed564dd05e","degrade","test_val","abstract-negative","Valence","CV","A","positive",0,1728923890200,"positive",1537,613,"positive","negative","positive;negative",6.41836493593621,7.3375877435386,78,"Switch",NA,"positive",0
"159",159,"640d988c383c60ed564dd05e","wish","test_val","abstract-positive","Valence","CV","A","negative",0,1728923891456,"negative",2143.5,495,"positive","negative","positive;negative",6.20455776256869,7.67019528603803,79,"Switch",NA,"negative",0
"160",160,"640d988c383c60ed564dd05e","convict","test_val","concrete-negative","Valence","CV","A","positive",0,1728923892870,"positive",1788,652,"positive","negative","positive;negative",6.48004456192665,7.48885295573346,80,"Switch",NA,"positive",0
"161",161,"62d1972976dd315728ead6f9","kiss","test_val","concrete-positive","Valence","VC","A","negative",0,1728920929533,"negative",1473.5,656,"positive","negative","positive;negative",6.48616078894409,7.29539580217775,1,"Switch",NA,"negative",0
"162",162,"62d1972976dd315728ead6f9","sing","test_val","concrete-positive","Valence","VC","A","negative",0,1728920930915,"negative",1856.5,621,"positive","negative","positive;negative",6.43133108193348,7.52644827361713,2,"Switch",NA,"negative",0
"163",163,"62d1972976dd315728ead6f9","smooch","test_val","concrete-positive","Valence","VC","A","negative",0,1728920932243,"negative",1853.5,575,"positive","negative","positive;negative",6.35437004079735,7.52483102259079,3,"Switch",NA,"negative",0
"164",164,"62d1972976dd315728ead6f9","disown","test_val","abstract-negative","Valence","VC","A","positive",0,1728920933931,"positive",2190.5,932,"positive","negative","positive;negative",6.83733281468559,7.69188510725395,4,"Switch",NA,"positive",0
"165",165,"62d1972976dd315728ead6f9","displease","test_val","abstract-negative","Valence","VC","A","negative",1,1728920937373,"negative",2740.5,2686,"positive","negative","positive;negative",7.89580837708318,7.91589566448617,5,"Switch",NA,"negative",1
"166",166,"62d1972976dd315728ead6f9","convict","test_val","concrete-negative","Valence","VC","A","negative",1,1728920938979,"negative",1858,847,"positive","negative","positive;negative",6.74170069465205,7.52725591937378,6,"Switch",NA,"negative",1
"167",167,"62d1972976dd315728ead6f9","carjack","test_val","concrete-negative","Valence","VC","A","negative",1,1728920940843,"negative",2245.5,1104,"positive","negative","positive;negative",7.00669522683704,7.71668349252779,7,"Switch",NA,"negative",1
"168",168,"62d1972976dd315728ead6f9","violate","test_val","abstract-negative","Valence","VC","A","negative",1,1728920942348,"negative",1786,751,"positive","negative","positive;negative",6.62140565176413,7.48773376143644,8,"Switch",NA,"negative",1
"169",169,"62d1972976dd315728ead6f9","fulfill","test_val","abstract-positive","Valence","VC","A","negative",0,1728920944139,"negative",1800,1035,"positive","negative","positive;negative",6.94215670569947,7.49554194388426,9,"Switch",NA,"negative",0
"170",170,"62d1972976dd315728ead6f9","weep","test_val","concrete-negative","Valence","VC","A","negative",1,1728920946604,"negative",2059.5,1705,"positive","negative","positive;negative",7.44132038971762,7.63021851387614,10,"Switch",NA,"negative",1
"171",171,"62d1972976dd315728ead6f9","profane","test_val","abstract-negative","Valence","VC","A","negative",1,1728920948260,"negative",1682,898,"positive","negative","positive;negative",6.8001700683022,7.42773884053289,11,"Switch",NA,"negative",1
"172",172,"62d1972976dd315728ead6f9","believe","test_val","abstract-positive","Valence","VC","A","positive",1,1728920949972,"positive",1779,958,"positive","negative","positive;negative",6.86484777797086,7.48380668766583,12,"Switch",NA,"positive",1
"173",173,"62d1972976dd315728ead6f9","swing","test_val","concrete-positive","Valence","VC","A","positive",1,1728920951620,"positive",1866,889,"positive","negative","positive;negative",6.7900972355139,7.53155238140729,13,"Switch",NA,"positive",1
"174",174,"62d1972976dd315728ead6f9","laugh","test_val","concrete-positive","Valence","VC","A","positive",1,1728920953172,"positive",1685,794,"positive","negative","positive;negative",6.67708346124714,7.42952084278646,14,"Switch",NA,"positive",1
"175",175,"62d1972976dd315728ead6f9","degrade","test_val","abstract-negative","Valence","VC","A","negative",1,1728920954843,"negative",1833.5,915,"positive","negative","positive;negative",6.81892406527552,7.51398198751138,15,"Switch",NA,"negative",1
"176",176,"62d1972976dd315728ead6f9","wish","test_val","abstract-positive","Valence","VC","A","positive",1,1728920956443,"positive",2169,846,"positive","negative","positive;negative",6.74051935960622,7.68202151082687,16,"Switch",NA,"positive",1
"177",177,"62d1972976dd315728ead6f9","vomit","test_val","concrete-negative","Valence","VC","A","negative",1,1728920958130,"negative",1652,931,"positive","negative","positive;negative",6.83625927727707,7.40974195408092,17,"Switch",NA,"negative",1
"178",178,"62d1972976dd315728ead6f9","imagine","test_val","abstract-positive","Valence","VC","A","positive",1,1728920959714,"positive",1881,830,"positive","negative","positive;negative",6.72142570079064,7.53955882930103,18,"Switch",NA,"positive",1
"179",179,"62d1972976dd315728ead6f9","sleep","test_val","concrete-positive","Valence","VC","A","positive",1,1728920961202,"positive",1525.5,733,"positive","negative","positive;negative",6.59714570188665,7.33007750415672,19,"Switch",NA,"positive",1
"180",180,"62d1972976dd315728ead6f9","cook","test_val","concrete-positive","Valence","VC","A","positive",1,1728920962701,"positive",1596,744,"positive","negative","positive;negative",6.61204103483309,7.37525577800975,20,"Switch",NA,"positive",1
"181",181,"62d1972976dd315728ead6f9","bathe","test_val","concrete-positive","Valence","VC","A","positive",1,1728920964507,"positive",1749,1047,"positive","negative","positive;negative",6.95368421087054,7.4667994750186,21,"Switch",NA,"positive",1
"182",182,"62d1972976dd315728ead6f9","dance","test_val","concrete-positive","Valence","VC","A","positive",1,1728920966275,"positive",1699,1014,"positive","negative","positive;negative",6.92165818415113,7.43779512167193,22,"Switch",NA,"positive",1
"183",183,"62d1972976dd315728ead6f9","hope","test_val","abstract-positive","Valence","VC","A","positive",1,1728920968027,"positive",1727.5,997,"positive","negative","positive;negative",6.90475076996184,7.45443055564183,23,"Switch",NA,"positive",1
"184",184,"62d1972976dd315728ead6f9","condemn","test_val","abstract-negative","Valence","VC","A","negative",1,1728920969476,"negative",1704.5,692,"positive","negative","positive;negative",6.53958595561767,7.44102709157796,24,"Switch",NA,"negative",1
"185",185,"62d1972976dd315728ead6f9","spit","test_val","concrete-negative","Valence","VC","A","negative",1,1728920971108,"negative",1938.5,874,"positive","negative","positive;negative",6.77308037565554,7.56966975711098,25,"Switch",NA,"negative",1
"186",186,"62d1972976dd315728ead6f9","inspire","test_val","abstract-positive","Valence","VC","A","negative",0,1728920972890,"negative",1659.5,1024,"positive","negative","positive;negative",6.93147180559945,7.41427163116003,26,"Switch",NA,"negative",0
"187",187,"62d1972976dd315728ead6f9","distrust","test_val","abstract-negative","Valence","VC","A","negative",1,1728920974556,"negative",1972.5,910,"positive","negative","positive;negative",6.8134445995109,7.58705705272003,27,"Switch",NA,"negative",1
"188",188,"62d1972976dd315728ead6f9","piss","test_val","concrete-negative","Valence","VC","A","negative",1,1728920976227,"negative",1594,911,"positive","negative","positive;negative",6.81454289725996,7.37400185935016,28,"Switch",NA,"negative",1
"189",189,"62d1972976dd315728ead6f9","enlighten","test_val","abstract-positive","Valence","VC","A","positive",1,1728920977811,"positive",1785,825,"positive","negative","positive;negative",6.71538338633468,7.48717369421374,29,"Switch",NA,"positive",1
"190",190,"62d1972976dd315728ead6f9","bleed","test_val","concrete-negative","Valence","VC","A","negative",1,1728920979476,"negative",1634.5,911,"positive","negative","positive;negative",6.81454289725996,7.39909222616427,30,"Switch",NA,"negative",1
"191",191,"62d1972976dd315728ead6f9","eat","test_val","concrete-positive","Valence","VC","A","positive",1,1728920981011,"positive",1538.5,776,"positive","negative","positive;negative",6.65415252018322,7.3385631947621,31,"Switch",NA,"positive",1
"192",192,"62d1972976dd315728ead6f9","intimidate","test_val","abstract-negative","Valence","VC","A","negative",1,1728920982500,"negative",2010,730,"positive","negative","positive;negative",6.59304453414244,7.60589000105312,32,"Switch",NA,"negative",1
"193",193,"62d1972976dd315728ead6f9","barf","test_val","concrete-negative","Valence","VC","A","negative",1,1728920983948,"negative",1488.5,692,"positive","negative","positive;negative",6.53958595561767,7.30552418045583,33,"Switch",NA,"negative",1
"194",194,"62d1972976dd315728ead6f9","admired","test_val","abstract-positive","Valence","VC","A","positive",1,1728920985516,"positive",1610,810,"positive","negative","positive;negative",6.69703424766648,7.38398945797851,34,"Switch",NA,"positive",1
"195",195,"62d1972976dd315728ead6f9","puke","test_val","concrete-negative","Valence","VC","A","negative",1,1728920986876,"negative",1576.5,601,"positive","negative","positive;negative",6.39859493453521,7.36296247898512,35,"Switch",NA,"negative",1
"196",196,"62d1972976dd315728ead6f9","annoy","test_val","abstract-negative","Valence","VC","A","negative",1,1728920988354,"negative",1749,720,"positive","negative","positive;negative",6.5792512120101,7.4667994750186,36,"Switch",NA,"negative",1
"197",197,"62d1972976dd315728ead6f9","excite","test_val","abstract-positive","Valence","VC","A","positive",1,1728920989868,"positive",1756,758,"positive","negative","positive;negative",6.63068338564237,7.47079377419506,37,"Switch",NA,"positive",1
"198",198,"62d1972976dd315728ead6f9","zing","test_val","abstract-positive","Valence","VC","A","positive",1,1728920991494,"positive",1926,866,"positive","negative","positive;negative",6.76388490856244,7.56320059235807,38,"Switch",NA,"positive",1
"199",199,"62d1972976dd315728ead6f9","slap","test_val","concrete-negative","Valence","VC","A","negative",1,1728920993220,"negative",1833.5,973,"positive","negative","positive;negative",6.880384082186,7.51398198751138,39,"Switch",NA,"negative",1
"200",200,"62d1972976dd315728ead6f9","hate","test_val","abstract-negative","Valence","VC","A","negative",1,1728920994628,"negative",1552,648,"positive","negative","positive;negative",6.47389069635227,7.34729970074316,40,"Switch",NA,"negative",1
"201",201,"62d1972976dd315728ead6f9","sleep","test_conc","concrete-positive","Concrete","VC","A","abstract",0,1728921034459,"abstract",1525.5,811,"abstract","concrete","concrete;abstract",6.69826805411541,7.33007750415672,41,"NoSwitch",NA,"concrete",1
"202",202,"62d1972976dd315728ead6f9","admired","test_conc","abstract-positive","Concrete","VC","A","concrete",0,1728921036115,"concrete",1610,899,"abstract","concrete","concrete;abstract",6.80128303447162,7.38398945797851,42,"NoSwitch",NA,"abstract",1
"203",203,"62d1972976dd315728ead6f9","dance","test_conc","concrete-positive","Concrete","VC","A","abstract",0,1728921037748,"abstract",1699,874,"abstract","concrete","concrete;abstract",6.77308037565554,7.43779512167193,43,"NoSwitch",NA,"concrete",1
"204",204,"62d1972976dd315728ead6f9","cook","test_conc","concrete-positive","Concrete","VC","A","abstract",0,1728921039445,"abstract",1596,943,"abstract","concrete","concrete;abstract",6.84906628263346,7.37525577800975,44,"NoSwitch",NA,"concrete",1
"205",205,"62d1972976dd315728ead6f9","violate","test_conc","abstract-negative","Concrete","VC","A","abstract",1,1728921041516,"abstract",1786,1313,"abstract","concrete","concrete;abstract",7.1800698743028,7.48773376143644,45,"NoSwitch",NA,"concrete",0
"206",206,"62d1972976dd315728ead6f9","puke","test_conc","concrete-negative","Concrete","VC","A","abstract",0,1728921043315,"abstract",1576.5,1039,"abstract","concrete","concrete;abstract",6.94601399109923,7.36296247898512,46,"NoSwitch",NA,"concrete",1
"207",207,"62d1972976dd315728ead6f9","bleed","test_conc","concrete-negative","Concrete","VC","A","abstract",0,1728921044924,"abstract",1634.5,851,"abstract","concrete","concrete;abstract",6.74641212857337,7.39909222616427,47,"NoSwitch",NA,"concrete",1
"208",208,"62d1972976dd315728ead6f9","fulfill","test_conc","abstract-positive","Concrete","VC","A","concrete",0,1728921046739,"concrete",1800,1055,"abstract","concrete","concrete;abstract",6.96129604591017,7.49554194388426,48,"NoSwitch",NA,"abstract",1
"209",209,"62d1972976dd315728ead6f9","swing","test_conc","concrete-positive","Concrete","VC","A","abstract",0,1728921048827,"abstract",1866,1336,"abstract","concrete","concrete;abstract",7.19743535409659,7.53155238140729,49,"NoSwitch",NA,"concrete",1
"210",210,"62d1972976dd315728ead6f9","hope","test_conc","abstract-positive","Concrete","VC","A","abstract",1,1728921050538,"abstract",1727.5,953,"abstract","concrete","concrete;abstract",6.8596149036542,7.45443055564183,50,"NoSwitch",NA,"concrete",0
"211",211,"62d1972976dd315728ead6f9","spit","test_conc","concrete-negative","Concrete","VC","A","abstract",0,1728921052787,"abstract",1938.5,1495,"abstract","concrete","concrete;abstract",7.30988148582479,7.56966975711098,51,"NoSwitch",NA,"concrete",1
"212",212,"62d1972976dd315728ead6f9","intimidate","test_conc","abstract-negative","Concrete","VC","A","concrete",0,1728921055323,"concrete",2010,1777,"abstract","concrete","concrete;abstract",7.48268182815465,7.60589000105312,52,"NoSwitch",NA,"abstract",1
"213",213,"62d1972976dd315728ead6f9","bathe","test_conc","concrete-positive","Concrete","VC","A","abstract",0,1728921057019,"abstract",1749,942,"abstract","concrete","concrete;abstract",6.84800527457636,7.4667994750186,53,"NoSwitch",NA,"concrete",1
"214",214,"62d1972976dd315728ead6f9","excite","test_conc","abstract-positive","Concrete","VC","A","concrete",0,1728921059019,"concrete",1756,1245,"abstract","concrete","concrete;abstract",7.12689080889881,7.47079377419506,54,"NoSwitch",NA,"abstract",1
"215",215,"62d1972976dd315728ead6f9","hate","test_conc","abstract-negative","Concrete","VC","A","concrete",0,1728921060723,"concrete",1552,943,"abstract","concrete","concrete;abstract",6.84906628263346,7.34729970074316,55,"NoSwitch",NA,"abstract",1
"216",216,"62d1972976dd315728ead6f9","enlighten","test_conc","abstract-positive","Concrete","VC","A","concrete",0,1728921062714,"concrete",1785,1234,"abstract","concrete","concrete;abstract",7.11801620446533,7.48717369421374,56,"NoSwitch",NA,"abstract",1
"217",217,"62d1972976dd315728ead6f9","distrust","test_conc","abstract-negative","Concrete","VC","A","concrete",0,1728921064995,"concrete",1972.5,1527,"abstract","concrete","concrete;abstract",7.33106030521863,7.58705705272003,57,"NoSwitch",NA,"abstract",1
"218",218,"62d1972976dd315728ead6f9","barf","test_conc","concrete-negative","Concrete","VC","A","abstract",0,1728921066530,"abstract",1488.5,776,"abstract","concrete","concrete;abstract",6.65415252018322,7.30552418045583,58,"NoSwitch",NA,"concrete",1
"219",219,"62d1972976dd315728ead6f9","carjack","test_conc","concrete-negative","Concrete","VC","A","abstract",0,1728921069162,"abstract",2245.5,1879,"abstract","concrete","concrete;abstract",7.53849499941346,7.71668349252779,59,"NoSwitch",NA,"concrete",1
"220",220,"62d1972976dd315728ead6f9","slap","test_conc","concrete-negative","Concrete","VC","A","abstract",0,1728921071107,"abstract",1833.5,1186,"abstract","concrete","concrete;abstract",7.07834157955767,7.51398198751138,60,"NoSwitch",NA,"concrete",1
"221",221,"62d1972976dd315728ead6f9","zing","test_conc","abstract-positive","Concrete","VC","A","concrete",0,1728921073338,"concrete",1926,1470,"abstract","concrete","concrete;abstract",7.29301767977278,7.56320059235807,61,"NoSwitch",NA,"abstract",1
"222",222,"62d1972976dd315728ead6f9","disown","test_conc","abstract-negative","Concrete","VC","A","abstract",1,1728921076034,"abstract",2190.5,1935,"abstract","concrete","concrete;abstract",7.56786260546388,7.69188510725395,62,"NoSwitch",NA,"concrete",0
"223",223,"62d1972976dd315728ead6f9","displease","test_conc","abstract-negative","Concrete","VC","A","concrete",0,1728921078075,"concrete",2740.5,1281,"abstract","concrete","concrete;abstract",7.15539630189673,7.91589566448617,63,"NoSwitch",NA,"abstract",1
"224",224,"62d1972976dd315728ead6f9","laugh","test_conc","concrete-positive","Concrete","VC","A","abstract",0,1728921079899,"abstract",1685,1067,"abstract","concrete","concrete;abstract",6.97260625130175,7.42952084278646,64,"NoSwitch",NA,"concrete",1
"225",225,"62d1972976dd315728ead6f9","weep","test_conc","concrete-negative","Concrete","VC","A","abstract",0,1728921081556,"abstract",2059.5,899,"abstract","concrete","concrete;abstract",6.80128303447162,7.63021851387614,65,"NoSwitch",NA,"concrete",1
"226",226,"62d1972976dd315728ead6f9","inspire","test_conc","abstract-positive","Concrete","VC","A","concrete",0,1728921083100,"concrete",1659.5,788,"abstract","concrete","concrete;abstract",6.66949808985788,7.41427163116003,66,"NoSwitch",NA,"abstract",1
"227",227,"62d1972976dd315728ead6f9","vomit","test_conc","concrete-negative","Concrete","VC","A","abstract",0,1728921084723,"abstract",1652,864,"abstract","concrete","concrete;abstract",6.76157276880406,7.40974195408092,67,"NoSwitch",NA,"concrete",1
"228",228,"62d1972976dd315728ead6f9","sing","test_conc","concrete-positive","Concrete","VC","A","abstract",0,1728921087060,"abstract",1856.5,1577,"abstract","concrete","concrete;abstract",7.36327958696304,7.52644827361713,68,"NoSwitch",NA,"concrete",1
"229",229,"62d1972976dd315728ead6f9","degrade","test_conc","abstract-negative","Concrete","VC","A","abstract",1,1728921089062,"abstract",1833.5,1244,"abstract","concrete","concrete;abstract",7.12608727329912,7.51398198751138,69,"NoSwitch",NA,"concrete",0
"230",230,"62d1972976dd315728ead6f9","eat","test_conc","concrete-positive","Concrete","VC","A","abstract",0,1728921090610,"abstract",1538.5,790,"abstract","concrete","concrete;abstract",6.67203294546107,7.3385631947621,70,"NoSwitch",NA,"concrete",1
"231",231,"62d1972976dd315728ead6f9","convict","test_conc","concrete-negative","Concrete","VC","A","abstract",0,1728921092724,"abstract",1858,1358,"abstract","concrete","concrete;abstract",7.21376830811864,7.52725591937378,71,"NoSwitch",NA,"concrete",1
"232",232,"62d1972976dd315728ead6f9","smooch","test_conc","concrete-positive","Concrete","VC","A","abstract",0,1728921095107,"abstract",1853.5,1626,"abstract","concrete","concrete;abstract",7.39387829010776,7.52483102259079,72,"NoSwitch",NA,"concrete",1
"233",233,"62d1972976dd315728ead6f9","imagine","test_conc","abstract-positive","Concrete","VC","A","abstract",1,1728921097290,"abstract",1881,1425,"abstract","concrete","concrete;abstract",7.26192709270275,7.53955882930103,73,"NoSwitch",NA,"concrete",0
"234",234,"62d1972976dd315728ead6f9","piss","test_conc","concrete-negative","Concrete","VC","A","abstract",0,1728921098811,"abstract",1594,764,"abstract","concrete","concrete;abstract",6.63856778916652,7.37400185935016,74,"NoSwitch",NA,"concrete",1
"235",235,"62d1972976dd315728ead6f9","kiss","test_conc","concrete-positive","Concrete","VC","A","abstract",0,1728921100348,"abstract",1473.5,776,"abstract","concrete","concrete;abstract",6.65415252018322,7.29539580217775,75,"NoSwitch",NA,"concrete",1
"236",236,"62d1972976dd315728ead6f9","condemn","test_conc","abstract-negative","Concrete","VC","A","abstract",1,1728921102314,"abstract",1704.5,1207,"abstract","concrete","concrete;abstract",7.09589322109753,7.44102709157796,76,"NoSwitch",NA,"concrete",0
"237",237,"62d1972976dd315728ead6f9","believe","test_conc","abstract-positive","Concrete","VC","A","concrete",0,1728921104162,"concrete",1779,1091,"abstract","concrete","concrete;abstract",6.99484998583307,7.48380668766583,77,"NoSwitch",NA,"abstract",1
"238",238,"62d1972976dd315728ead6f9","wish","test_conc","abstract-positive","Concrete","VC","A","abstract",1,1728921106906,"abstract",2169,1987,"abstract","concrete","concrete;abstract",7.59438124255182,7.68202151082687,78,"NoSwitch",NA,"concrete",0
"239",239,"62d1972976dd315728ead6f9","annoy","test_conc","abstract-negative","Concrete","VC","A","abstract",1,1728921108930,"abstract",1749,1268,"abstract","concrete","concrete;abstract",7.14519613499717,7.4667994750186,79,"NoSwitch",NA,"concrete",0
"240",240,"62d1972976dd315728ead6f9","profane","test_conc","abstract-negative","Concrete","VC","A","abstract",1,1728921110642,"abstract",1682,957,"abstract","concrete","concrete;abstract",6.86380339145295,7.42773884053289,80,"NoSwitch",NA,"concrete",0
"241",241,"616202f3ca5b3ab47923ee80","believe","test_conc","abstract-positive","Concrete","CV","B","abstract",1,1728923912826,"abstract",1501,885,"concrete","abstract","concrete;abstract",6.78558764500793,7.31388683163346,1,"Switch",NA,"abstract",1
"242",242,"616202f3ca5b3ab47923ee80","cook","test_conc","concrete-positive","Concrete","CV","B","concrete",1,1728923916175,"concrete",2478,2593,"concrete","abstract","concrete;abstract",7.86057078553866,7.81520706218909,2,"Switch",NA,"concrete",1
"243",243,"616202f3ca5b3ab47923ee80","hope","test_conc","abstract-positive","Concrete","CV","B","abstract",1,1728923918256,"abstract",1718,1322,"concrete","abstract","concrete;abstract",7.18690102041163,7.4489161025442,3,"Switch",NA,"abstract",1
"244",244,"616202f3ca5b3ab47923ee80","enlighten","test_conc","abstract-positive","Concrete","CV","B","abstract",1,1728923922024,"abstract",2617.5,3010,"concrete","abstract","concrete;abstract",8.00969535774292,7.86997494274469,4,"Switch",NA,"abstract",1
"245",245,"616202f3ca5b3ab47923ee80","zing","test_conc","abstract-positive","Concrete","CV","B","abstract",1,1728923924934,"abstract",2165,2148,"concrete","abstract","concrete;abstract",7.67229245562876,7.68017564043659,5,"Switch",NA,"abstract",1
"246",246,"616202f3ca5b3ab47923ee80","swing","test_conc","concrete-positive","Concrete","CV","B","concrete",1,1728923927519,"concrete",2617,1826,"concrete","abstract","concrete;abstract",7.50988306115491,7.86978390253015,6,"Switch",NA,"concrete",1
"247",247,"616202f3ca5b3ab47923ee80","laugh","test_conc","concrete-positive","Concrete","CV","B","concrete",1,1728923929644,"concrete",1725.5,1368,"concrete","abstract","concrete;abstract",7.2211050981825,7.45327214253806,7,"Switch",NA,"concrete",1
"248",248,"616202f3ca5b3ab47923ee80","convict","test_conc","concrete-negative","Concrete","CV","B","concrete",1,1728923932190,"concrete",2032,1792,"concrete","abstract","concrete;abstract",7.49108759353488,7.61677580869837,8,"Switch",NA,"concrete",1
"249",249,"616202f3ca5b3ab47923ee80","inspire","test_conc","abstract-positive","Concrete","CV","B","abstract",1,1728923933900,"abstract",1516.5,951,"concrete","abstract","concrete;abstract",6.85751406254539,7.32416032712864,9,"Switch",NA,"abstract",1
"250",250,"616202f3ca5b3ab47923ee80","hate","test_conc","abstract-negative","Concrete","CV","B","abstract",1,1728923936210,"abstract",1815,1553,"concrete","abstract","concrete;abstract",7.34794382314869,7.50384074669895,10,"Switch",NA,"abstract",1
"251",251,"616202f3ca5b3ab47923ee80","eat","test_conc","concrete-positive","Concrete","CV","B","concrete",1,1728923941858,"concrete",3549.5,4893,"concrete","abstract","concrete;abstract",8.49556089128912,8.17456202747944,11,"Switch",NA,"concrete",1
"252",252,"616202f3ca5b3ab47923ee80","puke","test_conc","concrete-negative","Concrete","CV","B","concrete",1,1728923943465,"concrete",1470.5,845,"concrete","abstract","concrete;abstract",6.73933662735717,7.29335775799405,12,"Switch",NA,"concrete",1
"253",253,"616202f3ca5b3ab47923ee80","sing","test_conc","concrete-positive","Concrete","CV","B","concrete",1,1728923945720,"concrete",1884,1497,"concrete","abstract","concrete;abstract",7.31121838441963,7.54115245513631,13,"Switch",NA,"concrete",1
"254",254,"616202f3ca5b3ab47923ee80","condemn","test_conc","abstract-negative","Concrete","CV","B","abstract",1,1728923948122,"abstract",1999,1641,"concrete","abstract","concrete;abstract",7.40306109109009,7.6004023345004,14,"Switch",NA,"abstract",1
"255",255,"616202f3ca5b3ab47923ee80","intimidate","test_conc","abstract-negative","Concrete","CV","B","abstract",1,1728923949585,"abstract",1703.5,708,"concrete","abstract","concrete;abstract",6.56244409369372,7.44044023710102,15,"Switch",NA,"abstract",1
"256",256,"616202f3ca5b3ab47923ee80","fulfill","test_conc","abstract-positive","Concrete","CV","B","abstract",1,1728923952440,"abstract",2200,2094,"concrete","abstract","concrete;abstract",7.64683139143048,7.69621263934641,16,"Switch",NA,"abstract",1
"257",257,"616202f3ca5b3ab47923ee80","weep","test_conc","concrete-negative","Concrete","CV","B","concrete",1,1728923954844,"concrete",1985,1645,"concrete","abstract","concrete;abstract",7.40549566319947,7.59337419312129,17,"Switch",NA,"concrete",1
"258",258,"616202f3ca5b3ab47923ee80","bleed","test_conc","concrete-negative","Concrete","CV","B","concrete",1,1728923957282,"concrete",1981.5,1682,"concrete","abstract","concrete;abstract",7.42773884053289,7.59160941263049,18,"Switch",NA,"concrete",1
"259",259,"616202f3ca5b3ab47923ee80","annoy","test_conc","abstract-negative","Concrete","CV","B","abstract",1,1728923959065,"abstract",1651,1024,"concrete","abstract","concrete;abstract",6.93147180559945,7.40913644392013,19,"Switch",NA,"abstract",1
"260",260,"616202f3ca5b3ab47923ee80","kiss","test_conc","concrete-positive","Concrete","CV","B","concrete",1,1728923961165,"concrete",1847.5,1344,"concrete","abstract","concrete;abstract",7.20340552108309,7.52158865282236,20,"Switch",NA,"concrete",1
"261",261,"616202f3ca5b3ab47923ee80","profane","test_conc","abstract-negative","Concrete","CV","B","concrete",0,1728923963439,"concrete",2043.5,1511,"concrete","abstract","concrete;abstract",7.32052696227274,7.62241930300433,21,"Switch",NA,"concrete",0
"262",262,"616202f3ca5b3ab47923ee80","excite","test_conc","abstract-positive","Concrete","CV","B","abstract",1,1728923965460,"abstract",1760.5,1260,"concrete","abstract","concrete;abstract",7.13886699994552,7.47335313859511,22,"Switch",NA,"abstract",1
"263",263,"616202f3ca5b3ab47923ee80","imagine","test_conc","abstract-positive","Concrete","CV","B","abstract",1,1728923967128,"abstract",1524.5,908,"concrete","abstract","concrete;abstract",6.81124437860129,7.32942176642831,23,"Switch",NA,"abstract",1
"264",264,"616202f3ca5b3ab47923ee80","distrust","test_conc","abstract-negative","Concrete","CV","B","abstract",1,1728923968677,"abstract",1428.5,788,"concrete","abstract","concrete;abstract",6.66949808985788,7.26438022167083,24,"Switch",NA,"abstract",1
"265",265,"616202f3ca5b3ab47923ee80","piss","test_conc","concrete-negative","Concrete","CV","B","concrete",1,1728923970207,"concrete",1550,773,"concrete","abstract","concrete;abstract",6.65027904858742,7.34601020991329,25,"Switch",NA,"concrete",1
"266",266,"616202f3ca5b3ab47923ee80","disown","test_conc","abstract-negative","Concrete","CV","B","abstract",1,1728923971754,"abstract",1414,788,"concrete","abstract","concrete;abstract",6.66949808985788,7.25417784645652,26,"Switch",NA,"abstract",1
"267",267,"616202f3ca5b3ab47923ee80","admired","test_conc","abstract-positive","Concrete","CV","B","abstract",1,1728923973166,"abstract",1496,653,"concrete","abstract","concrete;abstract",6.48157712927643,7.31055015853442,27,"Switch",NA,"abstract",1
"268",268,"616202f3ca5b3ab47923ee80","displease","test_conc","abstract-negative","Concrete","CV","B","abstract",1,1728923974821,"abstract",1710.5,896,"concrete","abstract","concrete;abstract",6.79794041297493,7.44454100441766,28,"Switch",NA,"abstract",1
"269",269,"616202f3ca5b3ab47923ee80","barf","test_conc","concrete-negative","Concrete","CV","B","concrete",1,1728923976227,"concrete",1372.5,651,"concrete","abstract","concrete;abstract",6.47850964220857,7.22438917338369,29,"Switch",NA,"concrete",1
"270",270,"616202f3ca5b3ab47923ee80","violate","test_conc","abstract-negative","Concrete","CV","B","abstract",1,1728923977831,"abstract",1580.5,846,"concrete","abstract","concrete;abstract",6.74051935960622,7.36549653165567,30,"Switch",NA,"abstract",1
"271",271,"616202f3ca5b3ab47923ee80","degrade","test_conc","abstract-negative","Concrete","CV","B","abstract",1,1728923979232,"abstract",1466,644,"concrete","abstract","concrete;abstract",6.46769872610435,7.2902928824466,31,"Switch",NA,"abstract",1
"272",272,"616202f3ca5b3ab47923ee80","smooch","test_conc","concrete-positive","Concrete","CV","B","concrete",1,1728923980638,"concrete",1389,645,"concrete","abstract","concrete;abstract",6.46925031679577,7.23633934275434,32,"Switch",NA,"concrete",1
"273",273,"616202f3ca5b3ab47923ee80","vomit","test_conc","concrete-negative","Concrete","CV","B","concrete",1,1728923982001,"concrete",1412,602,"concrete","abstract","concrete;abstract",6.40025744530882,7.25276241805319,33,"Switch",NA,"concrete",1
"274",274,"616202f3ca5b3ab47923ee80","carjack","test_conc","concrete-negative","Concrete","CV","B","concrete",1,1728923983808,"concrete",1872,1046,"concrete","abstract","concrete;abstract",6.95272864462487,7.53476265703754,34,"Switch",NA,"concrete",1
"275",275,"616202f3ca5b3ab47923ee80","wish","test_conc","abstract-positive","Concrete","CV","B","abstract",1,1728923985401,"abstract",1546.5,834,"concrete","abstract","concrete;abstract",6.72623340235875,7.34374959212512,35,"Switch",NA,"abstract",1
"276",276,"616202f3ca5b3ab47923ee80","spit","test_conc","concrete-negative","Concrete","CV","B","concrete",1,1728923987105,"concrete",1727.5,943,"concrete","abstract","concrete;abstract",6.84906628263346,7.45443055564183,36,"Switch",NA,"concrete",1
"277",277,"616202f3ca5b3ab47923ee80","bathe","test_conc","concrete-positive","Concrete","CV","B","abstract",0,1728923988987,"abstract",1723,1125,"concrete","abstract","concrete;abstract",7.02553831463852,7.45182223652793,37,"Switch",NA,"abstract",0
"278",278,"616202f3ca5b3ab47923ee80","dance","test_conc","concrete-positive","Concrete","CV","B","abstract",0,1728923990954,"abstract",1624.5,1207,"concrete","abstract","concrete;abstract",7.09589322109753,7.39295535510916,38,"Switch",NA,"abstract",0
"279",279,"616202f3ca5b3ab47923ee80","sleep","test_conc","concrete-positive","Concrete","CV","B","abstract",0,1728923994339,"abstract",2439,2626,"concrete","abstract","concrete;abstract",7.87321705486274,7.79934339821592,39,"Switch",NA,"abstract",0
"280",280,"616202f3ca5b3ab47923ee80","slap","test_conc","concrete-negative","Concrete","CV","B","concrete",1,1728923995772,"concrete",1472.5,673,"concrete","abstract","concrete;abstract",6.51174532964473,7.29471691552574,40,"Switch",NA,"concrete",1
"281",281,"616202f3ca5b3ab47923ee80","admired","test_val","abstract-positive","Valence","CV","B","positive",1,1728924027726,"positive",1496,828,"negative","positive","negative;positive",6.71901315438526,7.31055015853442,41,"NoSwitch",NA,"positive",1
"282",282,"616202f3ca5b3ab47923ee80","degrade","test_val","abstract-negative","Valence","CV","B","negative",1,1728924029262,"negative",1466,780,"negative","positive","negative;positive",6.65929391968364,7.2902928824466,42,"NoSwitch",NA,"negative",1
"283",283,"616202f3ca5b3ab47923ee80","excite","test_val","abstract-positive","Valence","CV","B","positive",1,1728924030769,"positive",1760.5,752,"negative","positive","negative;positive",6.62273632394984,7.47335313859511,43,"NoSwitch",NA,"positive",1
"284",284,"616202f3ca5b3ab47923ee80","spit","test_val","concrete-negative","Valence","CV","B","negative",1,1728924032526,"negative",1727.5,997,"negative","positive","negative;positive",6.90475076996184,7.45443055564183,44,"NoSwitch",NA,"negative",1
"285",285,"616202f3ca5b3ab47923ee80","kiss","test_val","concrete-positive","Valence","CV","B","positive",1,1728924034126,"positive",1847.5,846,"negative","positive","negative;positive",6.74051935960622,7.52158865282236,45,"NoSwitch",NA,"positive",1
"286",286,"616202f3ca5b3ab47923ee80","condemn","test_val","abstract-negative","Valence","CV","B","negative",1,1728924035730,"negative",1999,841,"negative","positive","negative;positive",6.73459165997295,7.6004023345004,46,"NoSwitch",NA,"negative",1
"287",287,"616202f3ca5b3ab47923ee80","intimidate","test_val","abstract-negative","Valence","CV","B","negative",1,1728924037680,"negative",1703.5,1189,"negative","positive","negative;positive",7.08086789669078,7.44044023710102,47,"NoSwitch",NA,"negative",1
"288",288,"616202f3ca5b3ab47923ee80","fulfill","test_val","abstract-positive","Valence","CV","B","positive",1,1728924039231,"positive",2200,787,"negative","positive","negative;positive",6.6682282484174,7.69621263934641,48,"NoSwitch",NA,"positive",1
"289",289,"616202f3ca5b3ab47923ee80","swing","test_val","concrete-positive","Valence","CV","B","positive",1,1728924041885,"positive",2617,1894,"negative","positive","negative;positive",7.54644627374602,7.86978390253015,49,"NoSwitch",NA,"positive",1
"290",290,"616202f3ca5b3ab47923ee80","slap","test_val","concrete-negative","Valence","CV","B","negative",1,1728924043404,"negative",1472.5,757,"negative","positive","negative;positive",6.62936325343745,7.29471691552574,50,"NoSwitch",NA,"negative",1
"291",291,"616202f3ca5b3ab47923ee80","cook","test_val","concrete-positive","Valence","CV","B","positive",1,1728924045015,"positive",2478,853,"negative","positive","negative;positive",6.74875954749168,7.81520706218909,51,"NoSwitch",NA,"positive",1
"292",292,"616202f3ca5b3ab47923ee80","piss","test_val","concrete-negative","Valence","CV","B","negative",1,1728924046592,"negative",1550,817,"negative","positive","negative;positive",6.70563909486,7.34601020991329,52,"NoSwitch",NA,"negative",1
"293",293,"616202f3ca5b3ab47923ee80","bathe","test_val","concrete-positive","Valence","CV","B","positive",1,1728924048162,"positive",1723,809,"negative","positive","negative;positive",6.69579891705849,7.45182223652793,53,"NoSwitch",NA,"positive",1
"294",294,"616202f3ca5b3ab47923ee80","bleed","test_val","concrete-negative","Valence","CV","B","negative",1,1728924049693,"negative",1981.5,773,"negative","positive","negative;positive",6.65027904858742,7.59160941263049,54,"NoSwitch",NA,"negative",1
"295",295,"616202f3ca5b3ab47923ee80","vomit","test_val","concrete-negative","Valence","CV","B","negative",1,1728924051158,"negative",1412,706,"negative","positive","negative;positive",6.55961523749324,7.25276241805319,55,"NoSwitch",NA,"negative",1
"296",296,"616202f3ca5b3ab47923ee80","enlighten","test_val","abstract-positive","Valence","CV","B","positive",1,1728924052630,"positive",2617.5,715,"negative","positive","negative;positive",6.57228254269401,7.86997494274469,56,"NoSwitch",NA,"positive",1
"297",297,"616202f3ca5b3ab47923ee80","carjack","test_val","concrete-negative","Valence","CV","B","negative",1,1728924054573,"negative",1872,1187,"negative","positive","negative;positive",7.07918439460967,7.53476265703754,57,"NoSwitch",NA,"negative",1
"298",298,"616202f3ca5b3ab47923ee80","sing","test_val","concrete-positive","Valence","CV","B","positive",1,1728924056092,"positive",1884,762,"negative","positive","negative;positive",6.63594655568665,7.54115245513631,58,"NoSwitch",NA,"positive",1
"299",299,"616202f3ca5b3ab47923ee80","puke","test_val","concrete-negative","Valence","CV","B","negative",1,1728924057433,"negative",1470.5,580,"negative","positive","negative;positive",6.36302810354046,7.29335775799405,59,"NoSwitch",NA,"negative",1
"300",300,"616202f3ca5b3ab47923ee80","wish","test_val","abstract-positive","Valence","CV","B","positive",1,1728924058939,"positive",1546.5,749,"negative","positive","negative;positive",6.61873898351722,7.34374959212512,60,"NoSwitch",NA,"positive",1
"301",301,"616202f3ca5b3ab47923ee80","laugh","test_val","concrete-positive","Valence","CV","B","positive",1,1728924060269,"positive",1725.5,571,"negative","positive","negative;positive",6.34738920965601,7.45327214253806,61,"NoSwitch",NA,"positive",1
"302",302,"616202f3ca5b3ab47923ee80","dance","test_val","concrete-positive","Valence","CV","B","positive",1,1728924061557,"positive",1624.5,531,"negative","positive","negative;positive",6.27476202124194,7.39295535510916,62,"NoSwitch",NA,"positive",1
"303",303,"616202f3ca5b3ab47923ee80","zing","test_val","abstract-positive","Valence","CV","B","negative",0,1728924062981,"negative",2165,662,"negative","positive","negative;positive",6.49526555593701,7.68017564043659,63,"NoSwitch",NA,"negative",0
"304",304,"616202f3ca5b3ab47923ee80","hate","test_val","abstract-negative","Valence","CV","B","negative",1,1728924064306,"negative",1815,564,"negative","positive","negative;positive",6.33505425149806,7.50384074669895,64,"NoSwitch",NA,"negative",1
"305",305,"616202f3ca5b3ab47923ee80","smooch","test_val","concrete-positive","Valence","CV","B","positive",1,1728924065684,"positive",1389,617,"negative","positive","negative;positive",6.42486902390539,7.23633934275434,65,"NoSwitch",NA,"positive",1
"306",306,"616202f3ca5b3ab47923ee80","eat","test_val","concrete-positive","Valence","CV","B","positive",1,1728924067140,"positive",3549.5,699,"negative","positive","negative;positive",6.54965074223381,8.17456202747944,66,"NoSwitch",NA,"positive",1
"307",307,"616202f3ca5b3ab47923ee80","believe","test_val","abstract-positive","Valence","CV","B","positive",1,1728924068503,"positive",1501,604,"negative","positive","negative;positive",6.40357419793482,7.31388683163346,67,"NoSwitch",NA,"positive",1
"308",308,"616202f3ca5b3ab47923ee80","distrust","test_val","abstract-negative","Valence","CV","B","negative",1,1728924069817,"negative",1428.5,557,"negative","positive","negative;positive",6.32256523992728,7.26438022167083,68,"NoSwitch",NA,"negative",1
"309",309,"616202f3ca5b3ab47923ee80","disown","test_val","abstract-negative","Valence","CV","B","negative",1,1728924071103,"negative",1414,528,"negative","positive","negative;positive",6.26909628370626,7.25417784645652,69,"NoSwitch",NA,"negative",1
"310",310,"616202f3ca5b3ab47923ee80","profane","test_val","abstract-negative","Valence","CV","B","negative",1,1728924072922,"negative",2043.5,1057,"negative","positive","negative;positive",6.96318998587024,7.62241930300433,70,"NoSwitch",NA,"negative",1
"311",311,"616202f3ca5b3ab47923ee80","hope","test_val","abstract-positive","Valence","CV","B","positive",1,1728924074283,"positive",1718,602,"negative","positive","negative;positive",6.40025744530882,7.4489161025442,71,"NoSwitch",NA,"positive",1
"312",312,"616202f3ca5b3ab47923ee80","weep","test_val","concrete-negative","Valence","CV","B","negative",1,1728924075854,"negative",1985,810,"negative","positive","negative;positive",6.69703424766648,7.59337419312129,72,"NoSwitch",NA,"negative",1
"313",313,"616202f3ca5b3ab47923ee80","barf","test_val","concrete-negative","Valence","CV","B","negative",1,1728924077196,"negative",1372.5,583,"negative","positive","negative;positive",6.36818718635049,7.22438917338369,73,"NoSwitch",NA,"negative",1
"314",314,"616202f3ca5b3ab47923ee80","inspire","test_val","abstract-positive","Valence","CV","B","positive",1,1728924078525,"positive",1516.5,571,"negative","positive","negative;positive",6.34738920965601,7.32416032712864,74,"NoSwitch",NA,"positive",1
"315",315,"616202f3ca5b3ab47923ee80","annoy","test_val","abstract-negative","Valence","CV","B","negative",1,1728924080050,"negative",1651,767,"negative","positive","negative;positive",6.64248680136726,7.40913644392013,75,"NoSwitch",NA,"negative",1
"316",316,"616202f3ca5b3ab47923ee80","convict","test_val","concrete-negative","Valence","CV","B","negative",1,1728924081573,"negative",2032,763,"negative","positive","negative;positive",6.63725803128446,7.61677580869837,76,"NoSwitch",NA,"negative",1
"317",317,"616202f3ca5b3ab47923ee80","imagine","test_val","abstract-positive","Valence","CV","B","positive",1,1728924082960,"positive",1524.5,629,"negative","positive","negative;positive",6.44413125670044,7.32942176642831,77,"NoSwitch",NA,"positive",1
"318",318,"616202f3ca5b3ab47923ee80","violate","test_val","abstract-negative","Valence","CV","B","negative",1,1728924084522,"negative",1580.5,802,"negative","positive","negative;positive",6.68710860786651,7.36549653165567,78,"NoSwitch",NA,"negative",1
"319",319,"616202f3ca5b3ab47923ee80","sleep","test_val","concrete-positive","Valence","CV","B","positive",1,1728924086022,"positive",2439,740,"negative","positive","negative;positive",6.60665018619822,7.79934339821592,79,"NoSwitch",NA,"positive",1
"320",320,"616202f3ca5b3ab47923ee80","displease","test_val","abstract-negative","Valence","CV","B","negative",1,1728924087795,"negative",1710.5,1011,"negative","positive","negative;positive",6.91869521902047,7.44454100441766,80,"NoSwitch",NA,"negative",1
"321",321,"5c3388fa01439b0001a0adfe","hate","test_conc","abstract-negative","Concrete","CV","A","concrete",0,1728924748634,"concrete",1402,741,"abstract","concrete","concrete;abstract",6.60800062529609,7.24565506759454,1,"NoSwitch",NA,"abstract",1
"322",322,"5c3388fa01439b0001a0adfe","bleed","test_conc","concrete-negative","Concrete","CV","A","abstract",0,1728924750858,"abstract",1916,1469,"abstract","concrete","concrete;abstract",7.29233717617388,7.55799495853081,2,"NoSwitch",NA,"concrete",1
"323",323,"5c3388fa01439b0001a0adfe","sleep","test_conc","concrete-positive","Concrete","CV","A","abstract",0,1728924752830,"abstract",3791,1212,"abstract","concrete","concrete;abstract",7.10002716662926,8.24038511551633,3,"NoSwitch",NA,"concrete",1
"324",324,"5c3388fa01439b0001a0adfe","vomit","test_conc","concrete-negative","Concrete","CV","A","abstract",0,1728924754240,"abstract",1396.5,652,"abstract","concrete","concrete;abstract",6.48004456192665,7.24172438538523,4,"NoSwitch",NA,"concrete",1
"325",325,"5c3388fa01439b0001a0adfe","hope","test_conc","abstract-positive","Concrete","CV","A","concrete",0,1728924755661,"concrete",1418.5,666,"abstract","concrete","concrete;abstract",6.50128967054039,7.25735525424891,5,"NoSwitch",NA,"abstract",1
"326",326,"5c3388fa01439b0001a0adfe","profane","test_conc","abstract-negative","Concrete","CV","A","concrete",0,1728924757657,"concrete",2819.5,1240,"abstract","concrete","concrete;abstract",7.12286665859908,7.94431484324724,6,"NoSwitch",NA,"abstract",1
"327",327,"5c3388fa01439b0001a0adfe","displease","test_conc","abstract-negative","Concrete","CV","A","concrete",0,1728924759202,"concrete",1491,792,"abstract","concrete","concrete;abstract",6.67456139181443,7.30720231476474,7,"NoSwitch",NA,"abstract",1
"328",328,"5c3388fa01439b0001a0adfe","annoy","test_conc","abstract-negative","Concrete","CV","A","concrete",0,1728924760703,"concrete",1638.5,744,"abstract","concrete","concrete;abstract",6.61204103483309,7.40153646813887,8,"NoSwitch",NA,"abstract",1
"329",329,"5c3388fa01439b0001a0adfe","excite","test_conc","abstract-positive","Concrete","CV","A","concrete",0,1728924762083,"concrete",1382,623,"abstract","concrete","concrete;abstract",6.43454651878745,7.23128700432762,9,"NoSwitch",NA,"abstract",1
"330",330,"5c3388fa01439b0001a0adfe","cook","test_conc","concrete-positive","Concrete","CV","A","concrete",1,1728924763927,"concrete",1853,1086,"abstract","concrete","concrete;abstract",6.99025650049388,7.52456122628536,10,"NoSwitch",NA,"abstract",0
"331",331,"5c3388fa01439b0001a0adfe","puke","test_conc","concrete-negative","Concrete","CV","A","abstract",0,1728924766062,"abstract",1714.5,1380,"abstract","concrete","concrete;abstract",7.22983877815125,7.44687677190297,11,"NoSwitch",NA,"concrete",1
"332",332,"5c3388fa01439b0001a0adfe","intimidate","test_conc","abstract-negative","Concrete","CV","A","concrete",0,1728924768043,"concrete",1651,1227,"abstract","concrete","concrete;abstract",7.11232744471091,7.40913644392013,12,"NoSwitch",NA,"abstract",1
"333",333,"5c3388fa01439b0001a0adfe","piss","test_conc","concrete-negative","Concrete","CV","A","abstract",0,1728924770470,"abstract",3092.5,1670,"abstract","concrete","concrete;abstract",7.4205789054108,8.03673510426664,13,"NoSwitch",NA,"concrete",1
"334",334,"5c3388fa01439b0001a0adfe","degrade","test_conc","abstract-negative","Concrete","CV","A","concrete",0,1728924772076,"concrete",1773,846,"abstract","concrete","concrete;abstract",6.74051935960622,7.48042830607421,14,"NoSwitch",NA,"abstract",1
"335",335,"5c3388fa01439b0001a0adfe","wish","test_conc","abstract-positive","Concrete","CV","A","concrete",0,1728924773740,"concrete",1602,908,"abstract","concrete","concrete;abstract",6.81124437860129,7.3790081276283,15,"NoSwitch",NA,"abstract",1
"336",336,"5c3388fa01439b0001a0adfe","admired","test_conc","abstract-positive","Concrete","CV","A","concrete",0,1728924775090,"concrete",1425.5,591,"abstract","concrete","concrete;abstract",6.3818160174061,7.26227790835273,16,"NoSwitch",NA,"abstract",1
"337",337,"5c3388fa01439b0001a0adfe","spit","test_conc","concrete-negative","Concrete","CV","A","abstract",0,1728924776709,"abstract",1980,858,"abstract","concrete","concrete;abstract",6.75460409948796,7.59085212368858,17,"NoSwitch",NA,"concrete",1
"338",338,"5c3388fa01439b0001a0adfe","weep","test_conc","concrete-negative","Concrete","CV","A","abstract",0,1728924778274,"abstract",1486.5,809,"abstract","concrete","concrete;abstract",6.69579891705849,7.30417964243815,18,"NoSwitch",NA,"concrete",1
"339",339,"5c3388fa01439b0001a0adfe","swing","test_conc","concrete-positive","Concrete","CV","A","abstract",0,1728924780162,"abstract",1863,1133,"abstract","concrete","concrete;abstract",7.03262426102801,7.52994337060159,19,"NoSwitch",NA,"concrete",1
"340",340,"5c3388fa01439b0001a0adfe","imagine","test_conc","abstract-positive","Concrete","CV","A","concrete",0,1728924781982,"concrete",1610,1064,"abstract","concrete","concrete;abstract",6.96979066990159,7.38398945797851,20,"NoSwitch",NA,"abstract",1
"341",341,"5c3388fa01439b0001a0adfe","disown","test_conc","abstract-negative","Concrete","CV","A","concrete",0,1728924783925,"concrete",2073.5,1184,"abstract","concrete","concrete;abstract",7.07665381544395,7.63699327968644,21,"NoSwitch",NA,"abstract",1
"342",342,"5c3388fa01439b0001a0adfe","eat","test_conc","concrete-positive","Concrete","CV","A","abstract",0,1728924785529,"abstract",1810,845,"abstract","concrete","concrete;abstract",6.73933662735717,7.50108212425987,22,"NoSwitch",NA,"concrete",1
"343",343,"5c3388fa01439b0001a0adfe","distrust","test_conc","abstract-negative","Concrete","CV","A","concrete",0,1728924786968,"concrete",1362.5,682,"abstract","concrete","concrete;abstract",6.52502965784346,7.2170765265374,23,"NoSwitch",NA,"abstract",1
"344",344,"5c3388fa01439b0001a0adfe","laugh","test_conc","concrete-positive","Concrete","CV","A","abstract",0,1728924788693,"abstract",2360.5,968,"abstract","concrete","concrete;abstract",6.87523208727658,7.76662873998634,24,"NoSwitch",NA,"concrete",1
"345",345,"5c3388fa01439b0001a0adfe","dance","test_conc","concrete-positive","Concrete","CV","A","abstract",0,1728924790403,"abstract",1578.5,951,"abstract","concrete","concrete;abstract",6.85751406254539,7.36423030799805,25,"NoSwitch",NA,"concrete",1
"346",346,"5c3388fa01439b0001a0adfe","smooch","test_conc","concrete-positive","Concrete","CV","A","abstract",0,1728924791811,"abstract",1486.5,652,"abstract","concrete","concrete;abstract",6.48004456192665,7.30417964243815,26,"NoSwitch",NA,"concrete",1
"347",347,"5c3388fa01439b0001a0adfe","inspire","test_conc","abstract-positive","Concrete","CV","A","concrete",0,1728924793438,"concrete",1470.5,871,"abstract","concrete","concrete;abstract",6.7696419768525,7.29335775799405,27,"NoSwitch",NA,"abstract",1
"348",348,"5c3388fa01439b0001a0adfe","condemn","test_conc","abstract-negative","Concrete","CV","A","concrete",0,1728924794828,"concrete",1351.5,632,"abstract","concrete","concrete;abstract",6.44888939414686,7.2089703657165,28,"NoSwitch",NA,"abstract",1
"349",349,"5c3388fa01439b0001a0adfe","slap","test_conc","concrete-negative","Concrete","CV","A","abstract",0,1728924796388,"abstract",1593,802,"abstract","concrete","concrete;abstract",6.68710860786651,7.37337430991005,29,"NoSwitch",NA,"concrete",1
"350",350,"5c3388fa01439b0001a0adfe","kiss","test_conc","concrete-positive","Concrete","CV","A","abstract",0,1728924797717,"abstract",1370,571,"abstract","concrete","concrete;abstract",6.34738920965601,7.22256601882217,30,"NoSwitch",NA,"concrete",1
"351",351,"5c3388fa01439b0001a0adfe","fulfill","test_conc","abstract-positive","Concrete","CV","A","concrete",0,1728924799217,"concrete",1440,743,"abstract","concrete","concrete;abstract",6.61069604471776,7.27239839257005,31,"NoSwitch",NA,"abstract",1
"352",352,"5c3388fa01439b0001a0adfe","zing","test_conc","abstract-positive","Concrete","CV","A","concrete",0,1728924800601,"concrete",1566,627,"abstract","concrete","concrete;abstract",6.44094654063292,7.35627987655075,32,"NoSwitch",NA,"abstract",1
"353",353,"5c3388fa01439b0001a0adfe","sing","test_conc","concrete-positive","Concrete","CV","A","abstract",0,1728924802029,"abstract",1385.5,669,"abstract","concrete","concrete;abstract",6.50578406012823,7.23381636430303,33,"NoSwitch",NA,"concrete",1
"354",354,"5c3388fa01439b0001a0adfe","bathe","test_conc","concrete-positive","Concrete","CV","A","abstract",0,1728924803444,"abstract",2109,657,"abstract","concrete","concrete;abstract",6.48768401848461,7.65396918047877,34,"NoSwitch",NA,"concrete",1
"355",355,"5c3388fa01439b0001a0adfe","believe","test_conc","abstract-positive","Concrete","CV","A","concrete",0,1728924804805,"concrete",1474,605,"abstract","concrete","concrete;abstract",6.40522845803084,7.29573507274928,35,"NoSwitch",NA,"abstract",1
"356",356,"5c3388fa01439b0001a0adfe","barf","test_conc","concrete-negative","Concrete","CV","A","abstract",0,1728924806167,"abstract",1551.5,606,"abstract","concrete","concrete;abstract",6.40687998606931,7.34697748388843,36,"NoSwitch",NA,"concrete",1
"357",357,"5c3388fa01439b0001a0adfe","convict","test_conc","concrete-negative","Concrete","CV","A","concrete",1,1728924807923,"concrete",1558.5,1003,"abstract","concrete","concrete;abstract",6.91075078796194,7.35147909920739,37,"NoSwitch",NA,"abstract",0
"358",358,"5c3388fa01439b0001a0adfe","carjack","test_conc","concrete-negative","Concrete","CV","A","abstract",0,1728924809529,"abstract",1630,851,"abstract","concrete","concrete;abstract",6.74641212857337,7.39633529380081,38,"NoSwitch",NA,"concrete",1
"359",359,"5c3388fa01439b0001a0adfe","enlighten","test_conc","abstract-positive","Concrete","CV","A","concrete",0,1728924811085,"concrete",1569.5,799,"abstract","concrete","concrete;abstract",6.68336094576627,7.35851237628201,39,"NoSwitch",NA,"abstract",1
"360",360,"5c3388fa01439b0001a0adfe","violate","test_conc","abstract-negative","Concrete","CV","A","concrete",0,1728924812485,"concrete",1516.5,644,"abstract","concrete","concrete;abstract",6.46769872610435,7.32416032712864,40,"NoSwitch",NA,"abstract",1
"361",361,"5c3388fa01439b0001a0adfe","displease","test_val","abstract-negative","Valence","CV","A","positive",0,1728924849360,"positive",1491,683,"positive","negative","positive;negative",6.52649485957079,7.30720231476474,41,"Switch",NA,"positive",0
"362",362,"5c3388fa01439b0001a0adfe","piss","test_val","concrete-negative","Valence","CV","A","negative",1,1728924853122,"negative",3092.5,3007,"positive","negative","positive;negative",8.00869818298853,8.03673510426664,42,"Switch",NA,"negative",1
"363",363,"5c3388fa01439b0001a0adfe","sleep","test_val","concrete-positive","Valence","CV","A","positive",1,1728924858736,"positive",3791,4854,"positive","negative","positive;negative",8.48755838628655,8.24038511551633,43,"Switch",NA,"positive",1
"364",364,"5c3388fa01439b0001a0adfe","degrade","test_val","abstract-negative","Valence","CV","A","negative",1,1728924860679,"negative",1773,1190,"positive","negative","positive;negative",7.08170858610557,7.48042830607421,44,"Switch",NA,"negative",1
"365",365,"5c3388fa01439b0001a0adfe","bathe","test_val","concrete-positive","Valence","CV","A","positive",1,1728924863488,"positive",2109,2048,"positive","negative","positive;negative",7.6246189861594,7.65396918047877,45,"Switch",NA,"positive",1
"366",366,"5c3388fa01439b0001a0adfe","eat","test_val","concrete-positive","Valence","CV","A","positive",1,1728924865509,"positive",1810,1264,"positive","negative","positive;negative",7.1420365747068,7.50108212425987,46,"Switch",NA,"positive",1
"367",367,"5c3388fa01439b0001a0adfe","profane","test_val","abstract-negative","Valence","CV","A","negative",1,1728924869153,"negative",2819.5,2888,"positive","negative","positive;negative",7.96831950001272,7.94431484324724,47,"Switch",NA,"negative",1
"368",368,"5c3388fa01439b0001a0adfe","dance","test_val","concrete-positive","Valence","CV","A","positive",1,1728924870604,"positive",1578.5,693,"positive","negative","positive;negative",6.5410299991899,7.36423030799805,48,"Switch",NA,"positive",1
"369",369,"5c3388fa01439b0001a0adfe","annoy","test_val","abstract-negative","Valence","CV","A","negative",1,1728924872384,"negative",1638.5,1020,"positive","negative","positive;negative",6.92755790627832,7.40153646813887,49,"Switch",NA,"negative",1
"370",370,"5c3388fa01439b0001a0adfe","cook","test_val","concrete-positive","Valence","CV","A","positive",1,1728924874250,"positive",1853,1108,"positive","negative","positive;negative",7.01031186730723,7.52456122628536,50,"Switch",NA,"positive",1
"371",371,"5c3388fa01439b0001a0adfe","smooch","test_val","concrete-positive","Valence","CV","A","positive",1,1728924875819,"positive",1486.5,814,"positive","negative","positive;negative",6.70196036600254,7.30417964243815,51,"Switch",NA,"positive",1
"372",372,"5c3388fa01439b0001a0adfe","admired","test_val","abstract-positive","Valence","CV","A","positive",1,1728924877325,"positive",1425.5,747,"positive","negative","positive;negative",6.61606518513282,7.26227790835273,52,"Switch",NA,"positive",1
"373",373,"5c3388fa01439b0001a0adfe","laugh","test_val","concrete-positive","Valence","CV","A","positive",1,1728924880324,"positive",2360.5,2240,"positive","negative","positive;negative",7.71423114484909,7.76662873998634,53,"Switch",NA,"positive",1
"374",374,"5c3388fa01439b0001a0adfe","barf","test_val","concrete-negative","Valence","CV","A","negative",1,1728924882068,"negative",1551.5,984,"positive","negative","positive;negative",6.89162589705225,7.34697748388843,54,"Switch",NA,"negative",1
"375",375,"5c3388fa01439b0001a0adfe","believe","test_val","abstract-positive","Valence","CV","A","positive",1,1728924883660,"positive",1474,835,"positive","negative","positive;negative",6.72743172485086,7.29573507274928,55,"Switch",NA,"positive",1
"376",376,"5c3388fa01439b0001a0adfe","violate","test_val","abstract-negative","Valence","CV","A","negative",1,1728924885296,"negative",1516.5,878,"positive","negative","positive;negative",6.77764659363512,7.32416032712864,56,"Switch",NA,"negative",1
"377",377,"5c3388fa01439b0001a0adfe","enlighten","test_val","abstract-positive","Valence","CV","A","positive",1,1728924886883,"positive",1569.5,832,"positive","negative","positive;negative",6.72383244082121,7.35851237628201,57,"Switch",NA,"positive",1
"378",378,"5c3388fa01439b0001a0adfe","carjack","test_val","concrete-negative","Valence","CV","A","negative",1,1728924888539,"negative",1630,897,"positive","negative","positive;negative",6.7990558620588,7.39633529380081,58,"Switch",NA,"negative",1
"379",379,"5c3388fa01439b0001a0adfe","excite","test_val","abstract-positive","Valence","CV","A","positive",1,1728924889926,"positive",1382,630,"positive","negative","positive;negative",6.44571981938558,7.23128700432762,59,"Switch",NA,"positive",1
"380",380,"5c3388fa01439b0001a0adfe","sing","test_val","concrete-positive","Valence","CV","A","positive",1,1728924891273,"positive",1385.5,590,"positive","negative","positive;negative",6.38012253689976,7.23381636430303,60,"Switch",NA,"positive",1
"381",381,"5c3388fa01439b0001a0adfe","spit","test_val","concrete-negative","Valence","CV","A","negative",1,1728924893618,"negative",1980,1588,"positive","negative","positive;negative",7.37023064180708,7.59085212368858,61,"Switch",NA,"negative",1
"382",382,"5c3388fa01439b0001a0adfe","disown","test_val","abstract-negative","Valence","CV","A","negative",1,1728924895827,"negative",2073.5,1451,"positive","negative","positive;negative",7.28000825288419,7.63699327968644,62,"Switch",NA,"negative",1
"383",383,"5c3388fa01439b0001a0adfe","fulfill","test_val","abstract-positive","Valence","CV","A","positive",1,1728924897210,"positive",1440,623,"positive","negative","positive;negative",6.43454651878745,7.27239839257005,63,"Switch",NA,"positive",1
"384",384,"5c3388fa01439b0001a0adfe","intimidate","test_val","abstract-negative","Valence","CV","A","positive",0,1728924898534,"positive",1651,567,"positive","negative","positive;negative",6.34035930372775,7.40913644392013,64,"Switch",NA,"positive",0
"385",385,"5c3388fa01439b0001a0adfe","wish","test_val","abstract-positive","Valence","CV","A","positive",1,1728924900079,"positive",1602,784,"positive","negative","positive;negative",6.66440902035041,7.3790081276283,65,"Switch",NA,"positive",1
"386",386,"5c3388fa01439b0001a0adfe","zing","test_val","abstract-positive","Valence","CV","A","positive",1,1728924901831,"positive",1566,997,"positive","negative","positive;negative",6.90475076996184,7.35627987655075,66,"Switch",NA,"positive",1
"387",387,"5c3388fa01439b0001a0adfe","kiss","test_val","concrete-positive","Valence","CV","A","positive",1,1728924903245,"positive",1370,658,"positive","negative","positive;negative",6.48920493132532,7.22256601882217,67,"Switch",NA,"positive",1
"388",388,"5c3388fa01439b0001a0adfe","hope","test_val","abstract-positive","Valence","CV","A","positive",1,1728924904664,"positive",1418.5,663,"positive","negative","positive;negative",6.49677499018586,7.25735525424891,68,"Switch",NA,"positive",1
"389",389,"5c3388fa01439b0001a0adfe","distrust","test_val","abstract-negative","Valence","CV","A","negative",1,1728924905955,"negative",1362.5,532,"positive","negative","positive;negative",6.27664348934164,7.2170765265374,69,"Switch",NA,"negative",1
"390",390,"5c3388fa01439b0001a0adfe","convict","test_val","concrete-negative","Valence","CV","A","negative",1,1728924907320,"negative",1558.5,611,"positive","negative","positive;negative",6.4150969591716,7.35147909920739,70,"Switch",NA,"negative",1
"391",391,"5c3388fa01439b0001a0adfe","imagine","test_val","abstract-positive","Valence","CV","A","positive",1,1728924908724,"positive",1610,649,"positive","negative","positive;negative",6.47543271670409,7.38398945797851,71,"Switch",NA,"positive",1
"392",392,"5c3388fa01439b0001a0adfe","hate","test_val","abstract-negative","Valence","CV","A","negative",1,1728924910032,"negative",1402,551,"positive","negative","positive;negative",6.31173480915291,7.24565506759454,72,"Switch",NA,"negative",1
"393",393,"5c3388fa01439b0001a0adfe","slap","test_val","concrete-negative","Valence","CV","A","negative",1,1728924911663,"negative",1593,875,"positive","negative","positive;negative",6.77422388635761,7.37337430991005,73,"Switch",NA,"negative",1
"394",394,"5c3388fa01439b0001a0adfe","vomit","test_val","concrete-negative","Valence","CV","A","negative",1,1728924913051,"negative",1396.5,630,"positive","negative","positive;negative",6.44571981938558,7.24172438538523,74,"Switch",NA,"negative",1
"395",395,"5c3388fa01439b0001a0adfe","swing","test_val","concrete-positive","Valence","CV","A","negative",0,1728924914892,"negative",1863,1088,"positive","negative","positive;negative",6.99209642741589,7.52994337060159,75,"Switch",NA,"negative",0
"396",396,"5c3388fa01439b0001a0adfe","weep","test_val","concrete-negative","Valence","CV","A","negative",1,1728924916303,"negative",1486.5,654,"positive","negative","positive;negative",6.4831073514572,7.30417964243815,76,"Switch",NA,"negative",1
"397",397,"5c3388fa01439b0001a0adfe","inspire","test_val","abstract-positive","Valence","CV","A","positive",1,1728924917623,"positive",1470.5,559,"positive","negative","positive;negative",6.3261494731551,7.29335775799405,77,"Switch",NA,"positive",1
"398",398,"5c3388fa01439b0001a0adfe","condemn","test_val","abstract-negative","Valence","CV","A","negative",1,1728924918940,"negative",1351.5,562,"positive","negative","positive;negative",6.33150184989369,7.2089703657165,78,"Switch",NA,"negative",1
"399",399,"5c3388fa01439b0001a0adfe","puke","test_val","concrete-negative","Valence","CV","A","negative",1,1728924920238,"negative",1714.5,544,"positive","negative","positive;negative",6.29894924685594,7.44687677190297,79,"Switch",NA,"negative",1
"400",400,"5c3388fa01439b0001a0adfe","bleed","test_val","concrete-negative","Valence","CV","A","negative",1,1728924921851,"negative",1916,855,"positive","negative","positive;negative",6.75110146893676,7.55799495853081,80,"Switch",NA,"negative",1
