"","ID.true","Word","Label","Task","BlockOrder","EventTime","Value","ReactionTime","Key_value_F","Key_value_J","Comments","Group","LogReactionTime","TrialNumber"
"1","638f6f1ebb540eedd7097e44","kitten","calibrator_val","Valence","VC",1728920954097,"positive",2561,"negative","positive","negative;positive","B",7.84815308619953,1
"2","638f6f1ebb540eedd7097e44","grin","calibrator_val","Valence","VC",1728920956471,"positive",1611,"negative","positive","negative;positive","B",7.38461038317697,2
"3","638f6f1ebb540eedd7097e44","joke","calibrator_val","Valence","VC",1728920958485,"positive",1255,"negative","positive","negative;positive","B",7.13489085156588,3
"4","638f6f1ebb540eedd7097e44","insecure","calibrator_val","Valence","VC",1728920961822,"negative",2575,"negative","positive","negative;positive","B",7.85360481309784,4
"5","638f6f1ebb540eedd7097e44","industry","calibrator_val","Valence","VC",1728920963744,"positive",1162,"negative","positive","negative;positive","B",7.05789793741186,5
"6","638f6f1ebb540eedd7097e44","jail","calibrator_val","Valence","VC",1728920965569,"negative",1064,"negative","positive","negative;positive","B",6.96979066990159,6
"7","638f6f1ebb540eedd7097e44","hat","calibrator_val","Valence","VC",1728920967487,"positive",1159,"negative","positive","negative;positive","B",7.05531284333975,7
"8","638f6f1ebb540eedd7097e44","icebox","calibrator_val","Valence","VC",1728920969335,"positive",1089,"negative","positive","negative;positive","B",6.99301512293296,8
"9","638f6f1ebb540eedd7097e44","free","calibrator_val","Valence","VC",1728920970946,"positive",849,"negative","positive","negative;positive","B",6.74405918631135,9
"10","638f6f1ebb540eedd7097e44","invader","calibrator_val","Valence","VC",1728920972731,"negative",1023,"negative","positive","negative;positive","B",6.93049476595163,10
"11","638f6f1ebb540eedd7097e44","gas","calibrator_conc","Concrete","VC",1728921120849,"abstract",4659,"abstract","concrete","abstract;concrete","A",8.4465561118168,11
"12","638f6f1ebb540eedd7097e44","sugar","calibrator_conc","Concrete","VC",1728921123295,"concrete",1685,"abstract","concrete","abstract;concrete","A",7.42952084278646,12
"13","638f6f1ebb540eedd7097e44","infinity","calibrator_conc","Concrete","VC",1728921126400,"abstract",2343,"abstract","concrete","abstract;concrete","A",7.7591874385078,13
"14","638f6f1ebb540eedd7097e44","polite","calibrator_conc","Concrete","VC",1728921129091,"abstract",1931,"abstract","concrete","abstract;concrete","A",7.56579328242851,14
"15","638f6f1ebb540eedd7097e44","whistle","calibrator_conc","Concrete","VC",1728921134465,"abstract",4619,"abstract","concrete","abstract;concrete","A",8.43793351043061,15
"16","638f6f1ebb540eedd7097e44","theory","calibrator_conc","Concrete","VC",1728921136962,"abstract",1734,"abstract","concrete","abstract;concrete","A",7.45818615734049,16
"17","638f6f1ebb540eedd7097e44","kick","calibrator_conc","Concrete","VC",1728921141156,"abstract",3437,"abstract","concrete","abstract;concrete","A",8.14235427684983,17
"18","638f6f1ebb540eedd7097e44","shirt","calibrator_conc","Concrete","VC",1728921143043,"concrete",1127,"abstract","concrete","abstract;concrete","A",7.02731451403978,18
"19","638f6f1ebb540eedd7097e44","marriage","calibrator_conc","Concrete","VC",1728921145537,"abstract",1735,"abstract","concrete","abstract;concrete","A",7.45876269238096,19
"20","638f6f1ebb540eedd7097e44","grasshopper","calibrator_conc","Concrete","VC",1728921147206,"concrete",909,"abstract","concrete","abstract;concrete","A",6.81234509417748,20
"21","640d988c383c60ed564dd05e","sugar","calibrator_conc","Concrete","CV",1728923693720,"concrete",2253,"abstract","concrete","abstract;concrete","A",7.72001794043224,1
"22","640d988c383c60ed564dd05e","marriage","calibrator_conc","Concrete","CV",1728923696783,"abstract",2302,"abstract","concrete","abstract;concrete","A",7.74153358928183,2
"23","640d988c383c60ed564dd05e","kick","calibrator_conc","Concrete","CV",1728923700532,"abstract",2987,"abstract","concrete","abstract;concrete","A",8.00202481821611,3
"24","640d988c383c60ed564dd05e","infinity","calibrator_conc","Concrete","CV",1728923702810,"abstract",1514,"abstract","concrete","abstract;concrete","A",7.32251043399739,4
"25","640d988c383c60ed564dd05e","shirt","calibrator_conc","Concrete","CV",1728923704333,"concrete",763,"abstract","concrete","abstract;concrete","A",6.63725803128446,5
"26","640d988c383c60ed564dd05e","grasshopper","calibrator_conc","Concrete","CV",1728923706249,"concrete",1155,"abstract","concrete","abstract;concrete","A",7.05185562295589,6
"27","640d988c383c60ed564dd05e","theory","calibrator_conc","Concrete","CV",1728923707971,"abstract",955,"abstract","concrete","abstract;concrete","A",6.86171134048073,7
"28","640d988c383c60ed564dd05e","whistle","calibrator_conc","Concrete","CV",1728923711409,"concrete",2674,"abstract","concrete","abstract;concrete","A",7.89133075766189,8
"29","640d988c383c60ed564dd05e","gas","calibrator_conc","Concrete","CV",1728923715017,"abstract",2844,"abstract","concrete","abstract;concrete","A",7.95296679092313,9
"30","640d988c383c60ed564dd05e","polite","calibrator_conc","Concrete","CV",1728923716741,"abstract",959,"abstract","concrete","abstract;concrete","A",6.86589107488344,10
"31","640d988c383c60ed564dd05e","joke","calibrator_val","Valence","CV",1728923817200,"positive",1169,"negative","positive","negative;positive","B",7.06390396147207,11
"32","640d988c383c60ed564dd05e","insecure","calibrator_val","Valence","CV",1728923818802,"negative",838,"negative","positive","negative;positive","B",6.73101810048208,12
"33","640d988c383c60ed564dd05e","icebox","calibrator_val","Valence","CV",1728923821682,"positive",2116,"negative","positive","negative;positive","B",7.65728279297819,13
"34","640d988c383c60ed564dd05e","free","calibrator_val","Valence","CV",1728923823349,"positive",902,"negative","positive","negative;positive","B",6.80461452006262,14
"35","640d988c383c60ed564dd05e","hat","calibrator_val","Valence","CV",1728923825766,"positive",1655,"negative","positive","negative;positive","B",7.41155628781116,15
"36","640d988c383c60ed564dd05e","industry","calibrator_val","Valence","CV",1728923828124,"positive",1595,"negative","positive","negative;positive","B",7.37462901521894,16
"37","640d988c383c60ed564dd05e","jail","calibrator_val","Valence","CV",1728923829970,"negative",1079,"negative","positive","negative;positive","B",6.98378996525813,17
"38","640d988c383c60ed564dd05e","invader","calibrator_val","Valence","CV",1728923831363,"negative",628,"negative","positive","negative;positive","B",6.4425401664682,18
"39","640d988c383c60ed564dd05e","grin","calibrator_val","Valence","CV",1728923832869,"positive",751,"negative","positive","negative;positive","B",6.62140565176413,19
"40","640d988c383c60ed564dd05e","kitten","calibrator_val","Valence","CV",1728923834195,"positive",564,"negative","positive","negative;positive","B",6.33505425149806,20
"41","62d1972976dd315728ead6f9","jail","calibrator_val","Valence","VC",1728920911955,"positive",973,"negative","positive","negative;positive","B",6.880384082186,1
"42","62d1972976dd315728ead6f9","invader","calibrator_val","Valence","VC",1728920914813,"negative",2104,"negative","positive","negative;positive","B",7.6515955738576,2
"43","62d1972976dd315728ead6f9","icebox","calibrator_val","Valence","VC",1728920916539,"positive",967,"negative","positive","negative;positive","B",6.87419849545329,3
"44","62d1972976dd315728ead6f9","grin","calibrator_val","Valence","VC",1728920918443,"positive",1147,"negative","positive","negative;positive","B",7.04490511712937,4
"45","62d1972976dd315728ead6f9","hat","calibrator_val","Valence","VC",1728920920245,"positive",1043,"negative","positive","negative;positive","B",6.94985645500077,5
"46","62d1972976dd315728ead6f9","kitten","calibrator_val","Valence","VC",1728920921595,"positive",593,"negative","positive","negative;positive","B",6.38519439899773,6
"47","62d1972976dd315728ead6f9","insecure","calibrator_val","Valence","VC",1728920923044,"negative",694,"negative","positive","negative;positive","B",6.5424719605068,7
"48","62d1972976dd315728ead6f9","joke","calibrator_val","Valence","VC",1728920924508,"positive",707,"negative","positive","negative;positive","B",6.56103066589657,8
"49","62d1972976dd315728ead6f9","free","calibrator_val","Valence","VC",1728920926324,"positive",1060,"negative","positive","negative;positive","B",6.96602418710611,9
"50","62d1972976dd315728ead6f9","industry","calibrator_val","Valence","VC",1728920928116,"positive",1032,"negative","positive","negative;positive","B",6.93925394604151,10
"51","62d1972976dd315728ead6f9","marriage","calibrator_conc","Concrete","VC",1728921014803,"concrete",1518,"abstract","concrete","abstract;concrete","A",7.32514895795557,11
"52","62d1972976dd315728ead6f9","infinity","calibrator_conc","Concrete","VC",1728921017339,"abstract",1780,"abstract","concrete","abstract;concrete","A",7.48436864328613,12
"53","62d1972976dd315728ead6f9","theory","calibrator_conc","Concrete","VC",1728921020124,"abstract",2027,"abstract","concrete","abstract;concrete","A",7.614312146452,13
"54","62d1972976dd315728ead6f9","sugar","calibrator_conc","Concrete","VC",1728921022084,"concrete",1204,"abstract","concrete","abstract;concrete","A",7.09340462586877,14
"55","62d1972976dd315728ead6f9","whistle","calibrator_conc","Concrete","VC",1728921023876,"concrete",1036,"abstract","concrete","abstract;concrete","A",6.94312242281943,15
"56","62d1972976dd315728ead6f9","polite","calibrator_conc","Concrete","VC",1728921025706,"abstract",1070,"abstract","concrete","abstract;concrete","A",6.97541392745595,16
"57","62d1972976dd315728ead6f9","grasshopper","calibrator_conc","Concrete","VC",1728921027331,"concrete",870,"abstract","concrete","abstract;concrete","A",6.76849321164863,17
"58","62d1972976dd315728ead6f9","gas","calibrator_conc","Concrete","VC",1728921029430,"concrete",1343,"abstract","concrete","abstract;concrete","A",7.20266119652324,18
"59","62d1972976dd315728ead6f9","shirt","calibrator_conc","Concrete","VC",1728921031115,"concrete",926,"abstract","concrete","abstract;concrete","A",6.83087423464618,19
"60","62d1972976dd315728ead6f9","kick","calibrator_conc","Concrete","VC",1728921032892,"concrete",1018,"abstract","concrete","abstract;concrete","A",6.92559519711047,20
"61","616202f3ca5b3ab47923ee80","infinity","calibrator_conc","Concrete","CV",1728923893590,"abstract",2834,"abstract","concrete","abstract;concrete","A",7.94944442025063,1
"62","616202f3ca5b3ab47923ee80","theory","calibrator_conc","Concrete","CV",1728923895856,"abstract",1509,"abstract","concrete","abstract;concrete","A",7.31920245876785,2
"63","616202f3ca5b3ab47923ee80","shirt","calibrator_conc","Concrete","CV",1728923897375,"concrete",763,"abstract","concrete","abstract;concrete","A",6.63725803128446,3
"64","616202f3ca5b3ab47923ee80","sugar","calibrator_conc","Concrete","CV",1728923898963,"concrete",829,"abstract","concrete","abstract;concrete","A",6.7202201551353,4
"65","616202f3ca5b3ab47923ee80","grasshopper","calibrator_conc","Concrete","CV",1728923900589,"concrete",870,"abstract","concrete","abstract;concrete","A",6.76849321164863,5
"66","616202f3ca5b3ab47923ee80","kick","calibrator_conc","Concrete","CV",1728923903569,"abstract",2221,"abstract","concrete","abstract;concrete","A",7.70571282389443,6
"67","616202f3ca5b3ab47923ee80","polite","calibrator_conc","Concrete","CV",1728923905164,"abstract",835,"abstract","concrete","abstract;concrete","A",6.72743172485086,7
"68","616202f3ca5b3ab47923ee80","gas","calibrator_conc","Concrete","CV",1728923906844,"concrete",926,"abstract","concrete","abstract;concrete","A",6.83087423464618,8
"69","616202f3ca5b3ab47923ee80","whistle","calibrator_conc","Concrete","CV",1728923909126,"concrete",1522,"abstract","concrete","abstract;concrete","A",7.32778053842163,9
"70","616202f3ca5b3ab47923ee80","marriage","calibrator_conc","Concrete","CV",1728923911181,"abstract",1300,"abstract","concrete","abstract;concrete","A",7.17011954344963,10
"71","616202f3ca5b3ab47923ee80","invader","calibrator_val","Valence","CV",1728924009803,"negative",1509,"negative","positive","negative;positive","B",7.31920245876785,11
"72","616202f3ca5b3ab47923ee80","grin","calibrator_val","Valence","CV",1728924011329,"positive",767,"negative","positive","negative;positive","B",6.64248680136726,12
"73","616202f3ca5b3ab47923ee80","joke","calibrator_val","Valence","CV",1728924013042,"positive",953,"negative","positive","negative;positive","B",6.8596149036542,13
"74","616202f3ca5b3ab47923ee80","industry","calibrator_val","Valence","CV",1728924016155,"negative",2358,"negative","positive","negative;positive","B",7.76556908109732,14
"75","616202f3ca5b3ab47923ee80","insecure","calibrator_val","Valence","CV",1728924017741,"negative",828,"negative","positive","negative;positive","B",6.71901315438526,15
"76","616202f3ca5b3ab47923ee80","free","calibrator_val","Valence","CV",1728924019579,"positive",1084,"negative","positive","negative;positive","B",6.98841318199959,16
"77","616202f3ca5b3ab47923ee80","kitten","calibrator_val","Valence","CV",1728924021158,"positive",825,"negative","positive","negative;positive","B",6.71538338633468,17
"78","616202f3ca5b3ab47923ee80","jail","calibrator_val","Valence","CV",1728924022796,"negative",880,"negative","positive","negative;positive","B",6.77992190747225,18
"79","616202f3ca5b3ab47923ee80","icebox","calibrator_val","Valence","CV",1728924024420,"positive",867,"negative","positive","negative;positive","B",6.76503897678054,19
"80","616202f3ca5b3ab47923ee80","hat","calibrator_val","Valence","CV",1728924026139,"positive",958,"negative","positive","negative;positive","B",6.86484777797086,20
"81","5c3388fa01439b0001a0adfe","infinity","calibrator_conc","Concrete","CV",1728924729004,"abstract",1447,"abstract","concrete","abstract;concrete","A",7.27724772663148,1
"82","5c3388fa01439b0001a0adfe","whistle","calibrator_conc","Concrete","CV",1728924732007,"concrete",2244,"abstract","concrete","abstract;concrete","A",7.71601526664259,2
"83","5c3388fa01439b0001a0adfe","gas","calibrator_conc","Concrete","CV",1728924734830,"concrete",2065,"abstract","concrete","abstract;concrete","A",7.63288550539513,3
"84","5c3388fa01439b0001a0adfe","grasshopper","calibrator_conc","Concrete","CV",1728924736373,"concrete",785,"abstract","concrete","abstract;concrete","A",6.66568371778241,4
"85","5c3388fa01439b0001a0adfe","theory","calibrator_conc","Concrete","CV",1728924737889,"abstract",757,"abstract","concrete","abstract;concrete","A",6.62936325343745,5
"86","5c3388fa01439b0001a0adfe","shirt","calibrator_conc","Concrete","CV",1728924739550,"concrete",905,"abstract","concrete","abstract;concrete","A",6.80793494369993,6
"87","5c3388fa01439b0001a0adfe","kick","calibrator_conc","Concrete","CV",1728924741153,"concrete",846,"abstract","concrete","abstract;concrete","A",6.74051935960622,7
"88","5c3388fa01439b0001a0adfe","marriage","calibrator_conc","Concrete","CV",1728924743679,"abstract",1769,"abstract","concrete","abstract;concrete","A",7.47816969415979,8
"89","5c3388fa01439b0001a0adfe","polite","calibrator_conc","Concrete","CV",1728924745485,"abstract",1050,"abstract","concrete","abstract;concrete","A",6.95654544315157,9
"90","5c3388fa01439b0001a0adfe","sugar","calibrator_conc","Concrete","CV",1728924747134,"concrete",890,"abstract","concrete","abstract;concrete","A",6.79122146272619,10
"91","5c3388fa01439b0001a0adfe","industry","calibrator_val","Valence","CV",1728924833824,"positive",2553,"negative","positive","negative;positive","B",7.84502441724148,11
"92","5c3388fa01439b0001a0adfe","free","calibrator_val","Valence","CV",1728924835207,"positive",628,"negative","positive","negative;positive","B",6.4425401664682,12
"93","5c3388fa01439b0001a0adfe","insecure","calibrator_val","Valence","CV",1728924836607,"negative",640,"negative","positive","negative;positive","B",6.46146817635372,13
"94","5c3388fa01439b0001a0adfe","grin","calibrator_val","Valence","CV",1728924837953,"positive",588,"negative","positive","negative;positive","B",6.37672694789863,14
"95","5c3388fa01439b0001a0adfe","jail","calibrator_val","Valence","CV",1728924839746,"negative",1037,"negative","positive","negative;positive","B",6.94408720822953,15
"96","5c3388fa01439b0001a0adfe","joke","calibrator_val","Valence","CV",1728924841118,"positive",615,"negative","positive","negative;positive","B",6.42162226780652,16
"97","5c3388fa01439b0001a0adfe","invader","calibrator_val","Valence","CV",1728924842570,"negative",697,"negative","positive","negative;positive","B",6.54678541076052,17
"98","5c3388fa01439b0001a0adfe","kitten","calibrator_val","Valence","CV",1728924844046,"positive",720,"negative","positive","negative;positive","B",6.5792512120101,18
"99","5c3388fa01439b0001a0adfe","icebox","calibrator_val","Valence","CV",1728924846466,"positive",1664,"negative","positive","negative;positive","B",7.41697962138115,19
"100","5c3388fa01439b0001a0adfe","hat","calibrator_val","Valence","CV",1728924847919,"positive",696,"negative","positive","negative;positive","B",6.54534966033442,20
"101","63dd6586f468134edccd02a9","invader","calibrator_val","Valence","VC",1728921053426,"negative",3504,"negative","positive","negative;positive","B",8.16166045205628,1
"102","63dd6586f468134edccd02a9","icebox","calibrator_val","Valence","VC",1728921056234,"positive",2032,"negative","positive","negative;positive","B",7.61677580869837,2
"103","63dd6586f468134edccd02a9","grin","calibrator_val","Valence","VC",1728921058804,"positive",1798,"negative","positive","negative;positive","B",7.49443021503157,3
"104","63dd6586f468134edccd02a9","kitten","calibrator_val","Valence","VC",1728921060619,"positive",1041,"negative","positive","negative;positive","B",6.94793706861497,4
"105","63dd6586f468134edccd02a9","insecure","calibrator_val","Valence","VC",1728921063358,"negative",1966,"negative","positive","negative;positive","B",7.58375630070711,5
"106","63dd6586f468134edccd02a9","free","calibrator_val","Valence","VC",1728921065014,"positive",882,"negative","positive","negative;positive","B",6.78219205600679,6
"107","63dd6586f468134edccd02a9","industry","calibrator_val","Valence","VC",1728921067430,"negative",1641,"negative","positive","negative;positive","B",7.40306109109009,7
"108","63dd6586f468134edccd02a9","joke","calibrator_val","Valence","VC",1728921069629,"positive",1434,"negative","positive","negative;positive","B",7.26822302115957,8
"109","63dd6586f468134edccd02a9","jail","calibrator_val","Valence","VC",1728921071575,"negative",1176,"negative","positive","negative;positive","B",7.06987412845857,9
"110","63dd6586f468134edccd02a9","hat","calibrator_val","Valence","VC",1728921073331,"positive",983,"negative","positive","negative;positive","B",6.89060912014717,10
"111","63dd6586f468134edccd02a9","theory","calibrator_conc","Concrete","VC",1728921304196,"abstract",2710,"abstract","concrete","abstract;concrete","A",7.90470391387375,11
"112","63dd6586f468134edccd02a9","infinity","calibrator_conc","Concrete","VC",1728921306213,"abstract",1245,"abstract","concrete","abstract;concrete","A",7.12689080889881,12
"113","63dd6586f468134edccd02a9","grasshopper","calibrator_conc","Concrete","VC",1728921307779,"concrete",793,"abstract","concrete","abstract;concrete","A",6.67582322163485,13
"114","63dd6586f468134edccd02a9","kick","calibrator_conc","Concrete","VC",1728921312818,"abstract",4272,"abstract","concrete","abstract;concrete","A",8.35983738064003,14
"115","63dd6586f468134edccd02a9","marriage","calibrator_conc","Concrete","VC",1728921317254,"abstract",3671,"abstract","concrete","abstract;concrete","A",8.20821938349683,15
"116","63dd6586f468134edccd02a9","shirt","calibrator_conc","Concrete","VC",1728921318935,"concrete",910,"abstract","concrete","abstract;concrete","A",6.8134445995109,16
"117","63dd6586f468134edccd02a9","sugar","calibrator_conc","Concrete","VC",1728921320737,"concrete",1039,"abstract","concrete","abstract;concrete","A",6.94601399109923,17
"118","63dd6586f468134edccd02a9","whistle","calibrator_conc","Concrete","VC",1728921323666,"abstract",2160,"abstract","concrete","abstract;concrete","A",7.67786350067821,18
"119","63dd6586f468134edccd02a9","polite","calibrator_conc","Concrete","VC",1728921325423,"abstract",989,"abstract","concrete","abstract;concrete","A",6.89669433162271,19
"120","63dd6586f468134edccd02a9","gas","calibrator_conc","Concrete","VC",1728921327190,"concrete",1001,"abstract","concrete","abstract;concrete","A",6.90875477931522,20
"121","623a732198d2a11b21faccc9","whistle","calibrator_conc","Concrete","CV",1728924823377,"concrete",1483,"abstract","concrete","abstract;concrete","A",7.30182234213793,1
"122","623a732198d2a11b21faccc9","marriage","calibrator_conc","Concrete","CV",1728924826408,"abstract",2270,"abstract","concrete","abstract;concrete","A",7.72753511047545,2
"123","623a732198d2a11b21faccc9","gas","calibrator_conc","Concrete","CV",1728924828604,"concrete",1436,"abstract","concrete","abstract;concrete","A",7.26961674960817,3
"124","623a732198d2a11b21faccc9","kick","calibrator_conc","Concrete","CV",1728924831227,"abstract",1865,"abstract","concrete","abstract;concrete","A",7.53101633207792,4
"125","623a732198d2a11b21faccc9","shirt","calibrator_conc","Concrete","CV",1728924832725,"concrete",735,"abstract","concrete","abstract;concrete","A",6.59987049921284,5
"126","623a732198d2a11b21faccc9","sugar","calibrator_conc","Concrete","CV",1728924834224,"concrete",736,"abstract","concrete","abstract;concrete","A",6.60123011872888,6
"127","623a732198d2a11b21faccc9","theory","calibrator_conc","Concrete","CV",1728924835851,"abstract",863,"abstract","concrete","abstract;concrete","A",6.76041469108343,7
"128","623a732198d2a11b21faccc9","grasshopper","calibrator_conc","Concrete","CV",1728924837408,"concrete",802,"abstract","concrete","abstract;concrete","A",6.68710860786651,8
"129","623a732198d2a11b21faccc9","polite","calibrator_conc","Concrete","CV",1728924839035,"abstract",865,"abstract","concrete","abstract;concrete","A",6.76272950693188,9
"130","623a732198d2a11b21faccc9","infinity","calibrator_conc","Concrete","CV",1728924840691,"abstract",898,"abstract","concrete","abstract;concrete","A",6.8001700683022,10
"131","623a732198d2a11b21faccc9","joke","calibrator_val","Valence","CV",1728924933121,"positive",1227,"negative","positive","negative;positive","B",7.11232744471091,11
"132","623a732198d2a11b21faccc9","industry","calibrator_val","Valence","CV",1728924935942,"negative",2059,"negative","positive","negative;positive","B",7.62997570702779,12
"133","623a732198d2a11b21faccc9","icebox","calibrator_val","Valence","CV",1728924937549,"positive",845,"negative","positive","negative;positive","B",6.73933662735717,13
"134","623a732198d2a11b21faccc9","hat","calibrator_val","Valence","CV",1728924939025,"positive",715,"negative","positive","negative;positive","B",6.57228254269401,14
"135","623a732198d2a11b21faccc9","free","calibrator_val","Valence","CV",1728924940432,"positive",647,"negative","positive","negative;positive","B",6.4723462945009,15
"136","623a732198d2a11b21faccc9","jail","calibrator_val","Valence","CV",1728924941957,"negative",763,"negative","positive","negative;positive","B",6.63725803128446,16
"137","623a732198d2a11b21faccc9","grin","calibrator_val","Valence","CV",1728924944092,"positive",1381,"negative","positive","negative;positive","B",7.23056315340929,17
"138","623a732198d2a11b21faccc9","insecure","calibrator_val","Valence","CV",1728924945971,"negative",1118,"negative","positive","negative;positive","B",7.01929665371504,18
"139","623a732198d2a11b21faccc9","kitten","calibrator_val","Valence","CV",1728924947528,"positive",799,"negative","positive","negative;positive","B",6.68336094576627,19
"140","623a732198d2a11b21faccc9","invader","calibrator_val","Valence","CV",1728924949407,"negative",1119,"negative","positive","negative;positive","B",7.02019070831193,20
"141","5afde6720ec4d30001b5d0d5","joke","calibrator_val","Valence","VC",1728920288147,"positive",1146,"negative","positive","negative;positive","B",7.04403289727469,1
"142","5afde6720ec4d30001b5d0d5","industry","calibrator_val","Valence","VC",1728920290394,"negative",1491,"negative","positive","negative;positive","B",7.30720231476474,2
"143","5afde6720ec4d30001b5d0d5","grin","calibrator_val","Valence","VC",1728920292011,"positive",855,"negative","positive","negative;positive","B",6.75110146893676,3
"144","5afde6720ec4d30001b5d0d5","free","calibrator_val","Valence","VC",1728920293859,"positive",1085,"negative","positive","negative;positive","B",6.98933526597456,4
"145","5afde6720ec4d30001b5d0d5","icebox","calibrator_val","Valence","VC",1728920295618,"negative",997,"negative","positive","negative;positive","B",6.90475076996184,5
"146","5afde6720ec4d30001b5d0d5","insecure","calibrator_val","Valence","VC",1728920297314,"negative",935,"negative","positive","negative;positive","B",6.84054652928869,6
"147","5afde6720ec4d30001b5d0d5","hat","calibrator_val","Valence","VC",1728920299051,"positive",980,"negative","positive","negative;positive","B",6.88755257166462,7
"148","5afde6720ec4d30001b5d0d5","kitten","calibrator_val","Valence","VC",1728920300770,"positive",961,"negative","positive","negative;positive","B",6.86797440897029,8
"149","5afde6720ec4d30001b5d0d5","invader","calibrator_val","Valence","VC",1728920302330,"negative",800,"negative","positive","negative;positive","B",6.68461172766793,9
"150","5afde6720ec4d30001b5d0d5","jail","calibrator_val","Valence","VC",1728920303818,"negative",733,"negative","positive","negative;positive","B",6.59714570188665,10
"151","5afde6720ec4d30001b5d0d5","theory","calibrator_conc","Concrete","VC",1728920413203,"abstract",1448,"abstract","concrete","abstract;concrete","A",7.27793857294566,11
"152","5afde6720ec4d30001b5d0d5","shirt","calibrator_conc","Concrete","VC",1728920414531,"concrete",568,"abstract","concrete","abstract;concrete","A",6.34212141872115,12
"153","5afde6720ec4d30001b5d0d5","gas","calibrator_conc","Concrete","VC",1728920416243,"concrete",951,"abstract","concrete","abstract;concrete","A",6.85751406254539,13
"154","5afde6720ec4d30001b5d0d5","polite","calibrator_conc","Concrete","VC",1728920418043,"abstract",1040,"abstract","concrete","abstract;concrete","A",6.94697599213542,14
"155","5afde6720ec4d30001b5d0d5","grasshopper","calibrator_conc","Concrete","VC",1728920419723,"concrete",921,"abstract","concrete","abstract;concrete","A",6.82546003625531,15
"156","5afde6720ec4d30001b5d0d5","sugar","calibrator_conc","Concrete","VC",1728920422051,"concrete",1567,"abstract","concrete","abstract;concrete","A",7.35691824235602,16
"157","5afde6720ec4d30001b5d0d5","infinity","calibrator_conc","Concrete","VC",1728920423651,"abstract",839,"abstract","concrete","abstract;concrete","A",6.73221070646721,17
"158","5afde6720ec4d30001b5d0d5","marriage","calibrator_conc","Concrete","VC",1728920425883,"concrete",1476,"abstract","concrete","abstract;concrete","A",7.29709100516042,18
"159","5afde6720ec4d30001b5d0d5","kick","calibrator_conc","Concrete","VC",1728920428850,"concrete",2208,"abstract","concrete","abstract;concrete","A",7.69984240739699,19
"160","5afde6720ec4d30001b5d0d5","whistle","calibrator_conc","Concrete","VC",1728920430867,"concrete",1258,"abstract","concrete","abstract;concrete","A",7.13727843726039,20
"161","65614c86be0b8460a11d0b64","grin","calibrator_val","Valence","VC",1728921653127,"positive",1651,"negative","positive","negative;positive","B",7.40913644392013,1
"162","65614c86be0b8460a11d0b64","hat","calibrator_val","Valence","VC",1728921655102,"positive",1215,"negative","positive","negative;positive","B",7.10249935577465,2
"163","65614c86be0b8460a11d0b64","invader","calibrator_val","Valence","VC",1728921656537,"negative",676,"negative","positive","negative;positive","B",6.51619307604296,3
"164","65614c86be0b8460a11d0b64","free","calibrator_val","Valence","VC",1728921657989,"positive",689,"negative","positive","negative;positive","B",6.53524127101366,4
"165","65614c86be0b8460a11d0b64","industry","calibrator_val","Valence","VC",1728921660209,"negative",1463,"negative","positive","negative;positive","B",7.28824440102012,5
"166","65614c86be0b8460a11d0b64","kitten","calibrator_val","Valence","VC",1728921661782,"positive",813,"negative","positive","negative;positive","B",6.70073110954781,6
"167","65614c86be0b8460a11d0b64","joke","calibrator_val","Valence","VC",1728921663319,"positive",779,"negative","positive","negative;positive","B",6.65801104587075,7
"168","65614c86be0b8460a11d0b64","jail","calibrator_val","Valence","VC",1728921664815,"negative",740,"negative","positive","negative;positive","B",6.60665018619822,8
"169","65614c86be0b8460a11d0b64","icebox","calibrator_val","Valence","VC",1728921666886,"positive",1311,"negative","positive","negative;positive","B",7.1785454837637,9
"170","65614c86be0b8460a11d0b64","insecure","calibrator_val","Valence","VC",1728921668531,"negative",887,"negative","positive","negative;positive","B",6.78784498230958,10
"171","65614c86be0b8460a11d0b64","sugar","calibrator_conc","Concrete","VC",1728921771947,"concrete",2271,"abstract","concrete","abstract;concrete","A",7.72797554210556,11
"172","65614c86be0b8460a11d0b64","marriage","calibrator_conc","Concrete","VC",1728921773751,"abstract",1045,"abstract","concrete","abstract;concrete","A",6.95177216439891,12
"173","65614c86be0b8460a11d0b64","shirt","calibrator_conc","Concrete","VC",1728921775632,"concrete",1120,"abstract","concrete","abstract;concrete","A",7.02108396428914,13
"174","65614c86be0b8460a11d0b64","kick","calibrator_conc","Concrete","VC",1728921777600,"concrete",1210,"abstract","concrete","abstract;concrete","A",7.09837563859079,14
"175","65614c86be0b8460a11d0b64","grasshopper","calibrator_conc","Concrete","VC",1728921779219,"concrete",860,"abstract","concrete","abstract;concrete","A",6.75693238924755,15
"176","65614c86be0b8460a11d0b64","theory","calibrator_conc","Concrete","VC",1728921780787,"abstract",810,"abstract","concrete","abstract;concrete","A",6.69703424766648,16
"177","65614c86be0b8460a11d0b64","infinity","calibrator_conc","Concrete","VC",1728921782439,"abstract",892,"abstract","concrete","abstract;concrete","A",6.79346613258001,17
"178","65614c86be0b8460a11d0b64","gas","calibrator_conc","Concrete","VC",1728921785086,"concrete",1887,"abstract","concrete","abstract;concrete","A",7.54274354536855,18
"179","65614c86be0b8460a11d0b64","polite","calibrator_conc","Concrete","VC",1728921787384,"abstract",1539,"abstract","concrete","abstract;concrete","A",7.33888813383888,19
"180","65614c86be0b8460a11d0b64","whistle","calibrator_conc","Concrete","VC",1728921790438,"concrete",2295,"abstract","concrete","abstract;concrete","A",7.73848812249465,20
"181","5d86d05f9854a60019240621","kick","calibrator_conc","Concrete","CV",1728925052529,"abstract",1643,"abstract","concrete","abstract;concrete","A",7.40427911803727,1
"182","5d86d05f9854a60019240621","polite","calibrator_conc","Concrete","CV",1728925054601,"abstract",1309,"abstract","concrete","abstract;concrete","A",7.1770187659099,2
"183","5d86d05f9854a60019240621","gas","calibrator_conc","Concrete","CV",1728925056865,"concrete",1506,"abstract","concrete","abstract;concrete","A",7.31721240835984,3
"184","5d86d05f9854a60019240621","whistle","calibrator_conc","Concrete","CV",1728925058865,"concrete",1242,"abstract","concrete","abstract;concrete","A",7.12447826249342,4
"185","5d86d05f9854a60019240621","theory","calibrator_conc","Concrete","CV",1728925060736,"abstract",1114,"abstract","concrete","abstract;concrete","A",7.01571242048723,5
"186","5d86d05f9854a60019240621","sugar","calibrator_conc","Concrete","CV",1728925062280,"concrete",786,"abstract","concrete","abstract;concrete","A",6.66695679242921,6
"187","5d86d05f9854a60019240621","infinity","calibrator_conc","Concrete","CV",1728925063800,"abstract",763,"abstract","concrete","abstract;concrete","A",6.63725803128446,7
"188","5d86d05f9854a60019240621","marriage","calibrator_conc","Concrete","CV",1728925067024,"abstract",2466,"abstract","concrete","abstract;concrete","A",7.81035268372429,8
"189","5d86d05f9854a60019240621","grasshopper","calibrator_conc","Concrete","CV",1728925068569,"concrete",783,"abstract","concrete","abstract;concrete","A",6.6631326959908,9
"190","5d86d05f9854a60019240621","shirt","calibrator_conc","Concrete","CV",1728925070033,"concrete",703,"abstract","concrete","abstract;concrete","A",6.55535689181067,10
"191","5d86d05f9854a60019240621","jail","calibrator_val","Valence","CV",1728925166984,"negative",1319,"negative","positive","negative;positive","B",7.18462915271731,11
"192","5d86d05f9854a60019240621","invader","calibrator_val","Valence","CV",1728925169032,"negative",1289,"negative","positive","negative;positive","B",7.16162200293919,12
"193","5d86d05f9854a60019240621","icebox","calibrator_val","Valence","CV",1728925170713,"positive",923,"negative","positive","negative;positive","B",6.82762923450285,13
"194","5d86d05f9854a60019240621","kitten","calibrator_val","Valence","CV",1728925172192,"positive",724,"negative","positive","negative;positive","B",6.58479139238572,14
"195","5d86d05f9854a60019240621","free","calibrator_val","Valence","CV",1728925173600,"positive",646,"negative","positive","negative;positive","B",6.4707995037826,15
"196","5d86d05f9854a60019240621","insecure","calibrator_val","Valence","CV",1728925175504,"negative",1147,"negative","positive","negative;positive","B",7.04490511712937,16
"197","5d86d05f9854a60019240621","industry","calibrator_val","Valence","CV",1728925177648,"positive",1389,"negative","positive","negative;positive","B",7.23633934275434,17
"198","5d86d05f9854a60019240621","joke","calibrator_val","Valence","CV",1728925179232,"positive",829,"negative","positive","negative;positive","B",6.7202201551353,18
"199","5d86d05f9854a60019240621","hat","calibrator_val","Valence","CV",1728925180696,"positive",706,"negative","positive","negative;positive","B",6.55961523749324,19
"200","5d86d05f9854a60019240621","grin","calibrator_val","Valence","CV",1728925182225,"positive",770,"negative","positive","negative;positive","B",6.64639051484773,20
"201","5e13b020f9e7509f89dbd793","kitten","calibrator_val","Valence","VC",1728919317157,"positive",3499,"negative","positive","negative;positive","B",8.16023249236769,1
"202","5e13b020f9e7509f89dbd793","grin","calibrator_val","Valence","VC",1728919319452,"positive",1534,"negative","positive","negative;positive","B",7.3356339819272,2
"203","5e13b020f9e7509f89dbd793","joke","calibrator_val","Valence","VC",1728919321679,"positive",1468,"negative","positive","negative;positive","B",7.29165620917446,3
"204","5e13b020f9e7509f89dbd793","industry","calibrator_val","Valence","VC",1728919323575,"positive",1139,"negative","positive","negative;positive","B",7.03790596344718,4
"205","5e13b020f9e7509f89dbd793","insecure","calibrator_val","Valence","VC",1728919325866,"negative",1537,"negative","positive","negative;positive","B",7.3375877435386,5
"206","5e13b020f9e7509f89dbd793","free","calibrator_val","Valence","VC",1728919328071,"positive",1450,"negative","positive","negative;positive","B",7.27931883541462,6
"207","5e13b020f9e7509f89dbd793","icebox","calibrator_val","Valence","VC",1728919330230,"positive",1401,"negative","positive","negative;positive","B",7.24494154633701,7
"208","5e13b020f9e7509f89dbd793","jail","calibrator_val","Valence","VC",1728919331878,"negative",893,"negative","positive","negative;positive","B",6.7945865808765,8
"209","5e13b020f9e7509f89dbd793","hat","calibrator_val","Valence","VC",1728919333565,"positive",934,"negative","positive","negative;positive","B",6.83947643822884,9
"210","5e13b020f9e7509f89dbd793","invader","calibrator_val","Valence","VC",1728919335298,"negative",980,"negative","positive","negative;positive","B",6.88755257166462,10
"211","5e13b020f9e7509f89dbd793","shirt","calibrator_conc","Concrete","VC",1728919445567,"concrete",1674,"abstract","concrete","abstract;concrete","A",7.42297125104942,11
"212","5e13b020f9e7509f89dbd793","whistle","calibrator_conc","Concrete","VC",1728919447928,"concrete",1608,"abstract","concrete","abstract;concrete","A",7.38274644973891,12
"213","5e13b020f9e7509f89dbd793","marriage","calibrator_conc","Concrete","VC",1728919451372,"concrete",2689,"abstract","concrete","abstract;concrete","A",7.89692465626886,13
"214","5e13b020f9e7509f89dbd793","theory","calibrator_conc","Concrete","VC",1728919453577,"abstract",1448,"abstract","concrete","abstract;concrete","A",7.27793857294566,14
"215","5e13b020f9e7509f89dbd793","grasshopper","calibrator_conc","Concrete","VC",1728919455224,"concrete",887,"abstract","concrete","abstract;concrete","A",6.78784498230958,15
"216","5e13b020f9e7509f89dbd793","polite","calibrator_conc","Concrete","VC",1728919458392,"abstract",2408,"abstract","concrete","abstract;concrete","A",7.78655180642871,16
"217","5e13b020f9e7509f89dbd793","kick","calibrator_conc","Concrete","VC",1728919460196,"concrete",1044,"abstract","concrete","abstract;concrete","A",6.95081476844258,17
"218","5e13b020f9e7509f89dbd793","infinity","calibrator_conc","Concrete","VC",1728919461996,"abstract",1041,"abstract","concrete","abstract;concrete","A",6.94793706861497,18
"219","5e13b020f9e7509f89dbd793","gas","calibrator_conc","Concrete","VC",1728919464111,"concrete",1361,"abstract","concrete","abstract;concrete","A",7.21597500265147,19
"220","5e13b020f9e7509f89dbd793","sugar","calibrator_conc","Concrete","VC",1728919465754,"concrete",886,"abstract","concrete","abstract;concrete","A",6.78671695060508,20
"221","646b776eca37542a899c1de5","grin","calibrator_val","Valence","VC",1728921178087,"positive",2080,"negative","positive","negative;positive","B",7.64012317269536,1
"222","646b776eca37542a899c1de5","insecure","calibrator_val","Valence","VC",1728921179891,"negative",1043,"negative","positive","negative;positive","B",6.94985645500077,2
"223","646b776eca37542a899c1de5","industry","calibrator_val","Valence","VC",1728921182180,"positive",1526,"negative","positive","negative;positive","B",7.3304052118444,3
"224","646b776eca37542a899c1de5","invader","calibrator_val","Valence","VC",1728921184578,"negative",1635,"negative","positive","negative;positive","B",7.39939808333135,4
"225","646b776eca37542a899c1de5","jail","calibrator_val","Valence","VC",1728921187165,"negative",1824,"negative","positive","negative;positive","B",7.50878717063428,5
"226","646b776eca37542a899c1de5","icebox","calibrator_val","Valence","VC",1728921189191,"positive",1266,"negative","positive","negative;positive","B",7.14361760270412,6
"227","646b776eca37542a899c1de5","hat","calibrator_val","Valence","VC",1728921190864,"positive",914,"negative","positive","negative;positive","B",6.81783057145415,7
"228","646b776eca37542a899c1de5","free","calibrator_val","Valence","VC",1728921192473,"positive",851,"negative","positive","negative;positive","B",6.74641212857337,8
"229","646b776eca37542a899c1de5","kitten","calibrator_val","Valence","VC",1728921194246,"positive",1017,"negative","positive","negative;positive","B",6.92461239604856,9
"230","646b776eca37542a899c1de5","joke","calibrator_val","Valence","VC",1728921195954,"positive",947,"negative","positive","negative;positive","B",6.85329909318608,10
"231","646b776eca37542a899c1de5","infinity","calibrator_conc","Concrete","VC",1728921306095,"abstract",1965,"abstract","concrete","abstract;concrete","A",7.58324752430336,11
"232","646b776eca37542a899c1de5","marriage","calibrator_conc","Concrete","VC",1728921309186,"abstract",2331,"abstract","concrete","abstract;concrete","A",7.75405263903576,12
"233","646b776eca37542a899c1de5","theory","calibrator_conc","Concrete","VC",1728921311934,"abstract",1989,"abstract","concrete","abstract;concrete","A",7.59538727885397,13
"234","646b776eca37542a899c1de5","polite","calibrator_conc","Concrete","VC",1728921314293,"abstract",1599,"abstract","concrete","abstract;concrete","A",7.37713371283395,14
"235","646b776eca37542a899c1de5","grasshopper","calibrator_conc","Concrete","VC",1728921316225,"concrete",1169,"abstract","concrete","abstract;concrete","A",7.06390396147207,15
"236","646b776eca37542a899c1de5","whistle","calibrator_conc","Concrete","VC",1728921317903,"concrete",919,"abstract","concrete","abstract;concrete","A",6.82328612235569,16
"237","646b776eca37542a899c1de5","kick","calibrator_conc","Concrete","VC",1728921321507,"concrete",2843,"abstract","concrete","abstract;concrete","A",7.952615111651,17
"238","646b776eca37542a899c1de5","sugar","calibrator_conc","Concrete","VC",1728921323412,"concrete",1144,"abstract","concrete","abstract;concrete","A",7.04228617193974,18
"239","646b776eca37542a899c1de5","gas","calibrator_conc","Concrete","VC",1728921325397,"concrete",1223,"abstract","concrete","abstract;concrete","A",7.10906213568717,19
"240","646b776eca37542a899c1de5","shirt","calibrator_conc","Concrete","VC",1728921326889,"concrete",733,"abstract","concrete","abstract;concrete","A",6.59714570188665,20
"241","6560d73f80824412a8a74260","infinity","calibrator_conc","Concrete","CV",1728924423538,"abstract",1741,"abstract","concrete","abstract;concrete","A",7.46221493976819,1
"242","6560d73f80824412a8a74260","whistle","calibrator_conc","Concrete","CV",1728924425281,"concrete",985,"abstract","concrete","abstract;concrete","A",6.89264164117209,2
"243","6560d73f80824412a8a74260","shirt","calibrator_conc","Concrete","CV",1728924427561,"concrete",1519,"abstract","concrete","abstract;concrete","A",7.32580750259577,3
"244","6560d73f80824412a8a74260","theory","calibrator_conc","Concrete","CV",1728924429913,"abstract",1592,"abstract","concrete","abstract;concrete","A",7.37274636640433,4
"245","6560d73f80824412a8a74260","grasshopper","calibrator_conc","Concrete","CV",1728924431817,"concrete",1146,"abstract","concrete","abstract;concrete","A",7.04403289727469,5
"246","6560d73f80824412a8a74260","sugar","calibrator_conc","Concrete","CV",1728924434049,"concrete",1470,"abstract","concrete","abstract;concrete","A",7.29301767977278,6
"247","6560d73f80824412a8a74260","marriage","calibrator_conc","Concrete","CV",1728924436873,"abstract",2064,"abstract","concrete","abstract;concrete","A",7.63240112660145,7
"248","6560d73f80824412a8a74260","kick","calibrator_conc","Concrete","CV",1728924439169,"concrete",1539,"abstract","concrete","abstract;concrete","A",7.33888813383888,8
"249","6560d73f80824412a8a74260","gas","calibrator_conc","Concrete","CV",1728924441481,"abstract",1552,"abstract","concrete","abstract;concrete","A",7.34729970074316,9
"250","6560d73f80824412a8a74260","polite","calibrator_conc","Concrete","CV",1728924443593,"abstract",1352,"abstract","concrete","abstract;concrete","A",7.20934025660291,10
"251","6560d73f80824412a8a74260","free","calibrator_val","Valence","CV",1728924563263,"positive",2370,"negative","positive","negative;positive","B",7.77064523412918,11
"252","6560d73f80824412a8a74260","insecure","calibrator_val","Valence","CV",1728924565023,"negative",999,"negative","positive","negative;positive","B",6.90675477864855,12
"253","6560d73f80824412a8a74260","grin","calibrator_val","Valence","CV",1728924566871,"positive",1089,"negative","positive","negative;positive","B",6.99301512293296,13
"254","6560d73f80824412a8a74260","hat","calibrator_val","Valence","CV",1728924569159,"positive",1528,"negative","positive","negative;positive","B",7.33171496972647,14
"255","6560d73f80824412a8a74260","joke","calibrator_val","Valence","CV",1728924571535,"positive",1615,"negative","positive","negative;positive","B",7.38709023565676,15
"256","6560d73f80824412a8a74260","icebox","calibrator_val","Valence","CV",1728924573815,"positive",1522,"negative","positive","negative;positive","B",7.32778053842163,16
"257","6560d73f80824412a8a74260","jail","calibrator_val","Valence","CV",1728924575367,"negative",794,"negative","positive","negative;positive","B",6.67708346124714,17
"258","6560d73f80824412a8a74260","industry","calibrator_val","Valence","CV",1728924577295,"positive",1168,"negative","positive","negative;positive","B",7.06304816338817,18
"259","6560d73f80824412a8a74260","invader","calibrator_val","Valence","CV",1728924578903,"negative",846,"negative","positive","negative;positive","B",6.74051935960622,19
"260","6560d73f80824412a8a74260","kitten","calibrator_val","Valence","CV",1728924580335,"positive",671,"negative","positive","negative;positive","B",6.50876913697168,20
"261","5f763e6e7632050c3712feac","gas","calibrator_conc","Concrete","CV",1728925195474,"concrete",2001,"abstract","concrete","abstract;concrete","A",7.60140233458373,1
"262","5f763e6e7632050c3712feac","whistle","calibrator_conc","Concrete","CV",1728925197347,"concrete",1092,"abstract","concrete","abstract;concrete","A",6.99576615630485,2
"263","5f763e6e7632050c3712feac","sugar","calibrator_conc","Concrete","CV",1728925198812,"concrete",690,"abstract","concrete","abstract;concrete","A",6.5366915975913,3
"264","5f763e6e7632050c3712feac","shirt","calibrator_conc","Concrete","CV",1728925200322,"concrete",735,"abstract","concrete","abstract;concrete","A",6.59987049921284,4
"265","5f763e6e7632050c3712feac","marriage","calibrator_conc","Concrete","CV",1728925204402,"abstract",3306,"abstract","concrete","abstract;concrete","A",8.10349427838097,5
"266","5f763e6e7632050c3712feac","polite","calibrator_conc","Concrete","CV",1728925206234,"abstract",1056,"abstract","concrete","abstract;concrete","A",6.96224346426621,6
"267","5f763e6e7632050c3712feac","theory","calibrator_conc","Concrete","CV",1728925207764,"abstract",760,"abstract","concrete","abstract;concrete","A",6.63331843328038,7
"268","5f763e6e7632050c3712feac","infinity","calibrator_conc","Concrete","CV",1728925209422,"abstract",890,"abstract","concrete","abstract;concrete","A",6.79122146272619,8
"269","5f763e6e7632050c3712feac","grasshopper","calibrator_conc","Concrete","CV",1728925210929,"concrete",750,"abstract","concrete","abstract;concrete","A",6.62007320653036,9
"270","5f763e6e7632050c3712feac","kick","calibrator_conc","Concrete","CV",1728925213521,"concrete",1824,"abstract","concrete","abstract;concrete","A",7.50878717063428,10
"271","5f763e6e7632050c3712feac","free","calibrator_val","Valence","CV",1728925394476,"positive",2031,"negative","positive","negative;positive","B",7.61628356158038,11
"272","5f763e6e7632050c3712feac","industry","calibrator_val","Valence","CV",1728925396964,"positive",1729,"negative","positive","negative;positive","B",7.45529848568329,12
"273","5f763e6e7632050c3712feac","grin","calibrator_val","Valence","CV",1728925398459,"positive",732,"negative","positive","negative;positive","B",6.59578051396131,13
"274","5f763e6e7632050c3712feac","insecure","calibrator_val","Valence","CV",1728925400353,"negative",1133,"negative","positive","negative;positive","B",7.03262426102801,14
"275","5f763e6e7632050c3712feac","joke","calibrator_val","Valence","CV",1728925402129,"positive",1012,"negative","positive","negative;positive","B",6.91968384984741,15
"276","5f763e6e7632050c3712feac","jail","calibrator_val","Valence","CV",1728925403911,"negative",1018,"negative","positive","negative;positive","B",6.92559519711047,16
"277","5f763e6e7632050c3712feac","hat","calibrator_val","Valence","CV",1728925406117,"positive",1439,"negative","positive","negative;positive","B",7.27170370688737,17
"278","5f763e6e7632050c3712feac","invader","calibrator_val","Valence","CV",1728925407903,"negative",1021,"negative","positive","negative;positive","B",6.92853781816467,18
"279","5f763e6e7632050c3712feac","icebox","calibrator_val","Valence","CV",1728925409702,"positive",1029,"negative","positive","negative;positive","B",6.93634273583405,19
"280","5f763e6e7632050c3712feac","kitten","calibrator_val","Valence","CV",1728925411508,"positive",1050,"negative","positive","negative;positive","B",6.95654544315157,20
"281","65bbdbd7bc3559a97b37263d","theory","calibrator_conc","Concrete","CV",1728925574679,"abstract",1365,"abstract","concrete","abstract;concrete","A",7.21890970761906,1
"282","65bbdbd7bc3559a97b37263d","gas","calibrator_conc","Concrete","CV",1728925576328,"abstract",888,"abstract","concrete","abstract;concrete","A",6.78897174299217,2
"283","65bbdbd7bc3559a97b37263d","polite","calibrator_conc","Concrete","CV",1728925578100,"abstract",1008,"abstract","concrete","abstract;concrete","A",6.91572344863131,3
"284","65bbdbd7bc3559a97b37263d","kick","calibrator_conc","Concrete","CV",1728925579805,"concrete",943,"abstract","concrete","abstract;concrete","A",6.84906628263346,4
"285","65bbdbd7bc3559a97b37263d","grasshopper","calibrator_conc","Concrete","CV",1728925582038,"concrete",1477,"abstract","concrete","abstract;concrete","A",7.29776828253138,5
"286","65bbdbd7bc3559a97b37263d","infinity","calibrator_conc","Concrete","CV",1728925583825,"abstract",1021,"abstract","concrete","abstract;concrete","A",6.92853781816467,6
"287","65bbdbd7bc3559a97b37263d","sugar","calibrator_conc","Concrete","CV",1728925585338,"concrete",745,"abstract","concrete","abstract;concrete","A",6.61338421837956,7
"288","65bbdbd7bc3559a97b37263d","shirt","calibrator_conc","Concrete","CV",1728925586987,"concrete",883,"abstract","concrete","abstract;concrete","A",6.78332520060396,8
"289","65bbdbd7bc3559a97b37263d","whistle","calibrator_conc","Concrete","CV",1728925588751,"concrete",997,"abstract","concrete","abstract;concrete","A",6.90475076996184,9
"290","65bbdbd7bc3559a97b37263d","marriage","calibrator_conc","Concrete","CV",1728925590447,"abstract",929,"abstract","concrete","abstract;concrete","A",6.83410873881384,10
"291","65bbdbd7bc3559a97b37263d","invader","calibrator_val","Valence","CV",1728925695216,"negative",1183,"negative","positive","negative;positive","B",7.07580886397839,11
"292","65bbdbd7bc3559a97b37263d","joke","calibrator_val","Valence","CV",1728925696709,"positive",729,"negative","positive","negative;positive","B",6.59167373200866,12
"293","65bbdbd7bc3559a97b37263d","hat","calibrator_val","Valence","CV",1728925698433,"positive",964,"negative","positive","negative;positive","B",6.87109129461055,13
"294","65bbdbd7bc3559a97b37263d","kitten","calibrator_val","Valence","CV",1728925699824,"positive",632,"negative","positive","negative;positive","B",6.44888939414686,14
"295","65bbdbd7bc3559a97b37263d","icebox","calibrator_val","Valence","CV",1728925701451,"positive",868,"negative","positive","negative;positive","B",6.76619171466035,15
"296","65bbdbd7bc3559a97b37263d","industry","calibrator_val","Valence","CV",1728925703221,"positive",1009,"negative","positive","negative;positive","B",6.91671502035361,16
"297","65bbdbd7bc3559a97b37263d","free","calibrator_val","Valence","CV",1728925704709,"positive",729,"negative","positive","negative;positive","B",6.59167373200866,17
"298","65bbdbd7bc3559a97b37263d","insecure","calibrator_val","Valence","CV",1728925706217,"negative",748,"negative","positive","negative;positive","B",6.61740297797448,18
"299","65bbdbd7bc3559a97b37263d","jail","calibrator_val","Valence","CV",1728925707592,"negative",616,"negative","positive","negative;positive","B",6.42324696353352,19
"300","65bbdbd7bc3559a97b37263d","grin","calibrator_val","Valence","CV",1728925708945,"positive",597,"negative","positive","negative;positive","B",6.3919171133926,20
"301","5ae74788d5ec5e000175ea08","icebox","calibrator_val","Valence","VC",1728920951475,"positive",1839,"negative","positive","negative;positive","B",7.51697722460432,1
"302","5ae74788d5ec5e000175ea08","hat","calibrator_val","Valence","VC",1728920953886,"positive",1642,"negative","positive","negative;positive","B",7.40367029001237,2
"303","5ae74788d5ec5e000175ea08","kitten","calibrator_val","Valence","VC",1728920955969,"positive",1312,"negative","positive","negative;positive","B",7.17930796950403,3
"304","5ae74788d5ec5e000175ea08","joke","calibrator_val","Valence","VC",1728920958031,"positive",1285,"negative","positive","negative;positive","B",7.15851399732932,4
"305","5ae74788d5ec5e000175ea08","insecure","calibrator_val","Valence","VC",1728920960266,"negative",1464,"negative","positive","negative;positive","B",7.28892769452126,5
"306","5ae74788d5ec5e000175ea08","invader","calibrator_val","Valence","VC",1728920962220,"negative",1175,"negative","positive","negative;positive","B",7.06902342657826,6
"307","5ae74788d5ec5e000175ea08","industry","calibrator_val","Valence","VC",1728920964181,"negative",1187,"negative","positive","negative;positive","B",7.07918439460967,7
"308","5ae74788d5ec5e000175ea08","jail","calibrator_val","Valence","VC",1728920966070,"negative",1118,"negative","positive","negative;positive","B",7.01929665371504,8
"309","5ae74788d5ec5e000175ea08","grin","calibrator_val","Valence","VC",1728920967769,"positive",914,"negative","positive","negative;positive","B",6.81783057145415,9
"310","5ae74788d5ec5e000175ea08","free","calibrator_val","Valence","VC",1728920969413,"positive",886,"negative","positive","negative;positive","B",6.78671695060508,10
"311","5ae74788d5ec5e000175ea08","kick","calibrator_conc","Concrete","VC",1728921087804,"concrete",2817,"abstract","concrete","abstract;concrete","A",7.94342776787637,11
"312","5ae74788d5ec5e000175ea08","infinity","calibrator_conc","Concrete","VC",1728921090037,"abstract",1456,"abstract","concrete","abstract;concrete","A",7.28344822875663,12
"313","5ae74788d5ec5e000175ea08","whistle","calibrator_conc","Concrete","VC",1728921092002,"concrete",1203,"abstract","concrete","abstract;concrete","A",7.09257371597468,13
"314","5ae74788d5ec5e000175ea08","grasshopper","calibrator_conc","Concrete","VC",1728921093853,"concrete",1063,"abstract","concrete","abstract;concrete","A",6.96885037834195,14
"315","5ae74788d5ec5e000175ea08","gas","calibrator_conc","Concrete","VC",1728921095728,"concrete",1108,"abstract","concrete","abstract;concrete","A",7.01031186730723,15
"316","5ae74788d5ec5e000175ea08","polite","calibrator_conc","Concrete","VC",1728921098176,"abstract",1669,"abstract","concrete","abstract;concrete","A",7.41997992366183,16
"317","5ae74788d5ec5e000175ea08","sugar","calibrator_conc","Concrete","VC",1728921099865,"concrete",920,"abstract","concrete","abstract;concrete","A",6.82437367004309,17
"318","5ae74788d5ec5e000175ea08","theory","calibrator_conc","Concrete","VC",1728921101770,"abstract",1127,"abstract","concrete","abstract;concrete","A",7.02731451403978,18
"319","5ae74788d5ec5e000175ea08","marriage","calibrator_conc","Concrete","VC",1728921103720,"concrete",1173,"abstract","concrete","abstract;concrete","A",7.06731984865348,19
"320","5ae74788d5ec5e000175ea08","shirt","calibrator_conc","Concrete","VC",1728921105624,"concrete",1138,"abstract","concrete","abstract;concrete","A",7.03702761468628,20
"321","60ff1668f3238bd02d40328d","invader","calibrator_val","Valence","VC",1728921064911,"positive",1504,"negative","positive","negative;positive","B",7.31588350450979,1
"322","60ff1668f3238bd02d40328d","icebox","calibrator_val","Valence","VC",1728921066985,"positive",1320,"negative","positive","negative;positive","B",7.18538701558042,2
"323","60ff1668f3238bd02d40328d","grin","calibrator_val","Valence","VC",1728921068937,"positive",1200,"negative","positive","negative;positive","B",7.09007683577609,3
"324","60ff1668f3238bd02d40328d","industry","calibrator_val","Valence","VC",1728921070843,"positive",1152,"negative","positive","negative;positive","B",7.04925484125584,4
"325","60ff1668f3238bd02d40328d","joke","calibrator_val","Valence","VC",1728921072235,"positive",635,"negative","positive","negative;positive","B",6.45362499889269,5
"326","60ff1668f3238bd02d40328d","free","calibrator_val","Valence","VC",1728921073655,"positive",662,"negative","positive","negative;positive","B",6.49526555593701,6
"327","60ff1668f3238bd02d40328d","kitten","calibrator_val","Valence","VC",1728921075051,"positive",643,"negative","positive","negative;positive","B",6.46614472423762,7
"328","60ff1668f3238bd02d40328d","hat","calibrator_val","Valence","VC",1728921076543,"positive",738,"negative","positive","negative;positive","B",6.60394382460047,8
"329","60ff1668f3238bd02d40328d","insecure","calibrator_val","Valence","VC",1728921078097,"negative",799,"negative","positive","negative;positive","B",6.68336094576627,9
"330","60ff1668f3238bd02d40328d","jail","calibrator_val","Valence","VC",1728921079587,"negative",733,"negative","positive","negative;positive","B",6.59714570188665,10
"331","60ff1668f3238bd02d40328d","sugar","calibrator_conc","Concrete","VC",1728921179811,"concrete",1155,"abstract","concrete","abstract;concrete","A",7.05185562295589,11
"332","60ff1668f3238bd02d40328d","whistle","calibrator_conc","Concrete","VC",1728921181399,"concrete",833,"abstract","concrete","abstract;concrete","A",6.72503364216684,12
"333","60ff1668f3238bd02d40328d","polite","calibrator_conc","Concrete","VC",1728921183013,"concrete",859,"abstract","concrete","abstract;concrete","A",6.75576892198425,13
"334","60ff1668f3238bd02d40328d","infinity","calibrator_conc","Concrete","VC",1728921184778,"abstract",1012,"abstract","concrete","abstract;concrete","A",6.91968384984741,14
"335","60ff1668f3238bd02d40328d","marriage","calibrator_conc","Concrete","VC",1728921186890,"concrete",1356,"abstract","concrete","abstract;concrete","A",7.21229446850034,15
"336","60ff1668f3238bd02d40328d","theory","calibrator_conc","Concrete","VC",1728921188625,"abstract",982,"abstract","concrete","abstract;concrete","A",6.88959130835447,16
"337","60ff1668f3238bd02d40328d","kick","calibrator_conc","Concrete","VC",1728921190229,"concrete",849,"abstract","concrete","abstract;concrete","A",6.74405918631135,17
"338","60ff1668f3238bd02d40328d","shirt","calibrator_conc","Concrete","VC",1728921191829,"concrete",841,"abstract","concrete","abstract;concrete","A",6.73459165997295,18
"339","60ff1668f3238bd02d40328d","gas","calibrator_conc","Concrete","VC",1728921193447,"concrete",861,"abstract","concrete","abstract;concrete","A",6.75809450442773,19
"340","60ff1668f3238bd02d40328d","grasshopper","calibrator_conc","Concrete","VC",1728921195007,"concrete",807,"abstract","concrete","abstract;concrete","A",6.69332366826995,20
"341","63f3727c6e41f63c9b2a6f1f","infinity","calibrator_conc","Concrete","CV",1728924267258,"abstract",1999,"abstract","concrete","abstract;concrete","A",7.6004023345004,1
"342","63f3727c6e41f63c9b2a6f1f","shirt","calibrator_conc","Concrete","CV",1728924269225,"concrete",1206,"abstract","concrete","abstract;concrete","A",7.09506437728713,2
"343","63f3727c6e41f63c9b2a6f1f","grasshopper","calibrator_conc","Concrete","CV",1728924270730,"concrete",746,"abstract","concrete","abstract;concrete","A",6.61472560020376,3
"344","63f3727c6e41f63c9b2a6f1f","sugar","calibrator_conc","Concrete","CV",1728924272298,"concrete",813,"abstract","concrete","abstract;concrete","A",6.70073110954781,4
"345","63f3727c6e41f63c9b2a6f1f","theory","calibrator_conc","Concrete","CV",1728924273802,"abstract",746,"abstract","concrete","abstract;concrete","A",6.61472560020376,5
"346","63f3727c6e41f63c9b2a6f1f","gas","calibrator_conc","Concrete","CV",1728924275322,"abstract",762,"abstract","concrete","abstract;concrete","A",6.63594655568665,6
"347","63f3727c6e41f63c9b2a6f1f","polite","calibrator_conc","Concrete","CV",1728924276954,"abstract",875,"abstract","concrete","abstract;concrete","A",6.77422388635761,7
"348","63f3727c6e41f63c9b2a6f1f","whistle","calibrator_conc","Concrete","CV",1728924278426,"abstract",714,"abstract","concrete","abstract;concrete","A",6.57088296233958,8
"349","63f3727c6e41f63c9b2a6f1f","marriage","calibrator_conc","Concrete","CV",1728924280234,"abstract",1049,"abstract","concrete","abstract;concrete","A",6.9555926083963,9
"350","63f3727c6e41f63c9b2a6f1f","kick","calibrator_conc","Concrete","CV",1728924281962,"concrete",972,"abstract","concrete","abstract;concrete","A",6.87935580446044,10
"351","63f3727c6e41f63c9b2a6f1f","hat","calibrator_val","Valence","CV",1728924410042,"positive",3099,"negative","positive","negative;positive","B",8.03883475778775,11
"352","63f3727c6e41f63c9b2a6f1f","jail","calibrator_val","Valence","CV",1728924411609,"negative",813,"negative","positive","negative;positive","B",6.70073110954781,12
"353","63f3727c6e41f63c9b2a6f1f","icebox","calibrator_val","Valence","CV",1728924413305,"positive",939,"negative","positive","negative;positive","B",6.84481547920826,13
"354","63f3727c6e41f63c9b2a6f1f","industry","calibrator_val","Valence","CV",1728924414954,"positive",894,"negative","positive","negative;positive","B",6.79570577517351,14
"355","63f3727c6e41f63c9b2a6f1f","insecure","calibrator_val","Valence","CV",1728924416601,"negative",888,"negative","positive","negative;positive","B",6.78897174299217,15
"356","63f3727c6e41f63c9b2a6f1f","kitten","calibrator_val","Valence","CV",1728924418554,"positive",1193,"negative","positive","negative;positive","B",7.08422642209792,16
"357","63f3727c6e41f63c9b2a6f1f","invader","calibrator_val","Valence","CV",1728924420218,"negative",909,"negative","positive","negative;positive","B",6.81234509417748,17
"358","63f3727c6e41f63c9b2a6f1f","grin","calibrator_val","Valence","CV",1728924421786,"negative",815,"negative","positive","negative;positive","B",6.70318811324086,18
"359","63f3727c6e41f63c9b2a6f1f","joke","calibrator_val","Valence","CV",1728924423561,"positive",1020,"negative","positive","negative;positive","B",6.92755790627832,19
"360","63f3727c6e41f63c9b2a6f1f","free","calibrator_val","Valence","CV",1728924425369,"positive",1053,"negative","positive","negative;positive","B",6.95939851213398,20
"361","614fdfcd552f1cd4e0d8b8f5","kitten","calibrator_val","Valence","VC",1728920423654,"positive",2228,"negative","positive","negative;positive","B",7.70885960104718,1
"362","614fdfcd552f1cd4e0d8b8f5","invader","calibrator_val","Valence","VC",1728920426080,"negative",1644,"negative","positive","negative;positive","B",7.40488757561612,2
"363","614fdfcd552f1cd4e0d8b8f5","hat","calibrator_val","Valence","VC",1728920430064,"positive",3228,"negative","positive","negative;positive","B",8.07961802938984,3
"364","614fdfcd552f1cd4e0d8b8f5","industry","calibrator_val","Valence","VC",1728920432309,"positive",1469,"negative","positive","negative;positive","B",7.29233717617388,4
"365","614fdfcd552f1cd4e0d8b8f5","grin","calibrator_val","Valence","VC",1728920433848,"positive",768,"negative","positive","negative;positive","B",6.64378973314767,5
"366","614fdfcd552f1cd4e0d8b8f5","jail","calibrator_val","Valence","VC",1728920435260,"negative",635,"negative","positive","negative;positive","B",6.45362499889269,6
"367","614fdfcd552f1cd4e0d8b8f5","joke","calibrator_val","Valence","VC",1728920436912,"positive",870,"negative","positive","negative;positive","B",6.76849321164863,7
"368","614fdfcd552f1cd4e0d8b8f5","insecure","calibrator_val","Valence","VC",1728920438730,"negative",1034,"negative","positive","negative;positive","B",6.94119005506837,8
"369","614fdfcd552f1cd4e0d8b8f5","icebox","calibrator_val","Valence","VC",1728920441008,"positive",1510,"negative","positive","negative;positive","B",7.31986492980897,9
"370","614fdfcd552f1cd4e0d8b8f5","free","calibrator_val","Valence","VC",1728920442532,"positive",744,"negative","positive","negative;positive","B",6.61204103483309,10
"371","614fdfcd552f1cd4e0d8b8f5","grasshopper","calibrator_conc","Concrete","VC",1728920565133,"concrete",1999,"abstract","concrete","abstract;concrete","A",7.6004023345004,11
"372","614fdfcd552f1cd4e0d8b8f5","shirt","calibrator_conc","Concrete","VC",1728920566602,"concrete",685,"abstract","concrete","abstract;concrete","A",6.52941883826223,12
"373","614fdfcd552f1cd4e0d8b8f5","marriage","calibrator_conc","Concrete","VC",1728920568163,"abstract",782,"abstract","concrete","abstract;concrete","A",6.66185474054531,13
"374","614fdfcd552f1cd4e0d8b8f5","sugar","calibrator_conc","Concrete","VC",1728920569672,"concrete",747,"abstract","concrete","abstract;concrete","A",6.61606518513282,14
"375","614fdfcd552f1cd4e0d8b8f5","kick","calibrator_conc","Concrete","VC",1728920571792,"abstract",1346,"abstract","concrete","abstract;concrete","A",7.20489251020467,15
"376","614fdfcd552f1cd4e0d8b8f5","polite","calibrator_conc","Concrete","VC",1728920573917,"abstract",1353,"abstract","concrete","abstract;concrete","A",7.21007962817079,16
"377","614fdfcd552f1cd4e0d8b8f5","theory","calibrator_conc","Concrete","VC",1728920575644,"abstract",953,"abstract","concrete","abstract;concrete","A",6.8596149036542,17
"378","614fdfcd552f1cd4e0d8b8f5","whistle","calibrator_conc","Concrete","VC",1728920577218,"concrete",809,"abstract","concrete","abstract;concrete","A",6.69579891705849,18
"379","614fdfcd552f1cd4e0d8b8f5","gas","calibrator_conc","Concrete","VC",1728920578834,"concrete",841,"abstract","concrete","abstract;concrete","A",6.73459165997295,19
"380","614fdfcd552f1cd4e0d8b8f5","infinity","calibrator_conc","Concrete","VC",1728920580940,"abstract",1326,"abstract","concrete","abstract;concrete","A",7.18992217074581,20
"381","5d87e122e951a10001c3811a","gas","calibrator_conc","Concrete","CV",1728924950468,"concrete",2169,"abstract","concrete","abstract;concrete","A",7.68202151082687,1
"382","5d87e122e951a10001c3811a","kick","calibrator_conc","Concrete","CV",1728924952363,"abstract",1136,"abstract","concrete","abstract;concrete","A",7.0352685992811,2
"383","5d87e122e951a10001c3811a","grasshopper","calibrator_conc","Concrete","CV",1728924954198,"concrete",1080,"abstract","concrete","abstract;concrete","A",6.98471632011827,3
"384","5d87e122e951a10001c3811a","infinity","calibrator_conc","Concrete","CV",1728924955994,"abstract",1035,"abstract","concrete","abstract;concrete","A",6.94215670569947,4
"385","5d87e122e951a10001c3811a","theory","calibrator_conc","Concrete","CV",1728924957766,"abstract",1015,"abstract","concrete","abstract;concrete","A",6.92264389147589,5
"386","5d87e122e951a10001c3811a","whistle","calibrator_conc","Concrete","CV",1728924959457,"abstract",933,"abstract","concrete","abstract;concrete","A",6.83840520084734,6
"387","5d87e122e951a10001c3811a","shirt","calibrator_conc","Concrete","CV",1728924961116,"concrete",902,"abstract","concrete","abstract;concrete","A",6.80461452006262,7
"388","5d87e122e951a10001c3811a","polite","calibrator_conc","Concrete","CV",1728924962949,"abstract",1076,"abstract","concrete","abstract;concrete","A",6.98100574072173,8
"389","5d87e122e951a10001c3811a","sugar","calibrator_conc","Concrete","CV",1728924964670,"concrete",967,"abstract","concrete","abstract;concrete","A",6.87419849545329,9
"390","5d87e122e951a10001c3811a","marriage","calibrator_conc","Concrete","CV",1728924966729,"concrete",1301,"abstract","concrete","abstract;concrete","A",7.1708884785125,10
"391","5d87e122e951a10001c3811a","grin","calibrator_val","Valence","CV",1728925089077,"positive",1212,"negative","positive","negative;positive","B",7.10002716662926,11
"392","5d87e122e951a10001c3811a","insecure","calibrator_val","Valence","CV",1728925090649,"negative",817,"negative","positive","negative;positive","B",6.70563909486,12
"393","5d87e122e951a10001c3811a","hat","calibrator_val","Valence","CV",1728925092467,"positive",1059,"negative","positive","negative;positive","B",6.96508034560141,13
"394","5d87e122e951a10001c3811a","invader","calibrator_val","Valence","CV",1728925094189,"negative",965,"negative","positive","negative;positive","B",6.87212810133899,14
"395","5d87e122e951a10001c3811a","joke","calibrator_val","Valence","CV",1728925095814,"positive",868,"negative","positive","negative;positive","B",6.76619171466035,15
"396","5d87e122e951a10001c3811a","industry","calibrator_val","Valence","CV",1728925097849,"negative",1278,"negative","positive","negative;positive","B",7.15305163493748,16
"397","5d87e122e951a10001c3811a","icebox","calibrator_val","Valence","CV",1728925099758,"positive",1152,"negative","positive","negative;positive","B",7.04925484125584,17
"398","5d87e122e951a10001c3811a","jail","calibrator_val","Valence","CV",1728925101399,"negative",887,"negative","positive","negative;positive","B",6.78784498230958,18
"399","5d87e122e951a10001c3811a","free","calibrator_val","Valence","CV",1728925103283,"positive",1125,"negative","positive","negative;positive","B",7.02553831463852,19
"400","5d87e122e951a10001c3811a","kitten","calibrator_val","Valence","CV",1728925104889,"positive",846,"negative","positive","negative;positive","B",6.74051935960622,20
"401","6553a1d1ca63d5c0ea71a758","invader","calibrator_val","Valence","VC",1728920814550,"negative",1879,"negative","positive","negative;positive","B",7.53849499941346,1
"402","6553a1d1ca63d5c0ea71a758","insecure","calibrator_val","Valence","VC",1728920816882,"negative",1576,"negative","positive","negative;positive","B",7.36264527041782,2
"403","6553a1d1ca63d5c0ea71a758","industry","calibrator_val","Valence","VC",1728920819407,"positive",1769,"negative","positive","negative;positive","B",7.47816969415979,3
"404","6553a1d1ca63d5c0ea71a758","joke","calibrator_val","Valence","VC",1728920821734,"negative",1569,"negative","positive","negative;positive","B",7.35819375273303,4
"405","6553a1d1ca63d5c0ea71a758","hat","calibrator_val","Valence","VC",1728920823558,"positive",1072,"negative","positive","negative;positive","B",6.97728134163075,5
"406","6553a1d1ca63d5c0ea71a758","free","calibrator_val","Valence","VC",1728920825251,"positive",937,"negative","positive","negative;positive","B",6.84268328223842,6
"407","6553a1d1ca63d5c0ea71a758","kitten","calibrator_val","Valence","VC",1728920827052,"positive",1048,"negative","positive","negative;positive","B",6.95463886488099,7
"408","6553a1d1ca63d5c0ea71a758","icebox","calibrator_val","Valence","VC",1728920829273,"positive",1465,"negative","positive","negative;positive","B",7.28961052145117,8
"409","6553a1d1ca63d5c0ea71a758","jail","calibrator_val","Valence","VC",1728920830850,"negative",824,"negative","positive","negative;positive","B",6.71417052990947,9
"410","6553a1d1ca63d5c0ea71a758","grin","calibrator_val","Valence","VC",1728920832567,"positive",959,"negative","positive","negative;positive","B",6.86589107488344,10
"411","6553a1d1ca63d5c0ea71a758","sugar","calibrator_conc","Concrete","VC",1728920931028,"concrete",1748,"abstract","concrete","abstract;concrete","A",7.46622755621548,11
"412","6553a1d1ca63d5c0ea71a758","infinity","calibrator_conc","Concrete","VC",1728920933453,"abstract",1670,"abstract","concrete","abstract;concrete","A",7.4205789054108,12
"413","6553a1d1ca63d5c0ea71a758","theory","calibrator_conc","Concrete","VC",1728920936456,"concrete",2246,"abstract","concrete","abstract;concrete","A",7.71690613529839,13
"414","6553a1d1ca63d5c0ea71a758","marriage","calibrator_conc","Concrete","VC",1728920939104,"concrete",1894,"abstract","concrete","abstract;concrete","A",7.54644627374602,14
"415","6553a1d1ca63d5c0ea71a758","polite","calibrator_conc","Concrete","VC",1728920942063,"abstract",2204,"abstract","concrete","abstract;concrete","A",7.6980291702728,15
"416","6553a1d1ca63d5c0ea71a758","grasshopper","calibrator_conc","Concrete","VC",1728920944044,"abstract",1226,"abstract","concrete","abstract;concrete","A",7.11151211649616,16
"417","6553a1d1ca63d5c0ea71a758","kick","calibrator_conc","Concrete","VC",1728920946307,"concrete",1508,"abstract","concrete","abstract;concrete","A",7.3185395485679,17
"418","6553a1d1ca63d5c0ea71a758","gas","calibrator_conc","Concrete","VC",1728920948163,"concrete",1098,"abstract","concrete","abstract;concrete","A",7.00124562206948,18
"419","6553a1d1ca63d5c0ea71a758","shirt","calibrator_conc","Concrete","VC",1728920949771,"concrete",852,"abstract","concrete","abstract;concrete","A",6.74758652682932,19
"420","6553a1d1ca63d5c0ea71a758","whistle","calibrator_conc","Concrete","VC",1728920951543,"concrete",1015,"abstract","concrete","abstract;concrete","A",6.92264389147589,20
"421","63d3fa0d6c990bc96e11becf","jail","calibrator_val","Valence","VC",1728921058425,"negative",1384,"negative","positive","negative;positive","B",7.23273313617761,1
"422","63d3fa0d6c990bc96e11becf","free","calibrator_val","Valence","VC",1728921060175,"positive",993,"negative","positive","negative;positive","B",6.90073066404517,2
"423","63d3fa0d6c990bc96e11becf","industry","calibrator_val","Valence","VC",1728921062431,"negative",1500,"negative","positive","negative;positive","B",7.3132203870903,3
"424","63d3fa0d6c990bc96e11becf","icebox","calibrator_val","Valence","VC",1728921064555,"positive",1367,"negative","positive","negative;positive","B",7.22037383672395,4
"425","63d3fa0d6c990bc96e11becf","grin","calibrator_val","Valence","VC",1728921066309,"positive",997,"negative","positive","negative;positive","B",6.90475076996184,5
"426","63d3fa0d6c990bc96e11becf","invader","calibrator_val","Valence","VC",1728921067845,"negative",778,"negative","positive","negative;positive","B",6.65672652417839,6
"427","63d3fa0d6c990bc96e11becf","hat","calibrator_val","Valence","VC",1728921069989,"positive",1389,"negative","positive","negative;positive","B",7.23633934275434,7
"428","63d3fa0d6c990bc96e11becf","joke","calibrator_val","Valence","VC",1728921071579,"positive",837,"negative","positive","negative;positive","B",6.72982407048948,8
"429","63d3fa0d6c990bc96e11becf","insecure","calibrator_val","Valence","VC",1728921073211,"negative",876,"negative","positive","negative;positive","B",6.77536609093639,9
"430","63d3fa0d6c990bc96e11becf","kitten","calibrator_val","Valence","VC",1728921074731,"positive",765,"negative","positive","negative;positive","B",6.63987583382654,10
"431","63d3fa0d6c990bc96e11becf","kick","calibrator_conc","Concrete","VC",1728921184961,"concrete",2573,"abstract","concrete","abstract;concrete","A",7.85282781228174,11
"432","63d3fa0d6c990bc96e11becf","grasshopper","calibrator_conc","Concrete","VC",1728921186991,"concrete",1277,"abstract","concrete","abstract;concrete","A",7.15226885603254,12
"433","63d3fa0d6c990bc96e11becf","sugar","calibrator_conc","Concrete","VC",1728921188907,"concrete",1159,"abstract","concrete","abstract;concrete","A",7.05531284333975,13
"434","63d3fa0d6c990bc96e11becf","shirt","calibrator_conc","Concrete","VC",1728921190671,"concrete",1008,"abstract","concrete","abstract;concrete","A",6.91572344863131,14
"435","63d3fa0d6c990bc96e11becf","theory","calibrator_conc","Concrete","VC",1728921192415,"abstract",986,"abstract","concrete","abstract;concrete","A",6.89365635460264,15
"436","63d3fa0d6c990bc96e11becf","polite","calibrator_conc","Concrete","VC",1728921194189,"abstract",1020,"abstract","concrete","abstract;concrete","A",6.92755790627832,16
"437","63d3fa0d6c990bc96e11becf","whistle","calibrator_conc","Concrete","VC",1728921196461,"concrete",1517,"abstract","concrete","abstract;concrete","A",7.32448997934853,17
"438","63d3fa0d6c990bc96e11becf","infinity","calibrator_conc","Concrete","VC",1728921199001,"abstract",1787,"abstract","concrete","abstract;concrete","A",7.48829351515943,18
"439","63d3fa0d6c990bc96e11becf","marriage","calibrator_conc","Concrete","VC",1728921202233,"abstract",2476,"abstract","concrete","abstract;concrete","A",7.81439963380449,19
"440","63d3fa0d6c990bc96e11becf","gas","calibrator_conc","Concrete","VC",1728921204127,"concrete",1138,"abstract","concrete","abstract;concrete","A",7.03702761468628,20
"441","63fb7bd7941b345c37a9c54e","grin","calibrator_val","Valence","VC",1728919576594,"negative",3252,"negative","positive","negative;positive","B",8.0870254706677,1
"442","63fb7bd7941b345c37a9c54e","industry","calibrator_val","Valence","VC",1728919578586,"positive",1230,"negative","positive","negative;positive","B",7.11476944836646,2
"443","63fb7bd7941b345c37a9c54e","icebox","calibrator_val","Valence","VC",1728919580042,"positive",699,"negative","positive","negative;positive","B",6.54965074223381,3
"444","63fb7bd7941b345c37a9c54e","jail","calibrator_val","Valence","VC",1728919581674,"negative",875,"negative","positive","negative;positive","B",6.77422388635761,4
"445","63fb7bd7941b345c37a9c54e","joke","calibrator_val","Valence","VC",1728919583386,"positive",955,"negative","positive","negative;positive","B",6.86171134048073,5
"446","63fb7bd7941b345c37a9c54e","kitten","calibrator_val","Valence","VC",1728919585018,"positive",873,"negative","positive","negative;positive","B",6.7719355558396,6
"447","63fb7bd7941b345c37a9c54e","insecure","calibrator_val","Valence","VC",1728919586466,"negative",689,"negative","positive","negative;positive","B",6.53524127101366,7
"448","63fb7bd7941b345c37a9c54e","hat","calibrator_val","Valence","VC",1728919587906,"positive",686,"negative","positive","negative;positive","B",6.53087762772588,8
"449","63fb7bd7941b345c37a9c54e","free","calibrator_val","Valence","VC",1728919589218,"positive",555,"negative","positive","negative;positive","B",6.31896811374643,9
"450","63fb7bd7941b345c37a9c54e","invader","calibrator_val","Valence","VC",1728919590786,"negative",811,"negative","positive","negative;positive","B",6.69826805411541,10
"451","63fb7bd7941b345c37a9c54e","kick","calibrator_conc","Concrete","VC",1728919662057,"concrete",2228,"abstract","concrete","abstract;concrete","A",7.70885960104718,11
"452","63fb7bd7941b345c37a9c54e","shirt","calibrator_conc","Concrete","VC",1728919663657,"concrete",843,"abstract","concrete","abstract;concrete","A",6.73696695800186,12
"453","63fb7bd7941b345c37a9c54e","grasshopper","calibrator_conc","Concrete","VC",1728919665121,"abstract",705,"abstract","concrete","abstract;concrete","A",6.55819780281227,13
"454","63fb7bd7941b345c37a9c54e","sugar","calibrator_conc","Concrete","VC",1728919667857,"abstract",1977,"abstract","concrete","abstract;concrete","A",7.58933582317062,14
"455","63fb7bd7941b345c37a9c54e","polite","calibrator_conc","Concrete","VC",1728919669881,"concrete",1264,"abstract","concrete","abstract;concrete","A",7.1420365747068,15
"456","63fb7bd7941b345c37a9c54e","gas","calibrator_conc","Concrete","VC",1728919672449,"abstract",1807,"abstract","concrete","abstract;concrete","A",7.49942329059223,16
"457","63fb7bd7941b345c37a9c54e","whistle","calibrator_conc","Concrete","VC",1728919674129,"abstract",922,"abstract","concrete","abstract;concrete","A",6.82654522355659,17
"458","63fb7bd7941b345c37a9c54e","theory","calibrator_conc","Concrete","VC",1728919675657,"abstract",770,"abstract","concrete","abstract;concrete","A",6.64639051484773,18
"459","63fb7bd7941b345c37a9c54e","marriage","calibrator_conc","Concrete","VC",1728919677817,"abstract",1404,"abstract","concrete","abstract;concrete","A",7.24708058458576,19
"460","63fb7bd7941b345c37a9c54e","infinity","calibrator_conc","Concrete","VC",1728919679377,"abstract",798,"abstract","concrete","abstract;concrete","A",6.68210859744981,20
"461","63df609cf58947e964792bb6","shirt","calibrator_conc","Concrete","CV",1728925029148,"concrete",3426,"abstract","concrete","abstract;concrete","A",8.13914867888407,1
"462","63df609cf58947e964792bb6","marriage","calibrator_conc","Concrete","CV",1728925032256,"concrete",2350,"abstract","concrete","abstract;concrete","A",7.7621706071382,2
"463","63df609cf58947e964792bb6","grasshopper","calibrator_conc","Concrete","CV",1728925034075,"concrete",1060,"abstract","concrete","abstract;concrete","A",6.96602418710611,3
"464","63df609cf58947e964792bb6","sugar","calibrator_conc","Concrete","CV",1728925036772,"abstract",1942,"abstract","concrete","abstract;concrete","A",7.57147364885127,4
"465","63df609cf58947e964792bb6","gas","calibrator_conc","Concrete","CV",1728925038887,"abstract",1361,"abstract","concrete","abstract;concrete","A",7.21597500265147,5
"466","63df609cf58947e964792bb6","infinity","calibrator_conc","Concrete","CV",1728925040776,"abstract",1132,"abstract","concrete","abstract;concrete","A",7.03174125876313,6
"467","63df609cf58947e964792bb6","whistle","calibrator_conc","Concrete","CV",1728925043148,"abstract",1614,"abstract","concrete","abstract;concrete","A",7.38647084882989,7
"468","63df609cf58947e964792bb6","theory","calibrator_conc","Concrete","CV",1728925044788,"abstract",884,"abstract","concrete","abstract;concrete","A",6.78445706263764,8
"469","63df609cf58947e964792bb6","kick","calibrator_conc","Concrete","CV",1728925046619,"concrete",1075,"abstract","concrete","abstract;concrete","A",6.98007594056176,9
"470","63df609cf58947e964792bb6","polite","calibrator_conc","Concrete","CV",1728925048518,"concrete",1143,"abstract","concrete","abstract;concrete","A",7.04141166379481,10
"471","63df609cf58947e964792bb6","jail","calibrator_val","Valence","CV",1728925140035,"negative",1138,"negative","positive","negative;positive","B",7.03702761468628,11
"472","63df609cf58947e964792bb6","icebox","calibrator_val","Valence","CV",1728925141695,"positive",903,"negative","positive","negative;positive","B",6.80572255341699,12
"473","63df609cf58947e964792bb6","insecure","calibrator_val","Valence","CV",1728925143435,"negative",985,"negative","positive","negative;positive","B",6.89264164117209,13
"474","63df609cf58947e964792bb6","grin","calibrator_val","Valence","CV",1728925145335,"negative",1144,"negative","positive","negative;positive","B",7.04228617193974,14
"475","63df609cf58947e964792bb6","hat","calibrator_val","Valence","CV",1728925147206,"positive",1116,"negative","positive","negative;positive","B",7.01750614294126,15
"476","63df609cf58947e964792bb6","invader","calibrator_val","Valence","CV",1728925149370,"negative",1410,"negative","positive","negative;positive","B",7.25134498337221,16
"477","63df609cf58947e964792bb6","joke","calibrator_val","Valence","CV",1728925150870,"positive",744,"negative","positive","negative;positive","B",6.61204103483309,17
"478","63df609cf58947e964792bb6","industry","calibrator_val","Valence","CV",1728925152774,"positive",1147,"negative","positive","negative;positive","B",7.04490511712937,18
"479","63df609cf58947e964792bb6","kitten","calibrator_val","Valence","CV",1728925154140,"positive",613,"negative","positive","negative;positive","B",6.41836493593621,19
"480","63df609cf58947e964792bb6","free","calibrator_val","Valence","CV",1728925155436,"positive",538,"negative","positive","negative;positive","B",6.28785856016178,20
"481","65c63f9b7a891fff8a4c45a2","kitten","calibrator_val","Valence","VC",1728921039850,"positive",2569,"negative","positive","negative;positive","B",7.85127199710988,1
"482","65c63f9b7a891fff8a4c45a2","hat","calibrator_val","Valence","VC",1728921042570,"positive",1954,"negative","positive","negative;positive","B",7.57763383260273,2
"483","65c63f9b7a891fff8a4c45a2","jail","calibrator_val","Valence","VC",1728921044953,"negative",1618,"negative","positive","negative;positive","B",7.38894609761844,3
"484","65c63f9b7a891fff8a4c45a2","invader","calibrator_val","Valence","VC",1728921047129,"negative",1410,"negative","positive","negative;positive","B",7.25134498337221,4
"485","65c63f9b7a891fff8a4c45a2","grin","calibrator_val","Valence","VC",1728921049002,"positive",1112,"negative","positive","negative;positive","B",7.01391547481053,5
"486","65c63f9b7a891fff8a4c45a2","industry","calibrator_val","Valence","VC",1728921051081,"positive",1315,"negative","positive","negative;positive","B",7.18159194461187,6
"487","65c63f9b7a891fff8a4c45a2","insecure","calibrator_val","Valence","VC",1728921053017,"negative",1175,"negative","positive","negative;positive","B",7.06902342657826,7
"488","65c63f9b7a891fff8a4c45a2","joke","calibrator_val","Valence","VC",1728921054761,"positive",981,"negative","positive","negative;positive","B",6.88857245956536,8
"489","65c63f9b7a891fff8a4c45a2","free","calibrator_val","Valence","VC",1728921056665,"positive",1138,"negative","positive","negative;positive","B",7.03702761468628,9
"490","65c63f9b7a891fff8a4c45a2","icebox","calibrator_val","Valence","VC",1728921058505,"positive",1079,"negative","positive","negative;positive","B",6.98378996525813,10
"491","65c63f9b7a891fff8a4c45a2","polite","calibrator_conc","Concrete","VC",1728921197209,"abstract",4135,"abstract","concrete","abstract;concrete","A",8.32724260745779,11
"492","65c63f9b7a891fff8a4c45a2","whistle","calibrator_conc","Concrete","VC",1728921199641,"abstract",1671,"abstract","concrete","abstract;concrete","A",7.42117752859539,12
"493","65c63f9b7a891fff8a4c45a2","shirt","calibrator_conc","Concrete","VC",1728921201721,"concrete",1318,"abstract","concrete","abstract;concrete","A",7.18387071506245,13
"494","65c63f9b7a891fff8a4c45a2","kick","calibrator_conc","Concrete","VC",1728921203737,"abstract",1251,"abstract","concrete","abstract;concrete","A",7.13169851046691,14
"495","65c63f9b7a891fff8a4c45a2","gas","calibrator_conc","Concrete","VC",1728921205977,"abstract",1478,"abstract","concrete","abstract;concrete","A",7.29844510150815,15
"496","65c63f9b7a891fff8a4c45a2","marriage","calibrator_conc","Concrete","VC",1728921208778,"concrete",2036,"abstract","concrete","abstract;concrete","A",7.61874237767041,16
"497","65c63f9b7a891fff8a4c45a2","infinity","calibrator_conc","Concrete","VC",1728921211001,"abstract",1458,"abstract","concrete","abstract;concrete","A",7.2848209125686,17
"498","65c63f9b7a891fff8a4c45a2","sugar","calibrator_conc","Concrete","VC",1728921214281,"concrete",2517,"abstract","concrete","abstract;concrete","A",7.83082299513532,18
"499","65c63f9b7a891fff8a4c45a2","grasshopper","calibrator_conc","Concrete","VC",1728921215946,"concrete",907,"abstract","concrete","abstract;concrete","A",6.81014245011514,19
"500","65c63f9b7a891fff8a4c45a2","theory","calibrator_conc","Concrete","VC",1728921217801,"abstract",1093,"abstract","concrete","abstract;concrete","A",6.99668148817654,20
"501","606734f4935218ab9f94703c","shirt","calibrator_conc","Concrete","CV",1728925380276,"abstract",1165,"abstract","concrete","abstract;concrete","A",7.0604763659998,1
"502","606734f4935218ab9f94703c","whistle","calibrator_conc","Concrete","CV",1728925383331,"concrete",2281,"abstract","concrete","abstract;concrete","A",7.73236922228439,2
"503","606734f4935218ab9f94703c","grasshopper","calibrator_conc","Concrete","CV",1728925385141,"concrete",1043,"abstract","concrete","abstract;concrete","A",6.94985645500077,3
"504","606734f4935218ab9f94703c","marriage","calibrator_conc","Concrete","CV",1728925388350,"concrete",2423,"abstract","concrete","abstract;concrete","A",7.79276172081653,4
"505","606734f4935218ab9f94703c","polite","calibrator_conc","Concrete","CV",1728925391476,"abstract",2346,"abstract","concrete","abstract;concrete","A",7.76046702921342,5
"506","606734f4935218ab9f94703c","kick","calibrator_conc","Concrete","CV",1728925394018,"concrete",1765,"abstract","concrete","abstract;concrete","A",7.4759059693674,6
"507","606734f4935218ab9f94703c","infinity","calibrator_conc","Concrete","CV",1728925396352,"abstract",1549,"abstract","concrete","abstract;concrete","A",7.34536484041687,7
"508","606734f4935218ab9f94703c","theory","calibrator_conc","Concrete","CV",1728925398332,"abstract",1202,"abstract","concrete","abstract;concrete","A",7.09174211509515,8
"509","606734f4935218ab9f94703c","sugar","calibrator_conc","Concrete","CV",1728925400247,"concrete",1132,"abstract","concrete","abstract;concrete","A",7.03174125876313,9
"510","606734f4935218ab9f94703c","gas","calibrator_conc","Concrete","CV",1728925401934,"concrete",912,"abstract","concrete","abstract;concrete","A",6.81563999007433,10
"511","606734f4935218ab9f94703c","hat","calibrator_val","Valence","CV",1728925526920,"positive",2907,"negative","positive","negative;positive","B",7.97487690055888,11
"512","606734f4935218ab9f94703c","grin","calibrator_val","Valence","CV",1728925528805,"positive",1105,"negative","positive","negative;positive","B",7.00760061395185,12
"513","606734f4935218ab9f94703c","icebox","calibrator_val","Valence","CV",1728925531919,"positive",2344,"negative","positive","negative;positive","B",7.7596141506969,13
"514","606734f4935218ab9f94703c","invader","calibrator_val","Valence","CV",1728925534296,"negative",1594,"negative","positive","negative;positive","B",7.37400185935016,14
"515","606734f4935218ab9f94703c","insecure","calibrator_val","Valence","CV",1728925537416,"negative",2339,"negative","positive","negative;positive","B",7.75747876658418,15
"516","606734f4935218ab9f94703c","industry","calibrator_val","Valence","CV",1728925540385,"positive",2198,"negative","positive","negative;positive","B",7.69530313496357,16
"517","606734f4935218ab9f94703c","kitten","calibrator_val","Valence","CV",1728925542682,"positive",1518,"negative","positive","negative;positive","B",7.32514895795557,17
"518","606734f4935218ab9f94703c","jail","calibrator_val","Valence","CV",1728925544898,"negative",1435,"negative","positive","negative;positive","B",7.26892012819372,18
"519","606734f4935218ab9f94703c","free","calibrator_val","Valence","CV",1728925547386,"positive",1705,"negative","positive","negative;positive","B",7.44132038971762,19
"520","606734f4935218ab9f94703c","joke","calibrator_val","Valence","CV",1728925549349,"positive",1183,"negative","positive","negative;positive","B",7.07580886397839,20
"521","5cbfd2c776a6810001fd29b2","kitten","calibrator_val","Valence","VC",1728920209529,"negative",7,"negative","positive","negative;positive","B",1.94591014905531,1
"522","5cbfd2c776a6810001fd29b2","insecure","calibrator_val","Valence","VC",1728920210494,"negative",209,"negative","positive","negative;positive","B",5.34233425196481,2
"523","5cbfd2c776a6810001fd29b2","industry","calibrator_val","Valence","VC",1728920213262,"negative",2011,"negative","positive","negative;positive","B",7.60638738977265,3
"524","5cbfd2c776a6810001fd29b2","invader","calibrator_val","Valence","VC",1728920214998,"negative",981,"negative","positive","negative;positive","B",6.88857245956536,4
"525","5cbfd2c776a6810001fd29b2","hat","calibrator_val","Valence","VC",1728920216430,"positive",674,"negative","positive","negative;positive","B",6.51323011091231,5
"526","5cbfd2c776a6810001fd29b2","free","calibrator_val","Valence","VC",1728920217886,"positive",696,"negative","positive","negative;positive","B",6.54534966033442,6
"527","5cbfd2c776a6810001fd29b2","icebox","calibrator_val","Valence","VC",1728920219326,"positive",686,"negative","positive","negative;positive","B",6.53087762772588,7
"528","5cbfd2c776a6810001fd29b2","jail","calibrator_val","Valence","VC",1728920220782,"negative",697,"negative","positive","negative;positive","B",6.54678541076052,8
"529","5cbfd2c776a6810001fd29b2","joke","calibrator_val","Valence","VC",1728920222302,"positive",765,"negative","positive","negative;positive","B",6.63987583382654,9
"530","5cbfd2c776a6810001fd29b2","grin","calibrator_val","Valence","VC",1728920223878,"positive",819,"negative","positive","negative;positive","B",6.70808408385307,10
"531","5cbfd2c776a6810001fd29b2","sugar","calibrator_conc","Concrete","VC",1728920298598,"concrete",1176,"abstract","concrete","abstract;concrete","A",7.06987412845857,11
"532","5cbfd2c776a6810001fd29b2","grasshopper","calibrator_conc","Concrete","VC",1728920300038,"concrete",682,"abstract","concrete","abstract;concrete","A",6.52502965784346,12
"533","5cbfd2c776a6810001fd29b2","polite","calibrator_conc","Concrete","VC",1728920301630,"abstract",841,"abstract","concrete","abstract;concrete","A",6.73459165997295,13
"534","5cbfd2c776a6810001fd29b2","marriage","calibrator_conc","Concrete","VC",1728920302982,"concrete",596,"abstract","concrete","abstract;concrete","A",6.39024066706535,14
"535","5cbfd2c776a6810001fd29b2","infinity","calibrator_conc","Concrete","VC",1728920304414,"concrete",678,"abstract","concrete","abstract;concrete","A",6.5191472879404,15
"536","5cbfd2c776a6810001fd29b2","shirt","calibrator_conc","Concrete","VC",1728920306086,"concrete",916,"abstract","concrete","abstract;concrete","A",6.82001636467413,16
"537","5cbfd2c776a6810001fd29b2","gas","calibrator_conc","Concrete","VC",1728920308118,"concrete",1276,"abstract","concrete","abstract;concrete","A",7.15148546390474,17
"538","5cbfd2c776a6810001fd29b2","kick","calibrator_conc","Concrete","VC",1728920309646,"concrete",774,"abstract","concrete","abstract;concrete","A",6.65157187358973,18
"539","5cbfd2c776a6810001fd29b2","theory","calibrator_conc","Concrete","VC",1728920311230,"abstract",833,"abstract","concrete","abstract;concrete","A",6.72503364216684,19
"540","5cbfd2c776a6810001fd29b2","whistle","calibrator_conc","Concrete","VC",1728920312726,"concrete",738,"abstract","concrete","abstract;concrete","A",6.60394382460047,20
"541","65958afd5a45f68375c3ec15","theory","calibrator_conc","Concrete","CV",1728923995499,"abstract",1515,"abstract","concrete","abstract;concrete","A",7.32317071794347,1
"542","65958afd5a45f68375c3ec15","shirt","calibrator_conc","Concrete","CV",1728923997303,"concrete",1046,"abstract","concrete","abstract;concrete","A",6.95272864462487,2
"543","65958afd5a45f68375c3ec15","gas","calibrator_conc","Concrete","CV",1728923999405,"concrete",1345,"abstract","concrete","abstract;concrete","A",7.20414929203594,3
"544","65958afd5a45f68375c3ec15","infinity","calibrator_conc","Concrete","CV",1728924001400,"abstract",1235,"abstract","concrete","abstract;concrete","A",7.11882624906208,4
"545","65958afd5a45f68375c3ec15","sugar","calibrator_conc","Concrete","CV",1728924002861,"concrete",702,"abstract","concrete","abstract;concrete","A",6.55393340402581,5
"546","65958afd5a45f68375c3ec15","whistle","calibrator_conc","Concrete","CV",1728924004894,"concrete",1280,"abstract","concrete","abstract;concrete","A",7.15461535691366,6
"547","65958afd5a45f68375c3ec15","grasshopper","calibrator_conc","Concrete","CV",1728924006496,"concrete",844,"abstract","concrete","abstract;concrete","A",6.73815249459596,7
"548","65958afd5a45f68375c3ec15","polite","calibrator_conc","Concrete","CV",1728924008190,"abstract",934,"abstract","concrete","abstract;concrete","A",6.83947643822884,8
"549","65958afd5a45f68375c3ec15","kick","calibrator_conc","Concrete","CV",1728924009748,"concrete",801,"abstract","concrete","abstract;concrete","A",6.68586094706836,9
"550","65958afd5a45f68375c3ec15","marriage","calibrator_conc","Concrete","CV",1728924012616,"abstract",2114,"abstract","concrete","abstract;concrete","A",7.65633716643018,10
"551","65958afd5a45f68375c3ec15","free","calibrator_val","Valence","CV",1728924100358,"positive",1781,"negative","positive","negative;positive","B",7.48493028328966,11
"552","65958afd5a45f68375c3ec15","invader","calibrator_val","Valence","CV",1728924101823,"negative",709,"negative","positive","negative;positive","B",6.56385552653213,12
"553","65958afd5a45f68375c3ec15","joke","calibrator_val","Valence","CV",1728924103084,"positive",508,"negative","positive","negative;positive","B",6.23048144757848,13
"554","65958afd5a45f68375c3ec15","insecure","calibrator_val","Valence","CV",1728924104534,"negative",694,"negative","positive","negative;positive","B",6.5424719605068,14
"555","65958afd5a45f68375c3ec15","hat","calibrator_val","Valence","CV",1728924105944,"positive",654,"negative","positive","negative;positive","B",6.4831073514572,15
"556","65958afd5a45f68375c3ec15","industry","calibrator_val","Valence","CV",1728924108244,"positive",1542,"negative","positive","negative;positive","B",7.34083555412327,16
"557","65958afd5a45f68375c3ec15","jail","calibrator_val","Valence","CV",1728924109788,"negative",788,"negative","positive","negative;positive","B",6.66949808985788,17
"558","65958afd5a45f68375c3ec15","kitten","calibrator_val","Valence","CV",1728924111248,"positive",706,"negative","positive","negative;positive","B",6.55961523749324,18
"559","65958afd5a45f68375c3ec15","grin","calibrator_val","Valence","CV",1728924112705,"positive",696,"negative","positive","negative;positive","B",6.54534966033442,19
"560","65958afd5a45f68375c3ec15","icebox","calibrator_val","Valence","CV",1728924114665,"positive",1207,"negative","positive","negative;positive","B",7.09589322109753,20
"561","66208c9103c058c33d4f9320","theory","calibrator_conc","Concrete","CV",1728913948813,"abstract",1859,"abstract","concrete","abstract;concrete","A",7.52779398772144,1
"562","66208c9103c058c33d4f9320","grasshopper","calibrator_conc","Concrete","CV",1728913950468,"concrete",898,"abstract","concrete","abstract;concrete","A",6.8001700683022,2
"563","66208c9103c058c33d4f9320","infinity","calibrator_conc","Concrete","CV",1728913952667,"abstract",1446,"abstract","concrete","abstract;concrete","A",7.27655640271871,3
"564","66208c9103c058c33d4f9320","whistle","calibrator_conc","Concrete","CV",1728913954306,"concrete",884,"abstract","concrete","abstract;concrete","A",6.78445706263764,4
"565","66208c9103c058c33d4f9320","kick","calibrator_conc","Concrete","CV",1728913955902,"concrete",840,"abstract","concrete","abstract;concrete","A",6.73340189183736,5
"566","66208c9103c058c33d4f9320","polite","calibrator_conc","Concrete","CV",1728913957532,"abstract",876,"abstract","concrete","abstract;concrete","A",6.77536609093639,6
"567","66208c9103c058c33d4f9320","sugar","calibrator_conc","Concrete","CV",1728913959066,"concrete",779,"abstract","concrete","abstract;concrete","A",6.65801104587075,7
"568","66208c9103c058c33d4f9320","gas","calibrator_conc","Concrete","CV",1728913960547,"concrete",724,"abstract","concrete","abstract;concrete","A",6.58479139238572,8
"569","66208c9103c058c33d4f9320","marriage","calibrator_conc","Concrete","CV",1728913962301,"abstract",1000,"abstract","concrete","abstract;concrete","A",6.90775527898214,9
"570","66208c9103c058c33d4f9320","shirt","calibrator_conc","Concrete","CV",1728913963766,"concrete",706,"abstract","concrete","abstract;concrete","A",6.55961523749324,10
"571","66208c9103c058c33d4f9320","industry","calibrator_val","Valence","CV",1728913979942,"positive",1300,"negative","positive","negative;positive","B",7.17011954344963,11
"572","66208c9103c058c33d4f9320","invader","calibrator_val","Valence","CV",1728913981688,"negative",992,"negative","positive","negative;positive","B",6.89972310728487,12
"573","66208c9103c058c33d4f9320","hat","calibrator_val","Valence","CV",1728913983334,"positive",892,"negative","positive","negative;positive","B",6.79346613258001,13
"574","66208c9103c058c33d4f9320","joke","calibrator_val","Valence","CV",1728913985023,"positive",930,"negative","positive","negative;positive","B",6.8351845861473,14
"575","66208c9103c058c33d4f9320","jail","calibrator_val","Valence","CV",1728913986396,"negative",617,"negative","positive","negative;positive","B",6.42486902390539,15
"576","66208c9103c058c33d4f9320","grin","calibrator_val","Valence","CV",1728913987984,"positive",832,"negative","positive","negative;positive","B",6.72383244082121,16
"577","66208c9103c058c33d4f9320","kitten","calibrator_val","Valence","CV",1728913989597,"positive",861,"negative","positive","negative;positive","B",6.75809450442773,17
"578","66208c9103c058c33d4f9320","insecure","calibrator_val","Valence","CV",1728913991057,"negative",702,"negative","positive","negative;positive","B",6.55393340402581,18
"579","66208c9103c058c33d4f9320","icebox","calibrator_val","Valence","CV",1728913992673,"positive",863,"negative","positive","negative;positive","B",6.76041469108343,19
"580","66208c9103c058c33d4f9320","free","calibrator_val","Valence","CV",1728913994080,"positive",657,"negative","positive","negative;positive","B",6.48768401848461,20
"581","66208c9103c058c33d4f9320","joke","calibrator_val","Valence","CV",1728923672798,"positive",1143,"negative","positive","negative;positive","B",7.04141166379481,21
"582","66208c9103c058c33d4f9320","free","calibrator_val","Valence","CV",1728923674247,"positive",688,"negative","positive","negative;positive","B",6.53378883793334,22
"583","66208c9103c058c33d4f9320","grin","calibrator_val","Valence","CV",1728923675905,"positive",903,"negative","positive","negative;positive","B",6.80572255341699,23
"584","66208c9103c058c33d4f9320","industry","calibrator_val","Valence","CV",1728923677326,"positive",661,"negative","positive","negative;positive","B",6.49375383985169,24
"585","66208c9103c058c33d4f9320","jail","calibrator_val","Valence","CV",1728923678742,"negative",659,"negative","positive","negative;positive","B",6.49072353450251,25
"586","66208c9103c058c33d4f9320","hat","calibrator_val","Valence","CV",1728923680146,"positive",649,"negative","positive","negative;positive","B",6.47543271670409,26
"587","66208c9103c058c33d4f9320","insecure","calibrator_val","Valence","CV",1728923681508,"negative",608,"negative","positive","negative;positive","B",6.41017488196617,27
"588","66208c9103c058c33d4f9320","kitten","calibrator_val","Valence","CV",1728923682907,"positive",646,"negative","positive","negative;positive","B",6.4707995037826,28
