#
# Results on Tue, 27 May 2025 14:51:28 GMT
# USER AGENT: Mozilla/5.0 (Macintosh; Intel Mac OS X 10_15_7) AppleWebKit/537.36 (KHTML, like Gecko) Chrome/136.0.0.0 Safari/537.36
# Design number was non-random = 0
#
# Columns below this comment are as follows:
# 1. Results reception time.
# 2. MD5 hash of participant's IP address.
# 3. Controller name.
# 4. Order number of item.
# 5. Inner element number.
# 6. Label.
# 7. Latin Square Group.
# 8. PennElementType.
# 9. PennElementName.
# 10. Parameter.
# 11. Value.
# 12. EventTime.
# 13. Comments.
1748357488,57f0251cfc218529e0d3276254532867,PennController,1,0,welcome,NULL,PennController,0,_Trial_,Start,1748356762175,NULL
1748357488,57f0251cfc218529e0d3276254532867,PennController,1,0,welcome,NULL,PennController,0,_Header_,Start,1748356762175,NULL
1748357488,57f0251cfc218529e0d3276254532867,PennController,1,0,welcome,NULL,PennController,0,_Header_,End,1748356762426,NULL
1748357488,57f0251cfc218529e0d3276254532867,PennController,1,0,welcome,NULL,PennController,0,_Trial_,End,1748356764650,NULL
# 13. ID.
# 14. Comments.
1748357488,57f0251cfc218529e0d3276254532867,PennController,124,0,consent,NULL,PennController,2,_Trial_,Start,1748356764651,580cab86b869700001d71628,NULL
1748357488,57f0251cfc218529e0d3276254532867,PennController,124,0,consent,NULL,PennController,2,_Header_,Start,1748356764651,580cab86b869700001d71628,NULL
1748357488,57f0251cfc218529e0d3276254532867,PennController,124,0,consent,NULL,PennController,2,_Header_,End,1748356764902,580cab86b869700001d71628,NULL
1748357488,57f0251cfc218529e0d3276254532867,PennController,124,0,consent,NULL,TextInput,ID,Final,580cab86b869700001d71628,1748356776818,580cab86b869700001d71628,NULL
1748357488,57f0251cfc218529e0d3276254532867,PennController,124,0,consent,NULL,PennController,2,_Trial_,End,1748356776818,580cab86b869700001d71628,NULL
# 13. Comments.
1748357488,57f0251cfc218529e0d3276254532867,PennController,126,0,instructions1_val,NULL,PennController,4,_Trial_,Start,1748356776819,NULL
1748357488,57f0251cfc218529e0d3276254532867,PennController,126,0,instructions1_val,NULL,PennController,4,_Header_,Start,1748356776819,NULL
1748357488,57f0251cfc218529e0d3276254532867,PennController,126,0,instructions1_val,NULL,PennController,4,_Header_,End,1748356777071,NULL
1748357488,57f0251cfc218529e0d3276254532867,PennController,126,0,instructions1_val,NULL,PennController,4,_Trial_,End,1748356809432,NULL
1748357488,57f0251cfc218529e0d3276254532867,PennController,127,0,instructions2_val,NULL,PennController,5,_Trial_,Start,1748356809433,NULL
1748357488,57f0251cfc218529e0d3276254532867,PennController,127,0,instructions2_val,NULL,PennController,5,_Header_,Start,1748356809433,NULL
1748357488,57f0251cfc218529e0d3276254532867,PennController,127,0,instructions2_val,NULL,PennController,5,_Header_,End,1748356809684,NULL
1748357488,57f0251cfc218529e0d3276254532867,PennController,127,0,instructions2_val,NULL,PennController,5,_Trial_,End,1748356811727,NULL
1748357488,57f0251cfc218529e0d3276254532867,PennController,128,0,instructions3_hands,NULL,PennController,6,_Trial_,Start,1748356811728,NULL
1748357488,57f0251cfc218529e0d3276254532867,PennController,128,0,instructions3_hands,NULL,PennController,6,_Header_,Start,1748356811728,NULL
1748357488,57f0251cfc218529e0d3276254532867,PennController,128,0,instructions3_hands,NULL,PennController,6,_Header_,End,1748356811979,NULL
1748357488,57f0251cfc218529e0d3276254532867,PennController,128,0,instructions3_hands,NULL,PennController,6,_Trial_,End,1748356814854,NULL
1748357488,57f0251cfc218529e0d3276254532867,PennController,129,0,practice_intro_val,NULL,PennController,7,_Trial_,Start,1748356814855,NULL
1748357488,57f0251cfc218529e0d3276254532867,PennController,129,0,practice_intro_val,NULL,PennController,7,_Header_,Start,1748356814855,NULL
1748357488,57f0251cfc218529e0d3276254532867,PennController,129,0,practice_intro_val,NULL,PennController,7,_Header_,End,1748356815108,NULL
1748357488,57f0251cfc218529e0d3276254532867,PennController,129,0,practice_intro_val,NULL,PennController,7,_Trial_,End,1748356816650,NULL
# 13. ID.
# 14. ReactionTime.
# 15. Word.
# 16. selectedKey.
# 17. selectedValue.
# 18. Key_value_F.
# 19. Key_value_J.
# 20. Group.
# 21. Comments.
1748357488,57f0251cfc218529e0d3276254532867,PennController,107,0,calibrator_val_feedback,NULL,PennController,118,_Trial_,Start,1748356816651,undefined,3801,icebox,undefined,positive,negative,positive,B,NULL
1748357488,57f0251cfc218529e0d3276254532867,PennController,107,0,calibrator_val_feedback,NULL,PennController,118,_Header_,Start,1748356816651,undefined,3801,icebox,undefined,positive,negative,positive,B,NULL
1748357488,57f0251cfc218529e0d3276254532867,PennController,107,0,calibrator_val_feedback,NULL,PennController,118,_Header_,End,1748356816903,undefined,3801,icebox,undefined,positive,negative,positive,B,NULL
1748357488,57f0251cfc218529e0d3276254532867,PennController,107,0,calibrator_val_feedback,NULL,Selector,Selection,Selection,positive,1748356821207,undefined,3801,icebox,undefined,positive,negative,positive,B,negative;positive
1748357488,57f0251cfc218529e0d3276254532867,PennController,107,0,calibrator_val_feedback,NULL,PennController,118,_Trial_,End,1748356823210,undefined,3801,icebox,undefined,positive,negative,positive,B,NULL
1748357488,57f0251cfc218529e0d3276254532867,PennController,109,0,calibrator_val_feedback,NULL,PennController,120,_Trial_,Start,1748356823212,undefined,1464,insecure,undefined,positive,negative,positive,B,NULL
1748357488,57f0251cfc218529e0d3276254532867,PennController,109,0,calibrator_val_feedback,NULL,PennController,120,_Header_,Start,1748356823212,undefined,1464,insecure,undefined,positive,negative,positive,B,NULL
1748357488,57f0251cfc218529e0d3276254532867,PennController,109,0,calibrator_val_feedback,NULL,PennController,120,_Header_,End,1748356823463,undefined,1464,insecure,undefined,positive,negative,positive,B,NULL
1748357488,57f0251cfc218529e0d3276254532867,PennController,109,0,calibrator_val_feedback,NULL,Selector,Selection,Selection,negative,1748356827370,undefined,1464,insecure,undefined,positive,negative,positive,B,negative;positive
1748357488,57f0251cfc218529e0d3276254532867,PennController,109,0,calibrator_val_feedback,NULL,PennController,120,_Trial_,End,1748356827433,undefined,1464,insecure,undefined,positive,negative,positive,B,NULL
1748357488,57f0251cfc218529e0d3276254532867,PennController,104,0,calibrator_val_feedback,NULL,PennController,115,_Trial_,Start,1748356827433,undefined,1768,free,undefined,positive,negative,positive,B,NULL
1748357488,57f0251cfc218529e0d3276254532867,PennController,104,0,calibrator_val_feedback,NULL,PennController,115,_Header_,Start,1748356827433,undefined,1768,free,undefined,positive,negative,positive,B,NULL
1748357488,57f0251cfc218529e0d3276254532867,PennController,104,0,calibrator_val_feedback,NULL,PennController,115,_Header_,End,1748356827684,undefined,1768,free,undefined,positive,negative,positive,B,NULL
1748357488,57f0251cfc218529e0d3276254532867,PennController,104,0,calibrator_val_feedback,NULL,Selector,Selection,Selection,positive,1748356831886,undefined,1768,free,undefined,positive,negative,positive,B,negative;positive
1748357488,57f0251cfc218529e0d3276254532867,PennController,104,0,calibrator_val_feedback,NULL,PennController,115,_Trial_,End,1748356831959,undefined,1768,free,undefined,positive,negative,positive,B,NULL
1748357488,57f0251cfc218529e0d3276254532867,PennController,108,0,calibrator_val_feedback,NULL,PennController,119,_Trial_,Start,1748356831960,undefined,1574,industry,undefined,positive,negative,positive,B,NULL
1748357488,57f0251cfc218529e0d3276254532867,PennController,108,0,calibrator_val_feedback,NULL,PennController,119,_Header_,Start,1748356831960,undefined,1574,industry,undefined,positive,negative,positive,B,NULL
1748357488,57f0251cfc218529e0d3276254532867,PennController,108,0,calibrator_val_feedback,NULL,PennController,119,_Header_,End,1748356832212,undefined,1574,industry,undefined,positive,negative,positive,B,NULL
1748357488,57f0251cfc218529e0d3276254532867,PennController,108,0,calibrator_val_feedback,NULL,Selector,Selection,Selection,positive,1748356835996,undefined,1574,industry,undefined,positive,negative,positive,B,negative;positive
1748357488,57f0251cfc218529e0d3276254532867,PennController,108,0,calibrator_val_feedback,NULL,PennController,119,_Trial_,End,1748356836290,undefined,1574,industry,undefined,positive,negative,positive,B,NULL
1748357488,57f0251cfc218529e0d3276254532867,PennController,112,0,calibrator_val_feedback,NULL,PennController,123,_Trial_,Start,1748356836291,undefined,128935,joke,undefined,positive,negative,positive,B,NULL
1748357488,57f0251cfc218529e0d3276254532867,PennController,112,0,calibrator_val_feedback,NULL,PennController,123,_Header_,Start,1748356836291,undefined,128935,joke,undefined,positive,negative,positive,B,NULL
1748357488,57f0251cfc218529e0d3276254532867,PennController,112,0,calibrator_val_feedback,NULL,PennController,123,_Header_,End,1748356836542,undefined,128935,joke,undefined,positive,negative,positive,B,NULL
1748357488,57f0251cfc218529e0d3276254532867,PennController,112,0,calibrator_val_feedback,NULL,Selector,Selection,Selection,negative,1748356967727,undefined,128935,joke,undefined,positive,negative,positive,B,negative;positive
1748357488,57f0251cfc218529e0d3276254532867,PennController,112,0,calibrator_val_feedback,NULL,PennController,123,_Trial_,End,1748356967984,undefined,128935,joke,undefined,positive,negative,positive,B,NULL
1748357488,57f0251cfc218529e0d3276254532867,PennController,105,0,calibrator_val_feedback,NULL,PennController,116,_Trial_,Start,1748356967985,undefined,936,grin,undefined,positive,negative,positive,B,NULL
1748357488,57f0251cfc218529e0d3276254532867,PennController,105,0,calibrator_val_feedback,NULL,PennController,116,_Header_,Start,1748356967985,undefined,936,grin,undefined,positive,negative,positive,B,NULL
1748357488,57f0251cfc218529e0d3276254532867,PennController,105,0,calibrator_val_feedback,NULL,PennController,116,_Header_,End,1748356968235,undefined,936,grin,undefined,positive,negative,positive,B,NULL
1748357488,57f0251cfc218529e0d3276254532867,PennController,105,0,calibrator_val_feedback,NULL,Selector,Selection,Selection,positive,1748356971524,undefined,936,grin,undefined,positive,negative,positive,B,negative;positive
1748357488,57f0251cfc218529e0d3276254532867,PennController,105,0,calibrator_val_feedback,NULL,PennController,116,_Trial_,End,1748356971674,undefined,936,grin,undefined,positive,negative,positive,B,NULL
1748357488,57f0251cfc218529e0d3276254532867,PennController,110,0,calibrator_val_feedback,NULL,PennController,121,_Trial_,Start,1748356971676,undefined,60,invader,undefined,positive,negative,positive,B,NULL
1748357488,57f0251cfc218529e0d3276254532867,PennController,110,0,calibrator_val_feedback,NULL,PennController,121,_Header_,Start,1748356971676,undefined,60,invader,undefined,positive,negative,positive,B,NULL
1748357488,57f0251cfc218529e0d3276254532867,PennController,110,0,calibrator_val_feedback,NULL,PennController,121,_Header_,End,1748356971927,undefined,60,invader,undefined,positive,negative,positive,B,NULL
1748357488,57f0251cfc218529e0d3276254532867,PennController,110,0,calibrator_val_feedback,NULL,Selector,Selection,Selection,negative,1748356974140,undefined,60,invader,undefined,positive,negative,positive,B,negative;positive
1748357488,57f0251cfc218529e0d3276254532867,PennController,110,0,calibrator_val_feedback,NULL,PennController,121,_Trial_,End,1748356974495,undefined,60,invader,undefined,positive,negative,positive,B,NULL
1748357488,57f0251cfc218529e0d3276254532867,PennController,106,0,calibrator_val_feedback,NULL,PennController,117,_Trial_,Start,1748356974496,undefined,1275,hat,undefined,positive,negative,positive,B,NULL
1748357488,57f0251cfc218529e0d3276254532867,PennController,106,0,calibrator_val_feedback,NULL,PennController,117,_Header_,Start,1748356974496,undefined,1275,hat,undefined,positive,negative,positive,B,NULL
1748357488,57f0251cfc218529e0d3276254532867,PennController,106,0,calibrator_val_feedback,NULL,PennController,117,_Header_,End,1748356974747,undefined,1275,hat,undefined,positive,negative,positive,B,NULL
1748357488,57f0251cfc218529e0d3276254532867,PennController,106,0,calibrator_val_feedback,NULL,Selector,Selection,Selection,positive,1748356978348,undefined,1275,hat,undefined,positive,negative,positive,B,negative;positive
1748357488,57f0251cfc218529e0d3276254532867,PennController,106,0,calibrator_val_feedback,NULL,PennController,117,_Trial_,End,1748356978531,undefined,1275,hat,undefined,positive,negative,positive,B,NULL
1748357488,57f0251cfc218529e0d3276254532867,PennController,111,0,calibrator_val_feedback,NULL,PennController,122,_Trial_,Start,1748356978533,undefined,764,jail,undefined,positive,negative,positive,B,NULL
1748357488,57f0251cfc218529e0d3276254532867,PennController,111,0,calibrator_val_feedback,NULL,PennController,122,_Header_,Start,1748356978533,undefined,764,jail,undefined,positive,negative,positive,B,NULL
1748357488,57f0251cfc218529e0d3276254532867,PennController,111,0,calibrator_val_feedback,NULL,PennController,122,_Header_,End,1748356978787,undefined,764,jail,undefined,positive,negative,positive,B,NULL
1748357488,57f0251cfc218529e0d3276254532867,PennController,111,0,calibrator_val_feedback,NULL,Selector,Selection,Selection,negative,1748356981999,undefined,764,jail,undefined,positive,negative,positive,B,negative;positive
1748357488,57f0251cfc218529e0d3276254532867,PennController,111,0,calibrator_val_feedback,NULL,PennController,122,_Trial_,End,1748356982060,undefined,764,jail,undefined,positive,negative,positive,B,NULL
1748357488,57f0251cfc218529e0d3276254532867,PennController,113,0,calibrator_val_feedback,NULL,PennController,124,_Trial_,Start,1748356982061,undefined,76,kitten,undefined,positive,negative,positive,B,NULL
1748357488,57f0251cfc218529e0d3276254532867,PennController,113,0,calibrator_val_feedback,NULL,PennController,124,_Header_,Start,1748356982061,undefined,76,kitten,undefined,positive,negative,positive,B,NULL
1748357488,57f0251cfc218529e0d3276254532867,PennController,113,0,calibrator_val_feedback,NULL,PennController,124,_Header_,End,1748356982315,undefined,76,kitten,undefined,positive,negative,positive,B,NULL
1748357488,57f0251cfc218529e0d3276254532867,PennController,113,0,calibrator_val_feedback,NULL,Selector,Selection,Selection,positive,1748356984736,undefined,76,kitten,undefined,positive,negative,positive,B,negative;positive
1748357488,57f0251cfc218529e0d3276254532867,PennController,113,0,calibrator_val_feedback,NULL,PennController,124,_Trial_,End,1748356984896,undefined,76,kitten,undefined,positive,negative,positive,B,NULL
# 16. Key_value_F.
# 17. Key_value_J.
# 18. Group.
# 19. Comments.
1748357488,57f0251cfc218529e0d3276254532867,PennController,121,0,calibrator_val_no_feedback,NULL,PennController,132,_Trial_,Start,1748356984898,undefined,625,jail,negative,positive,B,NULL
1748357488,57f0251cfc218529e0d3276254532867,PennController,121,0,calibrator_val_no_feedback,NULL,PennController,132,_Header_,Start,1748356984898,undefined,625,jail,negative,positive,B,NULL
1748357488,57f0251cfc218529e0d3276254532867,PennController,121,0,calibrator_val_no_feedback,NULL,PennController,132,_Header_,End,1748356985151,undefined,625,jail,negative,positive,B,NULL
1748357488,57f0251cfc218529e0d3276254532867,PennController,121,0,calibrator_val_no_feedback,NULL,Selector,unnamed-Selector,Selection,negative,1748356986279,undefined,625,jail,negative,positive,B,negative;positive
1748357488,57f0251cfc218529e0d3276254532867,PennController,121,0,calibrator_val_no_feedback,NULL,PennController,132,_Trial_,End,1748356986280,undefined,625,jail,negative,positive,B,NULL
1748357488,57f0251cfc218529e0d3276254532867,PennController,123,0,calibrator_val_no_feedback,NULL,PennController,134,_Trial_,Start,1748356986281,undefined,639,kitten,negative,positive,B,NULL
1748357488,57f0251cfc218529e0d3276254532867,PennController,123,0,calibrator_val_no_feedback,NULL,PennController,134,_Header_,Start,1748356986281,undefined,639,kitten,negative,positive,B,NULL
1748357488,57f0251cfc218529e0d3276254532867,PennController,123,0,calibrator_val_no_feedback,NULL,PennController,134,_Header_,End,1748356986532,undefined,639,kitten,negative,positive,B,NULL
1748357488,57f0251cfc218529e0d3276254532867,PennController,123,0,calibrator_val_no_feedback,NULL,Selector,unnamed-Selector,Selection,positive,1748356987674,undefined,639,kitten,negative,positive,B,negative;positive
1748357488,57f0251cfc218529e0d3276254532867,PennController,123,0,calibrator_val_no_feedback,NULL,PennController,134,_Trial_,End,1748356987675,undefined,639,kitten,negative,positive,B,NULL
1748357488,57f0251cfc218529e0d3276254532867,PennController,119,0,calibrator_val_no_feedback,NULL,PennController,130,_Trial_,Start,1748356987675,undefined,570,insecure,negative,positive,B,NULL
1748357488,57f0251cfc218529e0d3276254532867,PennController,119,0,calibrator_val_no_feedback,NULL,PennController,130,_Header_,Start,1748356987675,undefined,570,insecure,negative,positive,B,NULL
1748357488,57f0251cfc218529e0d3276254532867,PennController,119,0,calibrator_val_no_feedback,NULL,PennController,130,_Header_,End,1748356987928,undefined,570,insecure,negative,positive,B,NULL
1748357488,57f0251cfc218529e0d3276254532867,PennController,119,0,calibrator_val_no_feedback,NULL,Selector,unnamed-Selector,Selection,negative,1748356989005,undefined,570,insecure,negative,positive,B,negative;positive
1748357488,57f0251cfc218529e0d3276254532867,PennController,119,0,calibrator_val_no_feedback,NULL,PennController,130,_Trial_,End,1748356989006,undefined,570,insecure,negative,positive,B,NULL
1748357488,57f0251cfc218529e0d3276254532867,PennController,122,0,calibrator_val_no_feedback,NULL,PennController,133,_Trial_,Start,1748356989007,undefined,527,joke,negative,positive,B,NULL
1748357488,57f0251cfc218529e0d3276254532867,PennController,122,0,calibrator_val_no_feedback,NULL,PennController,133,_Header_,Start,1748356989007,undefined,527,joke,negative,positive,B,NULL
1748357488,57f0251cfc218529e0d3276254532867,PennController,122,0,calibrator_val_no_feedback,NULL,PennController,133,_Header_,End,1748356989258,undefined,527,joke,negative,positive,B,NULL
1748357488,57f0251cfc218529e0d3276254532867,PennController,122,0,calibrator_val_no_feedback,NULL,Selector,unnamed-Selector,Selection,positive,1748356990289,undefined,527,joke,negative,positive,B,negative;positive
1748357488,57f0251cfc218529e0d3276254532867,PennController,122,0,calibrator_val_no_feedback,NULL,PennController,133,_Trial_,End,1748356990290,undefined,527,joke,negative,positive,B,NULL
1748357488,57f0251cfc218529e0d3276254532867,PennController,114,0,calibrator_val_no_feedback,NULL,PennController,125,_Trial_,Start,1748356990291,undefined,533,free,negative,positive,B,NULL
1748357488,57f0251cfc218529e0d3276254532867,PennController,114,0,calibrator_val_no_feedback,NULL,PennController,125,_Header_,Start,1748356990291,undefined,533,free,negative,positive,B,NULL
1748357488,57f0251cfc218529e0d3276254532867,PennController,114,0,calibrator_val_no_feedback,NULL,PennController,125,_Header_,End,1748356990545,undefined,533,free,negative,positive,B,NULL
1748357488,57f0251cfc218529e0d3276254532867,PennController,114,0,calibrator_val_no_feedback,NULL,Selector,unnamed-Selector,Selection,positive,1748356991582,undefined,533,free,negative,positive,B,negative;positive
1748357488,57f0251cfc218529e0d3276254532867,PennController,114,0,calibrator_val_no_feedback,NULL,PennController,125,_Trial_,End,1748356991583,undefined,533,free,negative,positive,B,NULL
1748357488,57f0251cfc218529e0d3276254532867,PennController,115,0,calibrator_val_no_feedback,NULL,PennController,126,_Trial_,Start,1748356991583,undefined,673,grin,negative,positive,B,NULL
1748357488,57f0251cfc218529e0d3276254532867,PennController,115,0,calibrator_val_no_feedback,NULL,PennController,126,_Header_,Start,1748356991583,undefined,673,grin,negative,positive,B,NULL
1748357488,57f0251cfc218529e0d3276254532867,PennController,115,0,calibrator_val_no_feedback,NULL,PennController,126,_Header_,End,1748356991836,undefined,673,grin,negative,positive,B,NULL
1748357488,57f0251cfc218529e0d3276254532867,PennController,115,0,calibrator_val_no_feedback,NULL,Selector,unnamed-Selector,Selection,positive,1748356993011,undefined,673,grin,negative,positive,B,negative;positive
1748357488,57f0251cfc218529e0d3276254532867,PennController,115,0,calibrator_val_no_feedback,NULL,PennController,126,_Trial_,End,1748356993011,undefined,673,grin,negative,positive,B,NULL
1748357488,57f0251cfc218529e0d3276254532867,PennController,116,0,calibrator_val_no_feedback,NULL,PennController,127,_Trial_,Start,1748356993012,undefined,536,hat,negative,positive,B,NULL
1748357488,57f0251cfc218529e0d3276254532867,PennController,116,0,calibrator_val_no_feedback,NULL,PennController,127,_Header_,Start,1748356993012,undefined,536,hat,negative,positive,B,NULL
1748357488,57f0251cfc218529e0d3276254532867,PennController,116,0,calibrator_val_no_feedback,NULL,PennController,127,_Header_,End,1748356993264,undefined,536,hat,negative,positive,B,NULL
1748357488,57f0251cfc218529e0d3276254532867,PennController,116,0,calibrator_val_no_feedback,NULL,Selector,unnamed-Selector,Selection,positive,1748356994305,undefined,536,hat,negative,positive,B,negative;positive
1748357488,57f0251cfc218529e0d3276254532867,PennController,116,0,calibrator_val_no_feedback,NULL,PennController,127,_Trial_,End,1748356994306,undefined,536,hat,negative,positive,B,NULL
1748357488,57f0251cfc218529e0d3276254532867,PennController,120,0,calibrator_val_no_feedback,NULL,PennController,131,_Trial_,Start,1748356994307,undefined,632,invader,negative,positive,B,NULL
1748357488,57f0251cfc218529e0d3276254532867,PennController,120,0,calibrator_val_no_feedback,NULL,PennController,131,_Header_,Start,1748356994307,undefined,632,invader,negative,positive,B,NULL
1748357488,57f0251cfc218529e0d3276254532867,PennController,120,0,calibrator_val_no_feedback,NULL,PennController,131,_Header_,End,1748356994560,undefined,632,invader,negative,positive,B,NULL
1748357488,57f0251cfc218529e0d3276254532867,PennController,120,0,calibrator_val_no_feedback,NULL,Selector,unnamed-Selector,Selection,negative,1748356995695,undefined,632,invader,negative,positive,B,negative;positive
1748357488,57f0251cfc218529e0d3276254532867,PennController,120,0,calibrator_val_no_feedback,NULL,PennController,131,_Trial_,End,1748356995696,undefined,632,invader,negative,positive,B,NULL
1748357488,57f0251cfc218529e0d3276254532867,PennController,117,0,calibrator_val_no_feedback,NULL,PennController,128,_Trial_,Start,1748356995697,undefined,926,icebox,negative,positive,B,NULL
1748357488,57f0251cfc218529e0d3276254532867,PennController,117,0,calibrator_val_no_feedback,NULL,PennController,128,_Header_,Start,1748356995697,undefined,926,icebox,negative,positive,B,NULL
1748357488,57f0251cfc218529e0d3276254532867,PennController,117,0,calibrator_val_no_feedback,NULL,PennController,128,_Header_,End,1748356995951,undefined,926,icebox,negative,positive,B,NULL
1748357488,57f0251cfc218529e0d3276254532867,PennController,117,0,calibrator_val_no_feedback,NULL,Selector,unnamed-Selector,Selection,positive,1748356997378,undefined,926,icebox,negative,positive,B,negative;positive
1748357488,57f0251cfc218529e0d3276254532867,PennController,117,0,calibrator_val_no_feedback,NULL,PennController,128,_Trial_,End,1748356997380,undefined,926,icebox,negative,positive,B,NULL
1748357488,57f0251cfc218529e0d3276254532867,PennController,118,0,calibrator_val_no_feedback,NULL,PennController,129,_Trial_,Start,1748356997381,undefined,989,industry,negative,positive,B,NULL
1748357488,57f0251cfc218529e0d3276254532867,PennController,118,0,calibrator_val_no_feedback,NULL,PennController,129,_Header_,Start,1748356997381,undefined,989,industry,negative,positive,B,NULL
1748357488,57f0251cfc218529e0d3276254532867,PennController,118,0,calibrator_val_no_feedback,NULL,PennController,129,_Header_,End,1748356997635,undefined,989,industry,negative,positive,B,NULL
1748357488,57f0251cfc218529e0d3276254532867,PennController,118,0,calibrator_val_no_feedback,NULL,Selector,unnamed-Selector,Selection,positive,1748356999125,undefined,989,industry,negative,positive,B,negative;positive
1748357488,57f0251cfc218529e0d3276254532867,PennController,118,0,calibrator_val_no_feedback,NULL,PennController,129,_Trial_,End,1748356999126,undefined,989,industry,negative,positive,B,NULL
# 13. Comments.
1748357488,57f0251cfc218529e0d3276254532867,PennController,130,0,endinstructions_val,NULL,PennController,8,_Trial_,Start,1748356999127,NULL
1748357488,57f0251cfc218529e0d3276254532867,PennController,130,0,endinstructions_val,NULL,PennController,8,_Header_,Start,1748356999127,NULL
1748357488,57f0251cfc218529e0d3276254532867,PennController,130,0,endinstructions_val,NULL,PennController,8,_Header_,End,1748356999378,NULL
1748357488,57f0251cfc218529e0d3276254532867,PennController,130,0,endinstructions_val,NULL,PennController,8,_Trial_,End,1748357006503,NULL
# 13. ID.
# 14. ReactionTime.
# 15. Word.
# 16. Key_value_F.
# 17. Key_value_J.
# 18. Group.
# 19. Comments.
1748357488,57f0251cfc218529e0d3276254532867,PennController,66,0,test_val,NULL,PennController,77,_Trial_,Start,1748357006503,undefined,879,blooming,negative,positive,B,NULL
1748357488,57f0251cfc218529e0d3276254532867,PennController,66,0,test_val,NULL,PennController,77,_Header_,Start,1748357006503,undefined,879,blooming,negative,positive,B,NULL
1748357488,57f0251cfc218529e0d3276254532867,PennController,66,0,test_val,NULL,PennController,77,_Header_,End,1748357006754,undefined,879,blooming,negative,positive,B,NULL
1748357488,57f0251cfc218529e0d3276254532867,PennController,66,0,test_val,NULL,Selector,unnamed-Selector,Selection,positive,1748357008137,undefined,879,blooming,negative,positive,B,negative;positive
1748357488,57f0251cfc218529e0d3276254532867,PennController,66,0,test_val,NULL,PennController,77,_Trial_,End,1748357008137,undefined,879,blooming,negative,positive,B,NULL
1748357488,57f0251cfc218529e0d3276254532867,PennController,70,0,test_val,NULL,PennController,81,_Trial_,Start,1748357008138,undefined,577,nutritious,negative,positive,B,NULL
1748357488,57f0251cfc218529e0d3276254532867,PennController,70,0,test_val,NULL,PennController,81,_Header_,Start,1748357008138,undefined,577,nutritious,negative,positive,B,NULL
1748357488,57f0251cfc218529e0d3276254532867,PennController,70,0,test_val,NULL,PennController,81,_Header_,End,1748357008390,undefined,577,nutritious,negative,positive,B,NULL
1748357488,57f0251cfc218529e0d3276254532867,PennController,70,0,test_val,NULL,Selector,unnamed-Selector,Selection,positive,1748357009471,undefined,577,nutritious,negative,positive,B,negative;positive
1748357488,57f0251cfc218529e0d3276254532867,PennController,70,0,test_val,NULL,PennController,81,_Trial_,End,1748357009472,undefined,577,nutritious,negative,positive,B,NULL
1748357488,57f0251cfc218529e0d3276254532867,PennController,79,0,test_val,NULL,PennController,90,_Trial_,Start,1748357009473,undefined,612,dreaded,negative,positive,B,NULL
1748357488,57f0251cfc218529e0d3276254532867,PennController,79,0,test_val,NULL,PennController,90,_Header_,Start,1748357009473,undefined,612,dreaded,negative,positive,B,NULL
1748357488,57f0251cfc218529e0d3276254532867,PennController,79,0,test_val,NULL,PennController,90,_Header_,End,1748357009724,undefined,612,dreaded,negative,positive,B,NULL
1748357488,57f0251cfc218529e0d3276254532867,PennController,79,0,test_val,NULL,Selector,unnamed-Selector,Selection,negative,1748357010839,undefined,612,dreaded,negative,positive,B,negative;positive
1748357488,57f0251cfc218529e0d3276254532867,PennController,79,0,test_val,NULL,PennController,90,_Trial_,End,1748357010841,undefined,612,dreaded,negative,positive,B,NULL
1748357488,57f0251cfc218529e0d3276254532867,PennController,56,0,test_val,NULL,PennController,67,_Trial_,Start,1748357010842,undefined,672,cheerful,negative,positive,B,NULL
1748357488,57f0251cfc218529e0d3276254532867,PennController,56,0,test_val,NULL,PennController,67,_Header_,Start,1748357010842,undefined,672,cheerful,negative,positive,B,NULL
1748357488,57f0251cfc218529e0d3276254532867,PennController,56,0,test_val,NULL,PennController,67,_Header_,End,1748357011095,undefined,672,cheerful,negative,positive,B,NULL
1748357488,57f0251cfc218529e0d3276254532867,PennController,56,0,test_val,NULL,Selector,unnamed-Selector,Selection,positive,1748357012273,undefined,672,cheerful,negative,positive,B,negative;positive
1748357488,57f0251cfc218529e0d3276254532867,PennController,56,0,test_val,NULL,PennController,67,_Trial_,End,1748357012274,undefined,672,cheerful,negative,positive,B,NULL
1748357488,57f0251cfc218529e0d3276254532867,PennController,46,0,test_val,NULL,PennController,57,_Trial_,Start,1748357012275,undefined,692,excruciating,negative,positive,B,NULL
1748357488,57f0251cfc218529e0d3276254532867,PennController,46,0,test_val,NULL,PennController,57,_Header_,Start,1748357012275,undefined,692,excruciating,negative,positive,B,NULL
1748357488,57f0251cfc218529e0d3276254532867,PennController,46,0,test_val,NULL,PennController,57,_Header_,End,1748357012527,undefined,692,excruciating,negative,positive,B,NULL
1748357488,57f0251cfc218529e0d3276254532867,PennController,46,0,test_val,NULL,Selector,unnamed-Selector,Selection,negative,1748357013722,undefined,692,excruciating,negative,positive,B,negative;positive
1748357488,57f0251cfc218529e0d3276254532867,PennController,46,0,test_val,NULL,PennController,57,_Trial_,End,1748357013723,undefined,692,excruciating,negative,positive,B,NULL
1748357488,57f0251cfc218529e0d3276254532867,PennController,54,0,test_val,NULL,PennController,65,_Trial_,Start,1748357013723,undefined,951,brotherly,negative,positive,B,NULL
1748357488,57f0251cfc218529e0d3276254532867,PennController,54,0,test_val,NULL,PennController,65,_Header_,Start,1748357013723,undefined,951,brotherly,negative,positive,B,NULL
1748357488,57f0251cfc218529e0d3276254532867,PennController,54,0,test_val,NULL,PennController,65,_Header_,End,1748357013975,undefined,951,brotherly,negative,positive,B,NULL
1748357488,57f0251cfc218529e0d3276254532867,PennController,54,0,test_val,NULL,Selector,unnamed-Selector,Selection,positive,1748357015432,undefined,951,brotherly,negative,positive,B,negative;positive
1748357488,57f0251cfc218529e0d3276254532867,PennController,54,0,test_val,NULL,PennController,65,_Trial_,End,1748357015432,undefined,951,brotherly,negative,positive,B,NULL
1748357488,57f0251cfc218529e0d3276254532867,PennController,77,0,test_val,NULL,PennController,88,_Trial_,Start,1748357015433,undefined,615,heartbroken,negative,positive,B,NULL
1748357488,57f0251cfc218529e0d3276254532867,PennController,77,0,test_val,NULL,PennController,88,_Header_,Start,1748357015433,undefined,615,heartbroken,negative,positive,B,NULL
1748357488,57f0251cfc218529e0d3276254532867,PennController,77,0,test_val,NULL,PennController,88,_Header_,End,1748357015685,undefined,615,heartbroken,negative,positive,B,NULL
1748357488,57f0251cfc218529e0d3276254532867,PennController,77,0,test_val,NULL,Selector,unnamed-Selector,Selection,negative,1748357016803,undefined,615,heartbroken,negative,positive,B,negative;positive
1748357488,57f0251cfc218529e0d3276254532867,PennController,77,0,test_val,NULL,PennController,88,_Trial_,End,1748357016804,undefined,615,heartbroken,negative,positive,B,NULL
1748357488,57f0251cfc218529e0d3276254532867,PennController,57,0,test_val,NULL,PennController,68,_Trial_,Start,1748357016805,undefined,600,easygoing,negative,positive,B,NULL
1748357488,57f0251cfc218529e0d3276254532867,PennController,57,0,test_val,NULL,PennController,68,_Header_,Start,1748357016805,undefined,600,easygoing,negative,positive,B,NULL
1748357488,57f0251cfc218529e0d3276254532867,PennController,57,0,test_val,NULL,PennController,68,_Header_,End,1748357017055,undefined,600,easygoing,negative,positive,B,NULL
1748357488,57f0251cfc218529e0d3276254532867,PennController,57,0,test_val,NULL,Selector,unnamed-Selector,Selection,positive,1748357018158,undefined,600,easygoing,negative,positive,B,negative;positive
1748357488,57f0251cfc218529e0d3276254532867,PennController,57,0,test_val,NULL,PennController,68,_Trial_,End,1748357018159,undefined,600,easygoing,negative,positive,B,NULL
1748357488,57f0251cfc218529e0d3276254532867,PennController,76,0,test_val,NULL,PennController,87,_Trial_,Start,1748357018159,undefined,656,grumpy,negative,positive,B,NULL
1748357488,57f0251cfc218529e0d3276254532867,PennController,76,0,test_val,NULL,PennController,87,_Header_,Start,1748357018159,undefined,656,grumpy,negative,positive,B,NULL
1748357488,57f0251cfc218529e0d3276254532867,PennController,76,0,test_val,NULL,PennController,87,_Header_,End,1748357018412,undefined,656,grumpy,negative,positive,B,NULL
1748357488,57f0251cfc218529e0d3276254532867,PennController,76,0,test_val,NULL,Selector,unnamed-Selector,Selection,negative,1748357019571,undefined,656,grumpy,negative,positive,B,negative;positive
1748357488,57f0251cfc218529e0d3276254532867,PennController,76,0,test_val,NULL,PennController,87,_Trial_,End,1748357019572,undefined,656,grumpy,negative,positive,B,NULL
1748357488,57f0251cfc218529e0d3276254532867,PennController,51,0,test_val,NULL,PennController,62,_Trial_,Start,1748357019572,undefined,537,seasick,negative,positive,B,NULL
1748357488,57f0251cfc218529e0d3276254532867,PennController,51,0,test_val,NULL,PennController,62,_Header_,Start,1748357019572,undefined,537,seasick,negative,positive,B,NULL
1748357488,57f0251cfc218529e0d3276254532867,PennController,51,0,test_val,NULL,PennController,62,_Header_,End,1748357019822,undefined,537,seasick,negative,positive,B,NULL
1748357488,57f0251cfc218529e0d3276254532867,PennController,51,0,test_val,NULL,Selector,unnamed-Selector,Selection,negative,1748357020861,undefined,537,seasick,negative,positive,B,negative;positive
1748357488,57f0251cfc218529e0d3276254532867,PennController,51,0,test_val,NULL,PennController,62,_Trial_,End,1748357020861,undefined,537,seasick,negative,positive,B,NULL
1748357488,57f0251cfc218529e0d3276254532867,PennController,74,0,test_val,NULL,PennController,85,_Trial_,Start,1748357020862,undefined,620,insulting,negative,positive,B,NULL
1748357488,57f0251cfc218529e0d3276254532867,PennController,74,0,test_val,NULL,PennController,85,_Header_,Start,1748357020862,undefined,620,insulting,negative,positive,B,NULL
1748357488,57f0251cfc218529e0d3276254532867,PennController,74,0,test_val,NULL,PennController,85,_Header_,End,1748357021116,undefined,620,insulting,negative,positive,B,NULL
1748357488,57f0251cfc218529e0d3276254532867,PennController,74,0,test_val,NULL,Selector,unnamed-Selector,Selection,negative,1748357022240,undefined,620,insulting,negative,positive,B,negative;positive
1748357488,57f0251cfc218529e0d3276254532867,PennController,74,0,test_val,NULL,PennController,85,_Trial_,End,1748357022242,undefined,620,insulting,negative,positive,B,NULL
1748357488,57f0251cfc218529e0d3276254532867,PennController,82,0,test_val,NULL,PennController,93,_Trial_,Start,1748357022243,undefined,623,infuriating,negative,positive,B,NULL
1748357488,57f0251cfc218529e0d3276254532867,PennController,82,0,test_val,NULL,PennController,93,_Header_,Start,1748357022243,undefined,623,infuriating,negative,positive,B,NULL
1748357488,57f0251cfc218529e0d3276254532867,PennController,82,0,test_val,NULL,PennController,93,_Header_,End,1748357022496,undefined,623,infuriating,negative,positive,B,NULL
1748357488,57f0251cfc218529e0d3276254532867,PennController,82,0,test_val,NULL,Selector,unnamed-Selector,Selection,negative,1748357023620,undefined,623,infuriating,negative,positive,B,negative;positive
1748357488,57f0251cfc218529e0d3276254532867,PennController,82,0,test_val,NULL,PennController,93,_Trial_,End,1748357023621,undefined,623,infuriating,negative,positive,B,NULL
1748357488,57f0251cfc218529e0d3276254532867,PennController,58,0,test_val,NULL,PennController,69,_Trial_,Start,1748357023622,undefined,765,carefree,negative,positive,B,NULL
1748357488,57f0251cfc218529e0d3276254532867,PennController,58,0,test_val,NULL,PennController,69,_Header_,Start,1748357023622,undefined,765,carefree,negative,positive,B,NULL
1748357488,57f0251cfc218529e0d3276254532867,PennController,58,0,test_val,NULL,PennController,69,_Header_,End,1748357023873,undefined,765,carefree,negative,positive,B,NULL
1748357488,57f0251cfc218529e0d3276254532867,PennController,58,0,test_val,NULL,Selector,unnamed-Selector,Selection,positive,1748357025141,undefined,765,carefree,negative,positive,B,negative;positive
1748357488,57f0251cfc218529e0d3276254532867,PennController,58,0,test_val,NULL,PennController,69,_Trial_,End,1748357025141,undefined,765,carefree,negative,positive,B,NULL
1748357488,57f0251cfc218529e0d3276254532867,PennController,72,0,test_val,NULL,PennController,83,_Trial_,Start,1748357025142,undefined,633,radiant,negative,positive,B,NULL
1748357488,57f0251cfc218529e0d3276254532867,PennController,72,0,test_val,NULL,PennController,83,_Header_,Start,1748357025142,undefined,633,radiant,negative,positive,B,NULL
1748357488,57f0251cfc218529e0d3276254532867,PennController,72,0,test_val,NULL,PennController,83,_Header_,End,1748357025396,undefined,633,radiant,negative,positive,B,NULL
1748357488,57f0251cfc218529e0d3276254532867,PennController,72,0,test_val,NULL,Selector,unnamed-Selector,Selection,positive,1748357026533,undefined,633,radiant,negative,positive,B,negative;positive
1748357488,57f0251cfc218529e0d3276254532867,PennController,72,0,test_val,NULL,PennController,83,_Trial_,End,1748357026534,undefined,633,radiant,negative,positive,B,NULL
1748357488,57f0251cfc218529e0d3276254532867,PennController,65,0,test_val,NULL,PennController,76,_Trial_,Start,1748357026534,undefined,597,sunny,negative,positive,B,NULL
1748357488,57f0251cfc218529e0d3276254532867,PennController,65,0,test_val,NULL,PennController,76,_Header_,Start,1748357026534,undefined,597,sunny,negative,positive,B,NULL
1748357488,57f0251cfc218529e0d3276254532867,PennController,65,0,test_val,NULL,PennController,76,_Header_,End,1748357026786,undefined,597,sunny,negative,positive,B,NULL
1748357488,57f0251cfc218529e0d3276254532867,PennController,65,0,test_val,NULL,Selector,unnamed-Selector,Selection,positive,1748357027887,undefined,597,sunny,negative,positive,B,negative;positive
1748357488,57f0251cfc218529e0d3276254532867,PennController,65,0,test_val,NULL,PennController,76,_Trial_,End,1748357027888,undefined,597,sunny,negative,positive,B,NULL
1748357488,57f0251cfc218529e0d3276254532867,PennController,52,0,test_val,NULL,PennController,63,_Trial_,Start,1748357027888,undefined,721,itchy,negative,positive,B,NULL
1748357488,57f0251cfc218529e0d3276254532867,PennController,52,0,test_val,NULL,PennController,63,_Header_,Start,1748357027888,undefined,721,itchy,negative,positive,B,NULL
1748357488,57f0251cfc218529e0d3276254532867,PennController,52,0,test_val,NULL,PennController,63,_Header_,End,1748357028140,undefined,721,itchy,negative,positive,B,NULL
1748357488,57f0251cfc218529e0d3276254532867,PennController,52,0,test_val,NULL,Selector,unnamed-Selector,Selection,negative,1748357029367,undefined,721,itchy,negative,positive,B,negative;positive
1748357488,57f0251cfc218529e0d3276254532867,PennController,52,0,test_val,NULL,PennController,63,_Trial_,End,1748357029367,undefined,721,itchy,negative,positive,B,NULL
1748357488,57f0251cfc218529e0d3276254532867,PennController,63,0,test_val,NULL,PennController,74,_Trial_,Start,1748357029368,undefined,470,witty,negative,positive,B,NULL
1748357488,57f0251cfc218529e0d3276254532867,PennController,63,0,test_val,NULL,PennController,74,_Header_,Start,1748357029368,undefined,470,witty,negative,positive,B,NULL
1748357488,57f0251cfc218529e0d3276254532867,PennController,63,0,test_val,NULL,PennController,74,_Header_,End,1748357029618,undefined,470,witty,negative,positive,B,NULL
1748357488,57f0251cfc218529e0d3276254532867,PennController,63,0,test_val,NULL,Selector,unnamed-Selector,Selection,negative,1748357030589,undefined,470,witty,negative,positive,B,negative;positive
1748357488,57f0251cfc218529e0d3276254532867,PennController,63,0,test_val,NULL,PennController,74,_Trial_,End,1748357030590,undefined,470,witty,negative,positive,B,NULL
1748357488,57f0251cfc218529e0d3276254532867,PennController,61,0,test_val,NULL,PennController,72,_Trial_,Start,1748357030591,undefined,677,dependable,negative,positive,B,NULL
1748357488,57f0251cfc218529e0d3276254532867,PennController,61,0,test_val,NULL,PennController,72,_Header_,Start,1748357030591,undefined,677,dependable,negative,positive,B,NULL
1748357488,57f0251cfc218529e0d3276254532867,PennController,61,0,test_val,NULL,PennController,72,_Header_,End,1748357030842,undefined,677,dependable,negative,positive,B,NULL
1748357488,57f0251cfc218529e0d3276254532867,PennController,61,0,test_val,NULL,Selector,unnamed-Selector,Selection,negative,1748357032021,undefined,677,dependable,negative,positive,B,negative;positive
1748357488,57f0251cfc218529e0d3276254532867,PennController,61,0,test_val,NULL,PennController,72,_Trial_,End,1748357032021,undefined,677,dependable,negative,positive,B,NULL
1748357488,57f0251cfc218529e0d3276254532867,PennController,44,0,test_val,NULL,PennController,55,_Trial_,Start,1748357032022,undefined,768,moldy,negative,positive,B,NULL
1748357488,57f0251cfc218529e0d3276254532867,PennController,44,0,test_val,NULL,PennController,55,_Header_,Start,1748357032022,undefined,768,moldy,negative,positive,B,NULL
1748357488,57f0251cfc218529e0d3276254532867,PennController,44,0,test_val,NULL,PennController,55,_Header_,End,1748357032275,undefined,768,moldy,negative,positive,B,NULL
1748357488,57f0251cfc218529e0d3276254532867,PennController,44,0,test_val,NULL,Selector,unnamed-Selector,Selection,negative,1748357033549,undefined,768,moldy,negative,positive,B,negative;positive
1748357488,57f0251cfc218529e0d3276254532867,PennController,44,0,test_val,NULL,PennController,55,_Trial_,End,1748357033550,undefined,768,moldy,negative,positive,B,NULL
1748357488,57f0251cfc218529e0d3276254532867,PennController,68,0,test_val,NULL,PennController,79,_Trial_,Start,1748357033550,undefined,1051,oceanic,negative,positive,B,NULL
1748357488,57f0251cfc218529e0d3276254532867,PennController,68,0,test_val,NULL,PennController,79,_Header_,Start,1748357033550,undefined,1051,oceanic,negative,positive,B,NULL
1748357488,57f0251cfc218529e0d3276254532867,PennController,68,0,test_val,NULL,PennController,79,_Header_,End,1748357033804,undefined,1051,oceanic,negative,positive,B,NULL
1748357488,57f0251cfc218529e0d3276254532867,PennController,68,0,test_val,NULL,Selector,unnamed-Selector,Selection,positive,1748357035357,undefined,1051,oceanic,negative,positive,B,negative;positive
1748357488,57f0251cfc218529e0d3276254532867,PennController,68,0,test_val,NULL,PennController,79,_Trial_,End,1748357035357,undefined,1051,oceanic,negative,positive,B,NULL
1748357488,57f0251cfc218529e0d3276254532867,PennController,75,0,test_val,NULL,PennController,86,_Trial_,Start,1748357035358,undefined,785,greedy,negative,positive,B,NULL
1748357488,57f0251cfc218529e0d3276254532867,PennController,75,0,test_val,NULL,PennController,86,_Header_,Start,1748357035358,undefined,785,greedy,negative,positive,B,NULL
1748357488,57f0251cfc218529e0d3276254532867,PennController,75,0,test_val,NULL,PennController,86,_Header_,End,1748357035612,undefined,785,greedy,negative,positive,B,NULL
1748357488,57f0251cfc218529e0d3276254532867,PennController,75,0,test_val,NULL,Selector,unnamed-Selector,Selection,negative,1748357036903,undefined,785,greedy,negative,positive,B,negative;positive
1748357488,57f0251cfc218529e0d3276254532867,PennController,75,0,test_val,NULL,PennController,86,_Trial_,End,1748357036903,undefined,785,greedy,negative,positive,B,NULL
1748357488,57f0251cfc218529e0d3276254532867,PennController,45,0,test_val,NULL,PennController,56,_Trial_,Start,1748357036904,undefined,849,nauseous,negative,positive,B,NULL
1748357488,57f0251cfc218529e0d3276254532867,PennController,45,0,test_val,NULL,PennController,56,_Header_,Start,1748357036904,undefined,849,nauseous,negative,positive,B,NULL
1748357488,57f0251cfc218529e0d3276254532867,PennController,45,0,test_val,NULL,PennController,56,_Header_,End,1748357037154,undefined,849,nauseous,negative,positive,B,NULL
1748357488,57f0251cfc218529e0d3276254532867,PennController,45,0,test_val,NULL,Selector,unnamed-Selector,Selection,negative,1748357038505,undefined,849,nauseous,negative,positive,B,negative;positive
1748357488,57f0251cfc218529e0d3276254532867,PennController,45,0,test_val,NULL,PennController,56,_Trial_,End,1748357038506,undefined,849,nauseous,negative,positive,B,NULL
1748357488,57f0251cfc218529e0d3276254532867,PennController,59,0,test_val,NULL,PennController,70,_Trial_,Start,1748357038506,undefined,770,hilarious,negative,positive,B,NULL
1748357488,57f0251cfc218529e0d3276254532867,PennController,59,0,test_val,NULL,PennController,70,_Header_,Start,1748357038506,undefined,770,hilarious,negative,positive,B,NULL
1748357488,57f0251cfc218529e0d3276254532867,PennController,59,0,test_val,NULL,PennController,70,_Header_,End,1748357038760,undefined,770,hilarious,negative,positive,B,NULL
1748357488,57f0251cfc218529e0d3276254532867,PennController,59,0,test_val,NULL,Selector,unnamed-Selector,Selection,positive,1748357040033,undefined,770,hilarious,negative,positive,B,negative;positive
1748357488,57f0251cfc218529e0d3276254532867,PennController,59,0,test_val,NULL,PennController,70,_Trial_,End,1748357040034,undefined,770,hilarious,negative,positive,B,NULL
1748357488,57f0251cfc218529e0d3276254532867,PennController,62,0,test_val,NULL,PennController,73,_Trial_,Start,1748357040036,undefined,551,courageous,negative,positive,B,NULL
1748357488,57f0251cfc218529e0d3276254532867,PennController,62,0,test_val,NULL,PennController,73,_Header_,Start,1748357040036,undefined,551,courageous,negative,positive,B,NULL
1748357488,57f0251cfc218529e0d3276254532867,PennController,62,0,test_val,NULL,PennController,73,_Header_,End,1748357040289,undefined,551,courageous,negative,positive,B,NULL
1748357488,57f0251cfc218529e0d3276254532867,PennController,62,0,test_val,NULL,Selector,unnamed-Selector,Selection,positive,1748357041342,undefined,551,courageous,negative,positive,B,negative;positive
1748357488,57f0251cfc218529e0d3276254532867,PennController,62,0,test_val,NULL,PennController,73,_Trial_,End,1748357041344,undefined,551,courageous,negative,positive,B,NULL
1748357488,57f0251cfc218529e0d3276254532867,PennController,73,0,test_val,NULL,PennController,84,_Trial_,Start,1748357041345,undefined,656,newborn,negative,positive,B,NULL
1748357488,57f0251cfc218529e0d3276254532867,PennController,73,0,test_val,NULL,PennController,84,_Header_,Start,1748357041345,undefined,656,newborn,negative,positive,B,NULL
1748357488,57f0251cfc218529e0d3276254532867,PennController,73,0,test_val,NULL,PennController,84,_Header_,End,1748357041597,undefined,656,newborn,negative,positive,B,NULL
1748357488,57f0251cfc218529e0d3276254532867,PennController,73,0,test_val,NULL,Selector,unnamed-Selector,Selection,positive,1748357042758,undefined,656,newborn,negative,positive,B,negative;positive
1748357488,57f0251cfc218529e0d3276254532867,PennController,73,0,test_val,NULL,PennController,84,_Trial_,End,1748357042760,undefined,656,newborn,negative,positive,B,NULL
1748357488,57f0251cfc218529e0d3276254532867,PennController,60,0,test_val,NULL,PennController,71,_Trial_,Start,1748357042761,undefined,632,selfless,negative,positive,B,NULL
1748357488,57f0251cfc218529e0d3276254532867,PennController,60,0,test_val,NULL,PennController,71,_Header_,Start,1748357042761,undefined,632,selfless,negative,positive,B,NULL
1748357488,57f0251cfc218529e0d3276254532867,PennController,60,0,test_val,NULL,PennController,71,_Header_,End,1748357043013,undefined,632,selfless,negative,positive,B,NULL
1748357488,57f0251cfc218529e0d3276254532867,PennController,60,0,test_val,NULL,Selector,unnamed-Selector,Selection,negative,1748357044149,undefined,632,selfless,negative,positive,B,negative;positive
1748357488,57f0251cfc218529e0d3276254532867,PennController,60,0,test_val,NULL,PennController,71,_Trial_,End,1748357044149,undefined,632,selfless,negative,positive,B,NULL
1748357488,57f0251cfc218529e0d3276254532867,PennController,48,0,test_val,NULL,PennController,59,_Trial_,Start,1748357044150,undefined,959,obese,negative,positive,B,NULL
1748357488,57f0251cfc218529e0d3276254532867,PennController,48,0,test_val,NULL,PennController,59,_Header_,Start,1748357044150,undefined,959,obese,negative,positive,B,NULL
1748357488,57f0251cfc218529e0d3276254532867,PennController,48,0,test_val,NULL,PennController,59,_Header_,End,1748357044402,undefined,959,obese,negative,positive,B,NULL
1748357488,57f0251cfc218529e0d3276254532867,PennController,48,0,test_val,NULL,Selector,unnamed-Selector,Selection,negative,1748357045867,undefined,959,obese,negative,positive,B,negative;positive
1748357488,57f0251cfc218529e0d3276254532867,PennController,48,0,test_val,NULL,PennController,59,_Trial_,End,1748357045868,undefined,959,obese,negative,positive,B,NULL
1748357488,57f0251cfc218529e0d3276254532867,PennController,78,0,test_val,NULL,PennController,89,_Trial_,Start,1748357045869,undefined,781,racist,negative,positive,B,NULL
1748357488,57f0251cfc218529e0d3276254532867,PennController,78,0,test_val,NULL,PennController,89,_Header_,Start,1748357045869,undefined,781,racist,negative,positive,B,NULL
1748357488,57f0251cfc218529e0d3276254532867,PennController,78,0,test_val,NULL,PennController,89,_Header_,End,1748357046121,undefined,781,racist,negative,positive,B,NULL
1748357488,57f0251cfc218529e0d3276254532867,PennController,78,0,test_val,NULL,Selector,unnamed-Selector,Selection,negative,1748357047407,undefined,781,racist,negative,positive,B,negative;positive
1748357488,57f0251cfc218529e0d3276254532867,PennController,78,0,test_val,NULL,PennController,89,_Trial_,End,1748357047408,undefined,781,racist,negative,positive,B,NULL
1748357488,57f0251cfc218529e0d3276254532867,PennController,81,0,test_val,NULL,PennController,92,_Trial_,Start,1748357047409,undefined,609,stingy,negative,positive,B,NULL
1748357488,57f0251cfc218529e0d3276254532867,PennController,81,0,test_val,NULL,PennController,92,_Header_,Start,1748357047409,undefined,609,stingy,negative,positive,B,NULL
1748357488,57f0251cfc218529e0d3276254532867,PennController,81,0,test_val,NULL,PennController,92,_Header_,End,1748357047661,undefined,609,stingy,negative,positive,B,NULL
1748357488,57f0251cfc218529e0d3276254532867,PennController,81,0,test_val,NULL,Selector,unnamed-Selector,Selection,negative,1748357048773,undefined,609,stingy,negative,positive,B,negative;positive
1748357488,57f0251cfc218529e0d3276254532867,PennController,81,0,test_val,NULL,PennController,92,_Trial_,End,1748357048773,undefined,609,stingy,negative,positive,B,NULL
1748357488,57f0251cfc218529e0d3276254532867,PennController,55,0,test_val,NULL,PennController,66,_Trial_,Start,1748357048774,undefined,608,joyful,negative,positive,B,NULL
1748357488,57f0251cfc218529e0d3276254532867,PennController,55,0,test_val,NULL,PennController,66,_Header_,Start,1748357048774,undefined,608,joyful,negative,positive,B,NULL
1748357488,57f0251cfc218529e0d3276254532867,PennController,55,0,test_val,NULL,PennController,66,_Header_,End,1748357049024,undefined,608,joyful,negative,positive,B,NULL
1748357488,57f0251cfc218529e0d3276254532867,PennController,55,0,test_val,NULL,Selector,unnamed-Selector,Selection,positive,1748357050137,undefined,608,joyful,negative,positive,B,negative;positive
1748357488,57f0251cfc218529e0d3276254532867,PennController,55,0,test_val,NULL,PennController,66,_Trial_,End,1748357050138,undefined,608,joyful,negative,positive,B,NULL
1748357488,57f0251cfc218529e0d3276254532867,PennController,64,0,test_val,NULL,PennController,75,_Trial_,Start,1748357050138,undefined,680,fluffy,negative,positive,B,NULL
1748357488,57f0251cfc218529e0d3276254532867,PennController,64,0,test_val,NULL,PennController,75,_Header_,Start,1748357050138,undefined,680,fluffy,negative,positive,B,NULL
1748357488,57f0251cfc218529e0d3276254532867,PennController,64,0,test_val,NULL,PennController,75,_Header_,End,1748357050389,undefined,680,fluffy,negative,positive,B,NULL
1748357488,57f0251cfc218529e0d3276254532867,PennController,64,0,test_val,NULL,Selector,unnamed-Selector,Selection,positive,1748357051573,undefined,680,fluffy,negative,positive,B,negative;positive
1748357488,57f0251cfc218529e0d3276254532867,PennController,64,0,test_val,NULL,PennController,75,_Trial_,End,1748357051574,undefined,680,fluffy,negative,positive,B,NULL
1748357488,57f0251cfc218529e0d3276254532867,PennController,50,0,test_val,NULL,PennController,61,_Trial_,Start,1748357051575,undefined,795,rancid,negative,positive,B,NULL
1748357488,57f0251cfc218529e0d3276254532867,PennController,50,0,test_val,NULL,PennController,61,_Header_,Start,1748357051575,undefined,795,rancid,negative,positive,B,NULL
1748357488,57f0251cfc218529e0d3276254532867,PennController,50,0,test_val,NULL,PennController,61,_Header_,End,1748357051827,undefined,795,rancid,negative,positive,B,NULL
1748357488,57f0251cfc218529e0d3276254532867,PennController,50,0,test_val,NULL,Selector,unnamed-Selector,Selection,negative,1748357053127,undefined,795,rancid,negative,positive,B,negative;positive
1748357488,57f0251cfc218529e0d3276254532867,PennController,50,0,test_val,NULL,PennController,61,_Trial_,End,1748357053129,undefined,795,rancid,negative,positive,B,NULL
1748357488,57f0251cfc218529e0d3276254532867,PennController,53,0,test_val,NULL,PennController,64,_Trial_,Start,1748357053130,undefined,852,smelly,negative,positive,B,NULL
1748357488,57f0251cfc218529e0d3276254532867,PennController,53,0,test_val,NULL,PennController,64,_Header_,Start,1748357053130,undefined,852,smelly,negative,positive,B,NULL
1748357488,57f0251cfc218529e0d3276254532867,PennController,53,0,test_val,NULL,PennController,64,_Header_,End,1748357053381,undefined,852,smelly,negative,positive,B,NULL
1748357488,57f0251cfc218529e0d3276254532867,PennController,53,0,test_val,NULL,Selector,unnamed-Selector,Selection,negative,1748357054736,undefined,852,smelly,negative,positive,B,negative;positive
1748357488,57f0251cfc218529e0d3276254532867,PennController,53,0,test_val,NULL,PennController,64,_Trial_,End,1748357054737,undefined,852,smelly,negative,positive,B,NULL
1748357488,57f0251cfc218529e0d3276254532867,PennController,80,0,test_val,NULL,PennController,91,_Trial_,Start,1748357054737,undefined,834,humiliating,negative,positive,B,NULL
1748357488,57f0251cfc218529e0d3276254532867,PennController,80,0,test_val,NULL,PennController,91,_Header_,Start,1748357054737,undefined,834,humiliating,negative,positive,B,NULL
1748357488,57f0251cfc218529e0d3276254532867,PennController,80,0,test_val,NULL,PennController,91,_Header_,End,1748357054988,undefined,834,humiliating,negative,positive,B,NULL
1748357488,57f0251cfc218529e0d3276254532867,PennController,80,0,test_val,NULL,Selector,unnamed-Selector,Selection,negative,1748357056326,undefined,834,humiliating,negative,positive,B,negative;positive
1748357488,57f0251cfc218529e0d3276254532867,PennController,80,0,test_val,NULL,PennController,91,_Trial_,End,1748357056328,undefined,834,humiliating,negative,positive,B,NULL
1748357488,57f0251cfc218529e0d3276254532867,PennController,47,0,test_val,NULL,PennController,58,_Trial_,Start,1748357056329,undefined,774,comatose,negative,positive,B,NULL
1748357488,57f0251cfc218529e0d3276254532867,PennController,47,0,test_val,NULL,PennController,58,_Header_,Start,1748357056329,undefined,774,comatose,negative,positive,B,NULL
1748357488,57f0251cfc218529e0d3276254532867,PennController,47,0,test_val,NULL,PennController,58,_Header_,End,1748357056583,undefined,774,comatose,negative,positive,B,NULL
1748357488,57f0251cfc218529e0d3276254532867,PennController,47,0,test_val,NULL,Selector,unnamed-Selector,Selection,negative,1748357057862,undefined,774,comatose,negative,positive,B,negative;positive
1748357488,57f0251cfc218529e0d3276254532867,PennController,47,0,test_val,NULL,PennController,58,_Trial_,End,1748357057863,undefined,774,comatose,negative,positive,B,NULL
1748357488,57f0251cfc218529e0d3276254532867,PennController,67,0,test_val,NULL,PennController,78,_Trial_,Start,1748357057863,undefined,619,floral,negative,positive,B,NULL
1748357488,57f0251cfc218529e0d3276254532867,PennController,67,0,test_val,NULL,PennController,78,_Header_,Start,1748357057863,undefined,619,floral,negative,positive,B,NULL
1748357488,57f0251cfc218529e0d3276254532867,PennController,67,0,test_val,NULL,PennController,78,_Header_,End,1748357058116,undefined,619,floral,negative,positive,B,NULL
1748357488,57f0251cfc218529e0d3276254532867,PennController,67,0,test_val,NULL,Selector,unnamed-Selector,Selection,positive,1748357059240,undefined,619,floral,negative,positive,B,negative;positive
1748357488,57f0251cfc218529e0d3276254532867,PennController,67,0,test_val,NULL,PennController,78,_Trial_,End,1748357059241,undefined,619,floral,negative,positive,B,NULL
1748357488,57f0251cfc218529e0d3276254532867,PennController,83,0,test_val,NULL,PennController,94,_Trial_,Start,1748357059242,undefined,746,hateful,negative,positive,B,NULL
1748357488,57f0251cfc218529e0d3276254532867,PennController,83,0,test_val,NULL,PennController,94,_Header_,Start,1748357059242,undefined,746,hateful,negative,positive,B,NULL
1748357488,57f0251cfc218529e0d3276254532867,PennController,83,0,test_val,NULL,PennController,94,_Header_,End,1748357059496,undefined,746,hateful,negative,positive,B,NULL
1748357488,57f0251cfc218529e0d3276254532867,PennController,83,0,test_val,NULL,Selector,unnamed-Selector,Selection,negative,1748357060743,undefined,746,hateful,negative,positive,B,negative;positive
1748357488,57f0251cfc218529e0d3276254532867,PennController,83,0,test_val,NULL,PennController,94,_Trial_,End,1748357060745,undefined,746,hateful,negative,positive,B,NULL
1748357488,57f0251cfc218529e0d3276254532867,PennController,71,0,test_val,NULL,PennController,82,_Trial_,Start,1748357060745,undefined,656,homemade,negative,positive,B,NULL
1748357488,57f0251cfc218529e0d3276254532867,PennController,71,0,test_val,NULL,PennController,82,_Header_,Start,1748357060745,undefined,656,homemade,negative,positive,B,NULL
1748357488,57f0251cfc218529e0d3276254532867,PennController,71,0,test_val,NULL,PennController,82,_Header_,End,1748357060996,undefined,656,homemade,negative,positive,B,NULL
1748357488,57f0251cfc218529e0d3276254532867,PennController,71,0,test_val,NULL,Selector,unnamed-Selector,Selection,positive,1748357062157,undefined,656,homemade,negative,positive,B,negative;positive
1748357488,57f0251cfc218529e0d3276254532867,PennController,71,0,test_val,NULL,PennController,82,_Trial_,End,1748357062158,undefined,656,homemade,negative,positive,B,NULL
1748357488,57f0251cfc218529e0d3276254532867,PennController,49,0,test_val,NULL,PennController,60,_Trial_,Start,1748357062158,undefined,912,lifeless,negative,positive,B,NULL
1748357488,57f0251cfc218529e0d3276254532867,PennController,49,0,test_val,NULL,PennController,60,_Header_,Start,1748357062158,undefined,912,lifeless,negative,positive,B,NULL
1748357488,57f0251cfc218529e0d3276254532867,PennController,49,0,test_val,NULL,PennController,60,_Header_,End,1748357062408,undefined,912,lifeless,negative,positive,B,NULL
1748357488,57f0251cfc218529e0d3276254532867,PennController,49,0,test_val,NULL,Selector,unnamed-Selector,Selection,negative,1748357063825,undefined,912,lifeless,negative,positive,B,negative;positive
1748357488,57f0251cfc218529e0d3276254532867,PennController,49,0,test_val,NULL,PennController,60,_Trial_,End,1748357063826,undefined,912,lifeless,negative,positive,B,NULL
1748357488,57f0251cfc218529e0d3276254532867,PennController,69,0,test_val,NULL,PennController,80,_Trial_,Start,1748357063826,undefined,707,decorative,negative,positive,B,NULL
1748357488,57f0251cfc218529e0d3276254532867,PennController,69,0,test_val,NULL,PennController,80,_Header_,Start,1748357063826,undefined,707,decorative,negative,positive,B,NULL
1748357488,57f0251cfc218529e0d3276254532867,PennController,69,0,test_val,NULL,PennController,80,_Header_,End,1748357064077,undefined,707,decorative,negative,positive,B,NULL
1748357488,57f0251cfc218529e0d3276254532867,PennController,69,0,test_val,NULL,Selector,unnamed-Selector,Selection,positive,1748357065286,undefined,707,decorative,negative,positive,B,negative;positive
1748357488,57f0251cfc218529e0d3276254532867,PennController,69,0,test_val,NULL,PennController,80,_Trial_,End,1748357065287,undefined,707,decorative,negative,positive,B,NULL
1748357488,57f0251cfc218529e0d3276254532867,PennController,45,0,test_val,NULL,PennController,56,_Trial_,Start,1748357065288,undefined,663,nauseous,negative,positive,B,NULL
1748357488,57f0251cfc218529e0d3276254532867,PennController,45,0,test_val,NULL,PennController,56,_Header_,Start,1748357065288,undefined,663,nauseous,negative,positive,B,NULL
1748357488,57f0251cfc218529e0d3276254532867,PennController,45,0,test_val,NULL,PennController,56,_Header_,End,1748357065538,undefined,663,nauseous,negative,positive,B,NULL
1748357488,57f0251cfc218529e0d3276254532867,PennController,45,0,test_val,NULL,Selector,unnamed-Selector,Selection,negative,1748357066705,undefined,663,nauseous,negative,positive,B,negative;positive
1748357488,57f0251cfc218529e0d3276254532867,PennController,45,0,test_val,NULL,PennController,56,_Trial_,End,1748357066706,undefined,663,nauseous,negative,positive,B,NULL
1748357488,57f0251cfc218529e0d3276254532867,PennController,78,0,test_val,NULL,PennController,89,_Trial_,Start,1748357066706,undefined,629,racist,negative,positive,B,NULL
1748357488,57f0251cfc218529e0d3276254532867,PennController,78,0,test_val,NULL,PennController,89,_Header_,Start,1748357066706,undefined,629,racist,negative,positive,B,NULL
1748357488,57f0251cfc218529e0d3276254532867,PennController,78,0,test_val,NULL,PennController,89,_Header_,End,1748357066957,undefined,629,racist,negative,positive,B,NULL
1748357488,57f0251cfc218529e0d3276254532867,PennController,78,0,test_val,NULL,Selector,unnamed-Selector,Selection,negative,1748357068088,undefined,629,racist,negative,positive,B,negative;positive
1748357488,57f0251cfc218529e0d3276254532867,PennController,78,0,test_val,NULL,PennController,89,_Trial_,End,1748357068089,undefined,629,racist,negative,positive,B,NULL
1748357488,57f0251cfc218529e0d3276254532867,PennController,73,0,test_val,NULL,PennController,84,_Trial_,Start,1748357068090,undefined,787,newborn,negative,positive,B,NULL
1748357488,57f0251cfc218529e0d3276254532867,PennController,73,0,test_val,NULL,PennController,84,_Header_,Start,1748357068090,undefined,787,newborn,negative,positive,B,NULL
1748357488,57f0251cfc218529e0d3276254532867,PennController,73,0,test_val,NULL,PennController,84,_Header_,End,1748357068342,undefined,787,newborn,negative,positive,B,NULL
1748357488,57f0251cfc218529e0d3276254532867,PennController,73,0,test_val,NULL,Selector,unnamed-Selector,Selection,positive,1748357069634,undefined,787,newborn,negative,positive,B,negative;positive
1748357488,57f0251cfc218529e0d3276254532867,PennController,73,0,test_val,NULL,PennController,84,_Trial_,End,1748357069634,undefined,787,newborn,negative,positive,B,NULL
1748357488,57f0251cfc218529e0d3276254532867,PennController,79,0,test_val,NULL,PennController,90,_Trial_,Start,1748357069635,undefined,597,dreaded,negative,positive,B,NULL
1748357488,57f0251cfc218529e0d3276254532867,PennController,79,0,test_val,NULL,PennController,90,_Header_,Start,1748357069635,undefined,597,dreaded,negative,positive,B,NULL
1748357488,57f0251cfc218529e0d3276254532867,PennController,79,0,test_val,NULL,PennController,90,_Header_,End,1748357069888,undefined,597,dreaded,negative,positive,B,NULL
1748357488,57f0251cfc218529e0d3276254532867,PennController,79,0,test_val,NULL,Selector,unnamed-Selector,Selection,positive,1748357070989,undefined,597,dreaded,negative,positive,B,negative;positive
1748357488,57f0251cfc218529e0d3276254532867,PennController,79,0,test_val,NULL,PennController,90,_Trial_,End,1748357070990,undefined,597,dreaded,negative,positive,B,NULL
1748357488,57f0251cfc218529e0d3276254532867,PennController,76,0,test_val,NULL,PennController,87,_Trial_,Start,1748357070990,undefined,594,grumpy,negative,positive,B,NULL
1748357488,57f0251cfc218529e0d3276254532867,PennController,76,0,test_val,NULL,PennController,87,_Header_,Start,1748357070990,undefined,594,grumpy,negative,positive,B,NULL
1748357488,57f0251cfc218529e0d3276254532867,PennController,76,0,test_val,NULL,PennController,87,_Header_,End,1748357071243,undefined,594,grumpy,negative,positive,B,NULL
1748357488,57f0251cfc218529e0d3276254532867,PennController,76,0,test_val,NULL,Selector,unnamed-Selector,Selection,negative,1748357072341,undefined,594,grumpy,negative,positive,B,negative;positive
1748357488,57f0251cfc218529e0d3276254532867,PennController,76,0,test_val,NULL,PennController,87,_Trial_,End,1748357072341,undefined,594,grumpy,negative,positive,B,NULL
1748357488,57f0251cfc218529e0d3276254532867,PennController,71,0,test_val,NULL,PennController,82,_Trial_,Start,1748357072342,undefined,570,homemade,negative,positive,B,NULL
1748357488,57f0251cfc218529e0d3276254532867,PennController,71,0,test_val,NULL,PennController,82,_Header_,Start,1748357072342,undefined,570,homemade,negative,positive,B,NULL
1748357488,57f0251cfc218529e0d3276254532867,PennController,71,0,test_val,NULL,PennController,82,_Header_,End,1748357072595,undefined,570,homemade,negative,positive,B,NULL
1748357488,57f0251cfc218529e0d3276254532867,PennController,71,0,test_val,NULL,Selector,unnamed-Selector,Selection,positive,1748357073670,undefined,570,homemade,negative,positive,B,negative;positive
1748357488,57f0251cfc218529e0d3276254532867,PennController,71,0,test_val,NULL,PennController,82,_Trial_,End,1748357073671,undefined,570,homemade,negative,positive,B,NULL
1748357488,57f0251cfc218529e0d3276254532867,PennController,58,0,test_val,NULL,PennController,69,_Trial_,Start,1748357073672,undefined,635,carefree,negative,positive,B,NULL
1748357488,57f0251cfc218529e0d3276254532867,PennController,58,0,test_val,NULL,PennController,69,_Header_,Start,1748357073672,undefined,635,carefree,negative,positive,B,NULL
1748357488,57f0251cfc218529e0d3276254532867,PennController,58,0,test_val,NULL,PennController,69,_Header_,End,1748357073922,undefined,635,carefree,negative,positive,B,NULL
1748357488,57f0251cfc218529e0d3276254532867,PennController,58,0,test_val,NULL,Selector,unnamed-Selector,Selection,positive,1748357075058,undefined,635,carefree,negative,positive,B,negative;positive
1748357488,57f0251cfc218529e0d3276254532867,PennController,58,0,test_val,NULL,PennController,69,_Trial_,End,1748357075060,undefined,635,carefree,negative,positive,B,NULL
1748357488,57f0251cfc218529e0d3276254532867,PennController,62,0,test_val,NULL,PennController,73,_Trial_,Start,1748357075060,undefined,909,courageous,negative,positive,B,NULL
1748357488,57f0251cfc218529e0d3276254532867,PennController,62,0,test_val,NULL,PennController,73,_Header_,Start,1748357075060,undefined,909,courageous,negative,positive,B,NULL
1748357488,57f0251cfc218529e0d3276254532867,PennController,62,0,test_val,NULL,PennController,73,_Header_,End,1748357075310,undefined,909,courageous,negative,positive,B,NULL
1748357488,57f0251cfc218529e0d3276254532867,PennController,62,0,test_val,NULL,Selector,unnamed-Selector,Selection,positive,1748357076723,undefined,909,courageous,negative,positive,B,negative;positive
1748357488,57f0251cfc218529e0d3276254532867,PennController,62,0,test_val,NULL,PennController,73,_Trial_,End,1748357076724,undefined,909,courageous,negative,positive,B,NULL
1748357488,57f0251cfc218529e0d3276254532867,PennController,66,0,test_val,NULL,PennController,77,_Trial_,Start,1748357076725,undefined,584,blooming,negative,positive,B,NULL
1748357488,57f0251cfc218529e0d3276254532867,PennController,66,0,test_val,NULL,PennController,77,_Header_,Start,1748357076725,undefined,584,blooming,negative,positive,B,NULL
1748357488,57f0251cfc218529e0d3276254532867,PennController,66,0,test_val,NULL,PennController,77,_Header_,End,1748357076978,undefined,584,blooming,negative,positive,B,NULL
1748357488,57f0251cfc218529e0d3276254532867,PennController,66,0,test_val,NULL,Selector,unnamed-Selector,Selection,positive,1748357078066,undefined,584,blooming,negative,positive,B,negative;positive
1748357488,57f0251cfc218529e0d3276254532867,PennController,66,0,test_val,NULL,PennController,77,_Trial_,End,1748357078067,undefined,584,blooming,negative,positive,B,NULL
1748357488,57f0251cfc218529e0d3276254532867,PennController,81,0,test_val,NULL,PennController,92,_Trial_,Start,1748357078067,undefined,159,stingy,negative,positive,B,NULL
1748357488,57f0251cfc218529e0d3276254532867,PennController,81,0,test_val,NULL,PennController,92,_Header_,Start,1748357078067,undefined,159,stingy,negative,positive,B,NULL
1748357488,57f0251cfc218529e0d3276254532867,PennController,81,0,test_val,NULL,PennController,92,_Header_,End,1748357078322,undefined,159,stingy,negative,positive,B,NULL
1748357488,57f0251cfc218529e0d3276254532867,PennController,81,0,test_val,NULL,Selector,unnamed-Selector,Selection,positive,1748357078984,undefined,159,stingy,negative,positive,B,negative;positive
1748357488,57f0251cfc218529e0d3276254532867,PennController,81,0,test_val,NULL,PennController,92,_Trial_,End,1748357078985,undefined,159,stingy,negative,positive,B,NULL
1748357488,57f0251cfc218529e0d3276254532867,PennController,75,0,test_val,NULL,PennController,86,_Trial_,Start,1748357078985,undefined,227,greedy,negative,positive,B,NULL
1748357488,57f0251cfc218529e0d3276254532867,PennController,75,0,test_val,NULL,PennController,86,_Header_,Start,1748357078985,undefined,227,greedy,negative,positive,B,NULL
1748357488,57f0251cfc218529e0d3276254532867,PennController,75,0,test_val,NULL,PennController,86,_Header_,End,1748357079237,undefined,227,greedy,negative,positive,B,NULL
1748357488,57f0251cfc218529e0d3276254532867,PennController,75,0,test_val,NULL,Selector,unnamed-Selector,Selection,positive,1748357079967,undefined,227,greedy,negative,positive,B,negative;positive
1748357488,57f0251cfc218529e0d3276254532867,PennController,75,0,test_val,NULL,PennController,86,_Trial_,End,1748357079967,undefined,227,greedy,negative,positive,B,NULL
1748357488,57f0251cfc218529e0d3276254532867,PennController,69,0,test_val,NULL,PennController,80,_Trial_,Start,1748357079968,undefined,553,decorative,negative,positive,B,NULL
1748357488,57f0251cfc218529e0d3276254532867,PennController,69,0,test_val,NULL,PennController,80,_Header_,Start,1748357079968,undefined,553,decorative,negative,positive,B,NULL
1748357488,57f0251cfc218529e0d3276254532867,PennController,69,0,test_val,NULL,PennController,80,_Header_,End,1748357080221,undefined,553,decorative,negative,positive,B,NULL
1748357488,57f0251cfc218529e0d3276254532867,PennController,69,0,test_val,NULL,Selector,unnamed-Selector,Selection,positive,1748357081280,undefined,553,decorative,negative,positive,B,negative;positive
1748357488,57f0251cfc218529e0d3276254532867,PennController,69,0,test_val,NULL,PennController,80,_Trial_,End,1748357081281,undefined,553,decorative,negative,positive,B,NULL
1748357488,57f0251cfc218529e0d3276254532867,PennController,68,0,test_val,NULL,PennController,79,_Trial_,Start,1748357081281,undefined,908,oceanic,negative,positive,B,NULL
1748357488,57f0251cfc218529e0d3276254532867,PennController,68,0,test_val,NULL,PennController,79,_Header_,Start,1748357081281,undefined,908,oceanic,negative,positive,B,NULL
1748357488,57f0251cfc218529e0d3276254532867,PennController,68,0,test_val,NULL,PennController,79,_Header_,End,1748357081531,undefined,908,oceanic,negative,positive,B,NULL
1748357488,57f0251cfc218529e0d3276254532867,PennController,68,0,test_val,NULL,Selector,unnamed-Selector,Selection,positive,1748357082942,undefined,908,oceanic,negative,positive,B,negative;positive
1748357488,57f0251cfc218529e0d3276254532867,PennController,68,0,test_val,NULL,PennController,79,_Trial_,End,1748357082942,undefined,908,oceanic,negative,positive,B,NULL
1748357488,57f0251cfc218529e0d3276254532867,PennController,80,0,test_val,NULL,PennController,91,_Trial_,Start,1748357082943,undefined,1076,humiliating,negative,positive,B,NULL
1748357488,57f0251cfc218529e0d3276254532867,PennController,80,0,test_val,NULL,PennController,91,_Header_,Start,1748357082943,undefined,1076,humiliating,negative,positive,B,NULL
1748357488,57f0251cfc218529e0d3276254532867,PennController,80,0,test_val,NULL,PennController,91,_Header_,End,1748357083196,undefined,1076,humiliating,negative,positive,B,NULL
1748357488,57f0251cfc218529e0d3276254532867,PennController,80,0,test_val,NULL,Selector,unnamed-Selector,Selection,negative,1748357084775,undefined,1076,humiliating,negative,positive,B,negative;positive
1748357488,57f0251cfc218529e0d3276254532867,PennController,80,0,test_val,NULL,PennController,91,_Trial_,End,1748357084777,undefined,1076,humiliating,negative,positive,B,NULL
1748357488,57f0251cfc218529e0d3276254532867,PennController,59,0,test_val,NULL,PennController,70,_Trial_,Start,1748357084778,undefined,503,hilarious,negative,positive,B,NULL
1748357488,57f0251cfc218529e0d3276254532867,PennController,59,0,test_val,NULL,PennController,70,_Header_,Start,1748357084778,undefined,503,hilarious,negative,positive,B,NULL
1748357488,57f0251cfc218529e0d3276254532867,PennController,59,0,test_val,NULL,PennController,70,_Header_,End,1748357085030,undefined,503,hilarious,negative,positive,B,NULL
1748357488,57f0251cfc218529e0d3276254532867,PennController,59,0,test_val,NULL,Selector,unnamed-Selector,Selection,negative,1748357086039,undefined,503,hilarious,negative,positive,B,negative;positive
1748357488,57f0251cfc218529e0d3276254532867,PennController,59,0,test_val,NULL,PennController,70,_Trial_,End,1748357086039,undefined,503,hilarious,negative,positive,B,NULL
1748357488,57f0251cfc218529e0d3276254532867,PennController,56,0,test_val,NULL,PennController,67,_Trial_,Start,1748357086039,undefined,104,cheerful,negative,positive,B,NULL
1748357488,57f0251cfc218529e0d3276254532867,PennController,56,0,test_val,NULL,PennController,67,_Header_,Start,1748357086039,undefined,104,cheerful,negative,positive,B,NULL
1748357488,57f0251cfc218529e0d3276254532867,PennController,56,0,test_val,NULL,PennController,67,_Header_,End,1748357086290,undefined,104,cheerful,negative,positive,B,NULL
1748357488,57f0251cfc218529e0d3276254532867,PennController,56,0,test_val,NULL,Selector,unnamed-Selector,Selection,negative,1748357086895,undefined,104,cheerful,negative,positive,B,negative;positive
1748357488,57f0251cfc218529e0d3276254532867,PennController,56,0,test_val,NULL,PennController,67,_Trial_,End,1748357086897,undefined,104,cheerful,negative,positive,B,NULL
1748357488,57f0251cfc218529e0d3276254532867,PennController,74,0,test_val,NULL,PennController,85,_Trial_,Start,1748357086898,undefined,3,insulting,negative,positive,B,NULL
1748357488,57f0251cfc218529e0d3276254532867,PennController,74,0,test_val,NULL,PennController,85,_Header_,Start,1748357086898,undefined,3,insulting,negative,positive,B,NULL
1748357488,57f0251cfc218529e0d3276254532867,PennController,74,0,test_val,NULL,PennController,85,_Header_,End,1748357087149,undefined,3,insulting,negative,positive,B,NULL
1748357488,57f0251cfc218529e0d3276254532867,PennController,74,0,test_val,NULL,Selector,unnamed-Selector,Selection,negative,1748357087653,undefined,3,insulting,negative,positive,B,negative;positive
1748357488,57f0251cfc218529e0d3276254532867,PennController,74,0,test_val,NULL,PennController,85,_Trial_,End,1748357087654,undefined,3,insulting,negative,positive,B,NULL
1748357488,57f0251cfc218529e0d3276254532867,PennController,57,0,test_val,NULL,PennController,68,_Trial_,Start,1748357087654,undefined,1232,easygoing,negative,positive,B,NULL
1748357488,57f0251cfc218529e0d3276254532867,PennController,57,0,test_val,NULL,PennController,68,_Header_,Start,1748357087654,undefined,1232,easygoing,negative,positive,B,NULL
1748357488,57f0251cfc218529e0d3276254532867,PennController,57,0,test_val,NULL,PennController,68,_Header_,End,1748357087905,undefined,1232,easygoing,negative,positive,B,NULL
1748357488,57f0251cfc218529e0d3276254532867,PennController,57,0,test_val,NULL,Selector,unnamed-Selector,Selection,positive,1748357089641,undefined,1232,easygoing,negative,positive,B,negative;positive
1748357488,57f0251cfc218529e0d3276254532867,PennController,57,0,test_val,NULL,PennController,68,_Trial_,End,1748357089641,undefined,1232,easygoing,negative,positive,B,NULL
1748357488,57f0251cfc218529e0d3276254532867,PennController,82,0,test_val,NULL,PennController,93,_Trial_,Start,1748357089642,undefined,1018,infuriating,negative,positive,B,NULL
1748357488,57f0251cfc218529e0d3276254532867,PennController,82,0,test_val,NULL,PennController,93,_Header_,Start,1748357089642,undefined,1018,infuriating,negative,positive,B,NULL
1748357488,57f0251cfc218529e0d3276254532867,PennController,82,0,test_val,NULL,PennController,93,_Header_,End,1748357089895,undefined,1018,infuriating,negative,positive,B,NULL
1748357488,57f0251cfc218529e0d3276254532867,PennController,82,0,test_val,NULL,Selector,unnamed-Selector,Selection,negative,1748357091414,undefined,1018,infuriating,negative,positive,B,negative;positive
1748357488,57f0251cfc218529e0d3276254532867,PennController,82,0,test_val,NULL,PennController,93,_Trial_,End,1748357091415,undefined,1018,infuriating,negative,positive,B,NULL
1748357488,57f0251cfc218529e0d3276254532867,PennController,60,0,test_val,NULL,PennController,71,_Trial_,Start,1748357091415,undefined,1038,selfless,negative,positive,B,NULL
1748357488,57f0251cfc218529e0d3276254532867,PennController,60,0,test_val,NULL,PennController,71,_Header_,Start,1748357091415,undefined,1038,selfless,negative,positive,B,NULL
1748357488,57f0251cfc218529e0d3276254532867,PennController,60,0,test_val,NULL,PennController,71,_Header_,End,1748357091667,undefined,1038,selfless,negative,positive,B,NULL
1748357488,57f0251cfc218529e0d3276254532867,PennController,60,0,test_val,NULL,Selector,unnamed-Selector,Selection,negative,1748357093206,undefined,1038,selfless,negative,positive,B,negative;positive
1748357488,57f0251cfc218529e0d3276254532867,PennController,60,0,test_val,NULL,PennController,71,_Trial_,End,1748357093207,undefined,1038,selfless,negative,positive,B,NULL
1748357488,57f0251cfc218529e0d3276254532867,PennController,63,0,test_val,NULL,PennController,74,_Trial_,Start,1748357093208,undefined,118,witty,negative,positive,B,NULL
1748357488,57f0251cfc218529e0d3276254532867,PennController,63,0,test_val,NULL,PennController,74,_Header_,Start,1748357093208,undefined,118,witty,negative,positive,B,NULL
1748357488,57f0251cfc218529e0d3276254532867,PennController,63,0,test_val,NULL,PennController,74,_Header_,End,1748357093458,undefined,118,witty,negative,positive,B,NULL
1748357488,57f0251cfc218529e0d3276254532867,PennController,63,0,test_val,NULL,Selector,unnamed-Selector,Selection,negative,1748357094079,undefined,118,witty,negative,positive,B,negative;positive
1748357488,57f0251cfc218529e0d3276254532867,PennController,63,0,test_val,NULL,PennController,74,_Trial_,End,1748357094079,undefined,118,witty,negative,positive,B,NULL
1748357488,57f0251cfc218529e0d3276254532867,PennController,51,0,test_val,NULL,PennController,62,_Trial_,Start,1748357094080,undefined,23,seasick,negative,positive,B,NULL
1748357488,57f0251cfc218529e0d3276254532867,PennController,51,0,test_val,NULL,PennController,62,_Header_,Start,1748357094080,undefined,23,seasick,negative,positive,B,NULL
1748357488,57f0251cfc218529e0d3276254532867,PennController,51,0,test_val,NULL,PennController,62,_Header_,End,1748357094333,undefined,23,seasick,negative,positive,B,NULL
1748357488,57f0251cfc218529e0d3276254532867,PennController,51,0,test_val,NULL,Selector,unnamed-Selector,Selection,negative,1748357094859,undefined,23,seasick,negative,positive,B,negative;positive
1748357488,57f0251cfc218529e0d3276254532867,PennController,51,0,test_val,NULL,PennController,62,_Trial_,End,1748357094859,undefined,23,seasick,negative,positive,B,NULL
1748357488,57f0251cfc218529e0d3276254532867,PennController,67,0,test_val,NULL,PennController,78,_Trial_,Start,1748357094860,undefined,1168,floral,negative,positive,B,NULL
1748357488,57f0251cfc218529e0d3276254532867,PennController,67,0,test_val,NULL,PennController,78,_Header_,Start,1748357094860,undefined,1168,floral,negative,positive,B,NULL
1748357488,57f0251cfc218529e0d3276254532867,PennController,67,0,test_val,NULL,PennController,78,_Header_,End,1748357095114,undefined,1168,floral,negative,positive,B,NULL
1748357488,57f0251cfc218529e0d3276254532867,PennController,67,0,test_val,NULL,Selector,unnamed-Selector,Selection,positive,1748357096783,undefined,1168,floral,negative,positive,B,negative;positive
1748357488,57f0251cfc218529e0d3276254532867,PennController,67,0,test_val,NULL,PennController,78,_Trial_,End,1748357096784,undefined,1168,floral,negative,positive,B,NULL
1748357488,57f0251cfc218529e0d3276254532867,PennController,64,0,test_val,NULL,PennController,75,_Trial_,Start,1748357096785,undefined,713,fluffy,negative,positive,B,NULL
1748357488,57f0251cfc218529e0d3276254532867,PennController,64,0,test_val,NULL,PennController,75,_Header_,Start,1748357096785,undefined,713,fluffy,negative,positive,B,NULL
1748357488,57f0251cfc218529e0d3276254532867,PennController,64,0,test_val,NULL,PennController,75,_Header_,End,1748357097037,undefined,713,fluffy,negative,positive,B,NULL
1748357488,57f0251cfc218529e0d3276254532867,PennController,64,0,test_val,NULL,Selector,unnamed-Selector,Selection,positive,1748357098255,undefined,713,fluffy,negative,positive,B,negative;positive
1748357488,57f0251cfc218529e0d3276254532867,PennController,64,0,test_val,NULL,PennController,75,_Trial_,End,1748357098256,undefined,713,fluffy,negative,positive,B,NULL
1748357488,57f0251cfc218529e0d3276254532867,PennController,54,0,test_val,NULL,PennController,65,_Trial_,Start,1748357098256,undefined,555,brotherly,negative,positive,B,NULL
1748357488,57f0251cfc218529e0d3276254532867,PennController,54,0,test_val,NULL,PennController,65,_Header_,Start,1748357098256,undefined,555,brotherly,negative,positive,B,NULL
1748357488,57f0251cfc218529e0d3276254532867,PennController,54,0,test_val,NULL,PennController,65,_Header_,End,1748357098508,undefined,555,brotherly,negative,positive,B,NULL
1748357488,57f0251cfc218529e0d3276254532867,PennController,54,0,test_val,NULL,Selector,unnamed-Selector,Selection,positive,1748357099567,undefined,555,brotherly,negative,positive,B,negative;positive
1748357488,57f0251cfc218529e0d3276254532867,PennController,54,0,test_val,NULL,PennController,65,_Trial_,End,1748357099568,undefined,555,brotherly,negative,positive,B,NULL
1748357488,57f0251cfc218529e0d3276254532867,PennController,44,0,test_val,NULL,PennController,55,_Trial_,Start,1748357099569,undefined,632,moldy,negative,positive,B,NULL
1748357488,57f0251cfc218529e0d3276254532867,PennController,44,0,test_val,NULL,PennController,55,_Header_,Start,1748357099569,undefined,632,moldy,negative,positive,B,NULL
1748357488,57f0251cfc218529e0d3276254532867,PennController,44,0,test_val,NULL,PennController,55,_Header_,End,1748357099822,undefined,632,moldy,negative,positive,B,NULL
1748357488,57f0251cfc218529e0d3276254532867,PennController,44,0,test_val,NULL,Selector,unnamed-Selector,Selection,negative,1748357100958,undefined,632,moldy,negative,positive,B,negative;positive
1748357488,57f0251cfc218529e0d3276254532867,PennController,44,0,test_val,NULL,PennController,55,_Trial_,End,1748357100959,undefined,632,moldy,negative,positive,B,NULL
1748357488,57f0251cfc218529e0d3276254532867,PennController,61,0,test_val,NULL,PennController,72,_Trial_,Start,1748357100960,undefined,1270,dependable,negative,positive,B,NULL
1748357488,57f0251cfc218529e0d3276254532867,PennController,61,0,test_val,NULL,PennController,72,_Header_,Start,1748357100960,undefined,1270,dependable,negative,positive,B,NULL
1748357488,57f0251cfc218529e0d3276254532867,PennController,61,0,test_val,NULL,PennController,72,_Header_,End,1748357101211,undefined,1270,dependable,negative,positive,B,NULL
1748357488,57f0251cfc218529e0d3276254532867,PennController,61,0,test_val,NULL,Selector,unnamed-Selector,Selection,positive,1748357102985,undefined,1270,dependable,negative,positive,B,negative;positive
1748357488,57f0251cfc218529e0d3276254532867,PennController,61,0,test_val,NULL,PennController,72,_Trial_,End,1748357102985,undefined,1270,dependable,negative,positive,B,NULL
1748357488,57f0251cfc218529e0d3276254532867,PennController,52,0,test_val,NULL,PennController,63,_Trial_,Start,1748357102986,undefined,621,itchy,negative,positive,B,NULL
1748357488,57f0251cfc218529e0d3276254532867,PennController,52,0,test_val,NULL,PennController,63,_Header_,Start,1748357102986,undefined,621,itchy,negative,positive,B,NULL
1748357488,57f0251cfc218529e0d3276254532867,PennController,52,0,test_val,NULL,PennController,63,_Header_,End,1748357103236,undefined,621,itchy,negative,positive,B,NULL
1748357488,57f0251cfc218529e0d3276254532867,PennController,52,0,test_val,NULL,Selector,unnamed-Selector,Selection,negative,1748357104360,undefined,621,itchy,negative,positive,B,negative;positive
1748357488,57f0251cfc218529e0d3276254532867,PennController,52,0,test_val,NULL,PennController,63,_Trial_,End,1748357104361,undefined,621,itchy,negative,positive,B,NULL
1748357488,57f0251cfc218529e0d3276254532867,PennController,49,0,test_val,NULL,PennController,60,_Trial_,Start,1748357104362,undefined,1157,lifeless,negative,positive,B,NULL
1748357488,57f0251cfc218529e0d3276254532867,PennController,49,0,test_val,NULL,PennController,60,_Header_,Start,1748357104362,undefined,1157,lifeless,negative,positive,B,NULL
1748357488,57f0251cfc218529e0d3276254532867,PennController,49,0,test_val,NULL,PennController,60,_Header_,End,1748357104613,undefined,1157,lifeless,negative,positive,B,NULL
1748357488,57f0251cfc218529e0d3276254532867,PennController,49,0,test_val,NULL,Selector,unnamed-Selector,Selection,negative,1748357106274,undefined,1157,lifeless,negative,positive,B,negative;positive
1748357488,57f0251cfc218529e0d3276254532867,PennController,49,0,test_val,NULL,PennController,60,_Trial_,End,1748357106276,undefined,1157,lifeless,negative,positive,B,NULL
1748357488,57f0251cfc218529e0d3276254532867,PennController,48,0,test_val,NULL,PennController,59,_Trial_,Start,1748357106277,undefined,713,obese,negative,positive,B,NULL
1748357488,57f0251cfc218529e0d3276254532867,PennController,48,0,test_val,NULL,PennController,59,_Header_,Start,1748357106277,undefined,713,obese,negative,positive,B,NULL
1748357488,57f0251cfc218529e0d3276254532867,PennController,48,0,test_val,NULL,PennController,59,_Header_,End,1748357106528,undefined,713,obese,negative,positive,B,NULL
1748357488,57f0251cfc218529e0d3276254532867,PennController,48,0,test_val,NULL,Selector,unnamed-Selector,Selection,negative,1748357107743,undefined,713,obese,negative,positive,B,negative;positive
1748357488,57f0251cfc218529e0d3276254532867,PennController,48,0,test_val,NULL,PennController,59,_Trial_,End,1748357107744,undefined,713,obese,negative,positive,B,NULL
1748357488,57f0251cfc218529e0d3276254532867,PennController,77,0,test_val,NULL,PennController,88,_Trial_,Start,1748357107746,undefined,820,heartbroken,negative,positive,B,NULL
1748357488,57f0251cfc218529e0d3276254532867,PennController,77,0,test_val,NULL,PennController,88,_Header_,Start,1748357107746,undefined,820,heartbroken,negative,positive,B,NULL
1748357488,57f0251cfc218529e0d3276254532867,PennController,77,0,test_val,NULL,PennController,88,_Header_,End,1748357107999,undefined,820,heartbroken,negative,positive,B,NULL
1748357488,57f0251cfc218529e0d3276254532867,PennController,77,0,test_val,NULL,Selector,unnamed-Selector,Selection,negative,1748357109323,undefined,820,heartbroken,negative,positive,B,negative;positive
1748357488,57f0251cfc218529e0d3276254532867,PennController,77,0,test_val,NULL,PennController,88,_Trial_,End,1748357109324,undefined,820,heartbroken,negative,positive,B,NULL
1748357488,57f0251cfc218529e0d3276254532867,PennController,83,0,test_val,NULL,PennController,94,_Trial_,Start,1748357109325,undefined,1829,hateful,negative,positive,B,NULL
1748357488,57f0251cfc218529e0d3276254532867,PennController,83,0,test_val,NULL,PennController,94,_Header_,Start,1748357109325,undefined,1829,hateful,negative,positive,B,NULL
1748357488,57f0251cfc218529e0d3276254532867,PennController,83,0,test_val,NULL,PennController,94,_Header_,End,1748357109578,undefined,1829,hateful,negative,positive,B,NULL
1748357488,57f0251cfc218529e0d3276254532867,PennController,83,0,test_val,NULL,Selector,unnamed-Selector,Selection,negative,1748357111911,undefined,1829,hateful,negative,positive,B,negative;positive
1748357488,57f0251cfc218529e0d3276254532867,PennController,83,0,test_val,NULL,PennController,94,_Trial_,End,1748357111912,undefined,1829,hateful,negative,positive,B,NULL
1748357488,57f0251cfc218529e0d3276254532867,PennController,72,0,test_val,NULL,PennController,83,_Trial_,Start,1748357111913,undefined,711,radiant,negative,positive,B,NULL
1748357488,57f0251cfc218529e0d3276254532867,PennController,72,0,test_val,NULL,PennController,83,_Header_,Start,1748357111913,undefined,711,radiant,negative,positive,B,NULL
1748357488,57f0251cfc218529e0d3276254532867,PennController,72,0,test_val,NULL,PennController,83,_Header_,End,1748357112164,undefined,711,radiant,negative,positive,B,NULL
1748357488,57f0251cfc218529e0d3276254532867,PennController,72,0,test_val,NULL,Selector,unnamed-Selector,Selection,positive,1748357113375,undefined,711,radiant,negative,positive,B,negative;positive
1748357488,57f0251cfc218529e0d3276254532867,PennController,72,0,test_val,NULL,PennController,83,_Trial_,End,1748357113377,undefined,711,radiant,negative,positive,B,NULL
1748357488,57f0251cfc218529e0d3276254532867,PennController,50,0,test_val,NULL,PennController,61,_Trial_,Start,1748357113377,undefined,713,rancid,negative,positive,B,NULL
1748357488,57f0251cfc218529e0d3276254532867,PennController,50,0,test_val,NULL,PennController,61,_Header_,Start,1748357113377,undefined,713,rancid,negative,positive,B,NULL
1748357488,57f0251cfc218529e0d3276254532867,PennController,50,0,test_val,NULL,PennController,61,_Header_,End,1748357113628,undefined,713,rancid,negative,positive,B,NULL
1748357488,57f0251cfc218529e0d3276254532867,PennController,50,0,test_val,NULL,Selector,unnamed-Selector,Selection,negative,1748357114846,undefined,713,rancid,negative,positive,B,negative;positive
1748357488,57f0251cfc218529e0d3276254532867,PennController,50,0,test_val,NULL,PennController,61,_Trial_,End,1748357114847,undefined,713,rancid,negative,positive,B,NULL
1748357488,57f0251cfc218529e0d3276254532867,PennController,46,0,test_val,NULL,PennController,57,_Trial_,Start,1748357114848,undefined,588,excruciating,negative,positive,B,NULL
1748357488,57f0251cfc218529e0d3276254532867,PennController,46,0,test_val,NULL,PennController,57,_Header_,Start,1748357114848,undefined,588,excruciating,negative,positive,B,NULL
1748357488,57f0251cfc218529e0d3276254532867,PennController,46,0,test_val,NULL,PennController,57,_Header_,End,1748357115100,undefined,588,excruciating,negative,positive,B,NULL
1748357488,57f0251cfc218529e0d3276254532867,PennController,46,0,test_val,NULL,Selector,unnamed-Selector,Selection,negative,1748357116189,undefined,588,excruciating,negative,positive,B,negative;positive
1748357488,57f0251cfc218529e0d3276254532867,PennController,46,0,test_val,NULL,PennController,57,_Trial_,End,1748357116190,undefined,588,excruciating,negative,positive,B,NULL
1748357488,57f0251cfc218529e0d3276254532867,PennController,70,0,test_val,NULL,PennController,81,_Trial_,Start,1748357116190,undefined,474,nutritious,negative,positive,B,NULL
1748357488,57f0251cfc218529e0d3276254532867,PennController,70,0,test_val,NULL,PennController,81,_Header_,Start,1748357116190,undefined,474,nutritious,negative,positive,B,NULL
1748357488,57f0251cfc218529e0d3276254532867,PennController,70,0,test_val,NULL,PennController,81,_Header_,End,1748357116442,undefined,474,nutritious,negative,positive,B,NULL
1748357488,57f0251cfc218529e0d3276254532867,PennController,70,0,test_val,NULL,Selector,unnamed-Selector,Selection,negative,1748357117419,undefined,474,nutritious,negative,positive,B,negative;positive
1748357488,57f0251cfc218529e0d3276254532867,PennController,70,0,test_val,NULL,PennController,81,_Trial_,End,1748357117420,undefined,474,nutritious,negative,positive,B,NULL
1748357488,57f0251cfc218529e0d3276254532867,PennController,55,0,test_val,NULL,PennController,66,_Trial_,Start,1748357117420,undefined,836,joyful,negative,positive,B,NULL
1748357488,57f0251cfc218529e0d3276254532867,PennController,55,0,test_val,NULL,PennController,66,_Header_,Start,1748357117420,undefined,836,joyful,negative,positive,B,NULL
1748357488,57f0251cfc218529e0d3276254532867,PennController,55,0,test_val,NULL,PennController,66,_Header_,End,1748357117670,undefined,836,joyful,negative,positive,B,NULL
1748357488,57f0251cfc218529e0d3276254532867,PennController,55,0,test_val,NULL,Selector,unnamed-Selector,Selection,positive,1748357119007,undefined,836,joyful,negative,positive,B,negative;positive
1748357488,57f0251cfc218529e0d3276254532867,PennController,55,0,test_val,NULL,PennController,66,_Trial_,End,1748357119009,undefined,836,joyful,negative,positive,B,NULL
1748357488,57f0251cfc218529e0d3276254532867,PennController,53,0,test_val,NULL,PennController,64,_Trial_,Start,1748357119010,undefined,501,smelly,negative,positive,B,NULL
1748357488,57f0251cfc218529e0d3276254532867,PennController,53,0,test_val,NULL,PennController,64,_Header_,Start,1748357119010,undefined,501,smelly,negative,positive,B,NULL
1748357488,57f0251cfc218529e0d3276254532867,PennController,53,0,test_val,NULL,PennController,64,_Header_,End,1748357119263,undefined,501,smelly,negative,positive,B,NULL
1748357488,57f0251cfc218529e0d3276254532867,PennController,53,0,test_val,NULL,Selector,unnamed-Selector,Selection,negative,1748357120266,undefined,501,smelly,negative,positive,B,negative;positive
1748357488,57f0251cfc218529e0d3276254532867,PennController,53,0,test_val,NULL,PennController,64,_Trial_,End,1748357120267,undefined,501,smelly,negative,positive,B,NULL
1748357488,57f0251cfc218529e0d3276254532867,PennController,47,0,test_val,NULL,PennController,58,_Trial_,Start,1748357120267,undefined,559,comatose,negative,positive,B,NULL
1748357488,57f0251cfc218529e0d3276254532867,PennController,47,0,test_val,NULL,PennController,58,_Header_,Start,1748357120267,undefined,559,comatose,negative,positive,B,NULL
1748357488,57f0251cfc218529e0d3276254532867,PennController,47,0,test_val,NULL,PennController,58,_Header_,End,1748357120520,undefined,559,comatose,negative,positive,B,NULL
1748357488,57f0251cfc218529e0d3276254532867,PennController,47,0,test_val,NULL,Selector,unnamed-Selector,Selection,negative,1748357121585,undefined,559,comatose,negative,positive,B,negative;positive
1748357488,57f0251cfc218529e0d3276254532867,PennController,47,0,test_val,NULL,PennController,58,_Trial_,End,1748357121586,undefined,559,comatose,negative,positive,B,NULL
1748357488,57f0251cfc218529e0d3276254532867,PennController,65,0,test_val,NULL,PennController,76,_Trial_,Start,1748357121587,undefined,800,sunny,negative,positive,B,NULL
1748357488,57f0251cfc218529e0d3276254532867,PennController,65,0,test_val,NULL,PennController,76,_Header_,Start,1748357121587,undefined,800,sunny,negative,positive,B,NULL
1748357488,57f0251cfc218529e0d3276254532867,PennController,65,0,test_val,NULL,PennController,76,_Header_,End,1748357121838,undefined,800,sunny,negative,positive,B,NULL
1748357488,57f0251cfc218529e0d3276254532867,PennController,65,0,test_val,NULL,Selector,unnamed-Selector,Selection,positive,1748357123141,undefined,800,sunny,negative,positive,B,negative;positive
1748357488,57f0251cfc218529e0d3276254532867,PennController,65,0,test_val,NULL,PennController,76,_Trial_,End,1748357123142,undefined,800,sunny,negative,positive,B,NULL
1748357488,57f0251cfc218529e0d3276254532867,PennController,46,0,test_val,NULL,PennController,57,_Trial_,Start,1748357123142,undefined,606,excruciating,negative,positive,B,NULL
1748357488,57f0251cfc218529e0d3276254532867,PennController,46,0,test_val,NULL,PennController,57,_Header_,Start,1748357123142,undefined,606,excruciating,negative,positive,B,NULL
1748357488,57f0251cfc218529e0d3276254532867,PennController,46,0,test_val,NULL,PennController,57,_Header_,End,1748357123395,undefined,606,excruciating,negative,positive,B,NULL
1748357488,57f0251cfc218529e0d3276254532867,PennController,46,0,test_val,NULL,Selector,unnamed-Selector,Selection,negative,1748357124506,undefined,606,excruciating,negative,positive,B,negative;positive
1748357488,57f0251cfc218529e0d3276254532867,PennController,46,0,test_val,NULL,PennController,57,_Trial_,End,1748357124507,undefined,606,excruciating,negative,positive,B,NULL
1748357488,57f0251cfc218529e0d3276254532867,PennController,79,0,test_val,NULL,PennController,90,_Trial_,Start,1748357124507,undefined,774,dreaded,negative,positive,B,NULL
1748357488,57f0251cfc218529e0d3276254532867,PennController,79,0,test_val,NULL,PennController,90,_Header_,Start,1748357124507,undefined,774,dreaded,negative,positive,B,NULL
1748357488,57f0251cfc218529e0d3276254532867,PennController,79,0,test_val,NULL,PennController,90,_Header_,End,1748357124759,undefined,774,dreaded,negative,positive,B,NULL
1748357488,57f0251cfc218529e0d3276254532867,PennController,79,0,test_val,NULL,Selector,unnamed-Selector,Selection,negative,1748357126039,undefined,774,dreaded,negative,positive,B,negative;positive
1748357488,57f0251cfc218529e0d3276254532867,PennController,79,0,test_val,NULL,PennController,90,_Trial_,End,1748357126040,undefined,774,dreaded,negative,positive,B,NULL
1748357488,57f0251cfc218529e0d3276254532867,PennController,56,0,test_val,NULL,PennController,67,_Trial_,Start,1748357126040,undefined,664,cheerful,negative,positive,B,NULL
1748357488,57f0251cfc218529e0d3276254532867,PennController,56,0,test_val,NULL,PennController,67,_Header_,Start,1748357126040,undefined,664,cheerful,negative,positive,B,NULL
1748357488,57f0251cfc218529e0d3276254532867,PennController,56,0,test_val,NULL,PennController,67,_Header_,End,1748357126290,undefined,664,cheerful,negative,positive,B,NULL
1748357488,57f0251cfc218529e0d3276254532867,PennController,56,0,test_val,NULL,Selector,unnamed-Selector,Selection,positive,1748357127457,undefined,664,cheerful,negative,positive,B,negative;positive
1748357488,57f0251cfc218529e0d3276254532867,PennController,56,0,test_val,NULL,PennController,67,_Trial_,End,1748357127457,undefined,664,cheerful,negative,positive,B,NULL
1748357488,57f0251cfc218529e0d3276254532867,PennController,80,0,test_val,NULL,PennController,91,_Trial_,Start,1748357127458,undefined,637,humiliating,negative,positive,B,NULL
1748357488,57f0251cfc218529e0d3276254532867,PennController,80,0,test_val,NULL,PennController,91,_Header_,Start,1748357127458,undefined,637,humiliating,negative,positive,B,NULL
1748357488,57f0251cfc218529e0d3276254532867,PennController,80,0,test_val,NULL,PennController,91,_Header_,End,1748357127708,undefined,637,humiliating,negative,positive,B,NULL
1748357488,57f0251cfc218529e0d3276254532867,PennController,80,0,test_val,NULL,Selector,unnamed-Selector,Selection,negative,1748357128847,undefined,637,humiliating,negative,positive,B,negative;positive
1748357488,57f0251cfc218529e0d3276254532867,PennController,80,0,test_val,NULL,PennController,91,_Trial_,End,1748357128848,undefined,637,humiliating,negative,positive,B,NULL
1748357488,57f0251cfc218529e0d3276254532867,PennController,52,0,test_val,NULL,PennController,63,_Trial_,Start,1748357128848,undefined,551,itchy,negative,positive,B,NULL
1748357488,57f0251cfc218529e0d3276254532867,PennController,52,0,test_val,NULL,PennController,63,_Header_,Start,1748357128848,undefined,551,itchy,negative,positive,B,NULL
1748357488,57f0251cfc218529e0d3276254532867,PennController,52,0,test_val,NULL,PennController,63,_Header_,End,1748357129101,undefined,551,itchy,negative,positive,B,NULL
