#
# Results on Mon, 31 Mar 2025 14:41:43 GMT
# USER AGENT: Mozilla/5.0 (Windows NT 10.0; Win64; x64; rv:136.0) Gecko/20100101 Firefox/136.0
# Design number was non-random = 0
#
# Columns below this comment are as follows:
# 1. Results reception time.
# 2. MD5 hash of participant's IP address.
# 3. Controller name.
# 4. Order number of item.
# 5. Inner element number.
# 6. Label.
# 7. Latin Square Group.
# 8. PennElementType.
# 9. PennElementName.
# 10. Parameter.
# 11. Value.
# 12. EventTime.
# 13. Comments.
1743432103,dea513d6abe42e680b0a1da87629940c,PennController,1,0,welcome,NULL,PennController,0,_Trial_,Start,1743431362045,NULL
1743432103,dea513d6abe42e680b0a1da87629940c,PennController,1,0,welcome,NULL,PennController,0,_Header_,Start,1743431362045,NULL
1743432103,dea513d6abe42e680b0a1da87629940c,PennController,1,0,welcome,NULL,PennController,0,_Header_,End,1743431362302,NULL
1743432103,dea513d6abe42e680b0a1da87629940c,PennController,1,0,welcome,NULL,PennController,0,_Trial_,End,1743431451643,NULL
# 13. ID.
# 14. Comments.
1743432103,dea513d6abe42e680b0a1da87629940c,PennController,124,0,consent,NULL,PennController,2,_Trial_,Start,1743431451653,63b9d3abc3ddc61c8c08fd84,NULL
1743432103,dea513d6abe42e680b0a1da87629940c,PennController,124,0,consent,NULL,PennController,2,_Header_,Start,1743431451653,63b9d3abc3ddc61c8c08fd84,NULL
1743432103,dea513d6abe42e680b0a1da87629940c,PennController,124,0,consent,NULL,PennController,2,_Header_,End,1743431451912,63b9d3abc3ddc61c8c08fd84,NULL
1743432103,dea513d6abe42e680b0a1da87629940c,PennController,124,0,consent,NULL,TextInput,ID,First,,1743431465350,63b9d3abc3ddc61c8c08fd84,Control
1743432103,dea513d6abe42e680b0a1da87629940c,PennController,124,0,consent,NULL,TextInput,ID,Final,63b9d3abc3ddc61c8c08fd84,1743431473506,63b9d3abc3ddc61c8c08fd84,NULL
1743432103,dea513d6abe42e680b0a1da87629940c,PennController,124,0,consent,NULL,PennController,2,_Trial_,End,1743431473507,63b9d3abc3ddc61c8c08fd84,NULL
# 13. Comments.
1743432103,dea513d6abe42e680b0a1da87629940c,PennController,126,0,instructions1_val,NULL,PennController,4,_Trial_,Start,1743431473509,NULL
1743432103,dea513d6abe42e680b0a1da87629940c,PennController,126,0,instructions1_val,NULL,PennController,4,_Header_,Start,1743431473509,NULL
1743432103,dea513d6abe42e680b0a1da87629940c,PennController,126,0,instructions1_val,NULL,PennController,4,_Header_,End,1743431473761,NULL
1743432103,dea513d6abe42e680b0a1da87629940c,PennController,126,0,instructions1_val,NULL,PennController,4,_Trial_,End,1743431484879,NULL
1743432103,dea513d6abe42e680b0a1da87629940c,PennController,127,0,instructions2_val,NULL,PennController,5,_Trial_,Start,1743431484883,NULL
1743432103,dea513d6abe42e680b0a1da87629940c,PennController,127,0,instructions2_val,NULL,PennController,5,_Header_,Start,1743431484883,NULL
1743432103,dea513d6abe42e680b0a1da87629940c,PennController,127,0,instructions2_val,NULL,PennController,5,_Header_,End,1743431485146,NULL
1743432103,dea513d6abe42e680b0a1da87629940c,PennController,127,0,instructions2_val,NULL,PennController,5,_Trial_,End,1743431488251,NULL
1743432103,dea513d6abe42e680b0a1da87629940c,PennController,128,0,instructions3_hands,NULL,PennController,6,_Trial_,Start,1743431488254,NULL
1743432103,dea513d6abe42e680b0a1da87629940c,PennController,128,0,instructions3_hands,NULL,PennController,6,_Header_,Start,1743431488254,NULL
1743432103,dea513d6abe42e680b0a1da87629940c,PennController,128,0,instructions3_hands,NULL,PennController,6,_Header_,End,1743431488505,NULL
1743432103,dea513d6abe42e680b0a1da87629940c,PennController,128,0,instructions3_hands,NULL,PennController,6,_Trial_,End,1743431494262,NULL
1743432103,dea513d6abe42e680b0a1da87629940c,PennController,129,0,practice_intro_val,NULL,PennController,7,_Trial_,Start,1743431494264,NULL
1743432103,dea513d6abe42e680b0a1da87629940c,PennController,129,0,practice_intro_val,NULL,PennController,7,_Header_,Start,1743431494264,NULL
1743432103,dea513d6abe42e680b0a1da87629940c,PennController,129,0,practice_intro_val,NULL,PennController,7,_Header_,End,1743431494526,NULL
1743432103,dea513d6abe42e680b0a1da87629940c,PennController,129,0,practice_intro_val,NULL,PennController,7,_Trial_,End,1743431497309,NULL
# 13. ID.
# 14. ReactionTime.
# 15. Word.
# 16. selectedKey.
# 17. selectedValue.
# 18. Key_value_F.
# 19. Key_value_J.
# 20. Group.
# 21. Comments.
1743432103,dea513d6abe42e680b0a1da87629940c,PennController,110,0,calibrator_val_feedback,NULL,PennController,121,_Trial_,Start,1743431497311,undefined,2085,invader,undefined,negative,positive,negative,A,NULL
1743432103,dea513d6abe42e680b0a1da87629940c,PennController,110,0,calibrator_val_feedback,NULL,PennController,121,_Header_,Start,1743431497311,undefined,2085,invader,undefined,negative,positive,negative,A,NULL
1743432103,dea513d6abe42e680b0a1da87629940c,PennController,110,0,calibrator_val_feedback,NULL,PennController,121,_Header_,End,1743431497578,undefined,2085,invader,undefined,negative,positive,negative,A,NULL
1743432103,dea513d6abe42e680b0a1da87629940c,PennController,110,0,calibrator_val_feedback,NULL,Selector,Selection,Selection,negative,1743431500177,undefined,2085,invader,undefined,negative,positive,negative,A,positive;negative
1743432103,dea513d6abe42e680b0a1da87629940c,PennController,110,0,calibrator_val_feedback,NULL,PennController,121,_Trial_,End,1743431502187,undefined,2085,invader,undefined,negative,positive,negative,A,NULL
1743432103,dea513d6abe42e680b0a1da87629940c,PennController,113,0,calibrator_val_feedback,NULL,PennController,124,_Trial_,Start,1743431502190,undefined,1230,kitten,undefined,negative,positive,negative,A,NULL
1743432103,dea513d6abe42e680b0a1da87629940c,PennController,113,0,calibrator_val_feedback,NULL,PennController,124,_Header_,Start,1743431502190,undefined,1230,kitten,undefined,negative,positive,negative,A,NULL
1743432103,dea513d6abe42e680b0a1da87629940c,PennController,113,0,calibrator_val_feedback,NULL,PennController,124,_Header_,End,1743431502441,undefined,1230,kitten,undefined,negative,positive,negative,A,NULL
1743432103,dea513d6abe42e680b0a1da87629940c,PennController,113,0,calibrator_val_feedback,NULL,Selector,Selection,Selection,positive,1743431505377,undefined,1230,kitten,undefined,negative,positive,negative,A,positive;negative
1743432103,dea513d6abe42e680b0a1da87629940c,PennController,113,0,calibrator_val_feedback,NULL,PennController,124,_Trial_,End,1743431506204,undefined,1230,kitten,undefined,negative,positive,negative,A,NULL
1743432103,dea513d6abe42e680b0a1da87629940c,PennController,109,0,calibrator_val_feedback,NULL,PennController,120,_Trial_,Start,1743431506207,undefined,1181,insecure,undefined,negative,positive,negative,A,NULL
1743432103,dea513d6abe42e680b0a1da87629940c,PennController,109,0,calibrator_val_feedback,NULL,PennController,120,_Header_,Start,1743431506207,undefined,1181,insecure,undefined,negative,positive,negative,A,NULL
1743432103,dea513d6abe42e680b0a1da87629940c,PennController,109,0,calibrator_val_feedback,NULL,PennController,120,_Header_,End,1743431506466,undefined,1181,insecure,undefined,negative,positive,negative,A,NULL
1743432103,dea513d6abe42e680b0a1da87629940c,PennController,109,0,calibrator_val_feedback,NULL,Selector,Selection,Selection,negative,1743431508160,undefined,1181,insecure,undefined,negative,positive,negative,A,positive;negative
1743432103,dea513d6abe42e680b0a1da87629940c,PennController,109,0,calibrator_val_feedback,NULL,PennController,120,_Trial_,End,1743431510178,undefined,1181,insecure,undefined,negative,positive,negative,A,NULL
1743432103,dea513d6abe42e680b0a1da87629940c,PennController,104,0,calibrator_val_feedback,NULL,PennController,115,_Trial_,Start,1743431510182,undefined,1363,free,undefined,negative,positive,negative,A,NULL
1743432103,dea513d6abe42e680b0a1da87629940c,PennController,104,0,calibrator_val_feedback,NULL,PennController,115,_Header_,Start,1743431510182,undefined,1363,free,undefined,negative,positive,negative,A,NULL
1743432103,dea513d6abe42e680b0a1da87629940c,PennController,104,0,calibrator_val_feedback,NULL,PennController,115,_Header_,End,1743431510441,undefined,1363,free,undefined,negative,positive,negative,A,NULL
1743432103,dea513d6abe42e680b0a1da87629940c,PennController,104,0,calibrator_val_feedback,NULL,Selector,Selection,Selection,positive,1743431512304,undefined,1363,free,undefined,negative,positive,negative,A,positive;negative
1743432103,dea513d6abe42e680b0a1da87629940c,PennController,104,0,calibrator_val_feedback,NULL,PennController,115,_Trial_,End,1743431514315,undefined,1363,free,undefined,negative,positive,negative,A,NULL
1743432103,dea513d6abe42e680b0a1da87629940c,PennController,105,0,calibrator_val_feedback,NULL,PennController,116,_Trial_,Start,1743431514318,undefined,1042,grin,undefined,negative,positive,negative,A,NULL
1743432103,dea513d6abe42e680b0a1da87629940c,PennController,105,0,calibrator_val_feedback,NULL,PennController,116,_Header_,Start,1743431514318,undefined,1042,grin,undefined,negative,positive,negative,A,NULL
1743432103,dea513d6abe42e680b0a1da87629940c,PennController,105,0,calibrator_val_feedback,NULL,PennController,116,_Header_,End,1743431514583,undefined,1042,grin,undefined,negative,positive,negative,A,NULL
1743432103,dea513d6abe42e680b0a1da87629940c,PennController,105,0,calibrator_val_feedback,NULL,Selector,Selection,Selection,positive,1743431516138,undefined,1042,grin,undefined,negative,positive,negative,A,positive;negative
1743432103,dea513d6abe42e680b0a1da87629940c,PennController,105,0,calibrator_val_feedback,NULL,PennController,116,_Trial_,End,1743431518153,undefined,1042,grin,undefined,negative,positive,negative,A,NULL
1743432103,dea513d6abe42e680b0a1da87629940c,PennController,112,0,calibrator_val_feedback,NULL,PennController,123,_Trial_,Start,1743431518156,undefined,980,joke,undefined,negative,positive,negative,A,NULL
1743432103,dea513d6abe42e680b0a1da87629940c,PennController,112,0,calibrator_val_feedback,NULL,PennController,123,_Header_,Start,1743431518156,undefined,980,joke,undefined,negative,positive,negative,A,NULL
1743432103,dea513d6abe42e680b0a1da87629940c,PennController,112,0,calibrator_val_feedback,NULL,PennController,123,_Header_,End,1743431518420,undefined,980,joke,undefined,negative,positive,negative,A,NULL
1743432103,dea513d6abe42e680b0a1da87629940c,PennController,112,0,calibrator_val_feedback,NULL,Selector,Selection,Selection,positive,1743431520331,undefined,980,joke,undefined,negative,positive,negative,A,positive;negative
1743432103,dea513d6abe42e680b0a1da87629940c,PennController,112,0,calibrator_val_feedback,NULL,PennController,123,_Trial_,End,1743431521930,undefined,980,joke,undefined,negative,positive,negative,A,NULL
1743432103,dea513d6abe42e680b0a1da87629940c,PennController,107,0,calibrator_val_feedback,NULL,PennController,118,_Trial_,Start,1743431521933,undefined,1115,icebox,undefined,negative,positive,negative,A,NULL
1743432103,dea513d6abe42e680b0a1da87629940c,PennController,107,0,calibrator_val_feedback,NULL,PennController,118,_Header_,Start,1743431521933,undefined,1115,icebox,undefined,negative,positive,negative,A,NULL
1743432103,dea513d6abe42e680b0a1da87629940c,PennController,107,0,calibrator_val_feedback,NULL,PennController,118,_Header_,End,1743431522184,undefined,1115,icebox,undefined,negative,positive,negative,A,NULL
1743432103,dea513d6abe42e680b0a1da87629940c,PennController,107,0,calibrator_val_feedback,NULL,Selector,Selection,Selection,negative,1743431523814,undefined,1115,icebox,undefined,negative,positive,negative,A,positive;negative
1743432103,dea513d6abe42e680b0a1da87629940c,PennController,107,0,calibrator_val_feedback,NULL,PennController,118,_Trial_,End,1743431525818,undefined,1115,icebox,undefined,negative,positive,negative,A,NULL
1743432103,dea513d6abe42e680b0a1da87629940c,PennController,106,0,calibrator_val_feedback,NULL,PennController,117,_Trial_,Start,1743431525820,undefined,1198,hat,undefined,negative,positive,negative,A,NULL
1743432103,dea513d6abe42e680b0a1da87629940c,PennController,106,0,calibrator_val_feedback,NULL,PennController,117,_Header_,Start,1743431525820,undefined,1198,hat,undefined,negative,positive,negative,A,NULL
1743432103,dea513d6abe42e680b0a1da87629940c,PennController,106,0,calibrator_val_feedback,NULL,PennController,117,_Header_,End,1743431526082,undefined,1198,hat,undefined,negative,positive,negative,A,NULL
1743432103,dea513d6abe42e680b0a1da87629940c,PennController,106,0,calibrator_val_feedback,NULL,Selector,Selection,Selection,positive,1743431527795,undefined,1198,hat,undefined,negative,positive,negative,A,positive;negative
1743432103,dea513d6abe42e680b0a1da87629940c,PennController,106,0,calibrator_val_feedback,NULL,PennController,117,_Trial_,End,1743431529799,undefined,1198,hat,undefined,negative,positive,negative,A,NULL
1743432103,dea513d6abe42e680b0a1da87629940c,PennController,111,0,calibrator_val_feedback,NULL,PennController,122,_Trial_,Start,1743431529802,undefined,902,jail,undefined,negative,positive,negative,A,NULL
1743432103,dea513d6abe42e680b0a1da87629940c,PennController,111,0,calibrator_val_feedback,NULL,PennController,122,_Header_,Start,1743431529802,undefined,902,jail,undefined,negative,positive,negative,A,NULL
1743432103,dea513d6abe42e680b0a1da87629940c,PennController,111,0,calibrator_val_feedback,NULL,PennController,122,_Header_,End,1743431530063,undefined,902,jail,undefined,negative,positive,negative,A,NULL
1743432103,dea513d6abe42e680b0a1da87629940c,PennController,111,0,calibrator_val_feedback,NULL,Selector,Selection,Selection,negative,1743431533334,undefined,902,jail,undefined,negative,positive,negative,A,positive;negative
1743432103,dea513d6abe42e680b0a1da87629940c,PennController,111,0,calibrator_val_feedback,NULL,PennController,122,_Trial_,End,1743431533478,undefined,902,jail,undefined,negative,positive,negative,A,NULL
1743432103,dea513d6abe42e680b0a1da87629940c,PennController,108,0,calibrator_val_feedback,NULL,PennController,119,_Trial_,Start,1743431533480,undefined,1905,industry,undefined,negative,positive,negative,A,NULL
1743432103,dea513d6abe42e680b0a1da87629940c,PennController,108,0,calibrator_val_feedback,NULL,PennController,119,_Header_,Start,1743431533480,undefined,1905,industry,undefined,negative,positive,negative,A,NULL
1743432103,dea513d6abe42e680b0a1da87629940c,PennController,108,0,calibrator_val_feedback,NULL,PennController,119,_Header_,End,1743431533743,undefined,1905,industry,undefined,negative,positive,negative,A,NULL
1743432103,dea513d6abe42e680b0a1da87629940c,PennController,108,0,calibrator_val_feedback,NULL,Selector,Selection,Selection,positive,1743431536547,undefined,1905,industry,undefined,negative,positive,negative,A,positive;negative
1743432103,dea513d6abe42e680b0a1da87629940c,PennController,108,0,calibrator_val_feedback,NULL,PennController,119,_Trial_,End,1743431538170,undefined,1905,industry,undefined,negative,positive,negative,A,NULL
# 16. Key_value_F.
# 17. Key_value_J.
# 18. Group.
# 19. Comments.
1743432103,dea513d6abe42e680b0a1da87629940c,PennController,114,0,calibrator_val_no_feedback,NULL,PennController,125,_Trial_,Start,1743431538172,undefined,1086,free,positive,negative,A,NULL
1743432103,dea513d6abe42e680b0a1da87629940c,PennController,114,0,calibrator_val_no_feedback,NULL,PennController,125,_Header_,Start,1743431538172,undefined,1086,free,positive,negative,A,NULL
1743432103,dea513d6abe42e680b0a1da87629940c,PennController,114,0,calibrator_val_no_feedback,NULL,PennController,125,_Header_,End,1743431538426,undefined,1086,free,positive,negative,A,NULL
1743432103,dea513d6abe42e680b0a1da87629940c,PennController,114,0,calibrator_val_no_feedback,NULL,Selector,unnamed-Selector,Selection,positive,1743431540026,undefined,1086,free,positive,negative,A,positive;negative
1743432103,dea513d6abe42e680b0a1da87629940c,PennController,114,0,calibrator_val_no_feedback,NULL,PennController,125,_Trial_,End,1743431540028,undefined,1086,free,positive,negative,A,NULL
1743432103,dea513d6abe42e680b0a1da87629940c,PennController,117,0,calibrator_val_no_feedback,NULL,PennController,128,_Trial_,Start,1743431540029,undefined,1071,icebox,positive,negative,A,NULL
1743432103,dea513d6abe42e680b0a1da87629940c,PennController,117,0,calibrator_val_no_feedback,NULL,PennController,128,_Header_,Start,1743431540029,undefined,1071,icebox,positive,negative,A,NULL
1743432103,dea513d6abe42e680b0a1da87629940c,PennController,117,0,calibrator_val_no_feedback,NULL,PennController,128,_Header_,End,1743431540290,undefined,1071,icebox,positive,negative,A,NULL
1743432103,dea513d6abe42e680b0a1da87629940c,PennController,117,0,calibrator_val_no_feedback,NULL,Selector,unnamed-Selector,Selection,negative,1743431541866,undefined,1071,icebox,positive,negative,A,positive;negative
1743432103,dea513d6abe42e680b0a1da87629940c,PennController,117,0,calibrator_val_no_feedback,NULL,PennController,128,_Trial_,End,1743431541868,undefined,1071,icebox,positive,negative,A,NULL
1743432103,dea513d6abe42e680b0a1da87629940c,PennController,122,0,calibrator_val_no_feedback,NULL,PennController,133,_Trial_,Start,1743431541869,undefined,1140,joke,positive,negative,A,NULL
1743432103,dea513d6abe42e680b0a1da87629940c,PennController,122,0,calibrator_val_no_feedback,NULL,PennController,133,_Header_,Start,1743431541869,undefined,1140,joke,positive,negative,A,NULL
1743432103,dea513d6abe42e680b0a1da87629940c,PennController,122,0,calibrator_val_no_feedback,NULL,PennController,133,_Header_,End,1743431542133,undefined,1140,joke,positive,negative,A,NULL
1743432103,dea513d6abe42e680b0a1da87629940c,PennController,122,0,calibrator_val_no_feedback,NULL,Selector,unnamed-Selector,Selection,positive,1743431543773,undefined,1140,joke,positive,negative,A,positive;negative
1743432103,dea513d6abe42e680b0a1da87629940c,PennController,122,0,calibrator_val_no_feedback,NULL,PennController,133,_Trial_,End,1743431543775,undefined,1140,joke,positive,negative,A,NULL
1743432103,dea513d6abe42e680b0a1da87629940c,PennController,123,0,calibrator_val_no_feedback,NULL,PennController,134,_Trial_,Start,1743431543776,undefined,772,kitten,positive,negative,A,NULL
1743432103,dea513d6abe42e680b0a1da87629940c,PennController,123,0,calibrator_val_no_feedback,NULL,PennController,134,_Header_,Start,1743431543776,undefined,772,kitten,positive,negative,A,NULL
1743432103,dea513d6abe42e680b0a1da87629940c,PennController,123,0,calibrator_val_no_feedback,NULL,PennController,134,_Header_,End,1743431544035,undefined,772,kitten,positive,negative,A,NULL
1743432103,dea513d6abe42e680b0a1da87629940c,PennController,123,0,calibrator_val_no_feedback,NULL,Selector,unnamed-Selector,Selection,positive,1743431545318,undefined,772,kitten,positive,negative,A,positive;negative
1743432103,dea513d6abe42e680b0a1da87629940c,PennController,123,0,calibrator_val_no_feedback,NULL,PennController,134,_Trial_,End,1743431545320,undefined,772,kitten,positive,negative,A,NULL
1743432103,dea513d6abe42e680b0a1da87629940c,PennController,115,0,calibrator_val_no_feedback,NULL,PennController,126,_Trial_,Start,1743431545322,undefined,652,grin,positive,negative,A,NULL
1743432103,dea513d6abe42e680b0a1da87629940c,PennController,115,0,calibrator_val_no_feedback,NULL,PennController,126,_Header_,Start,1743431545322,undefined,652,grin,positive,negative,A,NULL
1743432103,dea513d6abe42e680b0a1da87629940c,PennController,115,0,calibrator_val_no_feedback,NULL,PennController,126,_Header_,End,1743431545587,undefined,652,grin,positive,negative,A,NULL
1743432103,dea513d6abe42e680b0a1da87629940c,PennController,115,0,calibrator_val_no_feedback,NULL,Selector,unnamed-Selector,Selection,positive,1743431546742,undefined,652,grin,positive,negative,A,positive;negative
1743432103,dea513d6abe42e680b0a1da87629940c,PennController,115,0,calibrator_val_no_feedback,NULL,PennController,126,_Trial_,End,1743431546744,undefined,652,grin,positive,negative,A,NULL
1743432103,dea513d6abe42e680b0a1da87629940c,PennController,119,0,calibrator_val_no_feedback,NULL,PennController,130,_Trial_,Start,1743431546746,undefined,726,insecure,positive,negative,A,NULL
1743432103,dea513d6abe42e680b0a1da87629940c,PennController,119,0,calibrator_val_no_feedback,NULL,PennController,130,_Header_,Start,1743431546746,undefined,726,insecure,positive,negative,A,NULL
1743432103,dea513d6abe42e680b0a1da87629940c,PennController,119,0,calibrator_val_no_feedback,NULL,PennController,130,_Header_,End,1743431547003,undefined,726,insecure,positive,negative,A,NULL
1743432103,dea513d6abe42e680b0a1da87629940c,PennController,119,0,calibrator_val_no_feedback,NULL,Selector,unnamed-Selector,Selection,negative,1743431548246,undefined,726,insecure,positive,negative,A,positive;negative
1743432103,dea513d6abe42e680b0a1da87629940c,PennController,119,0,calibrator_val_no_feedback,NULL,PennController,130,_Trial_,End,1743431548248,undefined,726,insecure,positive,negative,A,NULL
1743432103,dea513d6abe42e680b0a1da87629940c,PennController,120,0,calibrator_val_no_feedback,NULL,PennController,131,_Trial_,Start,1743431548250,undefined,694,invader,positive,negative,A,NULL
1743432103,dea513d6abe42e680b0a1da87629940c,PennController,120,0,calibrator_val_no_feedback,NULL,PennController,131,_Header_,Start,1743431548250,undefined,694,invader,positive,negative,A,NULL
1743432103,dea513d6abe42e680b0a1da87629940c,PennController,120,0,calibrator_val_no_feedback,NULL,PennController,131,_Header_,End,1743431548505,undefined,694,invader,positive,negative,A,NULL
1743432103,dea513d6abe42e680b0a1da87629940c,PennController,120,0,calibrator_val_no_feedback,NULL,Selector,unnamed-Selector,Selection,negative,1743431549711,undefined,694,invader,positive,negative,A,positive;negative
1743432103,dea513d6abe42e680b0a1da87629940c,PennController,120,0,calibrator_val_no_feedback,NULL,PennController,131,_Trial_,End,1743431549713,undefined,694,invader,positive,negative,A,NULL
1743432103,dea513d6abe42e680b0a1da87629940c,PennController,118,0,calibrator_val_no_feedback,NULL,PennController,129,_Trial_,Start,1743431549714,undefined,841,industry,positive,negative,A,NULL
1743432103,dea513d6abe42e680b0a1da87629940c,PennController,118,0,calibrator_val_no_feedback,NULL,PennController,129,_Header_,Start,1743431549714,undefined,841,industry,positive,negative,A,NULL
1743432103,dea513d6abe42e680b0a1da87629940c,PennController,118,0,calibrator_val_no_feedback,NULL,PennController,129,_Header_,End,1743431549972,undefined,841,industry,positive,negative,A,NULL
1743432103,dea513d6abe42e680b0a1da87629940c,PennController,118,0,calibrator_val_no_feedback,NULL,Selector,unnamed-Selector,Selection,positive,1743431551321,undefined,841,industry,positive,negative,A,positive;negative
1743432103,dea513d6abe42e680b0a1da87629940c,PennController,118,0,calibrator_val_no_feedback,NULL,PennController,129,_Trial_,End,1743431551323,undefined,841,industry,positive,negative,A,NULL
1743432103,dea513d6abe42e680b0a1da87629940c,PennController,121,0,calibrator_val_no_feedback,NULL,PennController,132,_Trial_,Start,1743431551325,undefined,800,jail,positive,negative,A,NULL
1743432103,dea513d6abe42e680b0a1da87629940c,PennController,121,0,calibrator_val_no_feedback,NULL,PennController,132,_Header_,Start,1743431551326,undefined,800,jail,positive,negative,A,NULL
1743432103,dea513d6abe42e680b0a1da87629940c,PennController,121,0,calibrator_val_no_feedback,NULL,PennController,132,_Header_,End,1743431551587,undefined,800,jail,positive,negative,A,NULL
1743432103,dea513d6abe42e680b0a1da87629940c,PennController,121,0,calibrator_val_no_feedback,NULL,Selector,unnamed-Selector,Selection,negative,1743431552889,undefined,800,jail,positive,negative,A,positive;negative
1743432103,dea513d6abe42e680b0a1da87629940c,PennController,121,0,calibrator_val_no_feedback,NULL,PennController,132,_Trial_,End,1743431552891,undefined,800,jail,positive,negative,A,NULL
1743432103,dea513d6abe42e680b0a1da87629940c,PennController,116,0,calibrator_val_no_feedback,NULL,PennController,127,_Trial_,Start,1743431552892,undefined,842,hat,positive,negative,A,NULL
1743432103,dea513d6abe42e680b0a1da87629940c,PennController,116,0,calibrator_val_no_feedback,NULL,PennController,127,_Header_,Start,1743431552892,undefined,842,hat,positive,negative,A,NULL
1743432103,dea513d6abe42e680b0a1da87629940c,PennController,116,0,calibrator_val_no_feedback,NULL,PennController,127,_Header_,End,1743431553151,undefined,842,hat,positive,negative,A,NULL
1743432103,dea513d6abe42e680b0a1da87629940c,PennController,116,0,calibrator_val_no_feedback,NULL,Selector,unnamed-Selector,Selection,positive,1743431554494,undefined,842,hat,positive,negative,A,positive;negative
1743432103,dea513d6abe42e680b0a1da87629940c,PennController,116,0,calibrator_val_no_feedback,NULL,PennController,127,_Trial_,End,1743431554496,undefined,842,hat,positive,negative,A,NULL
# 13. Comments.
1743432103,dea513d6abe42e680b0a1da87629940c,PennController,130,0,endinstructions_val,NULL,PennController,8,_Trial_,Start,1743431554497,NULL
1743432103,dea513d6abe42e680b0a1da87629940c,PennController,130,0,endinstructions_val,NULL,PennController,8,_Header_,Start,1743431554497,NULL
1743432103,dea513d6abe42e680b0a1da87629940c,PennController,130,0,endinstructions_val,NULL,PennController,8,_Header_,End,1743431554750,NULL
1743432103,dea513d6abe42e680b0a1da87629940c,PennController,130,0,endinstructions_val,NULL,PennController,8,_Trial_,End,1743431574566,NULL
# 13. ID.
# 14. ReactionTime.
# 15. Word.
# 16. Key_value_F.
# 17. Key_value_J.
# 18. Group.
# 19. Comments.
1743432103,dea513d6abe42e680b0a1da87629940c,PennController,56,0,test_val,NULL,PennController,67,_Trial_,Start,1743431574568,undefined,845,appreciate,positive,negative,A,NULL
1743432103,dea513d6abe42e680b0a1da87629940c,PennController,56,0,test_val,NULL,PennController,67,_Header_,Start,1743431574568,undefined,845,appreciate,positive,negative,A,NULL
1743432103,dea513d6abe42e680b0a1da87629940c,PennController,56,0,test_val,NULL,PennController,67,_Header_,End,1743431574824,undefined,845,appreciate,positive,negative,A,NULL
1743432103,dea513d6abe42e680b0a1da87629940c,PennController,56,0,test_val,NULL,Selector,unnamed-Selector,Selection,positive,1743431576181,undefined,845,appreciate,positive,negative,A,positive;negative
1743432103,dea513d6abe42e680b0a1da87629940c,PennController,56,0,test_val,NULL,PennController,67,_Trial_,End,1743431576183,undefined,845,appreciate,positive,negative,A,NULL
1743432103,dea513d6abe42e680b0a1da87629940c,PennController,62,0,test_val,NULL,PennController,73,_Trial_,Start,1743431576183,undefined,925,adore,positive,negative,A,NULL
1743432103,dea513d6abe42e680b0a1da87629940c,PennController,62,0,test_val,NULL,PennController,73,_Header_,Start,1743431576183,undefined,925,adore,positive,negative,A,NULL
1743432103,dea513d6abe42e680b0a1da87629940c,PennController,62,0,test_val,NULL,PennController,73,_Header_,End,1743431576441,undefined,925,adore,positive,negative,A,NULL
1743432103,dea513d6abe42e680b0a1da87629940c,PennController,62,0,test_val,NULL,Selector,unnamed-Selector,Selection,positive,1743431577878,undefined,925,adore,positive,negative,A,positive;negative
1743432103,dea513d6abe42e680b0a1da87629940c,PennController,62,0,test_val,NULL,PennController,73,_Trial_,End,1743431577881,undefined,925,adore,positive,negative,A,NULL
1743432103,dea513d6abe42e680b0a1da87629940c,PennController,78,0,test_val,NULL,PennController,89,_Trial_,Start,1743431577883,undefined,1066,dishonor,positive,negative,A,NULL
1743432103,dea513d6abe42e680b0a1da87629940c,PennController,78,0,test_val,NULL,PennController,89,_Header_,Start,1743431577883,undefined,1066,dishonor,positive,negative,A,NULL
1743432103,dea513d6abe42e680b0a1da87629940c,PennController,78,0,test_val,NULL,PennController,89,_Header_,End,1743431578146,undefined,1066,dishonor,positive,negative,A,NULL
1743432103,dea513d6abe42e680b0a1da87629940c,PennController,78,0,test_val,NULL,Selector,unnamed-Selector,Selection,negative,1743431579721,undefined,1066,dishonor,positive,negative,A,positive;negative
1743432103,dea513d6abe42e680b0a1da87629940c,PennController,78,0,test_val,NULL,PennController,89,_Trial_,End,1743431579722,undefined,1066,dishonor,positive,negative,A,NULL
1743432103,dea513d6abe42e680b0a1da87629940c,PennController,83,0,test_val,NULL,PennController,94,_Trial_,Start,1743431579724,undefined,610,dread,positive,negative,A,NULL
1743432103,dea513d6abe42e680b0a1da87629940c,PennController,83,0,test_val,NULL,PennController,94,_Header_,Start,1743431579724,undefined,610,dread,positive,negative,A,NULL
1743432103,dea513d6abe42e680b0a1da87629940c,PennController,83,0,test_val,NULL,PennController,94,_Header_,End,1743431579986,undefined,610,dread,positive,negative,A,NULL
1743432103,dea513d6abe42e680b0a1da87629940c,PennController,83,0,test_val,NULL,Selector,unnamed-Selector,Selection,negative,1743431581111,undefined,610,dread,positive,negative,A,positive;negative
1743432103,dea513d6abe42e680b0a1da87629940c,PennController,83,0,test_val,NULL,PennController,94,_Trial_,End,1743431581113,undefined,610,dread,positive,negative,A,NULL
1743432103,dea513d6abe42e680b0a1da87629940c,PennController,75,0,test_val,NULL,PennController,86,_Trial_,Start,1743431581114,undefined,627,despair,positive,negative,A,NULL
1743432103,dea513d6abe42e680b0a1da87629940c,PennController,75,0,test_val,NULL,PennController,86,_Header_,Start,1743431581114,undefined,627,despair,positive,negative,A,NULL
1743432103,dea513d6abe42e680b0a1da87629940c,PennController,75,0,test_val,NULL,PennController,86,_Header_,End,1743431581370,undefined,627,despair,positive,negative,A,NULL
1743432103,dea513d6abe42e680b0a1da87629940c,PennController,75,0,test_val,NULL,Selector,unnamed-Selector,Selection,negative,1743431582511,undefined,627,despair,positive,negative,A,positive;negative
1743432103,dea513d6abe42e680b0a1da87629940c,PennController,75,0,test_val,NULL,PennController,86,_Trial_,End,1743431582512,undefined,627,despair,positive,negative,A,NULL
1743432103,dea513d6abe42e680b0a1da87629940c,PennController,47,0,test_val,NULL,PennController,58,_Trial_,Start,1743431582513,undefined,991,caress,positive,negative,A,NULL
1743432103,dea513d6abe42e680b0a1da87629940c,PennController,47,0,test_val,NULL,PennController,58,_Header_,Start,1743431582513,undefined,991,caress,positive,negative,A,NULL
1743432103,dea513d6abe42e680b0a1da87629940c,PennController,47,0,test_val,NULL,PennController,58,_Header_,End,1743431582775,undefined,991,caress,positive,negative,A,NULL
1743432103,dea513d6abe42e680b0a1da87629940c,PennController,47,0,test_val,NULL,Selector,unnamed-Selector,Selection,positive,1743431584275,undefined,991,caress,positive,negative,A,positive;negative
1743432103,dea513d6abe42e680b0a1da87629940c,PennController,47,0,test_val,NULL,PennController,58,_Trial_,End,1743431584278,undefined,991,caress,positive,negative,A,NULL
1743432103,dea513d6abe42e680b0a1da87629940c,PennController,81,0,test_val,NULL,PennController,92,_Trial_,Start,1743431584279,undefined,1011,dismay,positive,negative,A,NULL
1743432103,dea513d6abe42e680b0a1da87629940c,PennController,81,0,test_val,NULL,PennController,92,_Header_,Start,1743431584279,undefined,1011,dismay,positive,negative,A,NULL
1743432103,dea513d6abe42e680b0a1da87629940c,PennController,81,0,test_val,NULL,PennController,92,_Header_,End,1743431584544,undefined,1011,dismay,positive,negative,A,NULL
1743432103,dea513d6abe42e680b0a1da87629940c,PennController,81,0,test_val,NULL,Selector,unnamed-Selector,Selection,negative,1743431586060,undefined,1011,dismay,positive,negative,A,positive;negative
1743432103,dea513d6abe42e680b0a1da87629940c,PennController,81,0,test_val,NULL,PennController,92,_Trial_,End,1743431586062,undefined,1011,dismay,positive,negative,A,NULL
1743432103,dea513d6abe42e680b0a1da87629940c,PennController,57,0,test_val,NULL,PennController,68,_Trial_,Start,1743431586064,undefined,891,impress,positive,negative,A,NULL
1743432103,dea513d6abe42e680b0a1da87629940c,PennController,57,0,test_val,NULL,PennController,68,_Header_,Start,1743431586064,undefined,891,impress,positive,negative,A,NULL
1743432103,dea513d6abe42e680b0a1da87629940c,PennController,57,0,test_val,NULL,PennController,68,_Header_,End,1743431586327,undefined,891,impress,positive,negative,A,NULL
1743432103,dea513d6abe42e680b0a1da87629940c,PennController,57,0,test_val,NULL,Selector,unnamed-Selector,Selection,positive,1743431587722,undefined,891,impress,positive,negative,A,positive;negative
1743432103,dea513d6abe42e680b0a1da87629940c,PennController,57,0,test_val,NULL,PennController,68,_Trial_,End,1743431587724,undefined,891,impress,positive,negative,A,NULL
1743432103,dea513d6abe42e680b0a1da87629940c,PennController,48,0,test_val,NULL,PennController,59,_Trial_,Start,1743431587725,undefined,747,hug,positive,negative,A,NULL
1743432103,dea513d6abe42e680b0a1da87629940c,PennController,48,0,test_val,NULL,PennController,59,_Header_,Start,1743431587725,undefined,747,hug,positive,negative,A,NULL
1743432103,dea513d6abe42e680b0a1da87629940c,PennController,48,0,test_val,NULL,PennController,59,_Header_,End,1743431587984,undefined,747,hug,positive,negative,A,NULL
1743432103,dea513d6abe42e680b0a1da87629940c,PennController,48,0,test_val,NULL,Selector,unnamed-Selector,Selection,positive,1743431589247,undefined,747,hug,positive,negative,A,positive;negative
1743432103,dea513d6abe42e680b0a1da87629940c,PennController,48,0,test_val,NULL,PennController,59,_Trial_,End,1743431589248,undefined,747,hug,positive,negative,A,NULL
1743432103,dea513d6abe42e680b0a1da87629940c,PennController,58,0,test_val,NULL,PennController,69,_Trial_,Start,1743431589251,undefined,624,like,positive,negative,A,NULL
1743432103,dea513d6abe42e680b0a1da87629940c,PennController,58,0,test_val,NULL,PennController,69,_Header_,Start,1743431589251,undefined,624,like,positive,negative,A,NULL
1743432103,dea513d6abe42e680b0a1da87629940c,PennController,58,0,test_val,NULL,PennController,69,_Header_,End,1743431589508,undefined,624,like,positive,negative,A,NULL
1743432103,dea513d6abe42e680b0a1da87629940c,PennController,58,0,test_val,NULL,Selector,unnamed-Selector,Selection,positive,1743431590634,undefined,624,like,positive,negative,A,positive;negative
1743432103,dea513d6abe42e680b0a1da87629940c,PennController,58,0,test_val,NULL,PennController,69,_Trial_,End,1743431590636,undefined,624,like,positive,negative,A,NULL
1743432103,dea513d6abe42e680b0a1da87629940c,PennController,70,0,test_val,NULL,PennController,81,_Trial_,Start,1743431590637,undefined,741,hit,positive,negative,A,NULL
1743432103,dea513d6abe42e680b0a1da87629940c,PennController,70,0,test_val,NULL,PennController,81,_Header_,Start,1743431590637,undefined,741,hit,positive,negative,A,NULL
1743432103,dea513d6abe42e680b0a1da87629940c,PennController,70,0,test_val,NULL,PennController,81,_Header_,End,1743431590893,undefined,741,hit,positive,negative,A,NULL
1743432103,dea513d6abe42e680b0a1da87629940c,PennController,70,0,test_val,NULL,Selector,unnamed-Selector,Selection,negative,1743431592138,undefined,741,hit,positive,negative,A,positive;negative
1743432103,dea513d6abe42e680b0a1da87629940c,PennController,70,0,test_val,NULL,PennController,81,_Trial_,End,1743431592140,undefined,741,hit,positive,negative,A,NULL
1743432103,dea513d6abe42e680b0a1da87629940c,PennController,64,0,test_val,NULL,PennController,75,_Trial_,Start,1743431592141,undefined,1092,rust,positive,negative,A,NULL
1743432103,dea513d6abe42e680b0a1da87629940c,PennController,64,0,test_val,NULL,PennController,75,_Header_,Start,1743431592141,undefined,1092,rust,positive,negative,A,NULL
1743432103,dea513d6abe42e680b0a1da87629940c,PennController,64,0,test_val,NULL,PennController,75,_Header_,End,1743431592400,undefined,1092,rust,positive,negative,A,NULL
1743432103,dea513d6abe42e680b0a1da87629940c,PennController,64,0,test_val,NULL,Selector,unnamed-Selector,Selection,negative,1743431593994,undefined,1092,rust,positive,negative,A,positive;negative
1743432103,dea513d6abe42e680b0a1da87629940c,PennController,64,0,test_val,NULL,PennController,75,_Trial_,End,1743431593996,undefined,1092,rust,positive,negative,A,NULL
1743432103,dea513d6abe42e680b0a1da87629940c,PennController,52,0,test_val,NULL,PennController,63,_Trial_,Start,1743431593997,undefined,1272,decorate,positive,negative,A,NULL
1743432103,dea513d6abe42e680b0a1da87629940c,PennController,52,0,test_val,NULL,PennController,63,_Header_,Start,1743431593997,undefined,1272,decorate,positive,negative,A,NULL
1743432103,dea513d6abe42e680b0a1da87629940c,PennController,52,0,test_val,NULL,PennController,63,_Header_,End,1743431594249,undefined,1272,decorate,positive,negative,A,NULL
1743432103,dea513d6abe42e680b0a1da87629940c,PennController,52,0,test_val,NULL,Selector,unnamed-Selector,Selection,positive,1743431596024,undefined,1272,decorate,positive,negative,A,positive;negative
1743432103,dea513d6abe42e680b0a1da87629940c,PennController,52,0,test_val,NULL,PennController,63,_Trial_,End,1743431596026,undefined,1272,decorate,positive,negative,A,NULL
1743432103,dea513d6abe42e680b0a1da87629940c,PennController,68,0,test_val,NULL,PennController,79,_Trial_,Start,1743431596028,undefined,1312,tear,positive,negative,A,NULL
1743432103,dea513d6abe42e680b0a1da87629940c,PennController,68,0,test_val,NULL,PennController,79,_Header_,Start,1743431596028,undefined,1312,tear,positive,negative,A,NULL
1743432103,dea513d6abe42e680b0a1da87629940c,PennController,68,0,test_val,NULL,PennController,79,_Header_,End,1743431596279,undefined,1312,tear,positive,negative,A,NULL
1743432103,dea513d6abe42e680b0a1da87629940c,PennController,68,0,test_val,NULL,Selector,unnamed-Selector,Selection,negative,1743431598107,undefined,1312,tear,positive,negative,A,positive;negative
1743432103,dea513d6abe42e680b0a1da87629940c,PennController,68,0,test_val,NULL,PennController,79,_Trial_,End,1743431598108,undefined,1312,tear,positive,negative,A,NULL
1743432103,dea513d6abe42e680b0a1da87629940c,PennController,71,0,test_val,NULL,PennController,82,_Trial_,Start,1743431598109,undefined,1009,stain,positive,negative,A,NULL
1743432103,dea513d6abe42e680b0a1da87629940c,PennController,71,0,test_val,NULL,PennController,82,_Header_,Start,1743431598109,undefined,1009,stain,positive,negative,A,NULL
1743432103,dea513d6abe42e680b0a1da87629940c,PennController,71,0,test_val,NULL,PennController,82,_Header_,End,1743431598373,undefined,1009,stain,positive,negative,A,NULL
1743432103,dea513d6abe42e680b0a1da87629940c,PennController,71,0,test_val,NULL,Selector,unnamed-Selector,Selection,negative,1743431599886,undefined,1009,stain,positive,negative,A,positive;negative
1743432103,dea513d6abe42e680b0a1da87629940c,PennController,71,0,test_val,NULL,PennController,82,_Trial_,End,1743431599887,undefined,1009,stain,positive,negative,A,NULL
1743432103,dea513d6abe42e680b0a1da87629940c,PennController,80,0,test_val,NULL,PennController,91,_Trial_,Start,1743431599889,undefined,958,discourage,positive,negative,A,NULL
1743432103,dea513d6abe42e680b0a1da87629940c,PennController,80,0,test_val,NULL,PennController,91,_Header_,Start,1743431599889,undefined,958,discourage,positive,negative,A,NULL
1743432103,dea513d6abe42e680b0a1da87629940c,PennController,80,0,test_val,NULL,PennController,91,_Header_,End,1743431600144,undefined,958,discourage,positive,negative,A,NULL
1743432103,dea513d6abe42e680b0a1da87629940c,PennController,80,0,test_val,NULL,Selector,unnamed-Selector,Selection,negative,1743431601604,undefined,958,discourage,positive,negative,A,positive;negative
1743432103,dea513d6abe42e680b0a1da87629940c,PennController,80,0,test_val,NULL,PennController,91,_Trial_,End,1743431601605,undefined,958,discourage,positive,negative,A,NULL
1743432103,dea513d6abe42e680b0a1da87629940c,PennController,61,0,test_val,NULL,PennController,72,_Trial_,Start,1743431601606,undefined,879,admire,positive,negative,A,NULL
1743432103,dea513d6abe42e680b0a1da87629940c,PennController,61,0,test_val,NULL,PennController,72,_Header_,Start,1743431601606,undefined,879,admire,positive,negative,A,NULL
1743432103,dea513d6abe42e680b0a1da87629940c,PennController,61,0,test_val,NULL,PennController,72,_Header_,End,1743431601860,undefined,879,admire,positive,negative,A,NULL
1743432103,dea513d6abe42e680b0a1da87629940c,PennController,61,0,test_val,NULL,Selector,unnamed-Selector,Selection,positive,1743431603253,undefined,879,admire,positive,negative,A,positive;negative
1743432103,dea513d6abe42e680b0a1da87629940c,PennController,61,0,test_val,NULL,PennController,72,_Trial_,End,1743431603255,undefined,879,admire,positive,negative,A,NULL
1743432103,dea513d6abe42e680b0a1da87629940c,PennController,54,0,test_val,NULL,PennController,65,_Trial_,Start,1743431603256,undefined,755,content,positive,negative,A,NULL
1743432103,dea513d6abe42e680b0a1da87629940c,PennController,54,0,test_val,NULL,PennController,65,_Header_,Start,1743431603256,undefined,755,content,positive,negative,A,NULL
1743432103,dea513d6abe42e680b0a1da87629940c,PennController,54,0,test_val,NULL,PennController,65,_Header_,End,1743431603513,undefined,755,content,positive,negative,A,NULL
1743432103,dea513d6abe42e680b0a1da87629940c,PennController,54,0,test_val,NULL,Selector,unnamed-Selector,Selection,positive,1743431604772,undefined,755,content,positive,negative,A,positive;negative
1743432103,dea513d6abe42e680b0a1da87629940c,PennController,54,0,test_val,NULL,PennController,65,_Trial_,End,1743431604773,undefined,755,content,positive,negative,A,NULL
1743432103,dea513d6abe42e680b0a1da87629940c,PennController,60,0,test_val,NULL,PennController,71,_Trial_,Start,1743431604775,undefined,559,respect,positive,negative,A,NULL
1743432103,dea513d6abe42e680b0a1da87629940c,PennController,60,0,test_val,NULL,PennController,71,_Header_,Start,1743431604775,undefined,559,respect,positive,negative,A,NULL
1743432103,dea513d6abe42e680b0a1da87629940c,PennController,60,0,test_val,NULL,PennController,71,_Header_,End,1743431605028,undefined,559,respect,positive,negative,A,NULL
1743432103,dea513d6abe42e680b0a1da87629940c,PennController,60,0,test_val,NULL,Selector,unnamed-Selector,Selection,positive,1743431606104,undefined,559,respect,positive,negative,A,positive;negative
1743432103,dea513d6abe42e680b0a1da87629940c,PennController,60,0,test_val,NULL,PennController,71,_Trial_,End,1743431606105,undefined,559,respect,positive,negative,A,NULL
1743432103,dea513d6abe42e680b0a1da87629940c,PennController,63,0,test_val,NULL,PennController,74,_Trial_,Start,1743431606108,undefined,611,cherish,positive,negative,A,NULL
1743432103,dea513d6abe42e680b0a1da87629940c,PennController,63,0,test_val,NULL,PennController,74,_Header_,Start,1743431606108,undefined,611,cherish,positive,negative,A,NULL
1743432103,dea513d6abe42e680b0a1da87629940c,PennController,63,0,test_val,NULL,PennController,74,_Header_,End,1743431606368,undefined,611,cherish,positive,negative,A,NULL
1743432103,dea513d6abe42e680b0a1da87629940c,PennController,63,0,test_val,NULL,Selector,unnamed-Selector,Selection,positive,1743431607481,undefined,611,cherish,positive,negative,A,positive;negative
1743432103,dea513d6abe42e680b0a1da87629940c,PennController,63,0,test_val,NULL,PennController,74,_Trial_,End,1743431607483,undefined,611,cherish,positive,negative,A,NULL
1743432103,dea513d6abe42e680b0a1da87629940c,PennController,53,0,test_val,NULL,PennController,64,_Trial_,Start,1743431607485,undefined,649,clean,positive,negative,A,NULL
1743432103,dea513d6abe42e680b0a1da87629940c,PennController,53,0,test_val,NULL,PennController,64,_Header_,Start,1743431607485,undefined,649,clean,positive,negative,A,NULL
1743432103,dea513d6abe42e680b0a1da87629940c,PennController,53,0,test_val,NULL,PennController,64,_Header_,End,1743431607745,undefined,649,clean,positive,negative,A,NULL
1743432103,dea513d6abe42e680b0a1da87629940c,PennController,53,0,test_val,NULL,Selector,unnamed-Selector,Selection,positive,1743431608911,undefined,649,clean,positive,negative,A,positive;negative
1743432103,dea513d6abe42e680b0a1da87629940c,PennController,53,0,test_val,NULL,PennController,64,_Trial_,End,1743431608912,undefined,649,clean,positive,negative,A,NULL
1743432103,dea513d6abe42e680b0a1da87629940c,PennController,82,0,test_val,NULL,PennController,93,_Trial_,Start,1743431608913,undefined,847,criticize,positive,negative,A,NULL
1743432103,dea513d6abe42e680b0a1da87629940c,PennController,82,0,test_val,NULL,PennController,93,_Header_,Start,1743431608913,undefined,847,criticize,positive,negative,A,NULL
1743432103,dea513d6abe42e680b0a1da87629940c,PennController,82,0,test_val,NULL,PennController,93,_Header_,End,1743431609166,undefined,847,criticize,positive,negative,A,NULL
1743432103,dea513d6abe42e680b0a1da87629940c,PennController,82,0,test_val,NULL,Selector,unnamed-Selector,Selection,positive,1743431610527,undefined,847,criticize,positive,negative,A,positive;negative
1743432103,dea513d6abe42e680b0a1da87629940c,PennController,82,0,test_val,NULL,PennController,93,_Trial_,End,1743431610529,undefined,847,criticize,positive,negative,A,NULL
1743432103,dea513d6abe42e680b0a1da87629940c,PennController,79,0,test_val,NULL,PennController,90,_Trial_,Start,1743431610530,undefined,784,embarrass,positive,negative,A,NULL
1743432103,dea513d6abe42e680b0a1da87629940c,PennController,79,0,test_val,NULL,PennController,90,_Header_,Start,1743431610530,undefined,784,embarrass,positive,negative,A,NULL
1743432103,dea513d6abe42e680b0a1da87629940c,PennController,79,0,test_val,NULL,PennController,90,_Header_,End,1743431610788,undefined,784,embarrass,positive,negative,A,NULL
1743432103,dea513d6abe42e680b0a1da87629940c,PennController,79,0,test_val,NULL,Selector,unnamed-Selector,Selection,negative,1743431612075,undefined,784,embarrass,positive,negative,A,positive;negative
1743432103,dea513d6abe42e680b0a1da87629940c,PennController,79,0,test_val,NULL,PennController,90,_Trial_,End,1743431612077,undefined,784,embarrass,positive,negative,A,NULL
1743432103,dea513d6abe42e680b0a1da87629940c,PennController,73,0,test_val,NULL,PennController,84,_Trial_,Start,1743431612079,undefined,963,corrode,positive,negative,A,NULL
1743432103,dea513d6abe42e680b0a1da87629940c,PennController,73,0,test_val,NULL,PennController,84,_Header_,Start,1743431612079,undefined,963,corrode,positive,negative,A,NULL
1743432103,dea513d6abe42e680b0a1da87629940c,PennController,73,0,test_val,NULL,PennController,84,_Header_,End,1743431612332,undefined,963,corrode,positive,negative,A,NULL
1743432103,dea513d6abe42e680b0a1da87629940c,PennController,73,0,test_val,NULL,Selector,unnamed-Selector,Selection,negative,1743431613810,undefined,963,corrode,positive,negative,A,positive;negative
1743432103,dea513d6abe42e680b0a1da87629940c,PennController,73,0,test_val,NULL,PennController,84,_Trial_,End,1743431613811,undefined,963,corrode,positive,negative,A,NULL
1743432103,dea513d6abe42e680b0a1da87629940c,PennController,51,0,test_val,NULL,PennController,62,_Trial_,Start,1743431613812,undefined,823,twinkle,positive,negative,A,NULL
1743432103,dea513d6abe42e680b0a1da87629940c,PennController,51,0,test_val,NULL,PennController,62,_Header_,Start,1743431613812,undefined,823,twinkle,positive,negative,A,NULL
1743432103,dea513d6abe42e680b0a1da87629940c,PennController,51,0,test_val,NULL,PennController,62,_Header_,End,1743431614067,undefined,823,twinkle,positive,negative,A,NULL
1743432103,dea513d6abe42e680b0a1da87629940c,PennController,51,0,test_val,NULL,Selector,unnamed-Selector,Selection,positive,1743431615405,undefined,823,twinkle,positive,negative,A,positive;negative
1743432103,dea513d6abe42e680b0a1da87629940c,PennController,51,0,test_val,NULL,PennController,62,_Trial_,End,1743431615407,undefined,823,twinkle,positive,negative,A,NULL
1743432103,dea513d6abe42e680b0a1da87629940c,PennController,45,0,test_val,NULL,PennController,56,_Trial_,Start,1743431615408,undefined,1023,build,positive,negative,A,NULL
1743432103,dea513d6abe42e680b0a1da87629940c,PennController,45,0,test_val,NULL,PennController,56,_Header_,Start,1743431615408,undefined,1023,build,positive,negative,A,NULL
1743432103,dea513d6abe42e680b0a1da87629940c,PennController,45,0,test_val,NULL,PennController,56,_Header_,End,1743431615660,undefined,1023,build,positive,negative,A,NULL
1743432103,dea513d6abe42e680b0a1da87629940c,PennController,45,0,test_val,NULL,Selector,unnamed-Selector,Selection,positive,1743431617199,undefined,1023,build,positive,negative,A,positive;negative
1743432103,dea513d6abe42e680b0a1da87629940c,PennController,45,0,test_val,NULL,PennController,56,_Trial_,End,1743431617200,undefined,1023,build,positive,negative,A,NULL
1743432103,dea513d6abe42e680b0a1da87629940c,PennController,50,0,test_val,NULL,PennController,61,_Trial_,Start,1743431617201,undefined,685,sculpt,positive,negative,A,NULL
1743432103,dea513d6abe42e680b0a1da87629940c,PennController,50,0,test_val,NULL,PennController,61,_Header_,Start,1743431617201,undefined,685,sculpt,positive,negative,A,NULL
1743432103,dea513d6abe42e680b0a1da87629940c,PennController,50,0,test_val,NULL,PennController,61,_Header_,End,1743431617454,undefined,685,sculpt,positive,negative,A,NULL
1743432103,dea513d6abe42e680b0a1da87629940c,PennController,50,0,test_val,NULL,Selector,unnamed-Selector,Selection,positive,1743431618642,undefined,685,sculpt,positive,negative,A,positive;negative
1743432103,dea513d6abe42e680b0a1da87629940c,PennController,50,0,test_val,NULL,PennController,61,_Trial_,End,1743431618643,undefined,685,sculpt,positive,negative,A,NULL
1743432103,dea513d6abe42e680b0a1da87629940c,PennController,65,0,test_val,NULL,PennController,76,_Trial_,Start,1743431618644,undefined,738,slaughter,positive,negative,A,NULL
1743432103,dea513d6abe42e680b0a1da87629940c,PennController,65,0,test_val,NULL,PennController,76,_Header_,Start,1743431618644,undefined,738,slaughter,positive,negative,A,NULL
1743432103,dea513d6abe42e680b0a1da87629940c,PennController,65,0,test_val,NULL,PennController,76,_Header_,End,1743431618895,undefined,738,slaughter,positive,negative,A,NULL
1743432103,dea513d6abe42e680b0a1da87629940c,PennController,65,0,test_val,NULL,Selector,unnamed-Selector,Selection,negative,1743431620137,undefined,738,slaughter,positive,negative,A,positive;negative
1743432103,dea513d6abe42e680b0a1da87629940c,PennController,65,0,test_val,NULL,PennController,76,_Trial_,End,1743431620138,undefined,738,slaughter,positive,negative,A,NULL
1743432103,dea513d6abe42e680b0a1da87629940c,PennController,76,0,test_val,NULL,PennController,87,_Trial_,Start,1743431620139,undefined,700,irritate,positive,negative,A,NULL
1743432103,dea513d6abe42e680b0a1da87629940c,PennController,76,0,test_val,NULL,PennController,87,_Header_,Start,1743431620139,undefined,700,irritate,positive,negative,A,NULL
1743432103,dea513d6abe42e680b0a1da87629940c,PennController,76,0,test_val,NULL,PennController,87,_Header_,End,1743431620395,undefined,700,irritate,positive,negative,A,NULL
1743432103,dea513d6abe42e680b0a1da87629940c,PennController,76,0,test_val,NULL,Selector,unnamed-Selector,Selection,negative,1743431621609,undefined,700,irritate,positive,negative,A,positive;negative
1743432103,dea513d6abe42e680b0a1da87629940c,PennController,76,0,test_val,NULL,PennController,87,_Trial_,End,1743431621610,undefined,700,irritate,positive,negative,A,NULL
1743432103,dea513d6abe42e680b0a1da87629940c,PennController,66,0,test_val,NULL,PennController,77,_Trial_,Start,1743431621611,undefined,705,slash,positive,negative,A,NULL
1743432103,dea513d6abe42e680b0a1da87629940c,PennController,66,0,test_val,NULL,PennController,77,_Header_,Start,1743431621611,undefined,705,slash,positive,negative,A,NULL
1743432103,dea513d6abe42e680b0a1da87629940c,PennController,66,0,test_val,NULL,PennController,77,_Header_,End,1743431621876,undefined,705,slash,positive,negative,A,NULL
1743432103,dea513d6abe42e680b0a1da87629940c,PennController,66,0,test_val,NULL,Selector,unnamed-Selector,Selection,negative,1743431623096,undefined,705,slash,positive,negative,A,positive;negative
1743432103,dea513d6abe42e680b0a1da87629940c,PennController,66,0,test_val,NULL,PennController,77,_Trial_,End,1743431623097,undefined,705,slash,positive,negative,A,NULL
1743432103,dea513d6abe42e680b0a1da87629940c,PennController,55,0,test_val,NULL,PennController,66,_Trial_,Start,1743431623098,undefined,883,encourage,positive,negative,A,NULL
1743432103,dea513d6abe42e680b0a1da87629940c,PennController,55,0,test_val,NULL,PennController,66,_Header_,Start,1743431623098,undefined,883,encourage,positive,negative,A,NULL
1743432103,dea513d6abe42e680b0a1da87629940c,PennController,55,0,test_val,NULL,PennController,66,_Header_,End,1743431623356,undefined,883,encourage,positive,negative,A,NULL
1743432103,dea513d6abe42e680b0a1da87629940c,PennController,55,0,test_val,NULL,Selector,unnamed-Selector,Selection,positive,1743431624755,undefined,883,encourage,positive,negative,A,positive;negative
1743432103,dea513d6abe42e680b0a1da87629940c,PennController,55,0,test_val,NULL,PennController,66,_Trial_,End,1743431624756,undefined,883,encourage,positive,negative,A,NULL
1743432103,dea513d6abe42e680b0a1da87629940c,PennController,72,0,test_val,NULL,PennController,83,_Trial_,Start,1743431624758,undefined,1110,delete,positive,negative,A,NULL
1743432103,dea513d6abe42e680b0a1da87629940c,PennController,72,0,test_val,NULL,PennController,83,_Header_,Start,1743431624758,undefined,1110,delete,positive,negative,A,NULL
1743432103,dea513d6abe42e680b0a1da87629940c,PennController,72,0,test_val,NULL,PennController,83,_Header_,End,1743431625020,undefined,1110,delete,positive,negative,A,NULL
1743432103,dea513d6abe42e680b0a1da87629940c,PennController,72,0,test_val,NULL,Selector,unnamed-Selector,Selection,negative,1743431626644,undefined,1110,delete,positive,negative,A,positive;negative
1743432103,dea513d6abe42e680b0a1da87629940c,PennController,72,0,test_val,NULL,PennController,83,_Trial_,End,1743431626646,undefined,1110,delete,positive,negative,A,NULL
1743432103,dea513d6abe42e680b0a1da87629940c,PennController,49,0,test_val,NULL,PennController,60,_Trial_,Start,1743431626647,undefined,1586,produce,positive,negative,A,NULL
1743432103,dea513d6abe42e680b0a1da87629940c,PennController,49,0,test_val,NULL,PennController,60,_Header_,Start,1743431626647,undefined,1586,produce,positive,negative,A,NULL
1743432103,dea513d6abe42e680b0a1da87629940c,PennController,49,0,test_val,NULL,PennController,60,_Header_,End,1743431626899,undefined,1586,produce,positive,negative,A,NULL
1743432103,dea513d6abe42e680b0a1da87629940c,PennController,49,0,test_val,NULL,Selector,unnamed-Selector,Selection,positive,1743431628998,undefined,1586,produce,positive,negative,A,positive;negative
1743432103,dea513d6abe42e680b0a1da87629940c,PennController,49,0,test_val,NULL,PennController,60,_Trial_,End,1743431629000,undefined,1586,produce,positive,negative,A,NULL
1743432103,dea513d6abe42e680b0a1da87629940c,PennController,59,0,test_val,NULL,PennController,70,_Trial_,Start,1743431629001,undefined,807,reassure,positive,negative,A,NULL
1743432103,dea513d6abe42e680b0a1da87629940c,PennController,59,0,test_val,NULL,PennController,70,_Header_,Start,1743431629001,undefined,807,reassure,positive,negative,A,NULL
1743432103,dea513d6abe42e680b0a1da87629940c,PennController,59,0,test_val,NULL,PennController,70,_Header_,End,1743431629260,undefined,807,reassure,positive,negative,A,NULL
1743432103,dea513d6abe42e680b0a1da87629940c,PennController,59,0,test_val,NULL,Selector,unnamed-Selector,Selection,positive,1743431630577,undefined,807,reassure,positive,negative,A,positive;negative
1743432103,dea513d6abe42e680b0a1da87629940c,PennController,59,0,test_val,NULL,PennController,70,_Trial_,End,1743431630578,undefined,807,reassure,positive,negative,A,NULL
1743432103,dea513d6abe42e680b0a1da87629940c,PennController,44,0,test_val,NULL,PennController,55,_Trial_,Start,1743431630579,undefined,730,cuddle,positive,negative,A,NULL
1743432103,dea513d6abe42e680b0a1da87629940c,PennController,44,0,test_val,NULL,PennController,55,_Header_,Start,1743431630579,undefined,730,cuddle,positive,negative,A,NULL
1743432103,dea513d6abe42e680b0a1da87629940c,PennController,44,0,test_val,NULL,PennController,55,_Header_,End,1743431630839,undefined,730,cuddle,positive,negative,A,NULL
1743432103,dea513d6abe42e680b0a1da87629940c,PennController,44,0,test_val,NULL,Selector,unnamed-Selector,Selection,positive,1743431632075,undefined,730,cuddle,positive,negative,A,positive;negative
1743432103,dea513d6abe42e680b0a1da87629940c,PennController,44,0,test_val,NULL,PennController,55,_Trial_,End,1743431632078,undefined,730,cuddle,positive,negative,A,NULL
1743432103,dea513d6abe42e680b0a1da87629940c,PennController,69,0,test_val,NULL,PennController,80,_Trial_,Start,1743431632080,undefined,1329,burn,positive,negative,A,NULL
1743432103,dea513d6abe42e680b0a1da87629940c,PennController,69,0,test_val,NULL,PennController,80,_Header_,Start,1743431632080,undefined,1329,burn,positive,negative,A,NULL
1743432103,dea513d6abe42e680b0a1da87629940c,PennController,69,0,test_val,NULL,PennController,80,_Header_,End,1743431632332,undefined,1329,burn,positive,negative,A,NULL
1743432103,dea513d6abe42e680b0a1da87629940c,PennController,69,0,test_val,NULL,Selector,unnamed-Selector,Selection,negative,1743431634179,undefined,1329,burn,positive,negative,A,positive;negative
1743432103,dea513d6abe42e680b0a1da87629940c,PennController,69,0,test_val,NULL,PennController,80,_Trial_,End,1743431634180,undefined,1329,burn,positive,negative,A,NULL
1743432103,dea513d6abe42e680b0a1da87629940c,PennController,77,0,test_val,NULL,PennController,88,_Trial_,Start,1743431634181,undefined,1183,displease,positive,negative,A,NULL
1743432103,dea513d6abe42e680b0a1da87629940c,PennController,77,0,test_val,NULL,PennController,88,_Header_,Start,1743431634181,undefined,1183,displease,positive,negative,A,NULL
1743432103,dea513d6abe42e680b0a1da87629940c,PennController,77,0,test_val,NULL,PennController,88,_Header_,End,1743431634437,undefined,1183,displease,positive,negative,A,NULL
1743432103,dea513d6abe42e680b0a1da87629940c,PennController,77,0,test_val,NULL,Selector,unnamed-Selector,Selection,negative,1743431636124,undefined,1183,displease,positive,negative,A,positive;negative
1743432103,dea513d6abe42e680b0a1da87629940c,PennController,77,0,test_val,NULL,PennController,88,_Trial_,End,1743431636125,undefined,1183,displease,positive,negative,A,NULL
1743432103,dea513d6abe42e680b0a1da87629940c,PennController,46,0,test_val,NULL,PennController,57,_Trial_,Start,1743431636127,undefined,953,repair,positive,negative,A,NULL
1743432103,dea513d6abe42e680b0a1da87629940c,PennController,46,0,test_val,NULL,PennController,57,_Header_,Start,1743431636127,undefined,953,repair,positive,negative,A,NULL
1743432103,dea513d6abe42e680b0a1da87629940c,PennController,46,0,test_val,NULL,PennController,57,_Header_,End,1743431636386,undefined,953,repair,positive,negative,A,NULL
1743432103,dea513d6abe42e680b0a1da87629940c,PennController,46,0,test_val,NULL,Selector,unnamed-Selector,Selection,positive,1743431637855,undefined,953,repair,positive,negative,A,positive;negative
1743432103,dea513d6abe42e680b0a1da87629940c,PennController,46,0,test_val,NULL,PennController,57,_Trial_,End,1743431637856,undefined,953,repair,positive,negative,A,NULL
1743432103,dea513d6abe42e680b0a1da87629940c,PennController,67,0,test_val,NULL,PennController,78,_Trial_,Start,1743431637858,undefined,1562,crash,positive,negative,A,NULL
1743432103,dea513d6abe42e680b0a1da87629940c,PennController,67,0,test_val,NULL,PennController,78,_Header_,Start,1743431637858,undefined,1562,crash,positive,negative,A,NULL
1743432103,dea513d6abe42e680b0a1da87629940c,PennController,67,0,test_val,NULL,PennController,78,_Header_,End,1743431638118,undefined,1562,crash,positive,negative,A,NULL
1743432103,dea513d6abe42e680b0a1da87629940c,PennController,67,0,test_val,NULL,Selector,unnamed-Selector,Selection,negative,1743431640194,undefined,1562,crash,positive,negative,A,positive;negative
1743432103,dea513d6abe42e680b0a1da87629940c,PennController,67,0,test_val,NULL,PennController,78,_Trial_,End,1743431640195,undefined,1562,crash,positive,negative,A,NULL
1743432103,dea513d6abe42e680b0a1da87629940c,PennController,74,0,test_val,NULL,PennController,85,_Trial_,Start,1743431640197,undefined,673,offend,positive,negative,A,NULL
1743432103,dea513d6abe42e680b0a1da87629940c,PennController,74,0,test_val,NULL,PennController,85,_Header_,Start,1743431640197,undefined,673,offend,positive,negative,A,NULL
1743432103,dea513d6abe42e680b0a1da87629940c,PennController,74,0,test_val,NULL,PennController,85,_Header_,End,1743431640454,undefined,673,offend,positive,negative,A,NULL
1743432103,dea513d6abe42e680b0a1da87629940c,PennController,74,0,test_val,NULL,Selector,unnamed-Selector,Selection,negative,1743431641630,undefined,673,offend,positive,negative,A,positive;negative
1743432103,dea513d6abe42e680b0a1da87629940c,PennController,74,0,test_val,NULL,PennController,85,_Trial_,End,1743431641631,undefined,673,offend,positive,negative,A,NULL
1743432103,dea513d6abe42e680b0a1da87629940c,PennController,65,0,test_val,NULL,PennController,76,_Trial_,Start,1743431641632,undefined,679,slaughter,positive,negative,A,NULL
1743432103,dea513d6abe42e680b0a1da87629940c,PennController,65,0,test_val,NULL,PennController,76,_Header_,Start,1743431641632,undefined,679,slaughter,positive,negative,A,NULL
1743432103,dea513d6abe42e680b0a1da87629940c,PennController,65,0,test_val,NULL,PennController,76,_Header_,End,1743431641888,undefined,679,slaughter,positive,negative,A,NULL
1743432103,dea513d6abe42e680b0a1da87629940c,PennController,65,0,test_val,NULL,Selector,unnamed-Selector,Selection,negative,1743431643069,undefined,679,slaughter,positive,negative,A,positive;negative
1743432103,dea513d6abe42e680b0a1da87629940c,PennController,65,0,test_val,NULL,PennController,76,_Trial_,End,1743431643070,undefined,679,slaughter,positive,negative,A,NULL
1743432103,dea513d6abe42e680b0a1da87629940c,PennController,81,0,test_val,NULL,PennController,92,_Trial_,Start,1743431643071,undefined,635,dismay,positive,negative,A,NULL
1743432103,dea513d6abe42e680b0a1da87629940c,PennController,81,0,test_val,NULL,PennController,92,_Header_,Start,1743431643071,undefined,635,dismay,positive,negative,A,NULL
1743432103,dea513d6abe42e680b0a1da87629940c,PennController,81,0,test_val,NULL,PennController,92,_Header_,End,1743431643323,undefined,635,dismay,positive,negative,A,NULL
1743432103,dea513d6abe42e680b0a1da87629940c,PennController,81,0,test_val,NULL,Selector,unnamed-Selector,Selection,negative,1743431644475,undefined,635,dismay,positive,negative,A,positive;negative
1743432103,dea513d6abe42e680b0a1da87629940c,PennController,81,0,test_val,NULL,PennController,92,_Trial_,End,1743431644477,undefined,635,dismay,positive,negative,A,NULL
1743432103,dea513d6abe42e680b0a1da87629940c,PennController,59,0,test_val,NULL,PennController,70,_Trial_,Start,1743431644478,undefined,701,reassure,positive,negative,A,NULL
1743432103,dea513d6abe42e680b0a1da87629940c,PennController,59,0,test_val,NULL,PennController,70,_Header_,Start,1743431644478,undefined,701,reassure,positive,negative,A,NULL
1743432103,dea513d6abe42e680b0a1da87629940c,PennController,59,0,test_val,NULL,PennController,70,_Header_,End,1743431644732,undefined,701,reassure,positive,negative,A,NULL
1743432103,dea513d6abe42e680b0a1da87629940c,PennController,59,0,test_val,NULL,Selector,unnamed-Selector,Selection,positive,1743431645950,undefined,701,reassure,positive,negative,A,positive;negative
1743432103,dea513d6abe42e680b0a1da87629940c,PennController,59,0,test_val,NULL,PennController,70,_Trial_,End,1743431645952,undefined,701,reassure,positive,negative,A,NULL
1743432103,dea513d6abe42e680b0a1da87629940c,PennController,50,0,test_val,NULL,PennController,61,_Trial_,Start,1743431645953,undefined,559,sculpt,positive,negative,A,NULL
1743432103,dea513d6abe42e680b0a1da87629940c,PennController,50,0,test_val,NULL,PennController,61,_Header_,Start,1743431645953,undefined,559,sculpt,positive,negative,A,NULL
1743432103,dea513d6abe42e680b0a1da87629940c,PennController,50,0,test_val,NULL,PennController,61,_Header_,End,1743431646206,undefined,559,sculpt,positive,negative,A,NULL
1743432103,dea513d6abe42e680b0a1da87629940c,PennController,50,0,test_val,NULL,Selector,unnamed-Selector,Selection,positive,1743431647277,undefined,559,sculpt,positive,negative,A,positive;negative
1743432103,dea513d6abe42e680b0a1da87629940c,PennController,50,0,test_val,NULL,PennController,61,_Trial_,End,1743431647278,undefined,559,sculpt,positive,negative,A,NULL
1743432103,dea513d6abe42e680b0a1da87629940c,PennController,57,0,test_val,NULL,PennController,68,_Trial_,Start,1743431647280,undefined,553,impress,positive,negative,A,NULL
1743432103,dea513d6abe42e680b0a1da87629940c,PennController,57,0,test_val,NULL,PennController,68,_Header_,Start,1743431647280,undefined,553,impress,positive,negative,A,NULL
1743432103,dea513d6abe42e680b0a1da87629940c,PennController,57,0,test_val,NULL,PennController,68,_Header_,End,1743431647544,undefined,553,impress,positive,negative,A,NULL
1743432103,dea513d6abe42e680b0a1da87629940c,PennController,57,0,test_val,NULL,Selector,unnamed-Selector,Selection,positive,1743431648599,undefined,553,impress,positive,negative,A,positive;negative
1743432103,dea513d6abe42e680b0a1da87629940c,PennController,57,0,test_val,NULL,PennController,68,_Trial_,End,1743431648601,undefined,553,impress,positive,negative,A,NULL
1743432103,dea513d6abe42e680b0a1da87629940c,PennController,72,0,test_val,NULL,PennController,83,_Trial_,Start,1743431648601,undefined,840,delete,positive,negative,A,NULL
1743432103,dea513d6abe42e680b0a1da87629940c,PennController,72,0,test_val,NULL,PennController,83,_Header_,Start,1743431648601,undefined,840,delete,positive,negative,A,NULL
1743432103,dea513d6abe42e680b0a1da87629940c,PennController,72,0,test_val,NULL,PennController,83,_Header_,End,1743431648854,undefined,840,delete,positive,negative,A,NULL
1743432103,dea513d6abe42e680b0a1da87629940c,PennController,72,0,test_val,NULL,Selector,unnamed-Selector,Selection,negative,1743431650197,undefined,840,delete,positive,negative,A,positive;negative
1743432103,dea513d6abe42e680b0a1da87629940c,PennController,72,0,test_val,NULL,PennController,83,_Trial_,End,1743431650199,undefined,840,delete,positive,negative,A,NULL
1743432103,dea513d6abe42e680b0a1da87629940c,PennController,66,0,test_val,NULL,PennController,77,_Trial_,Start,1743431650200,undefined,536,slash,positive,negative,A,NULL
1743432103,dea513d6abe42e680b0a1da87629940c,PennController,66,0,test_val,NULL,PennController,77,_Header_,Start,1743431650200,undefined,536,slash,positive,negative,A,NULL
1743432103,dea513d6abe42e680b0a1da87629940c,PennController,66,0,test_val,NULL,PennController,77,_Header_,End,1743431650459,undefined,536,slash,positive,negative,A,NULL
1743432103,dea513d6abe42e680b0a1da87629940c,PennController,66,0,test_val,NULL,Selector,unnamed-Selector,Selection,negative,1743431651500,undefined,536,slash,positive,negative,A,positive;negative
1743432103,dea513d6abe42e680b0a1da87629940c,PennController,66,0,test_val,NULL,PennController,77,_Trial_,End,1743431651501,undefined,536,slash,positive,negative,A,NULL
1743432103,dea513d6abe42e680b0a1da87629940c,PennController,76,0,test_val,NULL,PennController,87,_Trial_,Start,1743431651502,undefined,653,irritate,positive,negative,A,NULL
1743432103,dea513d6abe42e680b0a1da87629940c,PennController,76,0,test_val,NULL,PennController,87,_Header_,Start,1743431651502,undefined,653,irritate,positive,negative,A,NULL
1743432103,dea513d6abe42e680b0a1da87629940c,PennController,76,0,test_val,NULL,PennController,87,_Header_,End,1743431651757,undefined,653,irritate,positive,negative,A,NULL
1743432103,dea513d6abe42e680b0a1da87629940c,PennController,76,0,test_val,NULL,Selector,unnamed-Selector,Selection,negative,1743431652912,undefined,653,irritate,positive,negative,A,positive;negative
1743432103,dea513d6abe42e680b0a1da87629940c,PennController,76,0,test_val,NULL,PennController,87,_Trial_,End,1743431652913,undefined,653,irritate,positive,negative,A,NULL
1743432103,dea513d6abe42e680b0a1da87629940c,PennController,68,0,test_val,NULL,PennController,79,_Trial_,Start,1743431652915,undefined,581,tear,positive,negative,A,NULL
1743432103,dea513d6abe42e680b0a1da87629940c,PennController,68,0,test_val,NULL,PennController,79,_Header_,Start,1743431652915,undefined,581,tear,positive,negative,A,NULL
1743432103,dea513d6abe42e680b0a1da87629940c,PennController,68,0,test_val,NULL,PennController,79,_Header_,End,1743431653177,undefined,581,tear,positive,negative,A,NULL
1743432103,dea513d6abe42e680b0a1da87629940c,PennController,68,0,test_val,NULL,Selector,unnamed-Selector,Selection,negative,1743431654259,undefined,581,tear,positive,negative,A,positive;negative
1743432103,dea513d6abe42e680b0a1da87629940c,PennController,68,0,test_val,NULL,PennController,79,_Trial_,End,1743431654261,undefined,581,tear,positive,negative,A,NULL
1743432103,dea513d6abe42e680b0a1da87629940c,PennController,51,0,test_val,NULL,PennController,62,_Trial_,Start,1743431654262,undefined,693,twinkle,positive,negative,A,NULL
1743432103,dea513d6abe42e680b0a1da87629940c,PennController,51,0,test_val,NULL,PennController,62,_Header_,Start,1743431654262,undefined,693,twinkle,positive,negative,A,NULL
1743432103,dea513d6abe42e680b0a1da87629940c,PennController,51,0,test_val,NULL,PennController,62,_Header_,End,1743431654525,undefined,693,twinkle,positive,negative,A,NULL
1743432103,dea513d6abe42e680b0a1da87629940c,PennController,51,0,test_val,NULL,Selector,unnamed-Selector,Selection,positive,1743431655734,undefined,693,twinkle,positive,negative,A,positive;negative
1743432103,dea513d6abe42e680b0a1da87629940c,PennController,51,0,test_val,NULL,PennController,62,_Trial_,End,1743431655735,undefined,693,twinkle,positive,negative,A,NULL
1743432103,dea513d6abe42e680b0a1da87629940c,PennController,75,0,test_val,NULL,PennController,86,_Trial_,Start,1743431655736,undefined,563,despair,positive,negative,A,NULL
1743432103,dea513d6abe42e680b0a1da87629940c,PennController,75,0,test_val,NULL,PennController,86,_Header_,Start,1743431655736,undefined,563,despair,positive,negative,A,NULL
1743432103,dea513d6abe42e680b0a1da87629940c,PennController,75,0,test_val,NULL,PennController,86,_Header_,End,1743431655991,undefined,563,despair,positive,negative,A,NULL
1743432103,dea513d6abe42e680b0a1da87629940c,PennController,75,0,test_val,NULL,Selector,unnamed-Selector,Selection,negative,1743431657071,undefined,563,despair,positive,negative,A,positive;negative
1743432103,dea513d6abe42e680b0a1da87629940c,PennController,75,0,test_val,NULL,PennController,86,_Trial_,End,1743431657072,undefined,563,despair,positive,negative,A,NULL
1743432103,dea513d6abe42e680b0a1da87629940c,PennController,60,0,test_val,NULL,PennController,71,_Trial_,Start,1743431657073,undefined,686,respect,positive,negative,A,NULL
1743432103,dea513d6abe42e680b0a1da87629940c,PennController,60,0,test_val,NULL,PennController,71,_Header_,Start,1743431657073,undefined,686,respect,positive,negative,A,NULL
1743432103,dea513d6abe42e680b0a1da87629940c,PennController,60,0,test_val,NULL,PennController,71,_Header_,End,1743431657332,undefined,686,respect,positive,negative,A,NULL
1743432103,dea513d6abe42e680b0a1da87629940c,PennController,60,0,test_val,NULL,Selector,unnamed-Selector,Selection,positive,1743431658523,undefined,686,respect,positive,negative,A,positive;negative
1743432103,dea513d6abe42e680b0a1da87629940c,PennController,60,0,test_val,NULL,PennController,71,_Trial_,End,1743431658525,undefined,686,respect,positive,negative,A,NULL
1743432103,dea513d6abe42e680b0a1da87629940c,PennController,56,0,test_val,NULL,PennController,67,_Trial_,Start,1743431658526,undefined,578,appreciate,positive,negative,A,NULL
1743432103,dea513d6abe42e680b0a1da87629940c,PennController,56,0,test_val,NULL,PennController,67,_Header_,Start,1743431658526,undefined,578,appreciate,positive,negative,A,NULL
1743432103,dea513d6abe42e680b0a1da87629940c,PennController,56,0,test_val,NULL,PennController,67,_Header_,End,1743431658785,undefined,578,appreciate,positive,negative,A,NULL
1743432103,dea513d6abe42e680b0a1da87629940c,PennController,56,0,test_val,NULL,Selector,unnamed-Selector,Selection,positive,1743431659879,undefined,578,appreciate,positive,negative,A,positive;negative
1743432103,dea513d6abe42e680b0a1da87629940c,PennController,56,0,test_val,NULL,PennController,67,_Trial_,End,1743431659881,undefined,578,appreciate,positive,negative,A,NULL
1743432103,dea513d6abe42e680b0a1da87629940c,PennController,45,0,test_val,NULL,PennController,56,_Trial_,Start,1743431659882,undefined,821,build,positive,negative,A,NULL
1743432103,dea513d6abe42e680b0a1da87629940c,PennController,45,0,test_val,NULL,PennController,56,_Header_,Start,1743431659882,undefined,821,build,positive,negative,A,NULL
1743432103,dea513d6abe42e680b0a1da87629940c,PennController,45,0,test_val,NULL,PennController,56,_Header_,End,1743431660139,undefined,821,build,positive,negative,A,NULL
1743432103,dea513d6abe42e680b0a1da87629940c,PennController,45,0,test_val,NULL,Selector,unnamed-Selector,Selection,positive,1743431661475,undefined,821,build,positive,negative,A,positive;negative
1743432103,dea513d6abe42e680b0a1da87629940c,PennController,45,0,test_val,NULL,PennController,56,_Trial_,End,1743431661477,undefined,821,build,positive,negative,A,NULL
1743432103,dea513d6abe42e680b0a1da87629940c,PennController,49,0,test_val,NULL,PennController,60,_Trial_,Start,1743431661479,undefined,889,produce,positive,negative,A,NULL
1743432103,dea513d6abe42e680b0a1da87629940c,PennController,49,0,test_val,NULL,PennController,60,_Header_,Start,1743431661479,undefined,889,produce,positive,negative,A,NULL
1743432103,dea513d6abe42e680b0a1da87629940c,PennController,49,0,test_val,NULL,PennController,60,_Header_,End,1743431661737,undefined,889,produce,positive,negative,A,NULL
1743432103,dea513d6abe42e680b0a1da87629940c,PennController,49,0,test_val,NULL,Selector,unnamed-Selector,Selection,positive,1743431663132,undefined,889,produce,positive,negative,A,positive;negative
1743432103,dea513d6abe42e680b0a1da87629940c,PennController,49,0,test_val,NULL,PennController,60,_Trial_,End,1743431663133,undefined,889,produce,positive,negative,A,NULL
1743432103,dea513d6abe42e680b0a1da87629940c,PennController,71,0,test_val,NULL,PennController,82,_Trial_,Start,1743431663135,undefined,734,stain,positive,negative,A,NULL
1743432103,dea513d6abe42e680b0a1da87629940c,PennController,71,0,test_val,NULL,PennController,82,_Header_,Start,1743431663135,undefined,734,stain,positive,negative,A,NULL
1743432103,dea513d6abe42e680b0a1da87629940c,PennController,71,0,test_val,NULL,PennController,82,_Header_,End,1743431663398,undefined,734,stain,positive,negative,A,NULL
1743432103,dea513d6abe42e680b0a1da87629940c,PennController,71,0,test_val,NULL,Selector,unnamed-Selector,Selection,negative,1743431664647,undefined,734,stain,positive,negative,A,positive;negative
1743432103,dea513d6abe42e680b0a1da87629940c,PennController,71,0,test_val,NULL,PennController,82,_Trial_,End,1743431664649,undefined,734,stain,positive,negative,A,NULL
1743432103,dea513d6abe42e680b0a1da87629940c,PennController,46,0,test_val,NULL,PennController,57,_Trial_,Start,1743431664650,undefined,883,repair,positive,negative,A,NULL
1743432103,dea513d6abe42e680b0a1da87629940c,PennController,46,0,test_val,NULL,PennController,57,_Header_,Start,1743431664650,undefined,883,repair,positive,negative,A,NULL
1743432103,dea513d6abe42e680b0a1da87629940c,PennController,46,0,test_val,NULL,PennController,57,_Header_,End,1743431664904,undefined,883,repair,positive,negative,A,NULL
1743432103,dea513d6abe42e680b0a1da87629940c,PennController,46,0,test_val,NULL,Selector,unnamed-Selector,Selection,positive,1743431666302,undefined,883,repair,positive,negative,A,positive;negative
1743432103,dea513d6abe42e680b0a1da87629940c,PennController,46,0,test_val,NULL,PennController,57,_Trial_,End,1743431666304,undefined,883,repair,positive,negative,A,NULL
1743432103,dea513d6abe42e680b0a1da87629940c,PennController,58,0,test_val,NULL,PennController,69,_Trial_,Start,1743431666305,undefined,656,like,positive,negative,A,NULL
1743432103,dea513d6abe42e680b0a1da87629940c,PennController,58,0,test_val,NULL,PennController,69,_Header_,Start,1743431666305,undefined,656,like,positive,negative,A,NULL
1743432103,dea513d6abe42e680b0a1da87629940c,PennController,58,0,test_val,NULL,PennController,69,_Header_,End,1743431666568,undefined,656,like,positive,negative,A,NULL
1743432103,dea513d6abe42e680b0a1da87629940c,PennController,58,0,test_val,NULL,Selector,unnamed-Selector,Selection,negative,1743431667731,undefined,656,like,positive,negative,A,positive;negative
1743432103,dea513d6abe42e680b0a1da87629940c,PennController,58,0,test_val,NULL,PennController,69,_Trial_,End,1743431667733,undefined,656,like,positive,negative,A,NULL
1743432103,dea513d6abe42e680b0a1da87629940c,PennController,77,0,test_val,NULL,PennController,88,_Trial_,Start,1743431667735,undefined,1503,displease,positive,negative,A,NULL
1743432103,dea513d6abe42e680b0a1da87629940c,PennController,77,0,test_val,NULL,PennController,88,_Header_,Start,1743431667735,undefined,1503,displease,positive,negative,A,NULL
1743432103,dea513d6abe42e680b0a1da87629940c,PennController,77,0,test_val,NULL,PennController,88,_Header_,End,1743431667994,undefined,1503,displease,positive,negative,A,NULL
1743432103,dea513d6abe42e680b0a1da87629940c,PennController,77,0,test_val,NULL,Selector,unnamed-Selector,Selection,negative,1743431670004,undefined,1503,displease,positive,negative,A,positive;negative
1743432103,dea513d6abe42e680b0a1da87629940c,PennController,77,0,test_val,NULL,PennController,88,_Trial_,End,1743431670006,undefined,1503,displease,positive,negative,A,NULL
1743432103,dea513d6abe42e680b0a1da87629940c,PennController,48,0,test_val,NULL,PennController,59,_Trial_,Start,1743431670006,undefined,736,hug,positive,negative,A,NULL
1743432103,dea513d6abe42e680b0a1da87629940c,PennController,48,0,test_val,NULL,PennController,59,_Header_,Start,1743431670006,undefined,736,hug,positive,negative,A,NULL
1743432103,dea513d6abe42e680b0a1da87629940c,PennController,48,0,test_val,NULL,PennController,59,_Header_,End,1743431670265,undefined,736,hug,positive,negative,A,NULL
1743432103,dea513d6abe42e680b0a1da87629940c,PennController,48,0,test_val,NULL,Selector,unnamed-Selector,Selection,positive,1743431671503,undefined,736,hug,positive,negative,A,positive;negative
1743432103,dea513d6abe42e680b0a1da87629940c,PennController,48,0,test_val,NULL,PennController,59,_Trial_,End,1743431671505,undefined,736,hug,positive,negative,A,NULL
1743432103,dea513d6abe42e680b0a1da87629940c,PennController,69,0,test_val,NULL,PennController,80,_Trial_,Start,1743431671507,undefined,962,burn,positive,negative,A,NULL
1743432103,dea513d6abe42e680b0a1da87629940c,PennController,69,0,test_val,NULL,PennController,80,_Header_,Start,1743431671507,undefined,962,burn,positive,negative,A,NULL
1743432103,dea513d6abe42e680b0a1da87629940c,PennController,69,0,test_val,NULL,PennController,80,_Header_,End,1743431671771,undefined,962,burn,positive,negative,A,NULL
1743432103,dea513d6abe42e680b0a1da87629940c,PennController,69,0,test_val,NULL,Selector,unnamed-Selector,Selection,negative,1743431673238,undefined,962,burn,positive,negative,A,positive;negative
1743432103,dea513d6abe42e680b0a1da87629940c,PennController,69,0,test_val,NULL,PennController,80,_Trial_,End,1743431673239,undefined,962,burn,positive,negative,A,NULL
1743432103,dea513d6abe42e680b0a1da87629940c,PennController,44,0,test_val,NULL,PennController,55,_Trial_,Start,1743431673240,undefined,663,cuddle,positive,negative,A,NULL
1743432103,dea513d6abe42e680b0a1da87629940c,PennController,44,0,test_val,NULL,PennController,55,_Header_,Start,1743431673240,undefined,663,cuddle,positive,negative,A,NULL
1743432103,dea513d6abe42e680b0a1da87629940c,PennController,44,0,test_val,NULL,PennController,55,_Header_,End,1743431673493,undefined,663,cuddle,positive,negative,A,NULL
1743432103,dea513d6abe42e680b0a1da87629940c,PennController,44,0,test_val,NULL,Selector,unnamed-Selector,Selection,positive,1743431674656,undefined,663,cuddle,positive,negative,A,positive;negative
1743432103,dea513d6abe42e680b0a1da87629940c,PennController,44,0,test_val,NULL,PennController,55,_Trial_,End,1743431674658,undefined,663,cuddle,positive,negative,A,NULL
1743432103,dea513d6abe42e680b0a1da87629940c,PennController,79,0,test_val,NULL,PennController,90,_Trial_,Start,1743431674659,undefined,1176,embarrass,positive,negative,A,NULL
1743432103,dea513d6abe42e680b0a1da87629940c,PennController,79,0,test_val,NULL,PennController,90,_Header_,Start,1743431674659,undefined,1176,embarrass,positive,negative,A,NULL
1743432103,dea513d6abe42e680b0a1da87629940c,PennController,79,0,test_val,NULL,PennController,90,_Header_,End,1743431674924,undefined,1176,embarrass,positive,negative,A,NULL
1743432103,dea513d6abe42e680b0a1da87629940c,PennController,79,0,test_val,NULL,Selector,unnamed-Selector,Selection,negative,1743431676615,undefined,1176,embarrass,positive,negative,A,positive;negative
1743432103,dea513d6abe42e680b0a1da87629940c,PennController,79,0,test_val,NULL,PennController,90,_Trial_,End,1743431676617,undefined,1176,embarrass,positive,negative,A,NULL
1743432103,dea513d6abe42e680b0a1da87629940c,PennController,67,0,test_val,NULL,PennController,78,_Trial_,Start,1743431676619,undefined,1047,crash,positive,negative,A,NULL
1743432103,dea513d6abe42e680b0a1da87629940c,PennController,67,0,test_val,NULL,PennController,78,_Header_,Start,1743431676619,undefined,1047,crash,positive,negative,A,NULL
1743432103,dea513d6abe42e680b0a1da87629940c,PennController,67,0,test_val,NULL,PennController,78,_Header_,End,1743431676876,undefined,1047,crash,positive,negative,A,NULL
1743432103,dea513d6abe42e680b0a1da87629940c,PennController,67,0,test_val,NULL,Selector,unnamed-Selector,Selection,negative,1743431678437,undefined,1047,crash,positive,negative,A,positive;negative
1743432103,dea513d6abe42e680b0a1da87629940c,PennController,67,0,test_val,NULL,PennController,78,_Trial_,End,1743431678439,undefined,1047,crash,positive,negative,A,NULL
1743432103,dea513d6abe42e680b0a1da87629940c,PennController,82,0,test_val,NULL,PennController,93,_Trial_,Start,1743431678440,undefined,901,criticize,positive,negative,A,NULL
1743432103,dea513d6abe42e680b0a1da87629940c,PennController,82,0,test_val,NULL,PennController,93,_Header_,Start,1743431678440,undefined,901,criticize,positive,negative,A,NULL
1743432103,dea513d6abe42e680b0a1da87629940c,PennController,82,0,test_val,NULL,PennController,93,_Header_,End,1743431678703,undefined,901,criticize,positive,negative,A,NULL
1743432103,dea513d6abe42e680b0a1da87629940c,PennController,82,0,test_val,NULL,Selector,unnamed-Selector,Selection,negative,1743431680121,undefined,901,criticize,positive,negative,A,positive;negative
1743432103,dea513d6abe42e680b0a1da87629940c,PennController,82,0,test_val,NULL,PennController,93,_Trial_,End,1743431680122,undefined,901,criticize,positive,negative,A,NULL
1743432103,dea513d6abe42e680b0a1da87629940c,PennController,64,0,test_val,NULL,PennController,75,_Trial_,Start,1743431680124,undefined,730,rust,positive,negative,A,NULL
1743432103,dea513d6abe42e680b0a1da87629940c,PennController,64,0,test_val,NULL,PennController,75,_Header_,Start,1743431680124,undefined,730,rust,positive,negative,A,NULL
1743432103,dea513d6abe42e680b0a1da87629940c,PennController,64,0,test_val,NULL,PennController,75,_Header_,End,1743431680379,undefined,730,rust,positive,negative,A,NULL
1743432103,dea513d6abe42e680b0a1da87629940c,PennController,64,0,test_val,NULL,Selector,unnamed-Selector,Selection,negative,1743431681627,undefined,730,rust,positive,negative,A,positive;negative
1743432103,dea513d6abe42e680b0a1da87629940c,PennController,64,0,test_val,NULL,PennController,75,_Trial_,End,1743431681628,undefined,730,rust,positive,negative,A,NULL
1743432103,dea513d6abe42e680b0a1da87629940c,PennController,80,0,test_val,NULL,PennController,91,_Trial_,Start,1743431681629,undefined,707,discourage,positive,negative,A,NULL
1743432103,dea513d6abe42e680b0a1da87629940c,PennController,80,0,test_val,NULL,PennController,91,_Header_,Start,1743431681629,undefined,707,discourage,positive,negative,A,NULL
1743432103,dea513d6abe42e680b0a1da87629940c,PennController,80,0,test_val,NULL,PennController,91,_Header_,End,1743431681887,undefined,707,discourage,positive,negative,A,NULL
1743432103,dea513d6abe42e680b0a1da87629940c,PennController,80,0,test_val,NULL,Selector,unnamed-Selector,Selection,negative,1743431683110,undefined,707,discourage,positive,negative,A,positive;negative
1743432103,dea513d6abe42e680b0a1da87629940c,PennController,80,0,test_val,NULL,PennController,91,_Trial_,End,1743431683112,undefined,707,discourage,positive,negative,A,NULL
1743432103,dea513d6abe42e680b0a1da87629940c,PennController,55,0,test_val,NULL,PennController,66,_Trial_,Start,1743431683114,undefined,705,encourage,positive,negative,A,NULL
1743432103,dea513d6abe42e680b0a1da87629940c,PennController,55,0,test_val,NULL,PennController,66,_Header_,Start,1743431683114,undefined,705,encourage,positive,negative,A,NULL
1743432103,dea513d6abe42e680b0a1da87629940c,PennController,55,0,test_val,NULL,PennController,66,_Header_,End,1743431683368,undefined,705,encourage,positive,negative,A,NULL
1743432103,dea513d6abe42e680b0a1da87629940c,PennController,55,0,test_val,NULL,Selector,unnamed-Selector,Selection,positive,1743431684589,undefined,705,encourage,positive,negative,A,positive;negative
1743432103,dea513d6abe42e680b0a1da87629940c,PennController,55,0,test_val,NULL,PennController,66,_Trial_,End,1743431684591,undefined,705,encourage,positive,negative,A,NULL
1743432103,dea513d6abe42e680b0a1da87629940c,PennController,83,0,test_val,NULL,PennController,94,_Trial_,Start,1743431684592,undefined,990,dread,positive,negative,A,NULL
1743432103,dea513d6abe42e680b0a1da87629940c,PennController,83,0,test_val,NULL,PennController,94,_Header_,Start,1743431684592,undefined,990,dread,positive,negative,A,NULL
1743432103,dea513d6abe42e680b0a1da87629940c,PennController,83,0,test_val,NULL,PennController,94,_Header_,End,1743431684853,undefined,990,dread,positive,negative,A,NULL
1743432103,dea513d6abe42e680b0a1da87629940c,PennController,83,0,test_val,NULL,Selector,unnamed-Selector,Selection,negative,1743431686344,undefined,990,dread,positive,negative,A,positive;negative
1743432103,dea513d6abe42e680b0a1da87629940c,PennController,83,0,test_val,NULL,PennController,94,_Trial_,End,1743431686345,undefined,990,dread,positive,negative,A,NULL
1743432103,dea513d6abe42e680b0a1da87629940c,PennController,62,0,test_val,NULL,PennController,73,_Trial_,Start,1743431686347,undefined,587,adore,positive,negative,A,NULL
1743432103,dea513d6abe42e680b0a1da87629940c,PennController,62,0,test_val,NULL,PennController,73,_Header_,Start,1743431686347,undefined,587,adore,positive,negative,A,NULL
1743432103,dea513d6abe42e680b0a1da87629940c,PennController,62,0,test_val,NULL,PennController,73,_Header_,End,1743431686609,undefined,587,adore,positive,negative,A,NULL
1743432103,dea513d6abe42e680b0a1da87629940c,PennController,62,0,test_val,NULL,Selector,unnamed-Selector,Selection,positive,1743431687701,undefined,587,adore,positive,negative,A,positive;negative
1743432103,dea513d6abe42e680b0a1da87629940c,PennController,62,0,test_val,NULL,PennController,73,_Trial_,End,1743431687703,undefined,587,adore,positive,negative,A,NULL
1743432103,dea513d6abe42e680b0a1da87629940c,PennController,61,0,test_val,NULL,PennController,72,_Trial_,Start,1743431687704,undefined,555,admire,positive,negative,A,NULL
1743432103,dea513d6abe42e680b0a1da87629940c,PennController,61,0,test_val,NULL,PennController,72,_Header_,Start,1743431687704,undefined,555,admire,positive,negative,A,NULL
1743432103,dea513d6abe42e680b0a1da87629940c,PennController,61,0,test_val,NULL,PennController,72,_Header_,End,1743431687956,undefined,555,admire,positive,negative,A,NULL
1743432103,dea513d6abe42e680b0a1da87629940c,PennController,61,0,test_val,NULL,Selector,unnamed-Selector,Selection,positive,1743431689013,undefined,555,admire,positive,negative,A,positive;negative
1743432103,dea513d6abe42e680b0a1da87629940c,PennController,61,0,test_val,NULL,PennController,72,_Trial_,End,1743431689015,undefined,555,admire,positive,negative,A,NULL
1743432103,dea513d6abe42e680b0a1da87629940c,PennController,63,0,test_val,NULL,PennController,74,_Trial_,Start,1743431689016,undefined,485,cherish,positive,negative,A,NULL
1743432103,dea513d6abe42e680b0a1da87629940c,PennController,63,0,test_val,NULL,PennController,74,_Header_,Start,1743431689016,undefined,485,cherish,positive,negative,A,NULL
1743432103,dea513d6abe42e680b0a1da87629940c,PennController,63,0,test_val,NULL,PennController,74,_Header_,End,1743431689266,undefined,485,cherish,positive,negative,A,NULL
1743432103,dea513d6abe42e680b0a1da87629940c,PennController,63,0,test_val,NULL,Selector,unnamed-Selector,Selection,positive,1743431690253,undefined,485,cherish,positive,negative,A,positive;negative
1743432103,dea513d6abe42e680b0a1da87629940c,PennController,63,0,test_val,NULL,PennController,74,_Trial_,End,1743431690255,undefined,485,cherish,positive,negative,A,NULL
1743432103,dea513d6abe42e680b0a1da87629940c,PennController,70,0,test_val,NULL,PennController,81,_Trial_,Start,1743431690257,undefined,717,hit,positive,negative,A,NULL
1743432103,dea513d6abe42e680b0a1da87629940c,PennController,70,0,test_val,NULL,PennController,81,_Header_,Start,1743431690257,undefined,717,hit,positive,negative,A,NULL
1743432103,dea513d6abe42e680b0a1da87629940c,PennController,70,0,test_val,NULL,PennController,81,_Header_,End,1743431690514,undefined,717,hit,positive,negative,A,NULL
1743432103,dea513d6abe42e680b0a1da87629940c,PennController,70,0,test_val,NULL,Selector,unnamed-Selector,Selection,negative,1743431691748,undefined,717,hit,positive,negative,A,positive;negative
1743432103,dea513d6abe42e680b0a1da87629940c,PennController,70,0,test_val,NULL,PennController,81,_Trial_,End,1743431691750,undefined,717,hit,positive,negative,A,NULL
1743432103,dea513d6abe42e680b0a1da87629940c,PennController,73,0,test_val,NULL,PennController,84,_Trial_,Start,1743431691752,undefined,617,corrode,positive,negative,A,NULL
1743432103,dea513d6abe42e680b0a1da87629940c,PennController,73,0,test_val,NULL,PennController,84,_Header_,Start,1743431691752,undefined,617,corrode,positive,negative,A,NULL
1743432103,dea513d6abe42e680b0a1da87629940c,PennController,73,0,test_val,NULL,PennController,84,_Header_,End,1743431692011,undefined,617,corrode,positive,negative,A,NULL
1743432103,dea513d6abe42e680b0a1da87629940c,PennController,73,0,test_val,NULL,Selector,unnamed-Selector,Selection,negative,1743431693141,undefined,617,corrode,positive,negative,A,positive;negative
1743432103,dea513d6abe42e680b0a1da87629940c,PennController,73,0,test_val,NULL,PennController,84,_Trial_,End,1743431693144,undefined,617,corrode,positive,negative,A,NULL
1743432103,dea513d6abe42e680b0a1da87629940c,PennController,54,0,test_val,NULL,PennController,65,_Trial_,Start,1743431693145,undefined,1219,content,positive,negative,A,NULL
1743432103,dea513d6abe42e680b0a1da87629940c,PennController,54,0,test_val,NULL,PennController,65,_Header_,Start,1743431693145,undefined,1219,content,positive,negative,A,NULL
1743432103,dea513d6abe42e680b0a1da87629940c,PennController,54,0,test_val,NULL,PennController,65,_Header_,End,1743431693398,undefined,1219,content,positive,negative,A,NULL
1743432103,dea513d6abe42e680b0a1da87629940c,PennController,54,0,test_val,NULL,Selector,unnamed-Selector,Selection,positive,1743431695132,undefined,1219,content,positive,negative,A,positive;negative
1743432103,dea513d6abe42e680b0a1da87629940c,PennController,54,0,test_val,NULL,PennController,65,_Trial_,End,1743431695134,undefined,1219,content,positive,negative,A,NULL
1743432103,dea513d6abe42e680b0a1da87629940c,PennController,53,0,test_val,NULL,PennController,64,_Trial_,Start,1743431695135,undefined,672,clean,positive,negative,A,NULL
1743432103,dea513d6abe42e680b0a1da87629940c,PennController,53,0,test_val,NULL,PennController,64,_Header_,Start,1743431695135,undefined,672,clean,positive,negative,A,NULL
1743432103,dea513d6abe42e680b0a1da87629940c,PennController,53,0,test_val,NULL,PennController,64,_Header_,End,1743431695396,undefined,672,clean,positive,negative,A,NULL
1743432103,dea513d6abe42e680b0a1da87629940c,PennController,53,0,test_val,NULL,Selector,unnamed-Selector,Selection,positive,1743431696569,undefined,672,clean,positive,negative,A,positive;negative
1743432103,dea513d6abe42e680b0a1da87629940c,PennController,53,0,test_val,NULL,PennController,64,_Trial_,End,1743431696571,undefined,672,clean,positive,negative,A,NULL
1743432103,dea513d6abe42e680b0a1da87629940c,PennController,47,0,test_val,NULL,PennController,58,_Trial_,Start,1743431696572,undefined,740,caress,positive,negative,A,NULL
1743432103,dea513d6abe42e680b0a1da87629940c,PennController,47,0,test_val,NULL,PennController,58,_Header_,Start,1743431696572,undefined,740,caress,positive,negative,A,NULL
1743432103,dea513d6abe42e680b0a1da87629940c,PennController,47,0,test_val,NULL,PennController,58,_Header_,End,1743431696832,undefined,740,caress,positive,negative,A,NULL
1743432103,dea513d6abe42e680b0a1da87629940c,PennController,47,0,test_val,NULL,Selector,unnamed-Selector,Selection,positive,1743431698090,undefined,740,caress,positive,negative,A,positive;negative
1743432103,dea513d6abe42e680b0a1da87629940c,PennController,47,0,test_val,NULL,PennController,58,_Trial_,End,1743431698091,undefined,740,caress,positive,negative,A,NULL
1743432103,dea513d6abe42e680b0a1da87629940c,PennController,78,0,test_val,NULL,PennController,89,_Trial_,Start,1743431698093,undefined,659,dishonor,positive,negative,A,NULL
1743432103,dea513d6abe42e680b0a1da87629940c,PennController,78,0,test_val,NULL,PennController,89,_Header_,Start,1743431698093,undefined,659,dishonor,positive,negative,A,NULL
1743432103,dea513d6abe42e680b0a1da87629940c,PennController,78,0,test_val,NULL,PennController,89,_Header_,End,1743431698346,undefined,659,dishonor,positive,negative,A,NULL
1743432103,dea513d6abe42e680b0a1da87629940c,PennController,78,0,test_val,NULL,Selector,unnamed-Selector,Selection,negative,1743431699506,undefined,659,dishonor,positive,negative,A,positive;negative
1743432103,dea513d6abe42e680b0a1da87629940c,PennController,78,0,test_val,NULL,PennController,89,_Trial_,End,1743431699508,undefined,659,dishonor,positive,negative,A,NULL
1743432103,dea513d6abe42e680b0a1da87629940c,PennController,74,0,test_val,NULL,PennController,85,_Trial_,Start,1743431699509,undefined,531,offend,positive,negative,A,NULL
1743432103,dea513d6abe42e680b0a1da87629940c,PennController,74,0,test_val,NULL,PennController,85,_Header_,Start,1743431699509,undefined,531,offend,positive,negative,A,NULL
1743432103,dea513d6abe42e680b0a1da87629940c,PennController,74,0,test_val,NULL,PennController,85,_Header_,End,1743431699765,undefined,531,offend,positive,negative,A,NULL
1743432103,dea513d6abe42e680b0a1da87629940c,PennController,74,0,test_val,NULL,Selector,unnamed-Selector,Selection,negative,1743431700813,undefined,531,offend,positive,negative,A,positive;negative
1743432103,dea513d6abe42e680b0a1da87629940c,PennController,74,0,test_val,NULL,PennController,85,_Trial_,End,1743431700814,undefined,531,offend,positive,negative,A,NULL
1743432103,dea513d6abe42e680b0a1da87629940c,PennController,52,0,test_val,NULL,PennController,63,_Trial_,Start,1743431700815,undefined,508,decorate,positive,negative,A,NULL
1743432103,dea513d6abe42e680b0a1da87629940c,PennController,52,0,test_val,NULL,PennController,63,_Header_,Start,1743431700815,undefined,508,decorate,positive,negative,A,NULL
1743432103,dea513d6abe42e680b0a1da87629940c,PennController,52,0,test_val,NULL,PennController,63,_Header_,End,1743431701076,undefined,508,decorate,positive,negative,A,NULL
1743432103,dea513d6abe42e680b0a1da87629940c,PennController,52,0,test_val,NULL,Selector,unnamed-Selector,Selection,negative,1743431702089,undefined,508,decorate,positive,negative,A,positive;negative
1743432103,dea513d6abe42e680b0a1da87629940c,PennController,52,0,test_val,NULL,PennController,63,_Trial_,End,1743431702090,undefined,508,decorate,positive,negative,A,NULL
1743432103,dea513d6abe42e680b0a1da87629940c,PennController,51,0,test_val,NULL,PennController,62,_Trial_,Start,1743431702091,undefined,1053,twinkle,positive,negative,A,NULL
1743432103,dea513d6abe42e680b0a1da87629940c,PennController,51,0,test_val,NULL,PennController,62,_Header_,Start,1743431702091,undefined,1053,twinkle,positive,negative,A,NULL
1743432103,dea513d6abe42e680b0a1da87629940c,PennController,51,0,test_val,NULL,PennController,62,_Header_,End,1743431702344,undefined,1053,twinkle,positive,negative,A,NULL
1743432103,dea513d6abe42e680b0a1da87629940c,PennController,51,0,test_val,NULL,Selector,unnamed-Selector,Selection,positive,1743431703914,undefined,1053,twinkle,positive,negative,A,positive;negative
1743432103,dea513d6abe42e680b0a1da87629940c,PennController,51,0,test_val,NULL,PennController,62,_Trial_,End,1743431703916,undefined,1053,twinkle,positive,negative,A,NULL
1743432103,dea513d6abe42e680b0a1da87629940c,PennController,47,0,test_val,NULL,PennController,58,_Trial_,Start,1743431703917,undefined,663,caress,positive,negative,A,NULL
1743432103,dea513d6abe42e680b0a1da87629940c,PennController,47,0,test_val,NULL,PennController,58,_Header_,Start,1743431703917,undefined,663,caress,positive,negative,A,NULL
1743432103,dea513d6abe42e680b0a1da87629940c,PennController,47,0,test_val,NULL,PennController,58,_Header_,End,1743431704167,undefined,663,caress,positive,negative,A,NULL
1743432103,dea513d6abe42e680b0a1da87629940c,PennController,47,0,test_val,NULL,Selector,unnamed-Selector,Selection,positive,1743431705334,undefined,663,caress,positive,negative,A,positive;negative
1743432103,dea513d6abe42e680b0a1da87629940c,PennController,47,0,test_val,NULL,PennController,58,_Trial_,End,1743431705335,undefined,663,caress,positive,negative,A,NULL
1743432103,dea513d6abe42e680b0a1da87629940c,PennController,67,0,test_val,NULL,PennController,78,_Trial_,Start,1743431705336,undefined,650,crash,positive,negative,A,NULL
1743432103,dea513d6abe42e680b0a1da87629940c,PennController,67,0,test_val,NULL,PennController,78,_Header_,Start,1743431705336,undefined,650,crash,positive,negative,A,NULL
1743432103,dea513d6abe42e680b0a1da87629940c,PennController,67,0,test_val,NULL,PennController,78,_Header_,End,1743431705592,undefined,650,crash,positive,negative,A,NULL
1743432103,dea513d6abe42e680b0a1da87629940c,PennController,67,0,test_val,NULL,Selector,unnamed-Selector,Selection,negative,1743431706744,undefined,650,crash,positive,negative,A,positive;negative
1743432103,dea513d6abe42e680b0a1da87629940c,PennController,67,0,test_val,NULL,PennController,78,_Trial_,End,1743431706746,undefined,650,crash,positive,negative,A,NULL
1743432103,dea513d6abe42e680b0a1da87629940c,PennController,63,0,test_val,NULL,PennController,74,_Trial_,Start,1743431706747,undefined,730,cherish,positive,negative,A,NULL
1743432103,dea513d6abe42e680b0a1da87629940c,PennController,63,0,test_val,NULL,PennController,74,_Header_,Start,1743431706747,undefined,730,cherish,positive,negative,A,NULL
1743432103,dea513d6abe42e680b0a1da87629940c,PennController,63,0,test_val,NULL,PennController,74,_Header_,End,1743431706998,undefined,730,cherish,positive,negative,A,NULL
1743432103,dea513d6abe42e680b0a1da87629940c,PennController,63,0,test_val,NULL,Selector,unnamed-Selector,Selection,positive,1743431708232,undefined,730,cherish,positive,negative,A,positive;negative
1743432103,dea513d6abe42e680b0a1da87629940c,PennController,63,0,test_val,NULL,PennController,74,_Trial_,End,1743431708234,undefined,730,cherish,positive,negative,A,NULL
1743432103,dea513d6abe42e680b0a1da87629940c,PennController,74,0,test_val,NULL,PennController,85,_Trial_,Start,1743431708235,undefined,1110,offend,positive,negative,A,NULL
1743432103,dea513d6abe42e680b0a1da87629940c,PennController,74,0,test_val,NULL,PennController,85,_Header_,Start,1743431708235,undefined,1110,offend,positive,negative,A,NULL
1743432103,dea513d6abe42e680b0a1da87629940c,PennController,74,0,test_val,NULL,PennController,85,_Header_,End,1743431708487,undefined,1110,offend,positive,negative,A,NULL
1743432103,dea513d6abe42e680b0a1da87629940c,PennController,74,0,test_val,NULL,Selector,unnamed-Selector,Selection,negative,1743431710112,undefined,1110,offend,positive,negative,A,positive;negative
1743432103,dea513d6abe42e680b0a1da87629940c,PennController,74,0,test_val,NULL,PennController,85,_Trial_,End,1743431710113,undefined,1110,offend,positive,negative,A,NULL
