#
# Results on Mon, 31 Mar 2025 17:44:25 GMT
# USER AGENT: Mozilla/5.0 (Windows NT 10.0; Win64; x64) AppleWebKit/537.36 (KHTML, like Gecko) Chrome/132.0.0.0 Safari/537.36
# Design number was non-random = 0
#
# Columns below this comment are as follows:
# 1. Results reception time.
# 2. MD5 hash of participant's IP address.
# 3. Controller name.
# 4. Order number of item.
# 5. Inner element number.
# 6. Label.
# 7. Latin Square Group.
# 8. PennElementType.
# 9. PennElementName.
# 10. Parameter.
# 11. Value.
# 12. EventTime.
# 13. Comments.
1743443065,b6bb5cc3cfd4fc391f031ea29bfc9d91,PennController,1,0,welcome,NULL,PennController,0,_Trial_,Start,1743442335897,NULL
1743443065,b6bb5cc3cfd4fc391f031ea29bfc9d91,PennController,1,0,welcome,NULL,PennController,0,_Header_,Start,1743442335897,NULL
1743443065,b6bb5cc3cfd4fc391f031ea29bfc9d91,PennController,1,0,welcome,NULL,PennController,0,_Header_,End,1743442336150,NULL
1743443065,b6bb5cc3cfd4fc391f031ea29bfc9d91,PennController,1,0,welcome,NULL,PennController,0,_Trial_,End,1743442353804,NULL
# 13. ID.
# 14. Comments.
1743443065,b6bb5cc3cfd4fc391f031ea29bfc9d91,PennController,124,0,consent,NULL,PennController,2,_Trial_,Start,1743442353806,636259854da454099f895513,NULL
1743443065,b6bb5cc3cfd4fc391f031ea29bfc9d91,PennController,124,0,consent,NULL,PennController,2,_Header_,Start,1743442353806,636259854da454099f895513,NULL
1743443065,b6bb5cc3cfd4fc391f031ea29bfc9d91,PennController,124,0,consent,NULL,PennController,2,_Header_,End,1743442354056,636259854da454099f895513,NULL
1743443065,b6bb5cc3cfd4fc391f031ea29bfc9d91,PennController,124,0,consent,NULL,TextInput,ID,Final,636259854da454099f895513,1743442368078,636259854da454099f895513,NULL
1743443065,b6bb5cc3cfd4fc391f031ea29bfc9d91,PennController,124,0,consent,NULL,PennController,2,_Trial_,End,1743442368078,636259854da454099f895513,NULL
# 13. Comments.
1743443065,b6bb5cc3cfd4fc391f031ea29bfc9d91,PennController,132,0,instructions1_phys,NULL,PennController,10,_Trial_,Start,1743442368079,NULL
1743443065,b6bb5cc3cfd4fc391f031ea29bfc9d91,PennController,132,0,instructions1_phys,NULL,PennController,10,_Header_,Start,1743442368079,NULL
1743443065,b6bb5cc3cfd4fc391f031ea29bfc9d91,PennController,132,0,instructions1_phys,NULL,PennController,10,_Header_,End,1743442368332,NULL
1743443065,b6bb5cc3cfd4fc391f031ea29bfc9d91,PennController,132,0,instructions1_phys,NULL,PennController,10,_Trial_,End,1743442373700,NULL
1743443065,b6bb5cc3cfd4fc391f031ea29bfc9d91,PennController,133,0,instructions2_phys,NULL,PennController,11,_Trial_,Start,1743442373701,NULL
1743443065,b6bb5cc3cfd4fc391f031ea29bfc9d91,PennController,133,0,instructions2_phys,NULL,PennController,11,_Header_,Start,1743442373701,NULL
1743443065,b6bb5cc3cfd4fc391f031ea29bfc9d91,PennController,133,0,instructions2_phys,NULL,PennController,11,_Header_,End,1743442373952,NULL
1743443065,b6bb5cc3cfd4fc391f031ea29bfc9d91,PennController,133,0,instructions2_phys,NULL,PennController,11,_Trial_,End,1743442378404,NULL
1743443065,b6bb5cc3cfd4fc391f031ea29bfc9d91,PennController,128,0,instructions3_hands,NULL,PennController,6,_Trial_,Start,1743442378405,NULL
1743443065,b6bb5cc3cfd4fc391f031ea29bfc9d91,PennController,128,0,instructions3_hands,NULL,PennController,6,_Header_,Start,1743442378405,NULL
1743443065,b6bb5cc3cfd4fc391f031ea29bfc9d91,PennController,128,0,instructions3_hands,NULL,PennController,6,_Header_,End,1743442378658,NULL
1743443065,b6bb5cc3cfd4fc391f031ea29bfc9d91,PennController,128,0,instructions3_hands,NULL,PennController,6,_Trial_,End,1743442395122,NULL
1743443065,b6bb5cc3cfd4fc391f031ea29bfc9d91,PennController,135,0,practice_intro_phys,NULL,PennController,13,_Trial_,Start,1743442395124,NULL
1743443065,b6bb5cc3cfd4fc391f031ea29bfc9d91,PennController,135,0,practice_intro_phys,NULL,PennController,13,_Header_,Start,1743442395124,NULL
1743443065,b6bb5cc3cfd4fc391f031ea29bfc9d91,PennController,135,0,practice_intro_phys,NULL,PennController,13,_Header_,End,1743442395375,NULL
1743443065,b6bb5cc3cfd4fc391f031ea29bfc9d91,PennController,135,0,practice_intro_phys,NULL,PennController,13,_Trial_,End,1743442404603,NULL
# 13. ID.
# 14. ReactionTime.
# 15. Word.
# 16. selectedKey.
# 17. selectedValue.
# 18. Key_value_F.
# 19. Key_value_J.
# 20. Group.
# 21. Comments.
1743443065,b6bb5cc3cfd4fc391f031ea29bfc9d91,PennController,92,0,calibrator_phys_feedback,NULL,PennController,103,_Trial_,Start,1743442404605,undefined,2965,water,undefined,physical,psychological,physical,B,NULL
1743443065,b6bb5cc3cfd4fc391f031ea29bfc9d91,PennController,92,0,calibrator_phys_feedback,NULL,PennController,103,_Header_,Start,1743442404605,undefined,2965,water,undefined,physical,psychological,physical,B,NULL
1743443065,b6bb5cc3cfd4fc391f031ea29bfc9d91,PennController,92,0,calibrator_phys_feedback,NULL,PennController,103,_Header_,End,1743442404855,undefined,2965,water,undefined,physical,psychological,physical,B,NULL
1743443065,b6bb5cc3cfd4fc391f031ea29bfc9d91,PennController,92,0,calibrator_phys_feedback,NULL,Selector,Selection,Selection,physical,1743442408807,undefined,2965,water,undefined,physical,psychological,physical,B,psychological;physical
1743443065,b6bb5cc3cfd4fc391f031ea29bfc9d91,PennController,92,0,calibrator_phys_feedback,NULL,PennController,103,_Trial_,End,1743442410329,undefined,2965,water,undefined,physical,psychological,physical,B,NULL
1743443065,b6bb5cc3cfd4fc391f031ea29bfc9d91,PennController,85,0,calibrator_phys_feedback,NULL,PennController,96,_Trial_,Start,1743442410330,undefined,1833,dream,undefined,physical,psychological,physical,B,NULL
1743443065,b6bb5cc3cfd4fc391f031ea29bfc9d91,PennController,85,0,calibrator_phys_feedback,NULL,PennController,96,_Header_,Start,1743442410330,undefined,1833,dream,undefined,physical,psychological,physical,B,NULL
1743443065,b6bb5cc3cfd4fc391f031ea29bfc9d91,PennController,85,0,calibrator_phys_feedback,NULL,PennController,96,_Header_,End,1743442410580,undefined,1833,dream,undefined,physical,psychological,physical,B,NULL
1743443065,b6bb5cc3cfd4fc391f031ea29bfc9d91,PennController,85,0,calibrator_phys_feedback,NULL,Selector,Selection,Selection,psychological,1743442412914,undefined,1833,dream,undefined,physical,psychological,physical,B,psychological;physical
1743443065,b6bb5cc3cfd4fc391f031ea29bfc9d91,PennController,85,0,calibrator_phys_feedback,NULL,PennController,96,_Trial_,End,1743442414917,undefined,1833,dream,undefined,physical,psychological,physical,B,NULL
1743443065,b6bb5cc3cfd4fc391f031ea29bfc9d91,PennController,90,0,calibrator_phys_feedback,NULL,PennController,101,_Trial_,Start,1743442414919,undefined,1986,heat,undefined,physical,psychological,physical,B,NULL
1743443065,b6bb5cc3cfd4fc391f031ea29bfc9d91,PennController,90,0,calibrator_phys_feedback,NULL,PennController,101,_Header_,Start,1743442414919,undefined,1986,heat,undefined,physical,psychological,physical,B,NULL
1743443065,b6bb5cc3cfd4fc391f031ea29bfc9d91,PennController,90,0,calibrator_phys_feedback,NULL,PennController,101,_Header_,End,1743442415169,undefined,1986,heat,undefined,physical,psychological,physical,B,NULL
1743443065,b6bb5cc3cfd4fc391f031ea29bfc9d91,PennController,90,0,calibrator_phys_feedback,NULL,Selector,Selection,Selection,physical,1743442417659,undefined,1986,heat,undefined,physical,psychological,physical,B,psychological;physical
1743443065,b6bb5cc3cfd4fc391f031ea29bfc9d91,PennController,90,0,calibrator_phys_feedback,NULL,PennController,101,_Trial_,End,1743442419664,undefined,1986,heat,undefined,physical,psychological,physical,B,NULL
1743443065,b6bb5cc3cfd4fc391f031ea29bfc9d91,PennController,89,0,calibrator_phys_feedback,NULL,PennController,100,_Trial_,Start,1743442419666,undefined,1109,body,undefined,physical,psychological,physical,B,NULL
1743443065,b6bb5cc3cfd4fc391f031ea29bfc9d91,PennController,89,0,calibrator_phys_feedback,NULL,PennController,100,_Header_,Start,1743442419666,undefined,1109,body,undefined,physical,psychological,physical,B,NULL
1743443065,b6bb5cc3cfd4fc391f031ea29bfc9d91,PennController,89,0,calibrator_phys_feedback,NULL,PennController,100,_Header_,End,1743442419916,undefined,1109,body,undefined,physical,psychological,physical,B,NULL
1743443065,b6bb5cc3cfd4fc391f031ea29bfc9d91,PennController,89,0,calibrator_phys_feedback,NULL,Selector,Selection,Selection,physical,1743442421527,undefined,1109,body,undefined,physical,psychological,physical,B,psychological;physical
1743443065,b6bb5cc3cfd4fc391f031ea29bfc9d91,PennController,89,0,calibrator_phys_feedback,NULL,PennController,100,_Trial_,End,1743442423532,undefined,1109,body,undefined,physical,psychological,physical,B,NULL
1743443065,b6bb5cc3cfd4fc391f031ea29bfc9d91,PennController,88,0,calibrator_phys_feedback,NULL,PennController,99,_Trial_,Start,1743442423534,undefined,874,mood,undefined,physical,psychological,physical,B,NULL
1743443065,b6bb5cc3cfd4fc391f031ea29bfc9d91,PennController,88,0,calibrator_phys_feedback,NULL,PennController,99,_Header_,Start,1743442423534,undefined,874,mood,undefined,physical,psychological,physical,B,NULL
1743443065,b6bb5cc3cfd4fc391f031ea29bfc9d91,PennController,88,0,calibrator_phys_feedback,NULL,PennController,99,_Header_,End,1743442423785,undefined,874,mood,undefined,physical,psychological,physical,B,NULL
1743443065,b6bb5cc3cfd4fc391f031ea29bfc9d91,PennController,88,0,calibrator_phys_feedback,NULL,Selector,Selection,Selection,psychological,1743442425160,undefined,874,mood,undefined,physical,psychological,physical,B,psychological;physical
1743443065,b6bb5cc3cfd4fc391f031ea29bfc9d91,PennController,88,0,calibrator_phys_feedback,NULL,PennController,99,_Trial_,End,1743442427164,undefined,874,mood,undefined,physical,psychological,physical,B,NULL
1743443065,b6bb5cc3cfd4fc391f031ea29bfc9d91,PennController,93,0,calibrator_phys_feedback,NULL,PennController,104,_Trial_,Start,1743442427165,undefined,1317,hand,undefined,physical,psychological,physical,B,NULL
1743443065,b6bb5cc3cfd4fc391f031ea29bfc9d91,PennController,93,0,calibrator_phys_feedback,NULL,PennController,104,_Header_,Start,1743442427165,undefined,1317,hand,undefined,physical,psychological,physical,B,NULL
1743443065,b6bb5cc3cfd4fc391f031ea29bfc9d91,PennController,93,0,calibrator_phys_feedback,NULL,PennController,104,_Header_,End,1743442427415,undefined,1317,hand,undefined,physical,psychological,physical,B,NULL
1743443065,b6bb5cc3cfd4fc391f031ea29bfc9d91,PennController,93,0,calibrator_phys_feedback,NULL,Selector,Selection,Selection,physical,1743442429232,undefined,1317,hand,undefined,physical,psychological,physical,B,psychological;physical
1743443065,b6bb5cc3cfd4fc391f031ea29bfc9d91,PennController,93,0,calibrator_phys_feedback,NULL,PennController,104,_Trial_,End,1743442431236,undefined,1317,hand,undefined,physical,psychological,physical,B,NULL
1743443065,b6bb5cc3cfd4fc391f031ea29bfc9d91,PennController,87,0,calibrator_phys_feedback,NULL,PennController,98,_Trial_,Start,1743442431238,undefined,1313,memory,undefined,physical,psychological,physical,B,NULL
1743443065,b6bb5cc3cfd4fc391f031ea29bfc9d91,PennController,87,0,calibrator_phys_feedback,NULL,PennController,98,_Header_,Start,1743442431238,undefined,1313,memory,undefined,physical,psychological,physical,B,NULL
1743443065,b6bb5cc3cfd4fc391f031ea29bfc9d91,PennController,87,0,calibrator_phys_feedback,NULL,PennController,98,_Header_,End,1743442431491,undefined,1313,memory,undefined,physical,psychological,physical,B,NULL
1743443065,b6bb5cc3cfd4fc391f031ea29bfc9d91,PennController,87,0,calibrator_phys_feedback,NULL,Selector,Selection,Selection,psychological,1743442433306,undefined,1313,memory,undefined,physical,psychological,physical,B,psychological;physical
1743443065,b6bb5cc3cfd4fc391f031ea29bfc9d91,PennController,87,0,calibrator_phys_feedback,NULL,PennController,98,_Trial_,End,1743442435308,undefined,1313,memory,undefined,physical,psychological,physical,B,NULL
1743443065,b6bb5cc3cfd4fc391f031ea29bfc9d91,PennController,86,0,calibrator_phys_feedback,NULL,PennController,97,_Trial_,Start,1743442435309,undefined,1483,fear,undefined,physical,psychological,physical,B,NULL
1743443065,b6bb5cc3cfd4fc391f031ea29bfc9d91,PennController,86,0,calibrator_phys_feedback,NULL,PennController,97,_Header_,Start,1743442435309,undefined,1483,fear,undefined,physical,psychological,physical,B,NULL
1743443065,b6bb5cc3cfd4fc391f031ea29bfc9d91,PennController,86,0,calibrator_phys_feedback,NULL,PennController,97,_Header_,End,1743442435561,undefined,1483,fear,undefined,physical,psychological,physical,B,NULL
1743443065,b6bb5cc3cfd4fc391f031ea29bfc9d91,PennController,86,0,calibrator_phys_feedback,NULL,Selector,Selection,Selection,psychological,1743442437548,undefined,1483,fear,undefined,physical,psychological,physical,B,psychological;physical
1743443065,b6bb5cc3cfd4fc391f031ea29bfc9d91,PennController,86,0,calibrator_phys_feedback,NULL,PennController,97,_Trial_,End,1743442439552,undefined,1483,fear,undefined,physical,psychological,physical,B,NULL
1743443065,b6bb5cc3cfd4fc391f031ea29bfc9d91,PennController,84,0,calibrator_phys_feedback,NULL,PennController,95,_Trial_,Start,1743442439553,undefined,1320,mind,undefined,physical,psychological,physical,B,NULL
1743443065,b6bb5cc3cfd4fc391f031ea29bfc9d91,PennController,84,0,calibrator_phys_feedback,NULL,PennController,95,_Header_,Start,1743442439553,undefined,1320,mind,undefined,physical,psychological,physical,B,NULL
1743443065,b6bb5cc3cfd4fc391f031ea29bfc9d91,PennController,84,0,calibrator_phys_feedback,NULL,PennController,95,_Header_,End,1743442439807,undefined,1320,mind,undefined,physical,psychological,physical,B,NULL
1743443065,b6bb5cc3cfd4fc391f031ea29bfc9d91,PennController,84,0,calibrator_phys_feedback,NULL,Selector,Selection,Selection,psychological,1743442441632,undefined,1320,mind,undefined,physical,psychological,physical,B,psychological;physical
1743443065,b6bb5cc3cfd4fc391f031ea29bfc9d91,PennController,84,0,calibrator_phys_feedback,NULL,PennController,95,_Trial_,End,1743442443638,undefined,1320,mind,undefined,physical,psychological,physical,B,NULL
1743443065,b6bb5cc3cfd4fc391f031ea29bfc9d91,PennController,91,0,calibrator_phys_feedback,NULL,PennController,102,_Trial_,Start,1743442443639,undefined,1145,stone,undefined,physical,psychological,physical,B,NULL
1743443065,b6bb5cc3cfd4fc391f031ea29bfc9d91,PennController,91,0,calibrator_phys_feedback,NULL,PennController,102,_Header_,Start,1743442443639,undefined,1145,stone,undefined,physical,psychological,physical,B,NULL
1743443065,b6bb5cc3cfd4fc391f031ea29bfc9d91,PennController,91,0,calibrator_phys_feedback,NULL,PennController,102,_Header_,End,1743442443891,undefined,1145,stone,undefined,physical,psychological,physical,B,NULL
1743443065,b6bb5cc3cfd4fc391f031ea29bfc9d91,PennController,91,0,calibrator_phys_feedback,NULL,Selector,Selection,Selection,physical,1743442445537,undefined,1145,stone,undefined,physical,psychological,physical,B,psychological;physical
1743443065,b6bb5cc3cfd4fc391f031ea29bfc9d91,PennController,91,0,calibrator_phys_feedback,NULL,PennController,102,_Trial_,End,1743442447544,undefined,1145,stone,undefined,physical,psychological,physical,B,NULL
# 16. Key_value_F.
# 17. Key_value_J.
# 18. Group.
# 19. Comments.
1743443065,b6bb5cc3cfd4fc391f031ea29bfc9d91,PennController,96,0,calibrator_phys_no_feedback,NULL,PennController,107,_Trial_,Start,1743442447545,undefined,1288,fear,psychological,physical,B,NULL
1743443065,b6bb5cc3cfd4fc391f031ea29bfc9d91,PennController,96,0,calibrator_phys_no_feedback,NULL,PennController,107,_Header_,Start,1743442447545,undefined,1288,fear,psychological,physical,B,NULL
1743443065,b6bb5cc3cfd4fc391f031ea29bfc9d91,PennController,96,0,calibrator_phys_no_feedback,NULL,PennController,107,_Header_,End,1743442447799,undefined,1288,fear,psychological,physical,B,NULL
1743443065,b6bb5cc3cfd4fc391f031ea29bfc9d91,PennController,96,0,calibrator_phys_no_feedback,NULL,Selector,unnamed-Selector,Selection,psychological,1743442449592,undefined,1288,fear,psychological,physical,B,psychological;physical
1743443065,b6bb5cc3cfd4fc391f031ea29bfc9d91,PennController,96,0,calibrator_phys_no_feedback,NULL,PennController,107,_Trial_,End,1743442449593,undefined,1288,fear,psychological,physical,B,NULL
1743443065,b6bb5cc3cfd4fc391f031ea29bfc9d91,PennController,99,0,calibrator_phys_no_feedback,NULL,PennController,110,_Trial_,Start,1743442449594,undefined,1401,body,psychological,physical,B,NULL
1743443065,b6bb5cc3cfd4fc391f031ea29bfc9d91,PennController,99,0,calibrator_phys_no_feedback,NULL,PennController,110,_Header_,Start,1743442449594,undefined,1401,body,psychological,physical,B,NULL
1743443065,b6bb5cc3cfd4fc391f031ea29bfc9d91,PennController,99,0,calibrator_phys_no_feedback,NULL,PennController,110,_Header_,End,1743442449847,undefined,1401,body,psychological,physical,B,NULL
1743443065,b6bb5cc3cfd4fc391f031ea29bfc9d91,PennController,99,0,calibrator_phys_no_feedback,NULL,Selector,unnamed-Selector,Selection,physical,1743442451750,undefined,1401,body,psychological,physical,B,psychological;physical
1743443065,b6bb5cc3cfd4fc391f031ea29bfc9d91,PennController,99,0,calibrator_phys_no_feedback,NULL,PennController,110,_Trial_,End,1743442451751,undefined,1401,body,psychological,physical,B,NULL
1743443065,b6bb5cc3cfd4fc391f031ea29bfc9d91,PennController,94,0,calibrator_phys_no_feedback,NULL,PennController,105,_Trial_,Start,1743442451752,undefined,1108,mind,psychological,physical,B,NULL
1743443065,b6bb5cc3cfd4fc391f031ea29bfc9d91,PennController,94,0,calibrator_phys_no_feedback,NULL,PennController,105,_Header_,Start,1743442451752,undefined,1108,mind,psychological,physical,B,NULL
1743443065,b6bb5cc3cfd4fc391f031ea29bfc9d91,PennController,94,0,calibrator_phys_no_feedback,NULL,PennController,105,_Header_,End,1743442452002,undefined,1108,mind,psychological,physical,B,NULL
1743443065,b6bb5cc3cfd4fc391f031ea29bfc9d91,PennController,94,0,calibrator_phys_no_feedback,NULL,Selector,unnamed-Selector,Selection,psychological,1743442453611,undefined,1108,mind,psychological,physical,B,psychological;physical
1743443065,b6bb5cc3cfd4fc391f031ea29bfc9d91,PennController,94,0,calibrator_phys_no_feedback,NULL,PennController,105,_Trial_,End,1743442453612,undefined,1108,mind,psychological,physical,B,NULL
1743443065,b6bb5cc3cfd4fc391f031ea29bfc9d91,PennController,101,0,calibrator_phys_no_feedback,NULL,PennController,112,_Trial_,Start,1743442453613,undefined,846,stone,psychological,physical,B,NULL
1743443065,b6bb5cc3cfd4fc391f031ea29bfc9d91,PennController,101,0,calibrator_phys_no_feedback,NULL,PennController,112,_Header_,Start,1743442453613,undefined,846,stone,psychological,physical,B,NULL
1743443065,b6bb5cc3cfd4fc391f031ea29bfc9d91,PennController,101,0,calibrator_phys_no_feedback,NULL,PennController,112,_Header_,End,1743442453864,undefined,846,stone,psychological,physical,B,NULL
1743443065,b6bb5cc3cfd4fc391f031ea29bfc9d91,PennController,101,0,calibrator_phys_no_feedback,NULL,Selector,unnamed-Selector,Selection,physical,1743442455211,undefined,846,stone,psychological,physical,B,psychological;physical
1743443065,b6bb5cc3cfd4fc391f031ea29bfc9d91,PennController,101,0,calibrator_phys_no_feedback,NULL,PennController,112,_Trial_,End,1743442455212,undefined,846,stone,psychological,physical,B,NULL
1743443065,b6bb5cc3cfd4fc391f031ea29bfc9d91,PennController,98,0,calibrator_phys_no_feedback,NULL,PennController,109,_Trial_,Start,1743442455213,undefined,679,mood,psychological,physical,B,NULL
1743443065,b6bb5cc3cfd4fc391f031ea29bfc9d91,PennController,98,0,calibrator_phys_no_feedback,NULL,PennController,109,_Header_,Start,1743442455213,undefined,679,mood,psychological,physical,B,NULL
1743443065,b6bb5cc3cfd4fc391f031ea29bfc9d91,PennController,98,0,calibrator_phys_no_feedback,NULL,PennController,109,_Header_,End,1743442455466,undefined,679,mood,psychological,physical,B,NULL
1743443065,b6bb5cc3cfd4fc391f031ea29bfc9d91,PennController,98,0,calibrator_phys_no_feedback,NULL,Selector,unnamed-Selector,Selection,psychological,1743442456648,undefined,679,mood,psychological,physical,B,psychological;physical
1743443065,b6bb5cc3cfd4fc391f031ea29bfc9d91,PennController,98,0,calibrator_phys_no_feedback,NULL,PennController,109,_Trial_,End,1743442456649,undefined,679,mood,psychological,physical,B,NULL
1743443065,b6bb5cc3cfd4fc391f031ea29bfc9d91,PennController,102,0,calibrator_phys_no_feedback,NULL,PennController,113,_Trial_,Start,1743442456650,undefined,942,water,psychological,physical,B,NULL
1743443065,b6bb5cc3cfd4fc391f031ea29bfc9d91,PennController,102,0,calibrator_phys_no_feedback,NULL,PennController,113,_Header_,Start,1743442456650,undefined,942,water,psychological,physical,B,NULL
1743443065,b6bb5cc3cfd4fc391f031ea29bfc9d91,PennController,102,0,calibrator_phys_no_feedback,NULL,PennController,113,_Header_,End,1743442456901,undefined,942,water,psychological,physical,B,NULL
1743443065,b6bb5cc3cfd4fc391f031ea29bfc9d91,PennController,102,0,calibrator_phys_no_feedback,NULL,Selector,unnamed-Selector,Selection,physical,1743442458345,undefined,942,water,psychological,physical,B,psychological;physical
1743443065,b6bb5cc3cfd4fc391f031ea29bfc9d91,PennController,102,0,calibrator_phys_no_feedback,NULL,PennController,113,_Trial_,End,1743442458345,undefined,942,water,psychological,physical,B,NULL
1743443065,b6bb5cc3cfd4fc391f031ea29bfc9d91,PennController,103,0,calibrator_phys_no_feedback,NULL,PennController,114,_Trial_,Start,1743442458345,undefined,719,hand,psychological,physical,B,NULL
1743443065,b6bb5cc3cfd4fc391f031ea29bfc9d91,PennController,103,0,calibrator_phys_no_feedback,NULL,PennController,114,_Header_,Start,1743442458345,undefined,719,hand,psychological,physical,B,NULL
1743443065,b6bb5cc3cfd4fc391f031ea29bfc9d91,PennController,103,0,calibrator_phys_no_feedback,NULL,PennController,114,_Header_,End,1743442458597,undefined,719,hand,psychological,physical,B,NULL
1743443065,b6bb5cc3cfd4fc391f031ea29bfc9d91,PennController,103,0,calibrator_phys_no_feedback,NULL,Selector,unnamed-Selector,Selection,physical,1743442459822,undefined,719,hand,psychological,physical,B,psychological;physical
1743443065,b6bb5cc3cfd4fc391f031ea29bfc9d91,PennController,103,0,calibrator_phys_no_feedback,NULL,PennController,114,_Trial_,End,1743442459823,undefined,719,hand,psychological,physical,B,NULL
1743443065,b6bb5cc3cfd4fc391f031ea29bfc9d91,PennController,97,0,calibrator_phys_no_feedback,NULL,PennController,108,_Trial_,Start,1743442459824,undefined,963,memory,psychological,physical,B,NULL
1743443065,b6bb5cc3cfd4fc391f031ea29bfc9d91,PennController,97,0,calibrator_phys_no_feedback,NULL,PennController,108,_Header_,Start,1743442459824,undefined,963,memory,psychological,physical,B,NULL
1743443065,b6bb5cc3cfd4fc391f031ea29bfc9d91,PennController,97,0,calibrator_phys_no_feedback,NULL,PennController,108,_Header_,End,1743442460075,undefined,963,memory,psychological,physical,B,NULL
1743443065,b6bb5cc3cfd4fc391f031ea29bfc9d91,PennController,97,0,calibrator_phys_no_feedback,NULL,Selector,unnamed-Selector,Selection,psychological,1743442461541,undefined,963,memory,psychological,physical,B,psychological;physical
1743443065,b6bb5cc3cfd4fc391f031ea29bfc9d91,PennController,97,0,calibrator_phys_no_feedback,NULL,PennController,108,_Trial_,End,1743442461542,undefined,963,memory,psychological,physical,B,NULL
1743443065,b6bb5cc3cfd4fc391f031ea29bfc9d91,PennController,100,0,calibrator_phys_no_feedback,NULL,PennController,111,_Trial_,Start,1743442461543,undefined,1182,heat,psychological,physical,B,NULL
1743443065,b6bb5cc3cfd4fc391f031ea29bfc9d91,PennController,100,0,calibrator_phys_no_feedback,NULL,PennController,111,_Header_,Start,1743442461543,undefined,1182,heat,psychological,physical,B,NULL
1743443065,b6bb5cc3cfd4fc391f031ea29bfc9d91,PennController,100,0,calibrator_phys_no_feedback,NULL,PennController,111,_Header_,End,1743442461795,undefined,1182,heat,psychological,physical,B,NULL
1743443065,b6bb5cc3cfd4fc391f031ea29bfc9d91,PennController,100,0,calibrator_phys_no_feedback,NULL,Selector,unnamed-Selector,Selection,physical,1743442463479,undefined,1182,heat,psychological,physical,B,psychological;physical
1743443065,b6bb5cc3cfd4fc391f031ea29bfc9d91,PennController,100,0,calibrator_phys_no_feedback,NULL,PennController,111,_Trial_,End,1743442463480,undefined,1182,heat,psychological,physical,B,NULL
1743443065,b6bb5cc3cfd4fc391f031ea29bfc9d91,PennController,95,0,calibrator_phys_no_feedback,NULL,PennController,106,_Trial_,Start,1743442463481,undefined,790,dream,psychological,physical,B,NULL
1743443065,b6bb5cc3cfd4fc391f031ea29bfc9d91,PennController,95,0,calibrator_phys_no_feedback,NULL,PennController,106,_Header_,Start,1743442463481,undefined,790,dream,psychological,physical,B,NULL
1743443065,b6bb5cc3cfd4fc391f031ea29bfc9d91,PennController,95,0,calibrator_phys_no_feedback,NULL,PennController,106,_Header_,End,1743442463734,undefined,790,dream,psychological,physical,B,NULL
1743443065,b6bb5cc3cfd4fc391f031ea29bfc9d91,PennController,95,0,calibrator_phys_no_feedback,NULL,Selector,unnamed-Selector,Selection,psychological,1743442465030,undefined,790,dream,psychological,physical,B,psychological;physical
1743443065,b6bb5cc3cfd4fc391f031ea29bfc9d91,PennController,95,0,calibrator_phys_no_feedback,NULL,PennController,106,_Trial_,End,1743442465031,undefined,790,dream,psychological,physical,B,NULL
1743443065,b6bb5cc3cfd4fc391f031ea29bfc9d91,PennController,7,0,test_physpsych,NULL,PennController,18,_Trial_,Start,1743442465032,undefined,1127,caress,psychological,physical,B,NULL
1743443065,b6bb5cc3cfd4fc391f031ea29bfc9d91,PennController,7,0,test_physpsych,NULL,PennController,18,_Header_,Start,1743442465032,undefined,1127,caress,psychological,physical,B,NULL
1743443065,b6bb5cc3cfd4fc391f031ea29bfc9d91,PennController,7,0,test_physpsych,NULL,PennController,18,_Header_,End,1743442465282,undefined,1127,caress,psychological,physical,B,NULL
1743443065,b6bb5cc3cfd4fc391f031ea29bfc9d91,PennController,7,0,test_physpsych,NULL,Selector,unnamed-Selector,Selection,psychological,1743442466912,undefined,1127,caress,psychological,physical,B,psychological;physical
1743443065,b6bb5cc3cfd4fc391f031ea29bfc9d91,PennController,7,0,test_physpsych,NULL,PennController,18,_Trial_,End,1743442466913,undefined,1127,caress,psychological,physical,B,NULL
1743443065,b6bb5cc3cfd4fc391f031ea29bfc9d91,PennController,38,0,test_physpsych,NULL,PennController,49,_Trial_,Start,1743442466914,undefined,1437,dishonor,psychological,physical,B,NULL
1743443065,b6bb5cc3cfd4fc391f031ea29bfc9d91,PennController,38,0,test_physpsych,NULL,PennController,49,_Header_,Start,1743442466914,undefined,1437,dishonor,psychological,physical,B,NULL
1743443065,b6bb5cc3cfd4fc391f031ea29bfc9d91,PennController,38,0,test_physpsych,NULL,PennController,49,_Header_,End,1743442467165,undefined,1437,dishonor,psychological,physical,B,NULL
1743443065,b6bb5cc3cfd4fc391f031ea29bfc9d91,PennController,38,0,test_physpsych,NULL,Selector,unnamed-Selector,Selection,psychological,1743442469107,undefined,1437,dishonor,psychological,physical,B,psychological;physical
1743443065,b6bb5cc3cfd4fc391f031ea29bfc9d91,PennController,38,0,test_physpsych,NULL,PennController,49,_Trial_,End,1743442469108,undefined,1437,dishonor,psychological,physical,B,NULL
1743443065,b6bb5cc3cfd4fc391f031ea29bfc9d91,PennController,43,0,test_physpsych,NULL,PennController,54,_Trial_,Start,1743442469109,undefined,1742,dread,psychological,physical,B,NULL
1743443065,b6bb5cc3cfd4fc391f031ea29bfc9d91,PennController,43,0,test_physpsych,NULL,PennController,54,_Header_,Start,1743442469109,undefined,1742,dread,psychological,physical,B,NULL
1743443065,b6bb5cc3cfd4fc391f031ea29bfc9d91,PennController,43,0,test_physpsych,NULL,PennController,54,_Header_,End,1743442469360,undefined,1742,dread,psychological,physical,B,NULL
1743443065,b6bb5cc3cfd4fc391f031ea29bfc9d91,PennController,43,0,test_physpsych,NULL,Selector,unnamed-Selector,Selection,psychological,1743442471606,undefined,1742,dread,psychological,physical,B,psychological;physical
1743443065,b6bb5cc3cfd4fc391f031ea29bfc9d91,PennController,43,0,test_physpsych,NULL,PennController,54,_Trial_,End,1743442471607,undefined,1742,dread,psychological,physical,B,NULL
1743443065,b6bb5cc3cfd4fc391f031ea29bfc9d91,PennController,36,0,test_physpsych,NULL,PennController,47,_Trial_,Start,1743442471608,undefined,1191,irritate,psychological,physical,B,NULL
1743443065,b6bb5cc3cfd4fc391f031ea29bfc9d91,PennController,36,0,test_physpsych,NULL,PennController,47,_Header_,Start,1743442471608,undefined,1191,irritate,psychological,physical,B,NULL
1743443065,b6bb5cc3cfd4fc391f031ea29bfc9d91,PennController,36,0,test_physpsych,NULL,PennController,47,_Header_,End,1743442471861,undefined,1191,irritate,psychological,physical,B,NULL
1743443065,b6bb5cc3cfd4fc391f031ea29bfc9d91,PennController,36,0,test_physpsych,NULL,Selector,unnamed-Selector,Selection,psychological,1743442473553,undefined,1191,irritate,psychological,physical,B,psychological;physical
1743443065,b6bb5cc3cfd4fc391f031ea29bfc9d91,PennController,36,0,test_physpsych,NULL,PennController,47,_Trial_,End,1743442473554,undefined,1191,irritate,psychological,physical,B,NULL
1743443065,b6bb5cc3cfd4fc391f031ea29bfc9d91,PennController,5,0,test_physpsych,NULL,PennController,16,_Trial_,Start,1743442473555,undefined,1663,build,psychological,physical,B,NULL
1743443065,b6bb5cc3cfd4fc391f031ea29bfc9d91,PennController,5,0,test_physpsych,NULL,PennController,16,_Header_,Start,1743442473555,undefined,1663,build,psychological,physical,B,NULL
1743443065,b6bb5cc3cfd4fc391f031ea29bfc9d91,PennController,5,0,test_physpsych,NULL,PennController,16,_Header_,End,1743442473807,undefined,1663,build,psychological,physical,B,NULL
1743443065,b6bb5cc3cfd4fc391f031ea29bfc9d91,PennController,5,0,test_physpsych,NULL,Selector,unnamed-Selector,Selection,physical,1743442475971,undefined,1663,build,psychological,physical,B,psychological;physical
1743443065,b6bb5cc3cfd4fc391f031ea29bfc9d91,PennController,5,0,test_physpsych,NULL,PennController,16,_Trial_,End,1743442475972,undefined,1663,build,psychological,physical,B,NULL
1743443065,b6bb5cc3cfd4fc391f031ea29bfc9d91,PennController,18,0,test_physpsych,NULL,PennController,29,_Trial_,Start,1743442475973,undefined,1326,like,psychological,physical,B,NULL
1743443065,b6bb5cc3cfd4fc391f031ea29bfc9d91,PennController,18,0,test_physpsych,NULL,PennController,29,_Header_,Start,1743442475973,undefined,1326,like,psychological,physical,B,NULL
1743443065,b6bb5cc3cfd4fc391f031ea29bfc9d91,PennController,18,0,test_physpsych,NULL,PennController,29,_Header_,End,1743442476226,undefined,1326,like,psychological,physical,B,NULL
1743443065,b6bb5cc3cfd4fc391f031ea29bfc9d91,PennController,18,0,test_physpsych,NULL,Selector,unnamed-Selector,Selection,psychological,1743442478058,undefined,1326,like,psychological,physical,B,psychological;physical
1743443065,b6bb5cc3cfd4fc391f031ea29bfc9d91,PennController,18,0,test_physpsych,NULL,PennController,29,_Trial_,End,1743442478059,undefined,1326,like,psychological,physical,B,NULL
1743443065,b6bb5cc3cfd4fc391f031ea29bfc9d91,PennController,30,0,test_physpsych,NULL,PennController,41,_Trial_,Start,1743442478060,undefined,1735,hit,psychological,physical,B,NULL
1743443065,b6bb5cc3cfd4fc391f031ea29bfc9d91,PennController,30,0,test_physpsych,NULL,PennController,41,_Header_,Start,1743442478060,undefined,1735,hit,psychological,physical,B,NULL
1743443065,b6bb5cc3cfd4fc391f031ea29bfc9d91,PennController,30,0,test_physpsych,NULL,PennController,41,_Header_,End,1743442478313,undefined,1735,hit,psychological,physical,B,NULL
1743443065,b6bb5cc3cfd4fc391f031ea29bfc9d91,PennController,30,0,test_physpsych,NULL,Selector,unnamed-Selector,Selection,psychological,1743442480552,undefined,1735,hit,psychological,physical,B,psychological;physical
1743443065,b6bb5cc3cfd4fc391f031ea29bfc9d91,PennController,30,0,test_physpsych,NULL,PennController,41,_Trial_,End,1743442480553,undefined,1735,hit,psychological,physical,B,NULL
1743443065,b6bb5cc3cfd4fc391f031ea29bfc9d91,PennController,16,0,test_physpsych,NULL,PennController,27,_Trial_,Start,1743442480554,undefined,1960,appreciate,psychological,physical,B,NULL
1743443065,b6bb5cc3cfd4fc391f031ea29bfc9d91,PennController,16,0,test_physpsych,NULL,PennController,27,_Header_,Start,1743442480554,undefined,1960,appreciate,psychological,physical,B,NULL
1743443065,b6bb5cc3cfd4fc391f031ea29bfc9d91,PennController,16,0,test_physpsych,NULL,PennController,27,_Header_,End,1743442480807,undefined,1960,appreciate,psychological,physical,B,NULL
1743443065,b6bb5cc3cfd4fc391f031ea29bfc9d91,PennController,16,0,test_physpsych,NULL,Selector,unnamed-Selector,Selection,psychological,1743442483273,undefined,1960,appreciate,psychological,physical,B,psychological;physical
1743443065,b6bb5cc3cfd4fc391f031ea29bfc9d91,PennController,16,0,test_physpsych,NULL,PennController,27,_Trial_,End,1743442483274,undefined,1960,appreciate,psychological,physical,B,NULL
1743443065,b6bb5cc3cfd4fc391f031ea29bfc9d91,PennController,29,0,test_physpsych,NULL,PennController,40,_Trial_,Start,1743442483275,undefined,1441,burn,psychological,physical,B,NULL
1743443065,b6bb5cc3cfd4fc391f031ea29bfc9d91,PennController,29,0,test_physpsych,NULL,PennController,40,_Header_,Start,1743442483275,undefined,1441,burn,psychological,physical,B,NULL
1743443065,b6bb5cc3cfd4fc391f031ea29bfc9d91,PennController,29,0,test_physpsych,NULL,PennController,40,_Header_,End,1743442483529,undefined,1441,burn,psychological,physical,B,NULL
1743443065,b6bb5cc3cfd4fc391f031ea29bfc9d91,PennController,29,0,test_physpsych,NULL,Selector,unnamed-Selector,Selection,physical,1743442485475,undefined,1441,burn,psychological,physical,B,psychological;physical
1743443065,b6bb5cc3cfd4fc391f031ea29bfc9d91,PennController,29,0,test_physpsych,NULL,PennController,40,_Trial_,End,1743442485476,undefined,1441,burn,psychological,physical,B,NULL
1743443065,b6bb5cc3cfd4fc391f031ea29bfc9d91,PennController,31,0,test_physpsych,NULL,PennController,42,_Trial_,Start,1743442485476,undefined,1179,stain,psychological,physical,B,NULL
1743443065,b6bb5cc3cfd4fc391f031ea29bfc9d91,PennController,31,0,test_physpsych,NULL,PennController,42,_Header_,Start,1743442485476,undefined,1179,stain,psychological,physical,B,NULL
1743443065,b6bb5cc3cfd4fc391f031ea29bfc9d91,PennController,31,0,test_physpsych,NULL,PennController,42,_Header_,End,1743442485730,undefined,1179,stain,psychological,physical,B,NULL
1743443065,b6bb5cc3cfd4fc391f031ea29bfc9d91,PennController,31,0,test_physpsych,NULL,Selector,unnamed-Selector,Selection,physical,1743442487415,undefined,1179,stain,psychological,physical,B,psychological;physical
1743443065,b6bb5cc3cfd4fc391f031ea29bfc9d91,PennController,31,0,test_physpsych,NULL,PennController,42,_Trial_,End,1743442487416,undefined,1179,stain,psychological,physical,B,NULL
1743443065,b6bb5cc3cfd4fc391f031ea29bfc9d91,PennController,41,0,test_physpsych,NULL,PennController,52,_Trial_,Start,1743442487417,undefined,1164,dismay,psychological,physical,B,NULL
1743443065,b6bb5cc3cfd4fc391f031ea29bfc9d91,PennController,41,0,test_physpsych,NULL,PennController,52,_Header_,Start,1743442487417,undefined,1164,dismay,psychological,physical,B,NULL
1743443065,b6bb5cc3cfd4fc391f031ea29bfc9d91,PennController,41,0,test_physpsych,NULL,PennController,52,_Header_,End,1743442487669,undefined,1164,dismay,psychological,physical,B,NULL
1743443065,b6bb5cc3cfd4fc391f031ea29bfc9d91,PennController,41,0,test_physpsych,NULL,Selector,unnamed-Selector,Selection,psychological,1743442489337,undefined,1164,dismay,psychological,physical,B,psychological;physical
1743443065,b6bb5cc3cfd4fc391f031ea29bfc9d91,PennController,41,0,test_physpsych,NULL,PennController,52,_Trial_,End,1743442489338,undefined,1164,dismay,psychological,physical,B,NULL
1743443065,b6bb5cc3cfd4fc391f031ea29bfc9d91,PennController,12,0,test_physpsych,NULL,PennController,23,_Trial_,Start,1743442489339,undefined,1728,decorate,psychological,physical,B,NULL
1743443065,b6bb5cc3cfd4fc391f031ea29bfc9d91,PennController,12,0,test_physpsych,NULL,PennController,23,_Header_,Start,1743442489339,undefined,1728,decorate,psychological,physical,B,NULL
1743443065,b6bb5cc3cfd4fc391f031ea29bfc9d91,PennController,12,0,test_physpsych,NULL,PennController,23,_Header_,End,1743442489589,undefined,1728,decorate,psychological,physical,B,NULL
1743443065,b6bb5cc3cfd4fc391f031ea29bfc9d91,PennController,12,0,test_physpsych,NULL,Selector,unnamed-Selector,Selection,physical,1743442491821,undefined,1728,decorate,psychological,physical,B,psychological;physical
1743443065,b6bb5cc3cfd4fc391f031ea29bfc9d91,PennController,12,0,test_physpsych,NULL,PennController,23,_Trial_,End,1743442491822,undefined,1728,decorate,psychological,physical,B,NULL
1743443065,b6bb5cc3cfd4fc391f031ea29bfc9d91,PennController,39,0,test_physpsych,NULL,PennController,50,_Trial_,Start,1743442491823,undefined,2862,embarrass,psychological,physical,B,NULL
1743443065,b6bb5cc3cfd4fc391f031ea29bfc9d91,PennController,39,0,test_physpsych,NULL,PennController,50,_Header_,Start,1743442491823,undefined,2862,embarrass,psychological,physical,B,NULL
1743443065,b6bb5cc3cfd4fc391f031ea29bfc9d91,PennController,39,0,test_physpsych,NULL,PennController,50,_Header_,End,1743442492074,undefined,2862,embarrass,psychological,physical,B,NULL
1743443065,b6bb5cc3cfd4fc391f031ea29bfc9d91,PennController,39,0,test_physpsych,NULL,Selector,unnamed-Selector,Selection,physical,1743442495440,undefined,2862,embarrass,psychological,physical,B,psychological;physical
1743443065,b6bb5cc3cfd4fc391f031ea29bfc9d91,PennController,39,0,test_physpsych,NULL,PennController,50,_Trial_,End,1743442495441,undefined,2862,embarrass,psychological,physical,B,NULL
1743443065,b6bb5cc3cfd4fc391f031ea29bfc9d91,PennController,17,0,test_physpsych,NULL,PennController,28,_Trial_,Start,1743442495442,undefined,1622,impress,psychological,physical,B,NULL
1743443065,b6bb5cc3cfd4fc391f031ea29bfc9d91,PennController,17,0,test_physpsych,NULL,PennController,28,_Header_,Start,1743442495442,undefined,1622,impress,psychological,physical,B,NULL
1743443065,b6bb5cc3cfd4fc391f031ea29bfc9d91,PennController,17,0,test_physpsych,NULL,PennController,28,_Header_,End,1743442495694,undefined,1622,impress,psychological,physical,B,NULL
1743443065,b6bb5cc3cfd4fc391f031ea29bfc9d91,PennController,17,0,test_physpsych,NULL,Selector,unnamed-Selector,Selection,physical,1743442497819,undefined,1622,impress,psychological,physical,B,psychological;physical
1743443065,b6bb5cc3cfd4fc391f031ea29bfc9d91,PennController,17,0,test_physpsych,NULL,PennController,28,_Trial_,End,1743442497821,undefined,1622,impress,psychological,physical,B,NULL
1743443065,b6bb5cc3cfd4fc391f031ea29bfc9d91,PennController,9,0,test_physpsych,NULL,PennController,20,_Trial_,Start,1743442497822,undefined,1812,produce,psychological,physical,B,NULL
1743443065,b6bb5cc3cfd4fc391f031ea29bfc9d91,PennController,9,0,test_physpsych,NULL,PennController,20,_Header_,Start,1743442497822,undefined,1812,produce,psychological,physical,B,NULL
1743443065,b6bb5cc3cfd4fc391f031ea29bfc9d91,PennController,9,0,test_physpsych,NULL,PennController,20,_Header_,End,1743442498073,undefined,1812,produce,psychological,physical,B,NULL
1743443065,b6bb5cc3cfd4fc391f031ea29bfc9d91,PennController,9,0,test_physpsych,NULL,Selector,unnamed-Selector,Selection,physical,1743442500388,undefined,1812,produce,psychological,physical,B,psychological;physical
1743443065,b6bb5cc3cfd4fc391f031ea29bfc9d91,PennController,9,0,test_physpsych,NULL,PennController,20,_Trial_,End,1743442500389,undefined,1812,produce,psychological,physical,B,NULL
1743443065,b6bb5cc3cfd4fc391f031ea29bfc9d91,PennController,26,0,test_physpsych,NULL,PennController,37,_Trial_,Start,1743442500390,undefined,1126,slash,psychological,physical,B,NULL
1743443065,b6bb5cc3cfd4fc391f031ea29bfc9d91,PennController,26,0,test_physpsych,NULL,PennController,37,_Header_,Start,1743442500390,undefined,1126,slash,psychological,physical,B,NULL
1743443065,b6bb5cc3cfd4fc391f031ea29bfc9d91,PennController,26,0,test_physpsych,NULL,PennController,37,_Header_,End,1743442500643,undefined,1126,slash,psychological,physical,B,NULL
1743443065,b6bb5cc3cfd4fc391f031ea29bfc9d91,PennController,26,0,test_physpsych,NULL,Selector,unnamed-Selector,Selection,physical,1743442502272,undefined,1126,slash,psychological,physical,B,psychological;physical
1743443065,b6bb5cc3cfd4fc391f031ea29bfc9d91,PennController,26,0,test_physpsych,NULL,PennController,37,_Trial_,End,1743442502273,undefined,1126,slash,psychological,physical,B,NULL
1743443065,b6bb5cc3cfd4fc391f031ea29bfc9d91,PennController,15,0,test_physpsych,NULL,PennController,26,_Trial_,Start,1743442502274,undefined,2615,encourage,psychological,physical,B,NULL
1743443065,b6bb5cc3cfd4fc391f031ea29bfc9d91,PennController,15,0,test_physpsych,NULL,PennController,26,_Header_,Start,1743442502274,undefined,2615,encourage,psychological,physical,B,NULL
1743443065,b6bb5cc3cfd4fc391f031ea29bfc9d91,PennController,15,0,test_physpsych,NULL,PennController,26,_Header_,End,1743442502528,undefined,2615,encourage,psychological,physical,B,NULL
1743443065,b6bb5cc3cfd4fc391f031ea29bfc9d91,PennController,15,0,test_physpsych,NULL,Selector,unnamed-Selector,Selection,psychological,1743442505647,undefined,2615,encourage,psychological,physical,B,psychological;physical
1743443065,b6bb5cc3cfd4fc391f031ea29bfc9d91,PennController,15,0,test_physpsych,NULL,PennController,26,_Trial_,End,1743442505648,undefined,2615,encourage,psychological,physical,B,NULL
1743443065,b6bb5cc3cfd4fc391f031ea29bfc9d91,PennController,24,0,test_physpsych,NULL,PennController,35,_Trial_,Start,1743442505649,undefined,1381,rust,psychological,physical,B,NULL
1743443065,b6bb5cc3cfd4fc391f031ea29bfc9d91,PennController,24,0,test_physpsych,NULL,PennController,35,_Header_,Start,1743442505649,undefined,1381,rust,psychological,physical,B,NULL
1743443065,b6bb5cc3cfd4fc391f031ea29bfc9d91,PennController,24,0,test_physpsych,NULL,PennController,35,_Header_,End,1743442505901,undefined,1381,rust,psychological,physical,B,NULL
1743443065,b6bb5cc3cfd4fc391f031ea29bfc9d91,PennController,24,0,test_physpsych,NULL,Selector,unnamed-Selector,Selection,physical,1743442507785,undefined,1381,rust,psychological,physical,B,psychological;physical
1743443065,b6bb5cc3cfd4fc391f031ea29bfc9d91,PennController,24,0,test_physpsych,NULL,PennController,35,_Trial_,End,1743442507786,undefined,1381,rust,psychological,physical,B,NULL
1743443065,b6bb5cc3cfd4fc391f031ea29bfc9d91,PennController,34,0,test_physpsych,NULL,PennController,45,_Trial_,Start,1743442507787,undefined,2618,offend,psychological,physical,B,NULL
1743443065,b6bb5cc3cfd4fc391f031ea29bfc9d91,PennController,34,0,test_physpsych,NULL,PennController,45,_Header_,Start,1743442507787,undefined,2618,offend,psychological,physical,B,NULL
1743443065,b6bb5cc3cfd4fc391f031ea29bfc9d91,PennController,34,0,test_physpsych,NULL,PennController,45,_Header_,End,1743442508041,undefined,2618,offend,psychological,physical,B,NULL
1743443065,b6bb5cc3cfd4fc391f031ea29bfc9d91,PennController,34,0,test_physpsych,NULL,Selector,unnamed-Selector,Selection,psychological,1743442511163,undefined,2618,offend,psychological,physical,B,psychological;physical
1743443065,b6bb5cc3cfd4fc391f031ea29bfc9d91,PennController,34,0,test_physpsych,NULL,PennController,45,_Trial_,End,1743442511164,undefined,2618,offend,psychological,physical,B,NULL
1743443065,b6bb5cc3cfd4fc391f031ea29bfc9d91,PennController,14,0,test_physpsych,NULL,PennController,25,_Trial_,Start,1743442511165,undefined,1387,content,psychological,physical,B,NULL
1743443065,b6bb5cc3cfd4fc391f031ea29bfc9d91,PennController,14,0,test_physpsych,NULL,PennController,25,_Header_,Start,1743442511165,undefined,1387,content,psychological,physical,B,NULL
1743443065,b6bb5cc3cfd4fc391f031ea29bfc9d91,PennController,14,0,test_physpsych,NULL,PennController,25,_Header_,End,1743442511416,undefined,1387,content,psychological,physical,B,NULL
1743443065,b6bb5cc3cfd4fc391f031ea29bfc9d91,PennController,14,0,test_physpsych,NULL,Selector,unnamed-Selector,Selection,psychological,1743442513307,undefined,1387,content,psychological,physical,B,psychological;physical
1743443065,b6bb5cc3cfd4fc391f031ea29bfc9d91,PennController,14,0,test_physpsych,NULL,PennController,25,_Trial_,End,1743442513308,undefined,1387,content,psychological,physical,B,NULL
1743443065,b6bb5cc3cfd4fc391f031ea29bfc9d91,PennController,19,0,test_physpsych,NULL,PennController,30,_Trial_,Start,1743442513309,undefined,857,reassure,psychological,physical,B,NULL
1743443065,b6bb5cc3cfd4fc391f031ea29bfc9d91,PennController,19,0,test_physpsych,NULL,PennController,30,_Header_,Start,1743442513309,undefined,857,reassure,psychological,physical,B,NULL
1743443065,b6bb5cc3cfd4fc391f031ea29bfc9d91,PennController,19,0,test_physpsych,NULL,PennController,30,_Header_,End,1743442513562,undefined,857,reassure,psychological,physical,B,NULL
1743443065,b6bb5cc3cfd4fc391f031ea29bfc9d91,PennController,19,0,test_physpsych,NULL,Selector,unnamed-Selector,Selection,psychological,1743442514920,undefined,857,reassure,psychological,physical,B,psychological;physical
1743443065,b6bb5cc3cfd4fc391f031ea29bfc9d91,PennController,19,0,test_physpsych,NULL,PennController,30,_Trial_,End,1743442514921,undefined,857,reassure,psychological,physical,B,NULL
1743443065,b6bb5cc3cfd4fc391f031ea29bfc9d91,PennController,8,0,test_physpsych,NULL,PennController,19,_Trial_,Start,1743442514922,undefined,1260,hug,psychological,physical,B,NULL
1743443065,b6bb5cc3cfd4fc391f031ea29bfc9d91,PennController,8,0,test_physpsych,NULL,PennController,19,_Header_,Start,1743442514922,undefined,1260,hug,psychological,physical,B,NULL
1743443065,b6bb5cc3cfd4fc391f031ea29bfc9d91,PennController,8,0,test_physpsych,NULL,PennController,19,_Header_,End,1743442515175,undefined,1260,hug,psychological,physical,B,NULL
1743443065,b6bb5cc3cfd4fc391f031ea29bfc9d91,PennController,8,0,test_physpsych,NULL,Selector,unnamed-Selector,Selection,physical,1743442516936,undefined,1260,hug,psychological,physical,B,psychological;physical
1743443065,b6bb5cc3cfd4fc391f031ea29bfc9d91,PennController,8,0,test_physpsych,NULL,PennController,19,_Trial_,End,1743442516937,undefined,1260,hug,psychological,physical,B,NULL
1743443065,b6bb5cc3cfd4fc391f031ea29bfc9d91,PennController,32,0,test_physpsych,NULL,PennController,43,_Trial_,Start,1743442516938,undefined,3831,delete,psychological,physical,B,NULL
1743443065,b6bb5cc3cfd4fc391f031ea29bfc9d91,PennController,32,0,test_physpsych,NULL,PennController,43,_Header_,Start,1743442516938,undefined,3831,delete,psychological,physical,B,NULL
1743443065,b6bb5cc3cfd4fc391f031ea29bfc9d91,PennController,32,0,test_physpsych,NULL,PennController,43,_Header_,End,1743442517190,undefined,3831,delete,psychological,physical,B,NULL
1743443065,b6bb5cc3cfd4fc391f031ea29bfc9d91,PennController,32,0,test_physpsych,NULL,Selector,unnamed-Selector,Selection,physical,1743442521523,undefined,3831,delete,psychological,physical,B,psychological;physical
1743443065,b6bb5cc3cfd4fc391f031ea29bfc9d91,PennController,32,0,test_physpsych,NULL,PennController,43,_Trial_,End,1743442521525,undefined,3831,delete,psychological,physical,B,NULL
1743443065,b6bb5cc3cfd4fc391f031ea29bfc9d91,PennController,13,0,test_physpsych,NULL,PennController,24,_Trial_,Start,1743442521525,undefined,1581,clean,psychological,physical,B,NULL
1743443065,b6bb5cc3cfd4fc391f031ea29bfc9d91,PennController,13,0,test_physpsych,NULL,PennController,24,_Header_,Start,1743442521525,undefined,1581,clean,psychological,physical,B,NULL
1743443065,b6bb5cc3cfd4fc391f031ea29bfc9d91,PennController,13,0,test_physpsych,NULL,PennController,24,_Header_,End,1743442521779,undefined,1581,clean,psychological,physical,B,NULL
1743443065,b6bb5cc3cfd4fc391f031ea29bfc9d91,PennController,13,0,test_physpsych,NULL,Selector,unnamed-Selector,Selection,physical,1743442523863,undefined,1581,clean,psychological,physical,B,psychological;physical
1743443065,b6bb5cc3cfd4fc391f031ea29bfc9d91,PennController,13,0,test_physpsych,NULL,PennController,24,_Trial_,End,1743442523864,undefined,1581,clean,psychological,physical,B,NULL
1743443065,b6bb5cc3cfd4fc391f031ea29bfc9d91,PennController,22,0,test_physpsych,NULL,PennController,33,_Trial_,Start,1743442523865,undefined,919,adore,psychological,physical,B,NULL
1743443065,b6bb5cc3cfd4fc391f031ea29bfc9d91,PennController,22,0,test_physpsych,NULL,PennController,33,_Header_,Start,1743442523865,undefined,919,adore,psychological,physical,B,NULL
1743443065,b6bb5cc3cfd4fc391f031ea29bfc9d91,PennController,22,0,test_physpsych,NULL,PennController,33,_Header_,End,1743442524117,undefined,919,adore,psychological,physical,B,NULL
1743443065,b6bb5cc3cfd4fc391f031ea29bfc9d91,PennController,22,0,test_physpsych,NULL,Selector,unnamed-Selector,Selection,psychological,1743442525541,undefined,919,adore,psychological,physical,B,psychological;physical
1743443065,b6bb5cc3cfd4fc391f031ea29bfc9d91,PennController,22,0,test_physpsych,NULL,PennController,33,_Trial_,End,1743442525542,undefined,919,adore,psychological,physical,B,NULL
1743443065,b6bb5cc3cfd4fc391f031ea29bfc9d91,PennController,42,0,test_physpsych,NULL,PennController,53,_Trial_,Start,1743442525543,undefined,1362,criticize,psychological,physical,B,NULL
1743443065,b6bb5cc3cfd4fc391f031ea29bfc9d91,PennController,42,0,test_physpsych,NULL,PennController,53,_Header_,Start,1743442525543,undefined,1362,criticize,psychological,physical,B,NULL
1743443065,b6bb5cc3cfd4fc391f031ea29bfc9d91,PennController,42,0,test_physpsych,NULL,PennController,53,_Header_,End,1743442525794,undefined,1362,criticize,psychological,physical,B,NULL
1743443065,b6bb5cc3cfd4fc391f031ea29bfc9d91,PennController,42,0,test_physpsych,NULL,Selector,unnamed-Selector,Selection,psychological,1743442527658,undefined,1362,criticize,psychological,physical,B,psychological;physical
1743443065,b6bb5cc3cfd4fc391f031ea29bfc9d91,PennController,42,0,test_physpsych,NULL,PennController,53,_Trial_,End,1743442527659,undefined,1362,criticize,psychological,physical,B,NULL
1743443065,b6bb5cc3cfd4fc391f031ea29bfc9d91,PennController,27,0,test_physpsych,NULL,PennController,38,_Trial_,Start,1743442527660,undefined,1043,crash,psychological,physical,B,NULL
1743443065,b6bb5cc3cfd4fc391f031ea29bfc9d91,PennController,27,0,test_physpsych,NULL,PennController,38,_Header_,Start,1743442527660,undefined,1043,crash,psychological,physical,B,NULL
1743443065,b6bb5cc3cfd4fc391f031ea29bfc9d91,PennController,27,0,test_physpsych,NULL,PennController,38,_Header_,End,1743442527913,undefined,1043,crash,psychological,physical,B,NULL
1743443065,b6bb5cc3cfd4fc391f031ea29bfc9d91,PennController,27,0,test_physpsych,NULL,Selector,unnamed-Selector,Selection,physical,1743442529460,undefined,1043,crash,psychological,physical,B,psychological;physical
1743443065,b6bb5cc3cfd4fc391f031ea29bfc9d91,PennController,27,0,test_physpsych,NULL,PennController,38,_Trial_,End,1743442529461,undefined,1043,crash,psychological,physical,B,NULL
1743443065,b6bb5cc3cfd4fc391f031ea29bfc9d91,PennController,40,0,test_physpsych,NULL,PennController,51,_Trial_,Start,1743442529462,undefined,1071,discourage,psychological,physical,B,NULL
1743443065,b6bb5cc3cfd4fc391f031ea29bfc9d91,PennController,40,0,test_physpsych,NULL,PennController,51,_Header_,Start,1743442529462,undefined,1071,discourage,psychological,physical,B,NULL
1743443065,b6bb5cc3cfd4fc391f031ea29bfc9d91,PennController,40,0,test_physpsych,NULL,PennController,51,_Header_,End,1743442529713,undefined,1071,discourage,psychological,physical,B,NULL
1743443065,b6bb5cc3cfd4fc391f031ea29bfc9d91,PennController,40,0,test_physpsych,NULL,Selector,unnamed-Selector,Selection,psychological,1743442531286,undefined,1071,discourage,psychological,physical,B,psychological;physical
1743443065,b6bb5cc3cfd4fc391f031ea29bfc9d91,PennController,40,0,test_physpsych,NULL,PennController,51,_Trial_,End,1743442531287,undefined,1071,discourage,psychological,physical,B,NULL
1743443065,b6bb5cc3cfd4fc391f031ea29bfc9d91,PennController,6,0,test_physpsych,NULL,PennController,17,_Trial_,Start,1743442531288,undefined,910,repair,psychological,physical,B,NULL
1743443065,b6bb5cc3cfd4fc391f031ea29bfc9d91,PennController,6,0,test_physpsych,NULL,PennController,17,_Header_,Start,1743442531288,undefined,910,repair,psychological,physical,B,NULL
1743443065,b6bb5cc3cfd4fc391f031ea29bfc9d91,PennController,6,0,test_physpsych,NULL,PennController,17,_Header_,End,1743442531541,undefined,910,repair,psychological,physical,B,NULL
1743443065,b6bb5cc3cfd4fc391f031ea29bfc9d91,PennController,6,0,test_physpsych,NULL,Selector,unnamed-Selector,Selection,physical,1743442532952,undefined,910,repair,psychological,physical,B,psychological;physical
1743443065,b6bb5cc3cfd4fc391f031ea29bfc9d91,PennController,6,0,test_physpsych,NULL,PennController,17,_Trial_,End,1743442532953,undefined,910,repair,psychological,physical,B,NULL
1743443065,b6bb5cc3cfd4fc391f031ea29bfc9d91,PennController,23,0,test_physpsych,NULL,PennController,34,_Trial_,Start,1743442532954,undefined,1131,cherish,psychological,physical,B,NULL
1743443065,b6bb5cc3cfd4fc391f031ea29bfc9d91,PennController,23,0,test_physpsych,NULL,PennController,34,_Header_,Start,1743442532954,undefined,1131,cherish,psychological,physical,B,NULL
1743443065,b6bb5cc3cfd4fc391f031ea29bfc9d91,PennController,23,0,test_physpsych,NULL,PennController,34,_Header_,End,1743442533206,undefined,1131,cherish,psychological,physical,B,NULL
1743443065,b6bb5cc3cfd4fc391f031ea29bfc9d91,PennController,23,0,test_physpsych,NULL,Selector,unnamed-Selector,Selection,psychological,1743442534838,undefined,1131,cherish,psychological,physical,B,psychological;physical
1743443065,b6bb5cc3cfd4fc391f031ea29bfc9d91,PennController,23,0,test_physpsych,NULL,PennController,34,_Trial_,End,1743442534839,undefined,1131,cherish,psychological,physical,B,NULL
1743443065,b6bb5cc3cfd4fc391f031ea29bfc9d91,PennController,35,0,test_physpsych,NULL,PennController,46,_Trial_,Start,1743442534840,undefined,945,despair,psychological,physical,B,NULL
1743443065,b6bb5cc3cfd4fc391f031ea29bfc9d91,PennController,35,0,test_physpsych,NULL,PennController,46,_Header_,Start,1743442534840,undefined,945,despair,psychological,physical,B,NULL
1743443065,b6bb5cc3cfd4fc391f031ea29bfc9d91,PennController,35,0,test_physpsych,NULL,PennController,46,_Header_,End,1743442535090,undefined,945,despair,psychological,physical,B,NULL
1743443065,b6bb5cc3cfd4fc391f031ea29bfc9d91,PennController,35,0,test_physpsych,NULL,Selector,unnamed-Selector,Selection,psychological,1743442536538,undefined,945,despair,psychological,physical,B,psychological;physical
1743443065,b6bb5cc3cfd4fc391f031ea29bfc9d91,PennController,35,0,test_physpsych,NULL,PennController,46,_Trial_,End,1743442536539,undefined,945,despair,psychological,physical,B,NULL
1743443065,b6bb5cc3cfd4fc391f031ea29bfc9d91,PennController,28,0,test_physpsych,NULL,PennController,39,_Trial_,Start,1743442536541,undefined,820,tear,psychological,physical,B,NULL
1743443065,b6bb5cc3cfd4fc391f031ea29bfc9d91,PennController,28,0,test_physpsych,NULL,PennController,39,_Header_,Start,1743442536541,undefined,820,tear,psychological,physical,B,NULL
1743443065,b6bb5cc3cfd4fc391f031ea29bfc9d91,PennController,28,0,test_physpsych,NULL,PennController,39,_Header_,End,1743442536792,undefined,820,tear,psychological,physical,B,NULL
1743443065,b6bb5cc3cfd4fc391f031ea29bfc9d91,PennController,28,0,test_physpsych,NULL,Selector,unnamed-Selector,Selection,psychological,1743442538118,undefined,820,tear,psychological,physical,B,psychological;physical
1743443065,b6bb5cc3cfd4fc391f031ea29bfc9d91,PennController,28,0,test_physpsych,NULL,PennController,39,_Trial_,End,1743442538119,undefined,820,tear,psychological,physical,B,NULL
1743443065,b6bb5cc3cfd4fc391f031ea29bfc9d91,PennController,37,0,test_physpsych,NULL,PennController,48,_Trial_,Start,1743442538120,undefined,2262,displease,psychological,physical,B,NULL
1743443065,b6bb5cc3cfd4fc391f031ea29bfc9d91,PennController,37,0,test_physpsych,NULL,PennController,48,_Header_,Start,1743442538120,undefined,2262,displease,psychological,physical,B,NULL
1743443065,b6bb5cc3cfd4fc391f031ea29bfc9d91,PennController,37,0,test_physpsych,NULL,PennController,48,_Header_,End,1743442538375,undefined,2262,displease,psychological,physical,B,NULL
1743443065,b6bb5cc3cfd4fc391f031ea29bfc9d91,PennController,37,0,test_physpsych,NULL,Selector,unnamed-Selector,Selection,psychological,1743442541138,undefined,2262,displease,psychological,physical,B,psychological;physical
1743443065,b6bb5cc3cfd4fc391f031ea29bfc9d91,PennController,37,0,test_physpsych,NULL,PennController,48,_Trial_,End,1743442541140,undefined,2262,displease,psychological,physical,B,NULL
1743443065,b6bb5cc3cfd4fc391f031ea29bfc9d91,PennController,11,0,test_physpsych,NULL,PennController,22,_Trial_,Start,1743442541141,undefined,2325,twinkle,psychological,physical,B,NULL
1743443065,b6bb5cc3cfd4fc391f031ea29bfc9d91,PennController,11,0,test_physpsych,NULL,PennController,22,_Header_,Start,1743442541141,undefined,2325,twinkle,psychological,physical,B,NULL
1743443065,b6bb5cc3cfd4fc391f031ea29bfc9d91,PennController,11,0,test_physpsych,NULL,PennController,22,_Header_,End,1743442541392,undefined,2325,twinkle,psychological,physical,B,NULL
1743443065,b6bb5cc3cfd4fc391f031ea29bfc9d91,PennController,11,0,test_physpsych,NULL,Selector,unnamed-Selector,Selection,psychological,1743442544219,undefined,2325,twinkle,psychological,physical,B,psychological;physical
1743443065,b6bb5cc3cfd4fc391f031ea29bfc9d91,PennController,11,0,test_physpsych,NULL,PennController,22,_Trial_,End,1743442544220,undefined,2325,twinkle,psychological,physical,B,NULL
1743443065,b6bb5cc3cfd4fc391f031ea29bfc9d91,PennController,21,0,test_physpsych,NULL,PennController,32,_Trial_,Start,1743442544221,undefined,962,admire,psychological,physical,B,NULL
1743443065,b6bb5cc3cfd4fc391f031ea29bfc9d91,PennController,21,0,test_physpsych,NULL,PennController,32,_Header_,Start,1743442544221,undefined,962,admire,psychological,physical,B,NULL
1743443065,b6bb5cc3cfd4fc391f031ea29bfc9d91,PennController,21,0,test_physpsych,NULL,PennController,32,_Header_,End,1743442544474,undefined,962,admire,psychological,physical,B,NULL
1743443065,b6bb5cc3cfd4fc391f031ea29bfc9d91,PennController,21,0,test_physpsych,NULL,Selector,unnamed-Selector,Selection,psychological,1743442545939,undefined,962,admire,psychological,physical,B,psychological;physical
1743443065,b6bb5cc3cfd4fc391f031ea29bfc9d91,PennController,21,0,test_physpsych,NULL,PennController,32,_Trial_,End,1743442545940,undefined,962,admire,psychological,physical,B,NULL
1743443065,b6bb5cc3cfd4fc391f031ea29bfc9d91,PennController,33,0,test_physpsych,NULL,PennController,44,_Trial_,Start,1743442545940,undefined,1082,corrode,psychological,physical,B,NULL
1743443065,b6bb5cc3cfd4fc391f031ea29bfc9d91,PennController,33,0,test_physpsych,NULL,PennController,44,_Header_,Start,1743442545940,undefined,1082,corrode,psychological,physical,B,NULL
1743443065,b6bb5cc3cfd4fc391f031ea29bfc9d91,PennController,33,0,test_physpsych,NULL,PennController,44,_Header_,End,1743442546192,undefined,1082,corrode,psychological,physical,B,NULL
1743443065,b6bb5cc3cfd4fc391f031ea29bfc9d91,PennController,33,0,test_physpsych,NULL,Selector,unnamed-Selector,Selection,physical,1743442547776,undefined,1082,corrode,psychological,physical,B,psychological;physical
1743443065,b6bb5cc3cfd4fc391f031ea29bfc9d91,PennController,33,0,test_physpsych,NULL,PennController,44,_Trial_,End,1743442547778,undefined,1082,corrode,psychological,physical,B,NULL
1743443065,b6bb5cc3cfd4fc391f031ea29bfc9d91,PennController,20,0,test_physpsych,NULL,PennController,31,_Trial_,Start,1743442547779,undefined,789,respect,psychological,physical,B,NULL
1743443065,b6bb5cc3cfd4fc391f031ea29bfc9d91,PennController,20,0,test_physpsych,NULL,PennController,31,_Header_,Start,1743442547779,undefined,789,respect,psychological,physical,B,NULL
1743443065,b6bb5cc3cfd4fc391f031ea29bfc9d91,PennController,20,0,test_physpsych,NULL,PennController,31,_Header_,End,1743442548032,undefined,789,respect,psychological,physical,B,NULL
1743443065,b6bb5cc3cfd4fc391f031ea29bfc9d91,PennController,20,0,test_physpsych,NULL,Selector,unnamed-Selector,Selection,psychological,1743442549324,undefined,789,respect,psychological,physical,B,psychological;physical
1743443065,b6bb5cc3cfd4fc391f031ea29bfc9d91,PennController,20,0,test_physpsych,NULL,PennController,31,_Trial_,End,1743442549325,undefined,789,respect,psychological,physical,B,NULL
1743443065,b6bb5cc3cfd4fc391f031ea29bfc9d91,PennController,4,0,test_physpsych,NULL,PennController,15,_Trial_,Start,1743442549326,undefined,2271,cuddle,psychological,physical,B,NULL
1743443065,b6bb5cc3cfd4fc391f031ea29bfc9d91,PennController,4,0,test_physpsych,NULL,PennController,15,_Header_,Start,1743442549326,undefined,2271,cuddle,psychological,physical,B,NULL
1743443065,b6bb5cc3cfd4fc391f031ea29bfc9d91,PennController,4,0,test_physpsych,NULL,PennController,15,_Header_,End,1743442549579,undefined,2271,cuddle,psychological,physical,B,NULL
1743443065,b6bb5cc3cfd4fc391f031ea29bfc9d91,PennController,4,0,test_physpsych,NULL,Selector,unnamed-Selector,Selection,physical,1743442552354,undefined,2271,cuddle,psychological,physical,B,psychological;physical
1743443065,b6bb5cc3cfd4fc391f031ea29bfc9d91,PennController,4,0,test_physpsych,NULL,PennController,15,_Trial_,End,1743442552355,undefined,2271,cuddle,psychological,physical,B,NULL
1743443065,b6bb5cc3cfd4fc391f031ea29bfc9d91,PennController,10,0,test_physpsych,NULL,PennController,21,_Trial_,Start,1743442552356,undefined,1419,sculpt,psychological,physical,B,NULL
1743443065,b6bb5cc3cfd4fc391f031ea29bfc9d91,PennController,10,0,test_physpsych,NULL,PennController,21,_Header_,Start,1743442552356,undefined,1419,sculpt,psychological,physical,B,NULL
1743443065,b6bb5cc3cfd4fc391f031ea29bfc9d91,PennController,10,0,test_physpsych,NULL,PennController,21,_Header_,End,1743442552609,undefined,1419,sculpt,psychological,physical,B,NULL
1743443065,b6bb5cc3cfd4fc391f031ea29bfc9d91,PennController,10,0,test_physpsych,NULL,Selector,unnamed-Selector,Selection,physical,1743442554532,undefined,1419,sculpt,psychological,physical,B,psychological;physical
1743443065,b6bb5cc3cfd4fc391f031ea29bfc9d91,PennController,10,0,test_physpsych,NULL,PennController,21,_Trial_,End,1743442554533,undefined,1419,sculpt,psychological,physical,B,NULL
1743443065,b6bb5cc3cfd4fc391f031ea29bfc9d91,PennController,25,0,test_physpsych,NULL,PennController,36,_Trial_,Start,1743442554534,undefined,2163,slaughter,psychological,physical,B,NULL
1743443065,b6bb5cc3cfd4fc391f031ea29bfc9d91,PennController,25,0,test_physpsych,NULL,PennController,36,_Header_,Start,1743442554534,undefined,2163,slaughter,psychological,physical,B,NULL
1743443065,b6bb5cc3cfd4fc391f031ea29bfc9d91,PennController,25,0,test_physpsych,NULL,PennController,36,_Header_,End,1743442554787,undefined,2163,slaughter,psychological,physical,B,NULL
1743443065,b6bb5cc3cfd4fc391f031ea29bfc9d91,PennController,25,0,test_physpsych,NULL,Selector,unnamed-Selector,Selection,physical,1743442557454,undefined,2163,slaughter,psychological,physical,B,psychological;physical
1743443065,b6bb5cc3cfd4fc391f031ea29bfc9d91,PennController,25,0,test_physpsych,NULL,PennController,36,_Trial_,End,1743442557456,undefined,2163,slaughter,psychological,physical,B,NULL
1743443065,b6bb5cc3cfd4fc391f031ea29bfc9d91,PennController,38,0,test_physpsych,NULL,PennController,49,_Trial_,Start,1743442557457,undefined,1711,dishonor,psychological,physical,B,NULL
1743443065,b6bb5cc3cfd4fc391f031ea29bfc9d91,PennController,38,0,test_physpsych,NULL,PennController,49,_Header_,Start,1743442557457,undefined,1711,dishonor,psychological,physical,B,NULL
1743443065,b6bb5cc3cfd4fc391f031ea29bfc9d91,PennController,38,0,test_physpsych,NULL,PennController,49,_Header_,End,1743442557708,undefined,1711,dishonor,psychological,physical,B,NULL
1743443065,b6bb5cc3cfd4fc391f031ea29bfc9d91,PennController,38,0,test_physpsych,NULL,Selector,unnamed-Selector,Selection,psychological,1743442559923,undefined,1711,dishonor,psychological,physical,B,psychological;physical
1743443065,b6bb5cc3cfd4fc391f031ea29bfc9d91,PennController,38,0,test_physpsych,NULL,PennController,49,_Trial_,End,1743442559925,undefined,1711,dishonor,psychological,physical,B,NULL
1743443065,b6bb5cc3cfd4fc391f031ea29bfc9d91,PennController,32,0,test_physpsych,NULL,PennController,43,_Trial_,Start,1743442559926,undefined,1714,delete,psychological,physical,B,NULL
1743443065,b6bb5cc3cfd4fc391f031ea29bfc9d91,PennController,32,0,test_physpsych,NULL,PennController,43,_Header_,Start,1743442559926,undefined,1714,delete,psychological,physical,B,NULL
1743443065,b6bb5cc3cfd4fc391f031ea29bfc9d91,PennController,32,0,test_physpsych,NULL,PennController,43,_Header_,End,1743442560179,undefined,1714,delete,psychological,physical,B,NULL
1743443065,b6bb5cc3cfd4fc391f031ea29bfc9d91,PennController,32,0,test_physpsych,NULL,Selector,unnamed-Selector,Selection,physical,1743442562398,undefined,1714,delete,psychological,physical,B,psychological;physical
1743443065,b6bb5cc3cfd4fc391f031ea29bfc9d91,PennController,32,0,test_physpsych,NULL,PennController,43,_Trial_,End,1743442562399,undefined,1714,delete,psychological,physical,B,NULL
1743443065,b6bb5cc3cfd4fc391f031ea29bfc9d91,PennController,9,0,test_physpsych,NULL,PennController,20,_Trial_,Start,1743442562400,undefined,2496,produce,psychological,physical,B,NULL
1743443065,b6bb5cc3cfd4fc391f031ea29bfc9d91,PennController,9,0,test_physpsych,NULL,PennController,20,_Header_,Start,1743442562400,undefined,2496,produce,psychological,physical,B,NULL
1743443065,b6bb5cc3cfd4fc391f031ea29bfc9d91,PennController,9,0,test_physpsych,NULL,PennController,20,_Header_,End,1743442562652,undefined,2496,produce,psychological,physical,B,NULL
1743443065,b6bb5cc3cfd4fc391f031ea29bfc9d91,PennController,9,0,test_physpsych,NULL,Selector,unnamed-Selector,Selection,physical,1743442565652,undefined,2496,produce,psychological,physical,B,psychological;physical
1743443065,b6bb5cc3cfd4fc391f031ea29bfc9d91,PennController,9,0,test_physpsych,NULL,PennController,20,_Trial_,End,1743442565653,undefined,2496,produce,psychological,physical,B,NULL
1743443065,b6bb5cc3cfd4fc391f031ea29bfc9d91,PennController,21,0,test_physpsych,NULL,PennController,32,_Trial_,Start,1743442565654,undefined,675,admire,psychological,physical,B,NULL
1743443065,b6bb5cc3cfd4fc391f031ea29bfc9d91,PennController,21,0,test_physpsych,NULL,PennController,32,_Header_,Start,1743442565654,undefined,675,admire,psychological,physical,B,NULL
1743443065,b6bb5cc3cfd4fc391f031ea29bfc9d91,PennController,21,0,test_physpsych,NULL,PennController,32,_Header_,End,1743442565907,undefined,675,admire,psychological,physical,B,NULL
1743443065,b6bb5cc3cfd4fc391f031ea29bfc9d91,PennController,21,0,test_physpsych,NULL,Selector,unnamed-Selector,Selection,psychological,1743442567084,undefined,675,admire,psychological,physical,B,psychological;physical
1743443065,b6bb5cc3cfd4fc391f031ea29bfc9d91,PennController,21,0,test_physpsych,NULL,PennController,32,_Trial_,End,1743442567085,undefined,675,admire,psychological,physical,B,NULL
1743443065,b6bb5cc3cfd4fc391f031ea29bfc9d91,PennController,34,0,test_physpsych,NULL,PennController,45,_Trial_,Start,1743442567086,undefined,1392,offend,psychological,physical,B,NULL
1743443065,b6bb5cc3cfd4fc391f031ea29bfc9d91,PennController,34,0,test_physpsych,NULL,PennController,45,_Header_,Start,1743442567086,undefined,1392,offend,psychological,physical,B,NULL
1743443065,b6bb5cc3cfd4fc391f031ea29bfc9d91,PennController,34,0,test_physpsych,NULL,PennController,45,_Header_,End,1743442567337,undefined,1392,offend,psychological,physical,B,NULL
1743443065,b6bb5cc3cfd4fc391f031ea29bfc9d91,PennController,34,0,test_physpsych,NULL,Selector,unnamed-Selector,Selection,psychological,1743442569230,undefined,1392,offend,psychological,physical,B,psychological;physical
1743443065,b6bb5cc3cfd4fc391f031ea29bfc9d91,PennController,34,0,test_physpsych,NULL,PennController,45,_Trial_,End,1743442569231,undefined,1392,offend,psychological,physical,B,NULL
1743443065,b6bb5cc3cfd4fc391f031ea29bfc9d91,PennController,8,0,test_physpsych,NULL,PennController,19,_Trial_,Start,1743442569232,undefined,1488,hug,psychological,physical,B,NULL
1743443065,b6bb5cc3cfd4fc391f031ea29bfc9d91,PennController,8,0,test_physpsych,NULL,PennController,19,_Header_,Start,1743442569232,undefined,1488,hug,psychological,physical,B,NULL
1743443065,b6bb5cc3cfd4fc391f031ea29bfc9d91,PennController,8,0,test_physpsych,NULL,PennController,19,_Header_,End,1743442569482,undefined,1488,hug,psychological,physical,B,NULL
1743443065,b6bb5cc3cfd4fc391f031ea29bfc9d91,PennController,8,0,test_physpsych,NULL,Selector,unnamed-Selector,Selection,physical,1743442571473,undefined,1488,hug,psychological,physical,B,psychological;physical
1743443065,b6bb5cc3cfd4fc391f031ea29bfc9d91,PennController,8,0,test_physpsych,NULL,PennController,19,_Trial_,End,1743442571475,undefined,1488,hug,psychological,physical,B,NULL
1743443065,b6bb5cc3cfd4fc391f031ea29bfc9d91,PennController,17,0,test_physpsych,NULL,PennController,28,_Trial_,Start,1743442571476,undefined,1703,impress,psychological,physical,B,NULL
1743443065,b6bb5cc3cfd4fc391f031ea29bfc9d91,PennController,17,0,test_physpsych,NULL,PennController,28,_Header_,Start,1743442571476,undefined,1703,impress,psychological,physical,B,NULL
1743443065,b6bb5cc3cfd4fc391f031ea29bfc9d91,PennController,17,0,test_physpsych,NULL,PennController,28,_Header_,End,1743442571729,undefined,1703,impress,psychological,physical,B,NULL
1743443065,b6bb5cc3cfd4fc391f031ea29bfc9d91,PennController,17,0,test_physpsych,NULL,Selector,unnamed-Selector,Selection,psychological,1743442573935,undefined,1703,impress,psychological,physical,B,psychological;physical
1743443065,b6bb5cc3cfd4fc391f031ea29bfc9d91,PennController,17,0,test_physpsych,NULL,PennController,28,_Trial_,End,1743442573936,undefined,1703,impress,psychological,physical,B,NULL
1743443065,b6bb5cc3cfd4fc391f031ea29bfc9d91,PennController,43,0,test_physpsych,NULL,PennController,54,_Trial_,Start,1743442573937,undefined,647,dread,psychological,physical,B,NULL
1743443065,b6bb5cc3cfd4fc391f031ea29bfc9d91,PennController,43,0,test_physpsych,NULL,PennController,54,_Header_,Start,1743442573937,undefined,647,dread,psychological,physical,B,NULL
1743443065,b6bb5cc3cfd4fc391f031ea29bfc9d91,PennController,43,0,test_physpsych,NULL,PennController,54,_Header_,End,1743442574189,undefined,647,dread,psychological,physical,B,NULL
1743443065,b6bb5cc3cfd4fc391f031ea29bfc9d91,PennController,43,0,test_physpsych,NULL,Selector,unnamed-Selector,Selection,psychological,1743442575338,undefined,647,dread,psychological,physical,B,psychological;physical
1743443065,b6bb5cc3cfd4fc391f031ea29bfc9d91,PennController,43,0,test_physpsych,NULL,PennController,54,_Trial_,End,1743442575339,undefined,647,dread,psychological,physical,B,NULL
1743443065,b6bb5cc3cfd4fc391f031ea29bfc9d91,PennController,40,0,test_physpsych,NULL,PennController,51,_Trial_,Start,1743442575340,undefined,757,discourage,psychological,physical,B,NULL
1743443065,b6bb5cc3cfd4fc391f031ea29bfc9d91,PennController,40,0,test_physpsych,NULL,PennController,51,_Header_,Start,1743442575340,undefined,757,discourage,psychological,physical,B,NULL
1743443065,b6bb5cc3cfd4fc391f031ea29bfc9d91,PennController,40,0,test_physpsych,NULL,PennController,51,_Header_,End,1743442575591,undefined,757,discourage,psychological,physical,B,NULL
1743443065,b6bb5cc3cfd4fc391f031ea29bfc9d91,PennController,40,0,test_physpsych,NULL,Selector,unnamed-Selector,Selection,psychological,1743442576852,undefined,757,discourage,psychological,physical,B,psychological;physical
1743443065,b6bb5cc3cfd4fc391f031ea29bfc9d91,PennController,40,0,test_physpsych,NULL,PennController,51,_Trial_,End,1743442576853,undefined,757,discourage,psychological,physical,B,NULL
1743443065,b6bb5cc3cfd4fc391f031ea29bfc9d91,PennController,41,0,test_physpsych,NULL,PennController,52,_Trial_,Start,1743442576854,undefined,903,dismay,psychological,physical,B,NULL
1743443065,b6bb5cc3cfd4fc391f031ea29bfc9d91,PennController,41,0,test_physpsych,NULL,PennController,52,_Header_,Start,1743442576854,undefined,903,dismay,psychological,physical,B,NULL
1743443065,b6bb5cc3cfd4fc391f031ea29bfc9d91,PennController,41,0,test_physpsych,NULL,PennController,52,_Header_,End,1743442577106,undefined,903,dismay,psychological,physical,B,NULL
1743443065,b6bb5cc3cfd4fc391f031ea29bfc9d91,PennController,41,0,test_physpsych,NULL,Selector,unnamed-Selector,Selection,psychological,1743442578511,undefined,903,dismay,psychological,physical,B,psychological;physical
1743443065,b6bb5cc3cfd4fc391f031ea29bfc9d91,PennController,41,0,test_physpsych,NULL,PennController,52,_Trial_,End,1743442578512,undefined,903,dismay,psychological,physical,B,NULL
1743443065,b6bb5cc3cfd4fc391f031ea29bfc9d91,PennController,33,0,test_physpsych,NULL,PennController,44,_Trial_,Start,1743442578513,undefined,799,corrode,psychological,physical,B,NULL
1743443065,b6bb5cc3cfd4fc391f031ea29bfc9d91,PennController,33,0,test_physpsych,NULL,PennController,44,_Header_,Start,1743442578513,undefined,799,corrode,psychological,physical,B,NULL
1743443065,b6bb5cc3cfd4fc391f031ea29bfc9d91,PennController,33,0,test_physpsych,NULL,PennController,44,_Header_,End,1743442578768,undefined,799,corrode,psychological,physical,B,NULL
1743443065,b6bb5cc3cfd4fc391f031ea29bfc9d91,PennController,33,0,test_physpsych,NULL,Selector,unnamed-Selector,Selection,physical,1743442580070,undefined,799,corrode,psychological,physical,B,psychological;physical
1743443065,b6bb5cc3cfd4fc391f031ea29bfc9d91,PennController,33,0,test_physpsych,NULL,PennController,44,_Trial_,End,1743442580071,undefined,799,corrode,psychological,physical,B,NULL
1743443065,b6bb5cc3cfd4fc391f031ea29bfc9d91,PennController,6,0,test_physpsych,NULL,PennController,17,_Trial_,Start,1743442580072,undefined,1002,repair,psychological,physical,B,NULL
1743443065,b6bb5cc3cfd4fc391f031ea29bfc9d91,PennController,6,0,test_physpsych,NULL,PennController,17,_Header_,Start,1743442580072,undefined,1002,repair,psychological,physical,B,NULL
1743443065,b6bb5cc3cfd4fc391f031ea29bfc9d91,PennController,6,0,test_physpsych,NULL,PennController,17,_Header_,End,1743442580322,undefined,1002,repair,psychological,physical,B,NULL
1743443065,b6bb5cc3cfd4fc391f031ea29bfc9d91,PennController,6,0,test_physpsych,NULL,Selector,unnamed-Selector,Selection,physical,1743442581828,undefined,1002,repair,psychological,physical,B,psychological;physical
1743443065,b6bb5cc3cfd4fc391f031ea29bfc9d91,PennController,6,0,test_physpsych,NULL,PennController,17,_Trial_,End,1743442581829,undefined,1002,repair,psychological,physical,B,NULL
1743443065,b6bb5cc3cfd4fc391f031ea29bfc9d91,PennController,19,0,test_physpsych,NULL,PennController,30,_Trial_,Start,1743442581830,undefined,719,reassure,psychological,physical,B,NULL
1743443065,b6bb5cc3cfd4fc391f031ea29bfc9d91,PennController,19,0,test_physpsych,NULL,PennController,30,_Header_,Start,1743442581830,undefined,719,reassure,psychological,physical,B,NULL
1743443065,b6bb5cc3cfd4fc391f031ea29bfc9d91,PennController,19,0,test_physpsych,NULL,PennController,30,_Header_,End,1743442582080,undefined,719,reassure,psychological,physical,B,NULL
1743443065,b6bb5cc3cfd4fc391f031ea29bfc9d91,PennController,19,0,test_physpsych,NULL,Selector,unnamed-Selector,Selection,psychological,1743442583304,undefined,719,reassure,psychological,physical,B,psychological;physical
1743443065,b6bb5cc3cfd4fc391f031ea29bfc9d91,PennController,19,0,test_physpsych,NULL,PennController,30,_Trial_,End,1743442583305,undefined,719,reassure,psychological,physical,B,NULL
1743443065,b6bb5cc3cfd4fc391f031ea29bfc9d91,PennController,29,0,test_physpsych,NULL,PennController,40,_Trial_,Start,1743442583306,undefined,1377,burn,psychological,physical,B,NULL
1743443065,b6bb5cc3cfd4fc391f031ea29bfc9d91,PennController,29,0,test_physpsych,NULL,PennController,40,_Header_,Start,1743442583306,undefined,1377,burn,psychological,physical,B,NULL
1743443065,b6bb5cc3cfd4fc391f031ea29bfc9d91,PennController,29,0,test_physpsych,NULL,PennController,40,_Header_,End,1743442583559,undefined,1377,burn,psychological,physical,B,NULL
1743443065,b6bb5cc3cfd4fc391f031ea29bfc9d91,PennController,29,0,test_physpsych,NULL,Selector,unnamed-Selector,Selection,physical,1743442585437,undefined,1377,burn,psychological,physical,B,psychological;physical
1743443065,b6bb5cc3cfd4fc391f031ea29bfc9d91,PennController,29,0,test_physpsych,NULL,PennController,40,_Trial_,End,1743442585438,undefined,1377,burn,psychological,physical,B,NULL
1743443065,b6bb5cc3cfd4fc391f031ea29bfc9d91,PennController,14,0,test_physpsych,NULL,PennController,25,_Trial_,Start,1743442585439,undefined,1443,content,psychological,physical,B,NULL
1743443065,b6bb5cc3cfd4fc391f031ea29bfc9d91,PennController,14,0,test_physpsych,NULL,PennController,25,_Header_,Start,1743442585439,undefined,1443,content,psychological,physical,B,NULL
1743443065,b6bb5cc3cfd4fc391f031ea29bfc9d91,PennController,14,0,test_physpsych,NULL,PennController,25,_Header_,End,1743442585691,undefined,1443,content,psychological,physical,B,NULL
1743443065,b6bb5cc3cfd4fc391f031ea29bfc9d91,PennController,14,0,test_physpsych,NULL,Selector,unnamed-Selector,Selection,psychological,1743442587634,undefined,1443,content,psychological,physical,B,psychological;physical
1743443065,b6bb5cc3cfd4fc391f031ea29bfc9d91,PennController,14,0,test_physpsych,NULL,PennController,25,_Trial_,End,1743442587635,undefined,1443,content,psychological,physical,B,NULL
1743443065,b6bb5cc3cfd4fc391f031ea29bfc9d91,PennController,23,0,test_physpsych,NULL,PennController,34,_Trial_,Start,1743442587636,undefined,898,cherish,psychological,physical,B,NULL
1743443065,b6bb5cc3cfd4fc391f031ea29bfc9d91,PennController,23,0,test_physpsych,NULL,PennController,34,_Header_,Start,1743442587636,undefined,898,cherish,psychological,physical,B,NULL
1743443065,b6bb5cc3cfd4fc391f031ea29bfc9d91,PennController,23,0,test_physpsych,NULL,PennController,34,_Header_,End,1743442587889,undefined,898,cherish,psychological,physical,B,NULL
1743443065,b6bb5cc3cfd4fc391f031ea29bfc9d91,PennController,23,0,test_physpsych,NULL,Selector,unnamed-Selector,Selection,psychological,1743442589290,undefined,898,cherish,psychological,physical,B,psychological;physical
1743443065,b6bb5cc3cfd4fc391f031ea29bfc9d91,PennController,23,0,test_physpsych,NULL,PennController,34,_Trial_,End,1743442589291,undefined,898,cherish,psychological,physical,B,NULL
1743443065,b6bb5cc3cfd4fc391f031ea29bfc9d91,PennController,39,0,test_physpsych,NULL,PennController,50,_Trial_,Start,1743442589292,undefined,1032,embarrass,psychological,physical,B,NULL
1743443065,b6bb5cc3cfd4fc391f031ea29bfc9d91,PennController,39,0,test_physpsych,NULL,PennController,50,_Header_,Start,1743442589292,undefined,1032,embarrass,psychological,physical,B,NULL
1743443065,b6bb5cc3cfd4fc391f031ea29bfc9d91,PennController,39,0,test_physpsych,NULL,PennController,50,_Header_,End,1743442589546,undefined,1032,embarrass,psychological,physical,B,NULL
1743443065,b6bb5cc3cfd4fc391f031ea29bfc9d91,PennController,39,0,test_physpsych,NULL,Selector,unnamed-Selector,Selection,physical,1743442591079,undefined,1032,embarrass,psychological,physical,B,psychological;physical
1743443065,b6bb5cc3cfd4fc391f031ea29bfc9d91,PennController,39,0,test_physpsych,NULL,PennController,50,_Trial_,End,1743442591081,undefined,1032,embarrass,psychological,physical,B,NULL
1743443065,b6bb5cc3cfd4fc391f031ea29bfc9d91,PennController,26,0,test_physpsych,NULL,PennController,37,_Trial_,Start,1743442591082,undefined,1135,slash,psychological,physical,B,NULL
1743443065,b6bb5cc3cfd4fc391f031ea29bfc9d91,PennController,26,0,test_physpsych,NULL,PennController,37,_Header_,Start,1743442591082,undefined,1135,slash,psychological,physical,B,NULL
1743443065,b6bb5cc3cfd4fc391f031ea29bfc9d91,PennController,26,0,test_physpsych,NULL,PennController,37,_Header_,End,1743442591336,undefined,1135,slash,psychological,physical,B,NULL
1743443065,b6bb5cc3cfd4fc391f031ea29bfc9d91,PennController,26,0,test_physpsych,NULL,Selector,unnamed-Selector,Selection,physical,1743442592971,undefined,1135,slash,psychological,physical,B,psychological;physical
1743443065,b6bb5cc3cfd4fc391f031ea29bfc9d91,PennController,26,0,test_physpsych,NULL,PennController,37,_Trial_,End,1743442592972,undefined,1135,slash,psychological,physical,B,NULL
1743443065,b6bb5cc3cfd4fc391f031ea29bfc9d91,PennController,25,0,test_physpsych,NULL,PennController,36,_Trial_,Start,1743442592972,undefined,2524,slaughter,psychological,physical,B,NULL
1743443065,b6bb5cc3cfd4fc391f031ea29bfc9d91,PennController,25,0,test_physpsych,NULL,PennController,36,_Header_,Start,1743442592972,undefined,2524,slaughter,psychological,physical,B,NULL
1743443065,b6bb5cc3cfd4fc391f031ea29bfc9d91,PennController,25,0,test_physpsych,NULL,PennController,36,_Header_,End,1743442593223,undefined,2524,slaughter,psychological,physical,B,NULL
1743443065,b6bb5cc3cfd4fc391f031ea29bfc9d91,PennController,25,0,test_physpsych,NULL,Selector,unnamed-Selector,Selection,physical,1743442596252,undefined,2524,slaughter,psychological,physical,B,psychological;physical
1743443065,b6bb5cc3cfd4fc391f031ea29bfc9d91,PennController,25,0,test_physpsych,NULL,PennController,36,_Trial_,End,1743442596253,undefined,2524,slaughter,psychological,physical,B,NULL
1743443065,b6bb5cc3cfd4fc391f031ea29bfc9d91,PennController,20,0,test_physpsych,NULL,PennController,31,_Trial_,Start,1743442596254,undefined,1646,respect,psychological,physical,B,NULL
1743443065,b6bb5cc3cfd4fc391f031ea29bfc9d91,PennController,20,0,test_physpsych,NULL,PennController,31,_Header_,Start,1743442596254,undefined,1646,respect,psychological,physical,B,NULL
1743443065,b6bb5cc3cfd4fc391f031ea29bfc9d91,PennController,20,0,test_physpsych,NULL,PennController,31,_Header_,End,1743442596504,undefined,1646,respect,psychological,physical,B,NULL
1743443065,b6bb5cc3cfd4fc391f031ea29bfc9d91,PennController,20,0,test_physpsych,NULL,Selector,unnamed-Selector,Selection,psychological,1743442598653,undefined,1646,respect,psychological,physical,B,psychological;physical
1743443065,b6bb5cc3cfd4fc391f031ea29bfc9d91,PennController,20,0,test_physpsych,NULL,PennController,31,_Trial_,End,1743442598654,undefined,1646,respect,psychological,physical,B,NULL
1743443065,b6bb5cc3cfd4fc391f031ea29bfc9d91,PennController,7,0,test_physpsych,NULL,PennController,18,_Trial_,Start,1743442598655,undefined,1654,caress,psychological,physical,B,NULL
1743443065,b6bb5cc3cfd4fc391f031ea29bfc9d91,PennController,7,0,test_physpsych,NULL,PennController,18,_Header_,Start,1743442598655,undefined,1654,caress,psychological,physical,B,NULL
1743443065,b6bb5cc3cfd4fc391f031ea29bfc9d91,PennController,7,0,test_physpsych,NULL,PennController,18,_Header_,End,1743442598906,undefined,1654,caress,psychological,physical,B,NULL
1743443065,b6bb5cc3cfd4fc391f031ea29bfc9d91,PennController,7,0,test_physpsych,NULL,Selector,unnamed-Selector,Selection,psychological,1743442601062,undefined,1654,caress,psychological,physical,B,psychological;physical
1743443065,b6bb5cc3cfd4fc391f031ea29bfc9d91,PennController,7,0,test_physpsych,NULL,PennController,18,_Trial_,End,1743442601063,undefined,1654,caress,psychological,physical,B,NULL
1743443065,b6bb5cc3cfd4fc391f031ea29bfc9d91,PennController,5,0,test_physpsych,NULL,PennController,16,_Trial_,Start,1743442601064,undefined,791,build,psychological,physical,B,NULL
1743443065,b6bb5cc3cfd4fc391f031ea29bfc9d91,PennController,5,0,test_physpsych,NULL,PennController,16,_Header_,Start,1743442601064,undefined,791,build,psychological,physical,B,NULL
1743443065,b6bb5cc3cfd4fc391f031ea29bfc9d91,PennController,5,0,test_physpsych,NULL,PennController,16,_Header_,End,1743442601315,undefined,791,build,psychological,physical,B,NULL
1743443065,b6bb5cc3cfd4fc391f031ea29bfc9d91,PennController,5,0,test_physpsych,NULL,Selector,unnamed-Selector,Selection,physical,1743442602608,undefined,791,build,psychological,physical,B,psychological;physical
1743443065,b6bb5cc3cfd4fc391f031ea29bfc9d91,PennController,5,0,test_physpsych,NULL,PennController,16,_Trial_,End,1743442602610,undefined,791,build,psychological,physical,B,NULL
1743443065,b6bb5cc3cfd4fc391f031ea29bfc9d91,PennController,4,0,test_physpsych,NULL,PennController,15,_Trial_,Start,1743442602610,undefined,875,cuddle,psychological,physical,B,NULL
1743443065,b6bb5cc3cfd4fc391f031ea29bfc9d91,PennController,4,0,test_physpsych,NULL,PennController,15,_Header_,Start,1743442602610,undefined,875,cuddle,psychological,physical,B,NULL
1743443065,b6bb5cc3cfd4fc391f031ea29bfc9d91,PennController,4,0,test_physpsych,NULL,PennController,15,_Header_,End,1743442602862,undefined,875,cuddle,psychological,physical,B,NULL
1743443065,b6bb5cc3cfd4fc391f031ea29bfc9d91,PennController,4,0,test_physpsych,NULL,Selector,unnamed-Selector,Selection,physical,1743442604241,undefined,875,cuddle,psychological,physical,B,psychological;physical
1743443065,b6bb5cc3cfd4fc391f031ea29bfc9d91,PennController,4,0,test_physpsych,NULL,PennController,15,_Trial_,End,1743442604242,undefined,875,cuddle,psychological,physical,B,NULL
1743443065,b6bb5cc3cfd4fc391f031ea29bfc9d91,PennController,22,0,test_physpsych,NULL,PennController,33,_Trial_,Start,1743442604243,undefined,661,adore,psychological,physical,B,NULL
1743443065,b6bb5cc3cfd4fc391f031ea29bfc9d91,PennController,22,0,test_physpsych,NULL,PennController,33,_Header_,Start,1743442604243,undefined,661,adore,psychological,physical,B,NULL
1743443065,b6bb5cc3cfd4fc391f031ea29bfc9d91,PennController,22,0,test_physpsych,NULL,PennController,33,_Header_,End,1743442604496,undefined,661,adore,psychological,physical,B,NULL
1743443065,b6bb5cc3cfd4fc391f031ea29bfc9d91,PennController,22,0,test_physpsych,NULL,Selector,unnamed-Selector,Selection,psychological,1743442605662,undefined,661,adore,psychological,physical,B,psychological;physical
1743443065,b6bb5cc3cfd4fc391f031ea29bfc9d91,PennController,22,0,test_physpsych,NULL,PennController,33,_Trial_,End,1743442605663,undefined,661,adore,psychological,physical,B,NULL
1743443065,b6bb5cc3cfd4fc391f031ea29bfc9d91,PennController,24,0,test_physpsych,NULL,PennController,35,_Trial_,Start,1743442605664,undefined,1022,rust,psychological,physical,B,NULL
1743443065,b6bb5cc3cfd4fc391f031ea29bfc9d91,PennController,24,0,test_physpsych,NULL,PennController,35,_Header_,Start,1743442605664,undefined,1022,rust,psychological,physical,B,NULL
1743443065,b6bb5cc3cfd4fc391f031ea29bfc9d91,PennController,24,0,test_physpsych,NULL,PennController,35,_Header_,End,1743442605914,undefined,1022,rust,psychological,physical,B,NULL
1743443065,b6bb5cc3cfd4fc391f031ea29bfc9d91,PennController,24,0,test_physpsych,NULL,Selector,unnamed-Selector,Selection,physical,1743442607440,undefined,1022,rust,psychological,physical,B,psychological;physical
1743443065,b6bb5cc3cfd4fc391f031ea29bfc9d91,PennController,24,0,test_physpsych,NULL,PennController,35,_Trial_,End,1743442607441,undefined,1022,rust,psychological,physical,B,NULL
1743443065,b6bb5cc3cfd4fc391f031ea29bfc9d91,PennController,10,0,test_physpsych,NULL,PennController,21,_Trial_,Start,1743442607442,undefined,1235,sculpt,psychological,physical,B,NULL
1743443065,b6bb5cc3cfd4fc391f031ea29bfc9d91,PennController,10,0,test_physpsych,NULL,PennController,21,_Header_,Start,1743442607442,undefined,1235,sculpt,psychological,physical,B,NULL
1743443065,b6bb5cc3cfd4fc391f031ea29bfc9d91,PennController,10,0,test_physpsych,NULL,PennController,21,_Header_,End,1743442607695,undefined,1235,sculpt,psychological,physical,B,NULL
1743443065,b6bb5cc3cfd4fc391f031ea29bfc9d91,PennController,10,0,test_physpsych,NULL,Selector,unnamed-Selector,Selection,physical,1743442609430,undefined,1235,sculpt,psychological,physical,B,psychological;physical
1743443065,b6bb5cc3cfd4fc391f031ea29bfc9d91,PennController,10,0,test_physpsych,NULL,PennController,21,_Trial_,End,1743442609431,undefined,1235,sculpt,psychological,physical,B,NULL
1743443065,b6bb5cc3cfd4fc391f031ea29bfc9d91,PennController,15,0,test_physpsych,NULL,PennController,26,_Trial_,Start,1743442609432,undefined,762,encourage,psychological,physical,B,NULL
1743443065,b6bb5cc3cfd4fc391f031ea29bfc9d91,PennController,15,0,test_physpsych,NULL,PennController,26,_Header_,Start,1743442609432,undefined,762,encourage,psychological,physical,B,NULL
1743443065,b6bb5cc3cfd4fc391f031ea29bfc9d91,PennController,15,0,test_physpsych,NULL,PennController,26,_Header_,End,1743442609682,undefined,762,encourage,psychological,physical,B,NULL
1743443065,b6bb5cc3cfd4fc391f031ea29bfc9d91,PennController,15,0,test_physpsych,NULL,Selector,unnamed-Selector,Selection,psychological,1743442610947,undefined,762,encourage,psychological,physical,B,psychological;physical
1743443065,b6bb5cc3cfd4fc391f031ea29bfc9d91,PennController,15,0,test_physpsych,NULL,PennController,26,_Trial_,End,1743442610949,undefined,762,encourage,psychological,physical,B,NULL
1743443065,b6bb5cc3cfd4fc391f031ea29bfc9d91,PennController,27,0,test_physpsych,NULL,PennController,38,_Trial_,Start,1743442610950,undefined,916,crash,psychological,physical,B,NULL
1743443065,b6bb5cc3cfd4fc391f031ea29bfc9d91,PennController,27,0,test_physpsych,NULL,PennController,38,_Header_,Start,1743442610950,undefined,916,crash,psychological,physical,B,NULL
1743443065,b6bb5cc3cfd4fc391f031ea29bfc9d91,PennController,27,0,test_physpsych,NULL,PennController,38,_Header_,End,1743442611204,undefined,916,crash,psychological,physical,B,NULL
1743443065,b6bb5cc3cfd4fc391f031ea29bfc9d91,PennController,27,0,test_physpsych,NULL,Selector,unnamed-Selector,Selection,physical,1743442612622,undefined,916,crash,psychological,physical,B,psychological;physical
1743443065,b6bb5cc3cfd4fc391f031ea29bfc9d91,PennController,27,0,test_physpsych,NULL,PennController,38,_Trial_,End,1743442612623,undefined,916,crash,psychological,physical,B,NULL
1743443065,b6bb5cc3cfd4fc391f031ea29bfc9d91,PennController,30,0,test_physpsych,NULL,PennController,41,_Trial_,Start,1743442612624,undefined,2146,hit,psychological,physical,B,NULL
1743443065,b6bb5cc3cfd4fc391f031ea29bfc9d91,PennController,30,0,test_physpsych,NULL,PennController,41,_Header_,Start,1743442612624,undefined,2146,hit,psychological,physical,B,NULL
1743443065,b6bb5cc3cfd4fc391f031ea29bfc9d91,PennController,30,0,test_physpsych,NULL,PennController,41,_Header_,End,1743442612876,undefined,2146,hit,psychological,physical,B,NULL
1743443065,b6bb5cc3cfd4fc391f031ea29bfc9d91,PennController,30,0,test_physpsych,NULL,Selector,unnamed-Selector,Selection,psychological,1743442615524,undefined,2146,hit,psychological,physical,B,psychological;physical
1743443065,b6bb5cc3cfd4fc391f031ea29bfc9d91,PennController,30,0,test_physpsych,NULL,PennController,41,_Trial_,End,1743442615525,undefined,2146,hit,psychological,physical,B,NULL
1743443065,b6bb5cc3cfd4fc391f031ea29bfc9d91,PennController,18,0,test_physpsych,NULL,PennController,29,_Trial_,Start,1743442615526,undefined,1347,like,psychological,physical,B,NULL
1743443065,b6bb5cc3cfd4fc391f031ea29bfc9d91,PennController,18,0,test_physpsych,NULL,PennController,29,_Header_,Start,1743442615526,undefined,1347,like,psychological,physical,B,NULL
1743443065,b6bb5cc3cfd4fc391f031ea29bfc9d91,PennController,18,0,test_physpsych,NULL,PennController,29,_Header_,End,1743442615780,undefined,1347,like,psychological,physical,B,NULL
1743443065,b6bb5cc3cfd4fc391f031ea29bfc9d91,PennController,18,0,test_physpsych,NULL,Selector,unnamed-Selector,Selection,psychological,1743442617629,undefined,1347,like,psychological,physical,B,psychological;physical
1743443065,b6bb5cc3cfd4fc391f031ea29bfc9d91,PennController,18,0,test_physpsych,NULL,PennController,29,_Trial_,End,1743442617630,undefined,1347,like,psychological,physical,B,NULL
1743443065,b6bb5cc3cfd4fc391f031ea29bfc9d91,PennController,13,0,test_physpsych,NULL,PennController,24,_Trial_,Start,1743442617631,undefined,1973,clean,psychological,physical,B,NULL
1743443065,b6bb5cc3cfd4fc391f031ea29bfc9d91,PennController,13,0,test_physpsych,NULL,PennController,24,_Header_,Start,1743442617631,undefined,1973,clean,psychological,physical,B,NULL
1743443065,b6bb5cc3cfd4fc391f031ea29bfc9d91,PennController,13,0,test_physpsych,NULL,PennController,24,_Header_,End,1743442617885,undefined,1973,clean,psychological,physical,B,NULL
1743443065,b6bb5cc3cfd4fc391f031ea29bfc9d91,PennController,13,0,test_physpsych,NULL,Selector,unnamed-Selector,Selection,physical,1743442620358,undefined,1973,clean,psychological,physical,B,psychological;physical
1743443065,b6bb5cc3cfd4fc391f031ea29bfc9d91,PennController,13,0,test_physpsych,NULL,PennController,24,_Trial_,End,1743442620360,undefined,1973,clean,psychological,physical,B,NULL
1743443065,b6bb5cc3cfd4fc391f031ea29bfc9d91,PennController,35,0,test_physpsych,NULL,PennController,46,_Trial_,Start,1743442620361,undefined,1794,despair,psychological,physical,B,NULL
1743443065,b6bb5cc3cfd4fc391f031ea29bfc9d91,PennController,35,0,test_physpsych,NULL,PennController,46,_Header_,Start,1743442620361,undefined,1794,despair,psychological,physical,B,NULL
1743443065,b6bb5cc3cfd4fc391f031ea29bfc9d91,PennController,35,0,test_physpsych,NULL,PennController,46,_Header_,End,1743442620612,undefined,1794,despair,psychological,physical,B,NULL
1743443065,b6bb5cc3cfd4fc391f031ea29bfc9d91,PennController,35,0,test_physpsych,NULL,Selector,unnamed-Selector,Selection,psychological,1743442622912,undefined,1794,despair,psychological,physical,B,psychological;physical
1743443065,b6bb5cc3cfd4fc391f031ea29bfc9d91,PennController,35,0,test_physpsych,NULL,PennController,46,_Trial_,End,1743442622913,undefined,1794,despair,psychological,physical,B,NULL
1743443065,b6bb5cc3cfd4fc391f031ea29bfc9d91,PennController,36,0,test_physpsych,NULL,PennController,47,_Trial_,Start,1743442622914,undefined,1884,irritate,psychological,physical,B,NULL
1743443065,b6bb5cc3cfd4fc391f031ea29bfc9d91,PennController,36,0,test_physpsych,NULL,PennController,47,_Header_,Start,1743442622914,undefined,1884,irritate,psychological,physical,B,NULL
1743443065,b6bb5cc3cfd4fc391f031ea29bfc9d91,PennController,36,0,test_physpsych,NULL,PennController,47,_Header_,End,1743442623167,undefined,1884,irritate,psychological,physical,B,NULL
1743443065,b6bb5cc3cfd4fc391f031ea29bfc9d91,PennController,36,0,test_physpsych,NULL,Selector,unnamed-Selector,Selection,physical,1743442625557,undefined,1884,irritate,psychological,physical,B,psychological;physical
1743443065,b6bb5cc3cfd4fc391f031ea29bfc9d91,PennController,36,0,test_physpsych,NULL,PennController,47,_Trial_,End,1743442625558,undefined,1884,irritate,psychological,physical,B,NULL
1743443065,b6bb5cc3cfd4fc391f031ea29bfc9d91,PennController,11,0,test_physpsych,NULL,PennController,22,_Trial_,Start,1743442625559,undefined,1969,twinkle,psychological,physical,B,NULL
1743443065,b6bb5cc3cfd4fc391f031ea29bfc9d91,PennController,11,0,test_physpsych,NULL,PennController,22,_Header_,Start,1743442625559,undefined,1969,twinkle,psychological,physical,B,NULL
1743443065,b6bb5cc3cfd4fc391f031ea29bfc9d91,PennController,11,0,test_physpsych,NULL,PennController,22,_Header_,End,1743442625811,undefined,1969,twinkle,psychological,physical,B,NULL
1743443065,b6bb5cc3cfd4fc391f031ea29bfc9d91,PennController,11,0,test_physpsych,NULL,Selector,unnamed-Selector,Selection,psychological,1743442628285,undefined,1969,twinkle,psychological,physical,B,psychological;physical
1743443065,b6bb5cc3cfd4fc391f031ea29bfc9d91,PennController,11,0,test_physpsych,NULL,PennController,22,_Trial_,End,1743442628287,undefined,1969,twinkle,psychological,physical,B,NULL
1743443065,b6bb5cc3cfd4fc391f031ea29bfc9d91,PennController,16,0,test_physpsych,NULL,PennController,27,_Trial_,Start,1743442628288,undefined,1600,appreciate,psychological,physical,B,NULL
1743443065,b6bb5cc3cfd4fc391f031ea29bfc9d91,PennController,16,0,test_physpsych,NULL,PennController,27,_Header_,Start,1743442628288,undefined,1600,appreciate,psychological,physical,B,NULL
1743443065,b6bb5cc3cfd4fc391f031ea29bfc9d91,PennController,16,0,test_physpsych,NULL,PennController,27,_Header_,End,1743442628539,undefined,1600,appreciate,psychological,physical,B,NULL
1743443065,b6bb5cc3cfd4fc391f031ea29bfc9d91,PennController,16,0,test_physpsych,NULL,Selector,unnamed-Selector,Selection,psychological,1743442630641,undefined,1600,appreciate,psychological,physical,B,psychological;physical
1743443065,b6bb5cc3cfd4fc391f031ea29bfc9d91,PennController,16,0,test_physpsych,NULL,PennController,27,_Trial_,End,1743442630642,undefined,1600,appreciate,psychological,physical,B,NULL
1743443065,b6bb5cc3cfd4fc391f031ea29bfc9d91,PennController,28,0,test_physpsych,NULL,PennController,39,_Trial_,Start,1743442630644,undefined,1273,tear,psychological,physical,B,NULL
1743443065,b6bb5cc3cfd4fc391f031ea29bfc9d91,PennController,28,0,test_physpsych,NULL,PennController,39,_Header_,Start,1743442630644,undefined,1273,tear,psychological,physical,B,NULL
1743443065,b6bb5cc3cfd4fc391f031ea29bfc9d91,PennController,28,0,test_physpsych,NULL,PennController,39,_Header_,End,1743442630898,undefined,1273,tear,psychological,physical,B,NULL
1743443065,b6bb5cc3cfd4fc391f031ea29bfc9d91,PennController,28,0,test_physpsych,NULL,Selector,unnamed-Selector,Selection,physical,1743442632674,undefined,1273,tear,psychological,physical,B,psychological;physical
1743443065,b6bb5cc3cfd4fc391f031ea29bfc9d91,PennController,28,0,test_physpsych,NULL,PennController,39,_Trial_,End,1743442632675,undefined,1273,tear,psychological,physical,B,NULL
1743443065,b6bb5cc3cfd4fc391f031ea29bfc9d91,PennController,31,0,test_physpsych,NULL,PennController,42,_Trial_,Start,1743442632676,undefined,1181,stain,psychological,physical,B,NULL
1743443065,b6bb5cc3cfd4fc391f031ea29bfc9d91,PennController,31,0,test_physpsych,NULL,PennController,42,_Header_,Start,1743442632676,undefined,1181,stain,psychological,physical,B,NULL
1743443065,b6bb5cc3cfd4fc391f031ea29bfc9d91,PennController,31,0,test_physpsych,NULL,PennController,42,_Header_,End,1743442632927,undefined,1181,stain,psychological,physical,B,NULL
1743443065,b6bb5cc3cfd4fc391f031ea29bfc9d91,PennController,31,0,test_physpsych,NULL,Selector,unnamed-Selector,Selection,physical,1743442634612,undefined,1181,stain,psychological,physical,B,psychological;physical
1743443065,b6bb5cc3cfd4fc391f031ea29bfc9d91,PennController,31,0,test_physpsych,NULL,PennController,42,_Trial_,End,1743442634613,undefined,1181,stain,psychological,physical,B,NULL
1743443065,b6bb5cc3cfd4fc391f031ea29bfc9d91,PennController,37,0,test_physpsych,NULL,PennController,48,_Trial_,Start,1743442634614,undefined,1420,displease,psychological,physical,B,NULL
1743443065,b6bb5cc3cfd4fc391f031ea29bfc9d91,PennController,37,0,test_physpsych,NULL,PennController,48,_Header_,Start,1743442634614,undefined,1420,displease,psychological,physical,B,NULL
1743443065,b6bb5cc3cfd4fc391f031ea29bfc9d91,PennController,37,0,test_physpsych,NULL,PennController,48,_Header_,End,1743442634867,undefined,1420,displease,psychological,physical,B,NULL
1743443065,b6bb5cc3cfd4fc391f031ea29bfc9d91,PennController,37,0,test_physpsych,NULL,Selector,unnamed-Selector,Selection,psychological,1743442636790,undefined,1420,displease,psychological,physical,B,psychological;physical
1743443065,b6bb5cc3cfd4fc391f031ea29bfc9d91,PennController,37,0,test_physpsych,NULL,PennController,48,_Trial_,End,1743442636791,undefined,1420,displease,psychological,physical,B,NULL
1743443065,b6bb5cc3cfd4fc391f031ea29bfc9d91,PennController,12,0,test_physpsych,NULL,PennController,23,_Trial_,Start,1743442636792,undefined,1869,decorate,psychological,physical,B,NULL
1743443065,b6bb5cc3cfd4fc391f031ea29bfc9d91,PennController,12,0,test_physpsych,NULL,PennController,23,_Header_,Start,1743442636792,undefined,1869,decorate,psychological,physical,B,NULL
1743443065,b6bb5cc3cfd4fc391f031ea29bfc9d91,PennController,12,0,test_physpsych,NULL,PennController,23,_Header_,End,1743442637044,undefined,1869,decorate,psychological,physical,B,NULL
1743443065,b6bb5cc3cfd4fc391f031ea29bfc9d91,PennController,12,0,test_physpsych,NULL,Selector,unnamed-Selector,Selection,physical,1743442639418,undefined,1869,decorate,psychological,physical,B,psychological;physical
1743443065,b6bb5cc3cfd4fc391f031ea29bfc9d91,PennController,12,0,test_physpsych,NULL,PennController,23,_Trial_,End,1743442639419,undefined,1869,decorate,psychological,physical,B,NULL
1743443065,b6bb5cc3cfd4fc391f031ea29bfc9d91,PennController,42,0,test_physpsych,NULL,PennController,53,_Trial_,Start,1743442639420,undefined,862,criticize,psychological,physical,B,NULL
1743443065,b6bb5cc3cfd4fc391f031ea29bfc9d91,PennController,42,0,test_physpsych,NULL,PennController,53,_Header_,Start,1743442639420,undefined,862,criticize,psychological,physical,B,NULL
