#
# Results on Mon, 31 Mar 2025 19:23:32 GMT
# USER AGENT: Mozilla/5.0 (X11; Linux x86_64) AppleWebKit/537.36 (KHTML, like Gecko) Chrome/134.0.0.0 Safari/537.36
# Design number was non-random = 0
#
# Columns below this comment are as follows:
# 1. Results reception time.
# 2. MD5 hash of participant's IP address.
# 3. Controller name.
# 4. Order number of item.
# 5. Inner element number.
# 6. Label.
# 7. Latin Square Group.
# 8. PennElementType.
# 9. PennElementName.
# 10. Parameter.
# 11. Value.
# 12. EventTime.
# 13. Comments.
1743449012,483df338728e73183ef5894d7467915b,PennController,1,0,welcome,NULL,PennController,0,_Trial_,Start,1743448241980,NULL
1743449012,483df338728e73183ef5894d7467915b,PennController,1,0,welcome,NULL,PennController,0,_Header_,Start,1743448241980,NULL
1743449012,483df338728e73183ef5894d7467915b,PennController,1,0,welcome,NULL,PennController,0,_Header_,End,1743448242232,NULL
1743449012,483df338728e73183ef5894d7467915b,PennController,1,0,welcome,NULL,PennController,0,_Trial_,End,1743448273922,NULL
# 13. ID.
# 14. Comments.
1743449012,483df338728e73183ef5894d7467915b,PennController,124,0,consent,NULL,PennController,2,_Trial_,Start,1743448273928,5dea96a5770a431bbed1efb2,NULL
1743449012,483df338728e73183ef5894d7467915b,PennController,124,0,consent,NULL,PennController,2,_Header_,Start,1743448273928,5dea96a5770a431bbed1efb2,NULL
1743449012,483df338728e73183ef5894d7467915b,PennController,124,0,consent,NULL,PennController,2,_Header_,End,1743448274179,5dea96a5770a431bbed1efb2,NULL
1743449012,483df338728e73183ef5894d7467915b,PennController,124,0,consent,NULL,TextInput,ID,First,,1743448307653,5dea96a5770a431bbed1efb2,Control
1743449012,483df338728e73183ef5894d7467915b,PennController,124,0,consent,NULL,TextInput,ID,Final,5dea96a5770a431bbed1efb2,1743448309809,5dea96a5770a431bbed1efb2,NULL
1743449012,483df338728e73183ef5894d7467915b,PennController,124,0,consent,NULL,PennController,2,_Trial_,End,1743448309810,5dea96a5770a431bbed1efb2,NULL
# 13. Comments.
1743449012,483df338728e73183ef5894d7467915b,PennController,132,0,instructions1_phys,NULL,PennController,10,_Trial_,Start,1743448309815,NULL
1743449012,483df338728e73183ef5894d7467915b,PennController,132,0,instructions1_phys,NULL,PennController,10,_Header_,Start,1743448309815,NULL
1743449012,483df338728e73183ef5894d7467915b,PennController,132,0,instructions1_phys,NULL,PennController,10,_Header_,End,1743448310066,NULL
1743449012,483df338728e73183ef5894d7467915b,PennController,132,0,instructions1_phys,NULL,PennController,10,_Trial_,End,1743448344971,NULL
1743449012,483df338728e73183ef5894d7467915b,PennController,133,0,instructions2_phys,NULL,PennController,11,_Trial_,Start,1743448344973,NULL
1743449012,483df338728e73183ef5894d7467915b,PennController,133,0,instructions2_phys,NULL,PennController,11,_Header_,Start,1743448344973,NULL
1743449012,483df338728e73183ef5894d7467915b,PennController,133,0,instructions2_phys,NULL,PennController,11,_Header_,End,1743448345224,NULL
1743449012,483df338728e73183ef5894d7467915b,PennController,133,0,instructions2_phys,NULL,PennController,11,_Trial_,End,1743448358215,NULL
1743449012,483df338728e73183ef5894d7467915b,PennController,128,0,instructions3_hands,NULL,PennController,6,_Trial_,Start,1743448358217,NULL
1743449012,483df338728e73183ef5894d7467915b,PennController,128,0,instructions3_hands,NULL,PennController,6,_Header_,Start,1743448358217,NULL
1743449012,483df338728e73183ef5894d7467915b,PennController,128,0,instructions3_hands,NULL,PennController,6,_Header_,End,1743448358469,NULL
1743449012,483df338728e73183ef5894d7467915b,PennController,128,0,instructions3_hands,NULL,PennController,6,_Trial_,End,1743448372749,NULL
1743449012,483df338728e73183ef5894d7467915b,PennController,135,0,practice_intro_phys,NULL,PennController,13,_Trial_,Start,1743448372753,NULL
1743449012,483df338728e73183ef5894d7467915b,PennController,135,0,practice_intro_phys,NULL,PennController,13,_Header_,Start,1743448372753,NULL
1743449012,483df338728e73183ef5894d7467915b,PennController,135,0,practice_intro_phys,NULL,PennController,13,_Header_,End,1743448373006,NULL
1743449012,483df338728e73183ef5894d7467915b,PennController,135,0,practice_intro_phys,NULL,PennController,13,_Trial_,End,1743448375800,NULL
# 13. ID.
# 14. ReactionTime.
# 15. Word.
# 16. selectedKey.
# 17. selectedValue.
# 18. Key_value_F.
# 19. Key_value_J.
# 20. Group.
# 21. Comments.
1743449012,483df338728e73183ef5894d7467915b,PennController,87,0,calibrator_phys_feedback,NULL,PennController,98,_Trial_,Start,1743448375802,undefined,2217,memory,undefined,psychological,physical,psychological,A,NULL
1743449012,483df338728e73183ef5894d7467915b,PennController,87,0,calibrator_phys_feedback,NULL,PennController,98,_Header_,Start,1743448375802,undefined,2217,memory,undefined,psychological,physical,psychological,A,NULL
1743449012,483df338728e73183ef5894d7467915b,PennController,87,0,calibrator_phys_feedback,NULL,PennController,98,_Header_,End,1743448376055,undefined,2217,memory,undefined,psychological,physical,psychological,A,NULL
1743449012,483df338728e73183ef5894d7467915b,PennController,87,0,calibrator_phys_feedback,NULL,Selector,Selection,Selection,psychological,1743448378777,undefined,2217,memory,undefined,psychological,physical,psychological,A,physical;psychological
1743449012,483df338728e73183ef5894d7467915b,PennController,87,0,calibrator_phys_feedback,NULL,PennController,98,_Trial_,End,1743448380786,undefined,2217,memory,undefined,psychological,physical,psychological,A,NULL
1743449012,483df338728e73183ef5894d7467915b,PennController,89,0,calibrator_phys_feedback,NULL,PennController,100,_Trial_,Start,1743448380789,undefined,1206,body,undefined,psychological,physical,psychological,A,NULL
1743449012,483df338728e73183ef5894d7467915b,PennController,89,0,calibrator_phys_feedback,NULL,PennController,100,_Header_,Start,1743448380789,undefined,1206,body,undefined,psychological,physical,psychological,A,NULL
1743449012,483df338728e73183ef5894d7467915b,PennController,89,0,calibrator_phys_feedback,NULL,PennController,100,_Header_,End,1743448381041,undefined,1206,body,undefined,psychological,physical,psychological,A,NULL
1743449012,483df338728e73183ef5894d7467915b,PennController,89,0,calibrator_phys_feedback,NULL,Selector,Selection,Selection,physical,1743448382753,undefined,1206,body,undefined,psychological,physical,psychological,A,physical;psychological
1743449012,483df338728e73183ef5894d7467915b,PennController,89,0,calibrator_phys_feedback,NULL,PennController,100,_Trial_,End,1743448384762,undefined,1206,body,undefined,psychological,physical,psychological,A,NULL
1743449012,483df338728e73183ef5894d7467915b,PennController,88,0,calibrator_phys_feedback,NULL,PennController,99,_Trial_,Start,1743448384765,undefined,1092,mood,undefined,psychological,physical,psychological,A,NULL
1743449012,483df338728e73183ef5894d7467915b,PennController,88,0,calibrator_phys_feedback,NULL,PennController,99,_Header_,Start,1743448384765,undefined,1092,mood,undefined,psychological,physical,psychological,A,NULL
1743449012,483df338728e73183ef5894d7467915b,PennController,88,0,calibrator_phys_feedback,NULL,PennController,99,_Header_,End,1743448385017,undefined,1092,mood,undefined,psychological,physical,psychological,A,NULL
1743449012,483df338728e73183ef5894d7467915b,PennController,88,0,calibrator_phys_feedback,NULL,Selector,Selection,Selection,psychological,1743448386615,undefined,1092,mood,undefined,psychological,physical,psychological,A,physical;psychological
1743449012,483df338728e73183ef5894d7467915b,PennController,88,0,calibrator_phys_feedback,NULL,PennController,99,_Trial_,End,1743448388623,undefined,1092,mood,undefined,psychological,physical,psychological,A,NULL
1743449012,483df338728e73183ef5894d7467915b,PennController,93,0,calibrator_phys_feedback,NULL,PennController,104,_Trial_,Start,1743448388626,undefined,1029,hand,undefined,psychological,physical,psychological,A,NULL
1743449012,483df338728e73183ef5894d7467915b,PennController,93,0,calibrator_phys_feedback,NULL,PennController,104,_Header_,Start,1743448388626,undefined,1029,hand,undefined,psychological,physical,psychological,A,NULL
1743449012,483df338728e73183ef5894d7467915b,PennController,93,0,calibrator_phys_feedback,NULL,PennController,104,_Header_,End,1743448388876,undefined,1029,hand,undefined,psychological,physical,psychological,A,NULL
1743449012,483df338728e73183ef5894d7467915b,PennController,93,0,calibrator_phys_feedback,NULL,Selector,Selection,Selection,physical,1743448390408,undefined,1029,hand,undefined,psychological,physical,psychological,A,physical;psychological
1743449012,483df338728e73183ef5894d7467915b,PennController,93,0,calibrator_phys_feedback,NULL,PennController,104,_Trial_,End,1743448392417,undefined,1029,hand,undefined,psychological,physical,psychological,A,NULL
1743449012,483df338728e73183ef5894d7467915b,PennController,91,0,calibrator_phys_feedback,NULL,PennController,102,_Trial_,Start,1743448392419,undefined,1209,stone,undefined,psychological,physical,psychological,A,NULL
1743449012,483df338728e73183ef5894d7467915b,PennController,91,0,calibrator_phys_feedback,NULL,PennController,102,_Header_,Start,1743448392419,undefined,1209,stone,undefined,psychological,physical,psychological,A,NULL
1743449012,483df338728e73183ef5894d7467915b,PennController,91,0,calibrator_phys_feedback,NULL,PennController,102,_Header_,End,1743448392672,undefined,1209,stone,undefined,psychological,physical,psychological,A,NULL
1743449012,483df338728e73183ef5894d7467915b,PennController,91,0,calibrator_phys_feedback,NULL,Selector,Selection,Selection,physical,1743448394385,undefined,1209,stone,undefined,psychological,physical,psychological,A,physical;psychological
1743449012,483df338728e73183ef5894d7467915b,PennController,91,0,calibrator_phys_feedback,NULL,PennController,102,_Trial_,End,1743448396394,undefined,1209,stone,undefined,psychological,physical,psychological,A,NULL
1743449012,483df338728e73183ef5894d7467915b,PennController,85,0,calibrator_phys_feedback,NULL,PennController,96,_Trial_,Start,1743448396397,undefined,935,dream,undefined,psychological,physical,psychological,A,NULL
1743449012,483df338728e73183ef5894d7467915b,PennController,85,0,calibrator_phys_feedback,NULL,PennController,96,_Header_,Start,1743448396397,undefined,935,dream,undefined,psychological,physical,psychological,A,NULL
1743449012,483df338728e73183ef5894d7467915b,PennController,85,0,calibrator_phys_feedback,NULL,PennController,96,_Header_,End,1743448396650,undefined,935,dream,undefined,psychological,physical,psychological,A,NULL
1743449012,483df338728e73183ef5894d7467915b,PennController,85,0,calibrator_phys_feedback,NULL,Selector,Selection,Selection,psychological,1743448398088,undefined,935,dream,undefined,psychological,physical,psychological,A,physical;psychological
1743449012,483df338728e73183ef5894d7467915b,PennController,85,0,calibrator_phys_feedback,NULL,PennController,96,_Trial_,End,1743448400096,undefined,935,dream,undefined,psychological,physical,psychological,A,NULL
1743449012,483df338728e73183ef5894d7467915b,PennController,86,0,calibrator_phys_feedback,NULL,PennController,97,_Trial_,Start,1743448400099,undefined,968,fear,undefined,psychological,physical,psychological,A,NULL
1743449012,483df338728e73183ef5894d7467915b,PennController,86,0,calibrator_phys_feedback,NULL,PennController,97,_Header_,Start,1743448400099,undefined,968,fear,undefined,psychological,physical,psychological,A,NULL
1743449012,483df338728e73183ef5894d7467915b,PennController,86,0,calibrator_phys_feedback,NULL,PennController,97,_Header_,End,1743448400352,undefined,968,fear,undefined,psychological,physical,psychological,A,NULL
1743449012,483df338728e73183ef5894d7467915b,PennController,86,0,calibrator_phys_feedback,NULL,Selector,Selection,Selection,psychological,1743448401825,undefined,968,fear,undefined,psychological,physical,psychological,A,physical;psychological
1743449012,483df338728e73183ef5894d7467915b,PennController,86,0,calibrator_phys_feedback,NULL,PennController,97,_Trial_,End,1743448403831,undefined,968,fear,undefined,psychological,physical,psychological,A,NULL
1743449012,483df338728e73183ef5894d7467915b,PennController,92,0,calibrator_phys_feedback,NULL,PennController,103,_Trial_,Start,1743448403833,undefined,1027,water,undefined,psychological,physical,psychological,A,NULL
1743449012,483df338728e73183ef5894d7467915b,PennController,92,0,calibrator_phys_feedback,NULL,PennController,103,_Header_,Start,1743448403833,undefined,1027,water,undefined,psychological,physical,psychological,A,NULL
1743449012,483df338728e73183ef5894d7467915b,PennController,92,0,calibrator_phys_feedback,NULL,PennController,103,_Header_,End,1743448404084,undefined,1027,water,undefined,psychological,physical,psychological,A,NULL
1743449012,483df338728e73183ef5894d7467915b,PennController,92,0,calibrator_phys_feedback,NULL,Selector,Selection,Selection,physical,1743448405617,undefined,1027,water,undefined,psychological,physical,psychological,A,physical;psychological
1743449012,483df338728e73183ef5894d7467915b,PennController,92,0,calibrator_phys_feedback,NULL,PennController,103,_Trial_,End,1743448407623,undefined,1027,water,undefined,psychological,physical,psychological,A,NULL
1743449012,483df338728e73183ef5894d7467915b,PennController,90,0,calibrator_phys_feedback,NULL,PennController,101,_Trial_,Start,1743448407625,undefined,1250,heat,undefined,psychological,physical,psychological,A,NULL
1743449012,483df338728e73183ef5894d7467915b,PennController,90,0,calibrator_phys_feedback,NULL,PennController,101,_Header_,Start,1743448407625,undefined,1250,heat,undefined,psychological,physical,psychological,A,NULL
1743449012,483df338728e73183ef5894d7467915b,PennController,90,0,calibrator_phys_feedback,NULL,PennController,101,_Header_,End,1743448407879,undefined,1250,heat,undefined,psychological,physical,psychological,A,NULL
1743449012,483df338728e73183ef5894d7467915b,PennController,90,0,calibrator_phys_feedback,NULL,Selector,Selection,Selection,physical,1743448409631,undefined,1250,heat,undefined,psychological,physical,psychological,A,physical;psychological
1743449012,483df338728e73183ef5894d7467915b,PennController,90,0,calibrator_phys_feedback,NULL,PennController,101,_Trial_,End,1743448411638,undefined,1250,heat,undefined,psychological,physical,psychological,A,NULL
1743449012,483df338728e73183ef5894d7467915b,PennController,84,0,calibrator_phys_feedback,NULL,PennController,95,_Trial_,Start,1743448411640,undefined,782,mind,undefined,psychological,physical,psychological,A,NULL
1743449012,483df338728e73183ef5894d7467915b,PennController,84,0,calibrator_phys_feedback,NULL,PennController,95,_Header_,Start,1743448411640,undefined,782,mind,undefined,psychological,physical,psychological,A,NULL
1743449012,483df338728e73183ef5894d7467915b,PennController,84,0,calibrator_phys_feedback,NULL,PennController,95,_Header_,End,1743448411890,undefined,782,mind,undefined,psychological,physical,psychological,A,NULL
1743449012,483df338728e73183ef5894d7467915b,PennController,84,0,calibrator_phys_feedback,NULL,Selector,Selection,Selection,psychological,1743448413177,undefined,782,mind,undefined,psychological,physical,psychological,A,physical;psychological
1743449012,483df338728e73183ef5894d7467915b,PennController,84,0,calibrator_phys_feedback,NULL,PennController,95,_Trial_,End,1743448415186,undefined,782,mind,undefined,psychological,physical,psychological,A,NULL
# 16. Key_value_F.
# 17. Key_value_J.
# 18. Group.
# 19. Comments.
1743449012,483df338728e73183ef5894d7467915b,PennController,96,0,calibrator_phys_no_feedback,NULL,PennController,107,_Trial_,Start,1743448415189,undefined,1320,fear,physical,psychological,A,NULL
1743449012,483df338728e73183ef5894d7467915b,PennController,96,0,calibrator_phys_no_feedback,NULL,PennController,107,_Header_,Start,1743448415189,undefined,1320,fear,physical,psychological,A,NULL
1743449012,483df338728e73183ef5894d7467915b,PennController,96,0,calibrator_phys_no_feedback,NULL,PennController,107,_Header_,End,1743448415440,undefined,1320,fear,physical,psychological,A,NULL
1743449012,483df338728e73183ef5894d7467915b,PennController,96,0,calibrator_phys_no_feedback,NULL,Selector,unnamed-Selector,Selection,psychological,1743448417265,undefined,1320,fear,physical,psychological,A,physical;psychological
1743449012,483df338728e73183ef5894d7467915b,PennController,96,0,calibrator_phys_no_feedback,NULL,PennController,107,_Trial_,End,1743448417268,undefined,1320,fear,physical,psychological,A,NULL
1743449012,483df338728e73183ef5894d7467915b,PennController,94,0,calibrator_phys_no_feedback,NULL,PennController,105,_Trial_,Start,1743448417270,undefined,724,mind,physical,psychological,A,NULL
1743449012,483df338728e73183ef5894d7467915b,PennController,94,0,calibrator_phys_no_feedback,NULL,PennController,105,_Header_,Start,1743448417270,undefined,724,mind,physical,psychological,A,NULL
1743449012,483df338728e73183ef5894d7467915b,PennController,94,0,calibrator_phys_no_feedback,NULL,PennController,105,_Header_,End,1743448417523,undefined,724,mind,physical,psychological,A,NULL
1743449012,483df338728e73183ef5894d7467915b,PennController,94,0,calibrator_phys_no_feedback,NULL,Selector,unnamed-Selector,Selection,psychological,1743448418752,undefined,724,mind,physical,psychological,A,physical;psychological
1743449012,483df338728e73183ef5894d7467915b,PennController,94,0,calibrator_phys_no_feedback,NULL,PennController,105,_Trial_,End,1743448418754,undefined,724,mind,physical,psychological,A,NULL
1743449012,483df338728e73183ef5894d7467915b,PennController,99,0,calibrator_phys_no_feedback,NULL,PennController,110,_Trial_,Start,1743448418756,undefined,732,body,physical,psychological,A,NULL
1743449012,483df338728e73183ef5894d7467915b,PennController,99,0,calibrator_phys_no_feedback,NULL,PennController,110,_Header_,Start,1743448418756,undefined,732,body,physical,psychological,A,NULL
1743449012,483df338728e73183ef5894d7467915b,PennController,99,0,calibrator_phys_no_feedback,NULL,PennController,110,_Header_,End,1743448419007,undefined,732,body,physical,psychological,A,NULL
1743449012,483df338728e73183ef5894d7467915b,PennController,99,0,calibrator_phys_no_feedback,NULL,Selector,unnamed-Selector,Selection,physical,1743448420241,undefined,732,body,physical,psychological,A,physical;psychological
1743449012,483df338728e73183ef5894d7467915b,PennController,99,0,calibrator_phys_no_feedback,NULL,PennController,110,_Trial_,End,1743448420245,undefined,732,body,physical,psychological,A,NULL
1743449012,483df338728e73183ef5894d7467915b,PennController,103,0,calibrator_phys_no_feedback,NULL,PennController,114,_Trial_,Start,1743448420247,undefined,747,hand,physical,psychological,A,NULL
1743449012,483df338728e73183ef5894d7467915b,PennController,103,0,calibrator_phys_no_feedback,NULL,PennController,114,_Header_,Start,1743448420247,undefined,747,hand,physical,psychological,A,NULL
1743449012,483df338728e73183ef5894d7467915b,PennController,103,0,calibrator_phys_no_feedback,NULL,PennController,114,_Header_,End,1743448420502,undefined,747,hand,physical,psychological,A,NULL
1743449012,483df338728e73183ef5894d7467915b,PennController,103,0,calibrator_phys_no_feedback,NULL,Selector,unnamed-Selector,Selection,physical,1743448421752,undefined,747,hand,physical,psychological,A,physical;psychological
1743449012,483df338728e73183ef5894d7467915b,PennController,103,0,calibrator_phys_no_feedback,NULL,PennController,114,_Trial_,End,1743448421757,undefined,747,hand,physical,psychological,A,NULL
1743449012,483df338728e73183ef5894d7467915b,PennController,98,0,calibrator_phys_no_feedback,NULL,PennController,109,_Trial_,Start,1743448421759,undefined,724,mood,physical,psychological,A,NULL
1743449012,483df338728e73183ef5894d7467915b,PennController,98,0,calibrator_phys_no_feedback,NULL,PennController,109,_Header_,Start,1743448421759,undefined,724,mood,physical,psychological,A,NULL
1743449012,483df338728e73183ef5894d7467915b,PennController,98,0,calibrator_phys_no_feedback,NULL,PennController,109,_Header_,End,1743448422012,undefined,724,mood,physical,psychological,A,NULL
1743449012,483df338728e73183ef5894d7467915b,PennController,98,0,calibrator_phys_no_feedback,NULL,Selector,unnamed-Selector,Selection,psychological,1743448423241,undefined,724,mood,physical,psychological,A,physical;psychological
1743449012,483df338728e73183ef5894d7467915b,PennController,98,0,calibrator_phys_no_feedback,NULL,PennController,109,_Trial_,End,1743448423244,undefined,724,mood,physical,psychological,A,NULL
1743449012,483df338728e73183ef5894d7467915b,PennController,100,0,calibrator_phys_no_feedback,NULL,PennController,111,_Trial_,Start,1743448423247,undefined,714,heat,physical,psychological,A,NULL
1743449012,483df338728e73183ef5894d7467915b,PennController,100,0,calibrator_phys_no_feedback,NULL,PennController,111,_Header_,Start,1743448423247,undefined,714,heat,physical,psychological,A,NULL
1743449012,483df338728e73183ef5894d7467915b,PennController,100,0,calibrator_phys_no_feedback,NULL,PennController,111,_Header_,End,1743448423500,undefined,714,heat,physical,psychological,A,NULL
1743449012,483df338728e73183ef5894d7467915b,PennController,100,0,calibrator_phys_no_feedback,NULL,Selector,unnamed-Selector,Selection,physical,1743448424721,undefined,714,heat,physical,psychological,A,physical;psychological
1743449012,483df338728e73183ef5894d7467915b,PennController,100,0,calibrator_phys_no_feedback,NULL,PennController,111,_Trial_,End,1743448424725,undefined,714,heat,physical,psychological,A,NULL
1743449012,483df338728e73183ef5894d7467915b,PennController,101,0,calibrator_phys_no_feedback,NULL,PennController,112,_Trial_,Start,1743448424727,undefined,651,stone,physical,psychological,A,NULL
1743449012,483df338728e73183ef5894d7467915b,PennController,101,0,calibrator_phys_no_feedback,NULL,PennController,112,_Header_,Start,1743448424727,undefined,651,stone,physical,psychological,A,NULL
1743449012,483df338728e73183ef5894d7467915b,PennController,101,0,calibrator_phys_no_feedback,NULL,PennController,112,_Header_,End,1743448424979,undefined,651,stone,physical,psychological,A,NULL
1743449012,483df338728e73183ef5894d7467915b,PennController,101,0,calibrator_phys_no_feedback,NULL,Selector,unnamed-Selector,Selection,physical,1743448426136,undefined,651,stone,physical,psychological,A,physical;psychological
1743449012,483df338728e73183ef5894d7467915b,PennController,101,0,calibrator_phys_no_feedback,NULL,PennController,112,_Trial_,End,1743448426140,undefined,651,stone,physical,psychological,A,NULL
1743449012,483df338728e73183ef5894d7467915b,PennController,95,0,calibrator_phys_no_feedback,NULL,PennController,106,_Trial_,Start,1743448426143,undefined,716,dream,physical,psychological,A,NULL
1743449012,483df338728e73183ef5894d7467915b,PennController,95,0,calibrator_phys_no_feedback,NULL,PennController,106,_Header_,Start,1743448426143,undefined,716,dream,physical,psychological,A,NULL
1743449012,483df338728e73183ef5894d7467915b,PennController,95,0,calibrator_phys_no_feedback,NULL,PennController,106,_Header_,End,1743448426396,undefined,716,dream,physical,psychological,A,NULL
1743449012,483df338728e73183ef5894d7467915b,PennController,95,0,calibrator_phys_no_feedback,NULL,Selector,unnamed-Selector,Selection,psychological,1743448427616,undefined,716,dream,physical,psychological,A,physical;psychological
1743449012,483df338728e73183ef5894d7467915b,PennController,95,0,calibrator_phys_no_feedback,NULL,PennController,106,_Trial_,End,1743448427620,undefined,716,dream,physical,psychological,A,NULL
1743449012,483df338728e73183ef5894d7467915b,PennController,97,0,calibrator_phys_no_feedback,NULL,PennController,108,_Trial_,Start,1743448427622,undefined,657,memory,physical,psychological,A,NULL
1743449012,483df338728e73183ef5894d7467915b,PennController,97,0,calibrator_phys_no_feedback,NULL,PennController,108,_Header_,Start,1743448427622,undefined,657,memory,physical,psychological,A,NULL
1743449012,483df338728e73183ef5894d7467915b,PennController,97,0,calibrator_phys_no_feedback,NULL,PennController,108,_Header_,End,1743448427872,undefined,657,memory,physical,psychological,A,NULL
1743449012,483df338728e73183ef5894d7467915b,PennController,97,0,calibrator_phys_no_feedback,NULL,Selector,unnamed-Selector,Selection,psychological,1743448429033,undefined,657,memory,physical,psychological,A,physical;psychological
1743449012,483df338728e73183ef5894d7467915b,PennController,97,0,calibrator_phys_no_feedback,NULL,PennController,108,_Trial_,End,1743448429036,undefined,657,memory,physical,psychological,A,NULL
1743449012,483df338728e73183ef5894d7467915b,PennController,102,0,calibrator_phys_no_feedback,NULL,PennController,113,_Trial_,Start,1743448429037,undefined,678,water,physical,psychological,A,NULL
1743449012,483df338728e73183ef5894d7467915b,PennController,102,0,calibrator_phys_no_feedback,NULL,PennController,113,_Header_,Start,1743448429037,undefined,678,water,physical,psychological,A,NULL
1743449012,483df338728e73183ef5894d7467915b,PennController,102,0,calibrator_phys_no_feedback,NULL,PennController,113,_Header_,End,1743448429289,undefined,678,water,physical,psychological,A,NULL
1743449012,483df338728e73183ef5894d7467915b,PennController,102,0,calibrator_phys_no_feedback,NULL,Selector,unnamed-Selector,Selection,physical,1743448430471,undefined,678,water,physical,psychological,A,physical;psychological
1743449012,483df338728e73183ef5894d7467915b,PennController,102,0,calibrator_phys_no_feedback,NULL,PennController,113,_Trial_,End,1743448430476,undefined,678,water,physical,psychological,A,NULL
1743449012,483df338728e73183ef5894d7467915b,PennController,11,0,test_physpsych,NULL,PennController,22,_Trial_,Start,1743448430478,undefined,1239,twinkle,physical,psychological,A,NULL
1743449012,483df338728e73183ef5894d7467915b,PennController,11,0,test_physpsych,NULL,PennController,22,_Header_,Start,1743448430478,undefined,1239,twinkle,physical,psychological,A,NULL
1743449012,483df338728e73183ef5894d7467915b,PennController,11,0,test_physpsych,NULL,PennController,22,_Header_,End,1743448430728,undefined,1239,twinkle,physical,psychological,A,NULL
1743449012,483df338728e73183ef5894d7467915b,PennController,11,0,test_physpsych,NULL,Selector,unnamed-Selector,Selection,physical,1743448432473,undefined,1239,twinkle,physical,psychological,A,physical;psychological
1743449012,483df338728e73183ef5894d7467915b,PennController,11,0,test_physpsych,NULL,PennController,22,_Trial_,End,1743448432477,undefined,1239,twinkle,physical,psychological,A,NULL
1743449012,483df338728e73183ef5894d7467915b,PennController,12,0,test_physpsych,NULL,PennController,23,_Trial_,Start,1743448432479,undefined,1165,decorate,physical,psychological,A,NULL
1743449012,483df338728e73183ef5894d7467915b,PennController,12,0,test_physpsych,NULL,PennController,23,_Header_,Start,1743448432479,undefined,1165,decorate,physical,psychological,A,NULL
1743449012,483df338728e73183ef5894d7467915b,PennController,12,0,test_physpsych,NULL,PennController,23,_Header_,End,1743448432732,undefined,1165,decorate,physical,psychological,A,NULL
1743449012,483df338728e73183ef5894d7467915b,PennController,12,0,test_physpsych,NULL,Selector,unnamed-Selector,Selection,physical,1743448434401,undefined,1165,decorate,physical,psychological,A,physical;psychological
1743449012,483df338728e73183ef5894d7467915b,PennController,12,0,test_physpsych,NULL,PennController,23,_Trial_,End,1743448434405,undefined,1165,decorate,physical,psychological,A,NULL
1743449012,483df338728e73183ef5894d7467915b,PennController,23,0,test_physpsych,NULL,PennController,34,_Trial_,Start,1743448434407,undefined,1029,cherish,physical,psychological,A,NULL
1743449012,483df338728e73183ef5894d7467915b,PennController,23,0,test_physpsych,NULL,PennController,34,_Header_,Start,1743448434407,undefined,1029,cherish,physical,psychological,A,NULL
1743449012,483df338728e73183ef5894d7467915b,PennController,23,0,test_physpsych,NULL,PennController,34,_Header_,End,1743448434659,undefined,1029,cherish,physical,psychological,A,NULL
1743449012,483df338728e73183ef5894d7467915b,PennController,23,0,test_physpsych,NULL,Selector,unnamed-Selector,Selection,psychological,1743448436193,undefined,1029,cherish,physical,psychological,A,physical;psychological
1743449012,483df338728e73183ef5894d7467915b,PennController,23,0,test_physpsych,NULL,PennController,34,_Trial_,End,1743448436197,undefined,1029,cherish,physical,psychological,A,NULL
1743449012,483df338728e73183ef5894d7467915b,PennController,27,0,test_physpsych,NULL,PennController,38,_Trial_,Start,1743448436199,undefined,966,crash,physical,psychological,A,NULL
1743449012,483df338728e73183ef5894d7467915b,PennController,27,0,test_physpsych,NULL,PennController,38,_Header_,Start,1743448436199,undefined,966,crash,physical,psychological,A,NULL
1743449012,483df338728e73183ef5894d7467915b,PennController,27,0,test_physpsych,NULL,PennController,38,_Header_,End,1743448436450,undefined,966,crash,physical,psychological,A,NULL
1743449012,483df338728e73183ef5894d7467915b,PennController,27,0,test_physpsych,NULL,Selector,unnamed-Selector,Selection,physical,1743448437921,undefined,966,crash,physical,psychological,A,physical;psychological
1743449012,483df338728e73183ef5894d7467915b,PennController,27,0,test_physpsych,NULL,PennController,38,_Trial_,End,1743448437924,undefined,966,crash,physical,psychological,A,NULL
1743449012,483df338728e73183ef5894d7467915b,PennController,32,0,test_physpsych,NULL,PennController,43,_Trial_,Start,1743448437927,undefined,1198,delete,physical,psychological,A,NULL
1743449012,483df338728e73183ef5894d7467915b,PennController,32,0,test_physpsych,NULL,PennController,43,_Header_,Start,1743448437927,undefined,1198,delete,physical,psychological,A,NULL
1743449012,483df338728e73183ef5894d7467915b,PennController,32,0,test_physpsych,NULL,PennController,43,_Header_,End,1743448438178,undefined,1198,delete,physical,psychological,A,NULL
1743449012,483df338728e73183ef5894d7467915b,PennController,32,0,test_physpsych,NULL,Selector,unnamed-Selector,Selection,physical,1743448439881,undefined,1198,delete,physical,psychological,A,physical;psychological
1743449012,483df338728e73183ef5894d7467915b,PennController,32,0,test_physpsych,NULL,PennController,43,_Trial_,End,1743448439885,undefined,1198,delete,physical,psychological,A,NULL
1743449012,483df338728e73183ef5894d7467915b,PennController,14,0,test_physpsych,NULL,PennController,25,_Trial_,Start,1743448439887,undefined,1521,content,physical,psychological,A,NULL
1743449012,483df338728e73183ef5894d7467915b,PennController,14,0,test_physpsych,NULL,PennController,25,_Header_,Start,1743448439887,undefined,1521,content,physical,psychological,A,NULL
1743449012,483df338728e73183ef5894d7467915b,PennController,14,0,test_physpsych,NULL,PennController,25,_Header_,End,1743448440140,undefined,1521,content,physical,psychological,A,NULL
1743449012,483df338728e73183ef5894d7467915b,PennController,14,0,test_physpsych,NULL,Selector,unnamed-Selector,Selection,physical,1743448442167,undefined,1521,content,physical,psychological,A,physical;psychological
1743449012,483df338728e73183ef5894d7467915b,PennController,14,0,test_physpsych,NULL,PennController,25,_Trial_,End,1743448442170,undefined,1521,content,physical,psychological,A,NULL
1743449012,483df338728e73183ef5894d7467915b,PennController,29,0,test_physpsych,NULL,PennController,40,_Trial_,Start,1743448442171,undefined,1200,burn,physical,psychological,A,NULL
1743449012,483df338728e73183ef5894d7467915b,PennController,29,0,test_physpsych,NULL,PennController,40,_Header_,Start,1743448442171,undefined,1200,burn,physical,psychological,A,NULL
1743449012,483df338728e73183ef5894d7467915b,PennController,29,0,test_physpsych,NULL,PennController,40,_Header_,End,1743448442422,undefined,1200,burn,physical,psychological,A,NULL
1743449012,483df338728e73183ef5894d7467915b,PennController,29,0,test_physpsych,NULL,Selector,unnamed-Selector,Selection,physical,1743448444129,undefined,1200,burn,physical,psychological,A,physical;psychological
1743449012,483df338728e73183ef5894d7467915b,PennController,29,0,test_physpsych,NULL,PennController,40,_Trial_,End,1743448444132,undefined,1200,burn,physical,psychological,A,NULL
1743449012,483df338728e73183ef5894d7467915b,PennController,6,0,test_physpsych,NULL,PennController,17,_Trial_,Start,1743448444133,undefined,989,repair,physical,psychological,A,NULL
1743449012,483df338728e73183ef5894d7467915b,PennController,6,0,test_physpsych,NULL,PennController,17,_Header_,Start,1743448444133,undefined,989,repair,physical,psychological,A,NULL
1743449012,483df338728e73183ef5894d7467915b,PennController,6,0,test_physpsych,NULL,PennController,17,_Header_,End,1743448444387,undefined,989,repair,physical,psychological,A,NULL
1743449012,483df338728e73183ef5894d7467915b,PennController,6,0,test_physpsych,NULL,Selector,unnamed-Selector,Selection,physical,1743448445880,undefined,989,repair,physical,psychological,A,physical;psychological
1743449012,483df338728e73183ef5894d7467915b,PennController,6,0,test_physpsych,NULL,PennController,17,_Trial_,End,1743448445883,undefined,989,repair,physical,psychological,A,NULL
1743449012,483df338728e73183ef5894d7467915b,PennController,43,0,test_physpsych,NULL,PennController,54,_Trial_,Start,1743448445885,undefined,870,dread,physical,psychological,A,NULL
1743449012,483df338728e73183ef5894d7467915b,PennController,43,0,test_physpsych,NULL,PennController,54,_Header_,Start,1743448445885,undefined,870,dread,physical,psychological,A,NULL
1743449012,483df338728e73183ef5894d7467915b,PennController,43,0,test_physpsych,NULL,PennController,54,_Header_,End,1743448446138,undefined,870,dread,physical,psychological,A,NULL
1743449012,483df338728e73183ef5894d7467915b,PennController,43,0,test_physpsych,NULL,Selector,unnamed-Selector,Selection,psychological,1743448447512,undefined,870,dread,physical,psychological,A,physical;psychological
1743449012,483df338728e73183ef5894d7467915b,PennController,43,0,test_physpsych,NULL,PennController,54,_Trial_,End,1743448447515,undefined,870,dread,physical,psychological,A,NULL
1743449012,483df338728e73183ef5894d7467915b,PennController,13,0,test_physpsych,NULL,PennController,24,_Trial_,Start,1743448447516,undefined,774,clean,physical,psychological,A,NULL
1743449012,483df338728e73183ef5894d7467915b,PennController,13,0,test_physpsych,NULL,PennController,24,_Header_,Start,1743448447517,undefined,774,clean,physical,psychological,A,NULL
1743449012,483df338728e73183ef5894d7467915b,PennController,13,0,test_physpsych,NULL,PennController,24,_Header_,End,1743448447770,undefined,774,clean,physical,psychological,A,NULL
1743449012,483df338728e73183ef5894d7467915b,PennController,13,0,test_physpsych,NULL,Selector,unnamed-Selector,Selection,physical,1743448449049,undefined,774,clean,physical,psychological,A,physical;psychological
1743449012,483df338728e73183ef5894d7467915b,PennController,13,0,test_physpsych,NULL,PennController,24,_Trial_,End,1743448449053,undefined,774,clean,physical,psychological,A,NULL
1743449012,483df338728e73183ef5894d7467915b,PennController,28,0,test_physpsych,NULL,PennController,39,_Trial_,Start,1743448449055,undefined,911,tear,physical,psychological,A,NULL
1743449012,483df338728e73183ef5894d7467915b,PennController,28,0,test_physpsych,NULL,PennController,39,_Header_,Start,1743448449055,undefined,911,tear,physical,psychological,A,NULL
1743449012,483df338728e73183ef5894d7467915b,PennController,28,0,test_physpsych,NULL,PennController,39,_Header_,End,1743448449305,undefined,911,tear,physical,psychological,A,NULL
1743449012,483df338728e73183ef5894d7467915b,PennController,28,0,test_physpsych,NULL,Selector,unnamed-Selector,Selection,physical,1743448450722,undefined,911,tear,physical,psychological,A,physical;psychological
1743449012,483df338728e73183ef5894d7467915b,PennController,28,0,test_physpsych,NULL,PennController,39,_Trial_,End,1743448450726,undefined,911,tear,physical,psychological,A,NULL
1743449012,483df338728e73183ef5894d7467915b,PennController,19,0,test_physpsych,NULL,PennController,30,_Trial_,Start,1743448450728,undefined,1093,reassure,physical,psychological,A,NULL
1743449012,483df338728e73183ef5894d7467915b,PennController,19,0,test_physpsych,NULL,PennController,30,_Header_,Start,1743448450728,undefined,1093,reassure,physical,psychological,A,NULL
1743449012,483df338728e73183ef5894d7467915b,PennController,19,0,test_physpsych,NULL,PennController,30,_Header_,End,1743448450981,undefined,1093,reassure,physical,psychological,A,NULL
1743449012,483df338728e73183ef5894d7467915b,PennController,19,0,test_physpsych,NULL,Selector,unnamed-Selector,Selection,psychological,1743448452577,undefined,1093,reassure,physical,psychological,A,physical;psychological
1743449012,483df338728e73183ef5894d7467915b,PennController,19,0,test_physpsych,NULL,PennController,30,_Trial_,End,1743448452581,undefined,1093,reassure,physical,psychological,A,NULL
1743449012,483df338728e73183ef5894d7467915b,PennController,7,0,test_physpsych,NULL,PennController,18,_Trial_,Start,1743448452583,undefined,1182,caress,physical,psychological,A,NULL
1743449012,483df338728e73183ef5894d7467915b,PennController,7,0,test_physpsych,NULL,PennController,18,_Header_,Start,1743448452583,undefined,1182,caress,physical,psychological,A,NULL
1743449012,483df338728e73183ef5894d7467915b,PennController,7,0,test_physpsych,NULL,PennController,18,_Header_,End,1743448452835,undefined,1182,caress,physical,psychological,A,NULL
1743449012,483df338728e73183ef5894d7467915b,PennController,7,0,test_physpsych,NULL,Selector,unnamed-Selector,Selection,physical,1743448454520,undefined,1182,caress,physical,psychological,A,physical;psychological
1743449012,483df338728e73183ef5894d7467915b,PennController,7,0,test_physpsych,NULL,PennController,18,_Trial_,End,1743448454525,undefined,1182,caress,physical,psychological,A,NULL
1743449012,483df338728e73183ef5894d7467915b,PennController,38,0,test_physpsych,NULL,PennController,49,_Trial_,Start,1743448454527,undefined,972,dishonor,physical,psychological,A,NULL
1743449012,483df338728e73183ef5894d7467915b,PennController,38,0,test_physpsych,NULL,PennController,49,_Header_,Start,1743448454527,undefined,972,dishonor,physical,psychological,A,NULL
1743449012,483df338728e73183ef5894d7467915b,PennController,38,0,test_physpsych,NULL,PennController,49,_Header_,End,1743448454780,undefined,972,dishonor,physical,psychological,A,NULL
1743449012,483df338728e73183ef5894d7467915b,PennController,38,0,test_physpsych,NULL,Selector,unnamed-Selector,Selection,psychological,1743448456257,undefined,972,dishonor,physical,psychological,A,physical;psychological
1743449012,483df338728e73183ef5894d7467915b,PennController,38,0,test_physpsych,NULL,PennController,49,_Trial_,End,1743448456260,undefined,972,dishonor,physical,psychological,A,NULL
1743449012,483df338728e73183ef5894d7467915b,PennController,10,0,test_physpsych,NULL,PennController,21,_Trial_,Start,1743448456263,undefined,804,sculpt,physical,psychological,A,NULL
1743449012,483df338728e73183ef5894d7467915b,PennController,10,0,test_physpsych,NULL,PennController,21,_Header_,Start,1743448456263,undefined,804,sculpt,physical,psychological,A,NULL
1743449012,483df338728e73183ef5894d7467915b,PennController,10,0,test_physpsych,NULL,PennController,21,_Header_,End,1743448456516,undefined,804,sculpt,physical,psychological,A,NULL
1743449012,483df338728e73183ef5894d7467915b,PennController,10,0,test_physpsych,NULL,Selector,unnamed-Selector,Selection,physical,1743448457826,undefined,804,sculpt,physical,psychological,A,physical;psychological
1743449012,483df338728e73183ef5894d7467915b,PennController,10,0,test_physpsych,NULL,PennController,21,_Trial_,End,1743448457829,undefined,804,sculpt,physical,psychological,A,NULL
1743449012,483df338728e73183ef5894d7467915b,PennController,41,0,test_physpsych,NULL,PennController,52,_Trial_,Start,1743448457831,undefined,763,dismay,physical,psychological,A,NULL
1743449012,483df338728e73183ef5894d7467915b,PennController,41,0,test_physpsych,NULL,PennController,52,_Header_,Start,1743448457831,undefined,763,dismay,physical,psychological,A,NULL
1743449012,483df338728e73183ef5894d7467915b,PennController,41,0,test_physpsych,NULL,PennController,52,_Header_,End,1743448458084,undefined,763,dismay,physical,psychological,A,NULL
1743449012,483df338728e73183ef5894d7467915b,PennController,41,0,test_physpsych,NULL,Selector,unnamed-Selector,Selection,psychological,1743448459352,undefined,763,dismay,physical,psychological,A,physical;psychological
1743449012,483df338728e73183ef5894d7467915b,PennController,41,0,test_physpsych,NULL,PennController,52,_Trial_,End,1743448459355,undefined,763,dismay,physical,psychological,A,NULL
1743449012,483df338728e73183ef5894d7467915b,PennController,36,0,test_physpsych,NULL,PennController,47,_Trial_,Start,1743448459356,undefined,808,irritate,physical,psychological,A,NULL
1743449012,483df338728e73183ef5894d7467915b,PennController,36,0,test_physpsych,NULL,PennController,47,_Header_,Start,1743448459356,undefined,808,irritate,physical,psychological,A,NULL
1743449012,483df338728e73183ef5894d7467915b,PennController,36,0,test_physpsych,NULL,PennController,47,_Header_,End,1743448459609,undefined,808,irritate,physical,psychological,A,NULL
1743449012,483df338728e73183ef5894d7467915b,PennController,36,0,test_physpsych,NULL,Selector,unnamed-Selector,Selection,psychological,1743448460921,undefined,808,irritate,physical,psychological,A,physical;psychological
1743449012,483df338728e73183ef5894d7467915b,PennController,36,0,test_physpsych,NULL,PennController,47,_Trial_,End,1743448460925,undefined,808,irritate,physical,psychological,A,NULL
1743449012,483df338728e73183ef5894d7467915b,PennController,40,0,test_physpsych,NULL,PennController,51,_Trial_,Start,1743448460927,undefined,1155,discourage,physical,psychological,A,NULL
1743449012,483df338728e73183ef5894d7467915b,PennController,40,0,test_physpsych,NULL,PennController,51,_Header_,Start,1743448460927,undefined,1155,discourage,physical,psychological,A,NULL
1743449012,483df338728e73183ef5894d7467915b,PennController,40,0,test_physpsych,NULL,PennController,51,_Header_,End,1743448461180,undefined,1155,discourage,physical,psychological,A,NULL
1743449012,483df338728e73183ef5894d7467915b,PennController,40,0,test_physpsych,NULL,Selector,unnamed-Selector,Selection,psychological,1743448462841,undefined,1155,discourage,physical,psychological,A,physical;psychological
1743449012,483df338728e73183ef5894d7467915b,PennController,40,0,test_physpsych,NULL,PennController,51,_Trial_,End,1743448462846,undefined,1155,discourage,physical,psychological,A,NULL
1743449012,483df338728e73183ef5894d7467915b,PennController,18,0,test_physpsych,NULL,PennController,29,_Trial_,Start,1743448462849,undefined,739,like,physical,psychological,A,NULL
1743449012,483df338728e73183ef5894d7467915b,PennController,18,0,test_physpsych,NULL,PennController,29,_Header_,Start,1743448462849,undefined,739,like,physical,psychological,A,NULL
1743449012,483df338728e73183ef5894d7467915b,PennController,18,0,test_physpsych,NULL,PennController,29,_Header_,End,1743448463102,undefined,739,like,physical,psychological,A,NULL
1743449012,483df338728e73183ef5894d7467915b,PennController,18,0,test_physpsych,NULL,Selector,unnamed-Selector,Selection,psychological,1743448464344,undefined,739,like,physical,psychological,A,physical;psychological
1743449012,483df338728e73183ef5894d7467915b,PennController,18,0,test_physpsych,NULL,PennController,29,_Trial_,End,1743448464346,undefined,739,like,physical,psychological,A,NULL
1743449012,483df338728e73183ef5894d7467915b,PennController,22,0,test_physpsych,NULL,PennController,33,_Trial_,Start,1743448464348,undefined,671,adore,physical,psychological,A,NULL
1743449012,483df338728e73183ef5894d7467915b,PennController,22,0,test_physpsych,NULL,PennController,33,_Header_,Start,1743448464348,undefined,671,adore,physical,psychological,A,NULL
1743449012,483df338728e73183ef5894d7467915b,PennController,22,0,test_physpsych,NULL,PennController,33,_Header_,End,1743448464600,undefined,671,adore,physical,psychological,A,NULL
1743449012,483df338728e73183ef5894d7467915b,PennController,22,0,test_physpsych,NULL,Selector,unnamed-Selector,Selection,psychological,1743448465777,undefined,671,adore,physical,psychological,A,physical;psychological
1743449012,483df338728e73183ef5894d7467915b,PennController,22,0,test_physpsych,NULL,PennController,33,_Trial_,End,1743448465781,undefined,671,adore,physical,psychological,A,NULL
1743449012,483df338728e73183ef5894d7467915b,PennController,24,0,test_physpsych,NULL,PennController,35,_Trial_,Start,1743448465783,undefined,723,rust,physical,psychological,A,NULL
1743449012,483df338728e73183ef5894d7467915b,PennController,24,0,test_physpsych,NULL,PennController,35,_Header_,Start,1743448465783,undefined,723,rust,physical,psychological,A,NULL
1743449012,483df338728e73183ef5894d7467915b,PennController,24,0,test_physpsych,NULL,PennController,35,_Header_,End,1743448466038,undefined,723,rust,physical,psychological,A,NULL
1743449012,483df338728e73183ef5894d7467915b,PennController,24,0,test_physpsych,NULL,Selector,unnamed-Selector,Selection,physical,1743448467266,undefined,723,rust,physical,psychological,A,physical;psychological
1743449012,483df338728e73183ef5894d7467915b,PennController,24,0,test_physpsych,NULL,PennController,35,_Trial_,End,1743448467270,undefined,723,rust,physical,psychological,A,NULL
1743449012,483df338728e73183ef5894d7467915b,PennController,5,0,test_physpsych,NULL,PennController,16,_Trial_,Start,1743448467272,undefined,758,build,physical,psychological,A,NULL
1743449012,483df338728e73183ef5894d7467915b,PennController,5,0,test_physpsych,NULL,PennController,16,_Header_,Start,1743448467272,undefined,758,build,physical,psychological,A,NULL
1743449012,483df338728e73183ef5894d7467915b,PennController,5,0,test_physpsych,NULL,PennController,16,_Header_,End,1743448467522,undefined,758,build,physical,psychological,A,NULL
1743449012,483df338728e73183ef5894d7467915b,PennController,5,0,test_physpsych,NULL,Selector,unnamed-Selector,Selection,physical,1743448468784,undefined,758,build,physical,psychological,A,physical;psychological
1743449012,483df338728e73183ef5894d7467915b,PennController,5,0,test_physpsych,NULL,PennController,16,_Trial_,End,1743448468789,undefined,758,build,physical,psychological,A,NULL
1743449012,483df338728e73183ef5894d7467915b,PennController,31,0,test_physpsych,NULL,PennController,42,_Trial_,Start,1743448468791,undefined,1013,stain,physical,psychological,A,NULL
1743449012,483df338728e73183ef5894d7467915b,PennController,31,0,test_physpsych,NULL,PennController,42,_Header_,Start,1743448468791,undefined,1013,stain,physical,psychological,A,NULL
1743449012,483df338728e73183ef5894d7467915b,PennController,31,0,test_physpsych,NULL,PennController,42,_Header_,End,1743448469044,undefined,1013,stain,physical,psychological,A,NULL
1743449012,483df338728e73183ef5894d7467915b,PennController,31,0,test_physpsych,NULL,Selector,unnamed-Selector,Selection,physical,1743448470561,undefined,1013,stain,physical,psychological,A,physical;psychological
1743449012,483df338728e73183ef5894d7467915b,PennController,31,0,test_physpsych,NULL,PennController,42,_Trial_,End,1743448470566,undefined,1013,stain,physical,psychological,A,NULL
1743449012,483df338728e73183ef5894d7467915b,PennController,26,0,test_physpsych,NULL,PennController,37,_Trial_,Start,1743448470568,undefined,878,slash,physical,psychological,A,NULL
1743449012,483df338728e73183ef5894d7467915b,PennController,26,0,test_physpsych,NULL,PennController,37,_Header_,Start,1743448470568,undefined,878,slash,physical,psychological,A,NULL
1743449012,483df338728e73183ef5894d7467915b,PennController,26,0,test_physpsych,NULL,PennController,37,_Header_,End,1743448470818,undefined,878,slash,physical,psychological,A,NULL
1743449012,483df338728e73183ef5894d7467915b,PennController,26,0,test_physpsych,NULL,Selector,unnamed-Selector,Selection,physical,1743448472199,undefined,878,slash,physical,psychological,A,physical;psychological
1743449012,483df338728e73183ef5894d7467915b,PennController,26,0,test_physpsych,NULL,PennController,37,_Trial_,End,1743448472202,undefined,878,slash,physical,psychological,A,NULL
1743449012,483df338728e73183ef5894d7467915b,PennController,15,0,test_physpsych,NULL,PennController,26,_Trial_,Start,1743448472203,undefined,810,encourage,physical,psychological,A,NULL
1743449012,483df338728e73183ef5894d7467915b,PennController,15,0,test_physpsych,NULL,PennController,26,_Header_,Start,1743448472203,undefined,810,encourage,physical,psychological,A,NULL
1743449012,483df338728e73183ef5894d7467915b,PennController,15,0,test_physpsych,NULL,PennController,26,_Header_,End,1743448472453,undefined,810,encourage,physical,psychological,A,NULL
1743449012,483df338728e73183ef5894d7467915b,PennController,15,0,test_physpsych,NULL,Selector,unnamed-Selector,Selection,psychological,1743448473767,undefined,810,encourage,physical,psychological,A,physical;psychological
1743449012,483df338728e73183ef5894d7467915b,PennController,15,0,test_physpsych,NULL,PennController,26,_Trial_,End,1743448473771,undefined,810,encourage,physical,psychological,A,NULL
1743449012,483df338728e73183ef5894d7467915b,PennController,21,0,test_physpsych,NULL,PennController,32,_Trial_,Start,1743448473774,undefined,605,admire,physical,psychological,A,NULL
1743449012,483df338728e73183ef5894d7467915b,PennController,21,0,test_physpsych,NULL,PennController,32,_Header_,Start,1743448473774,undefined,605,admire,physical,psychological,A,NULL
1743449012,483df338728e73183ef5894d7467915b,PennController,21,0,test_physpsych,NULL,PennController,32,_Header_,End,1743448474025,undefined,605,admire,physical,psychological,A,NULL
1743449012,483df338728e73183ef5894d7467915b,PennController,21,0,test_physpsych,NULL,Selector,unnamed-Selector,Selection,psychological,1743448475136,undefined,605,admire,physical,psychological,A,physical;psychological
1743449012,483df338728e73183ef5894d7467915b,PennController,21,0,test_physpsych,NULL,PennController,32,_Trial_,End,1743448475139,undefined,605,admire,physical,psychological,A,NULL
1743449012,483df338728e73183ef5894d7467915b,PennController,20,0,test_physpsych,NULL,PennController,31,_Trial_,Start,1743448475142,undefined,777,respect,physical,psychological,A,NULL
1743449012,483df338728e73183ef5894d7467915b,PennController,20,0,test_physpsych,NULL,PennController,31,_Header_,Start,1743448475142,undefined,777,respect,physical,psychological,A,NULL
1743449012,483df338728e73183ef5894d7467915b,PennController,20,0,test_physpsych,NULL,PennController,31,_Header_,End,1743448475392,undefined,777,respect,physical,psychological,A,NULL
1743449012,483df338728e73183ef5894d7467915b,PennController,20,0,test_physpsych,NULL,Selector,unnamed-Selector,Selection,psychological,1743448476673,undefined,777,respect,physical,psychological,A,physical;psychological
1743449012,483df338728e73183ef5894d7467915b,PennController,20,0,test_physpsych,NULL,PennController,31,_Trial_,End,1743448476677,undefined,777,respect,physical,psychological,A,NULL
1743449012,483df338728e73183ef5894d7467915b,PennController,9,0,test_physpsych,NULL,PennController,20,_Trial_,Start,1743448476679,undefined,886,produce,physical,psychological,A,NULL
1743449012,483df338728e73183ef5894d7467915b,PennController,9,0,test_physpsych,NULL,PennController,20,_Header_,Start,1743448476679,undefined,886,produce,physical,psychological,A,NULL
1743449012,483df338728e73183ef5894d7467915b,PennController,9,0,test_physpsych,NULL,PennController,20,_Header_,End,1743448476930,undefined,886,produce,physical,psychological,A,NULL
1743449012,483df338728e73183ef5894d7467915b,PennController,9,0,test_physpsych,NULL,Selector,unnamed-Selector,Selection,physical,1743448478322,undefined,886,produce,physical,psychological,A,physical;psychological
1743449012,483df338728e73183ef5894d7467915b,PennController,9,0,test_physpsych,NULL,PennController,20,_Trial_,End,1743448478325,undefined,886,produce,physical,psychological,A,NULL
1743449012,483df338728e73183ef5894d7467915b,PennController,17,0,test_physpsych,NULL,PennController,28,_Trial_,Start,1743448478327,undefined,1053,impress,physical,psychological,A,NULL
1743449012,483df338728e73183ef5894d7467915b,PennController,17,0,test_physpsych,NULL,PennController,28,_Header_,Start,1743448478327,undefined,1053,impress,physical,psychological,A,NULL
1743449012,483df338728e73183ef5894d7467915b,PennController,17,0,test_physpsych,NULL,PennController,28,_Header_,End,1743448478577,undefined,1053,impress,physical,psychological,A,NULL
1743449012,483df338728e73183ef5894d7467915b,PennController,17,0,test_physpsych,NULL,Selector,unnamed-Selector,Selection,psychological,1743448480137,undefined,1053,impress,physical,psychological,A,physical;psychological
1743449012,483df338728e73183ef5894d7467915b,PennController,17,0,test_physpsych,NULL,PennController,28,_Trial_,End,1743448480140,undefined,1053,impress,physical,psychological,A,NULL
1743449012,483df338728e73183ef5894d7467915b,PennController,39,0,test_physpsych,NULL,PennController,50,_Trial_,Start,1743448480142,undefined,850,embarrass,physical,psychological,A,NULL
1743449012,483df338728e73183ef5894d7467915b,PennController,39,0,test_physpsych,NULL,PennController,50,_Header_,Start,1743448480142,undefined,850,embarrass,physical,psychological,A,NULL
1743449012,483df338728e73183ef5894d7467915b,PennController,39,0,test_physpsych,NULL,PennController,50,_Header_,End,1743448480395,undefined,850,embarrass,physical,psychological,A,NULL
1743449012,483df338728e73183ef5894d7467915b,PennController,39,0,test_physpsych,NULL,Selector,unnamed-Selector,Selection,psychological,1743448481753,undefined,850,embarrass,physical,psychological,A,physical;psychological
1743449012,483df338728e73183ef5894d7467915b,PennController,39,0,test_physpsych,NULL,PennController,50,_Trial_,End,1743448481757,undefined,850,embarrass,physical,psychological,A,NULL
1743449012,483df338728e73183ef5894d7467915b,PennController,34,0,test_physpsych,NULL,PennController,45,_Trial_,Start,1743448481758,undefined,708,offend,physical,psychological,A,NULL
1743449012,483df338728e73183ef5894d7467915b,PennController,34,0,test_physpsych,NULL,PennController,45,_Header_,Start,1743448481758,undefined,708,offend,physical,psychological,A,NULL
1743449012,483df338728e73183ef5894d7467915b,PennController,34,0,test_physpsych,NULL,PennController,45,_Header_,End,1743448482011,undefined,708,offend,physical,psychological,A,NULL
1743449012,483df338728e73183ef5894d7467915b,PennController,34,0,test_physpsych,NULL,Selector,unnamed-Selector,Selection,psychological,1743448483225,undefined,708,offend,physical,psychological,A,physical;psychological
1743449012,483df338728e73183ef5894d7467915b,PennController,34,0,test_physpsych,NULL,PennController,45,_Trial_,End,1743448483228,undefined,708,offend,physical,psychological,A,NULL
1743449012,483df338728e73183ef5894d7467915b,PennController,33,0,test_physpsych,NULL,PennController,44,_Trial_,Start,1743448483230,undefined,1123,corrode,physical,psychological,A,NULL
1743449012,483df338728e73183ef5894d7467915b,PennController,33,0,test_physpsych,NULL,PennController,44,_Header_,Start,1743448483230,undefined,1123,corrode,physical,psychological,A,NULL
1743449012,483df338728e73183ef5894d7467915b,PennController,33,0,test_physpsych,NULL,PennController,44,_Header_,End,1743448483483,undefined,1123,corrode,physical,psychological,A,NULL
1743449012,483df338728e73183ef5894d7467915b,PennController,33,0,test_physpsych,NULL,Selector,unnamed-Selector,Selection,physical,1743448485113,undefined,1123,corrode,physical,psychological,A,physical;psychological
1743449012,483df338728e73183ef5894d7467915b,PennController,33,0,test_physpsych,NULL,PennController,44,_Trial_,End,1743448485116,undefined,1123,corrode,physical,psychological,A,NULL
1743449012,483df338728e73183ef5894d7467915b,PennController,16,0,test_physpsych,NULL,PennController,27,_Trial_,Start,1743448485118,undefined,806,appreciate,physical,psychological,A,NULL
1743449012,483df338728e73183ef5894d7467915b,PennController,16,0,test_physpsych,NULL,PennController,27,_Header_,Start,1743448485118,undefined,806,appreciate,physical,psychological,A,NULL
1743449012,483df338728e73183ef5894d7467915b,PennController,16,0,test_physpsych,NULL,PennController,27,_Header_,End,1743448485369,undefined,806,appreciate,physical,psychological,A,NULL
1743449012,483df338728e73183ef5894d7467915b,PennController,16,0,test_physpsych,NULL,Selector,unnamed-Selector,Selection,psychological,1743448486680,undefined,806,appreciate,physical,psychological,A,physical;psychological
1743449012,483df338728e73183ef5894d7467915b,PennController,16,0,test_physpsych,NULL,PennController,27,_Trial_,End,1743448486683,undefined,806,appreciate,physical,psychological,A,NULL
1743449012,483df338728e73183ef5894d7467915b,PennController,25,0,test_physpsych,NULL,PennController,36,_Trial_,Start,1743448486685,undefined,920,slaughter,physical,psychological,A,NULL
1743449012,483df338728e73183ef5894d7467915b,PennController,25,0,test_physpsych,NULL,PennController,36,_Header_,Start,1743448486685,undefined,920,slaughter,physical,psychological,A,NULL
1743449012,483df338728e73183ef5894d7467915b,PennController,25,0,test_physpsych,NULL,PennController,36,_Header_,End,1743448486936,undefined,920,slaughter,physical,psychological,A,NULL
1743449012,483df338728e73183ef5894d7467915b,PennController,25,0,test_physpsych,NULL,Selector,unnamed-Selector,Selection,physical,1743448488361,undefined,920,slaughter,physical,psychological,A,physical;psychological
1743449012,483df338728e73183ef5894d7467915b,PennController,25,0,test_physpsych,NULL,PennController,36,_Trial_,End,1743448488364,undefined,920,slaughter,physical,psychological,A,NULL
1743449012,483df338728e73183ef5894d7467915b,PennController,4,0,test_physpsych,NULL,PennController,15,_Trial_,Start,1743448488366,undefined,1109,cuddle,physical,psychological,A,NULL
1743449012,483df338728e73183ef5894d7467915b,PennController,4,0,test_physpsych,NULL,PennController,15,_Header_,Start,1743448488367,undefined,1109,cuddle,physical,psychological,A,NULL
1743449012,483df338728e73183ef5894d7467915b,PennController,4,0,test_physpsych,NULL,PennController,15,_Header_,End,1743448488619,undefined,1109,cuddle,physical,psychological,A,NULL
1743449012,483df338728e73183ef5894d7467915b,PennController,4,0,test_physpsych,NULL,Selector,unnamed-Selector,Selection,physical,1743448490233,undefined,1109,cuddle,physical,psychological,A,physical;psychological
1743449012,483df338728e73183ef5894d7467915b,PennController,4,0,test_physpsych,NULL,PennController,15,_Trial_,End,1743448490236,undefined,1109,cuddle,physical,psychological,A,NULL
1743449012,483df338728e73183ef5894d7467915b,PennController,37,0,test_physpsych,NULL,PennController,48,_Trial_,Start,1743448490237,undefined,870,displease,physical,psychological,A,NULL
1743449012,483df338728e73183ef5894d7467915b,PennController,37,0,test_physpsych,NULL,PennController,48,_Header_,Start,1743448490237,undefined,870,displease,physical,psychological,A,NULL
1743449012,483df338728e73183ef5894d7467915b,PennController,37,0,test_physpsych,NULL,PennController,48,_Header_,End,1743448490491,undefined,870,displease,physical,psychological,A,NULL
1743449012,483df338728e73183ef5894d7467915b,PennController,37,0,test_physpsych,NULL,Selector,unnamed-Selector,Selection,psychological,1743448491865,undefined,870,displease,physical,psychological,A,physical;psychological
1743449012,483df338728e73183ef5894d7467915b,PennController,37,0,test_physpsych,NULL,PennController,48,_Trial_,End,1743448491868,undefined,870,displease,physical,psychological,A,NULL
1743449012,483df338728e73183ef5894d7467915b,PennController,30,0,test_physpsych,NULL,PennController,41,_Trial_,Start,1743448491869,undefined,775,hit,physical,psychological,A,NULL
1743449012,483df338728e73183ef5894d7467915b,PennController,30,0,test_physpsych,NULL,PennController,41,_Header_,Start,1743448491869,undefined,775,hit,physical,psychological,A,NULL
1743449012,483df338728e73183ef5894d7467915b,PennController,30,0,test_physpsych,NULL,PennController,41,_Header_,End,1743448492121,undefined,775,hit,physical,psychological,A,NULL
1743449012,483df338728e73183ef5894d7467915b,PennController,30,0,test_physpsych,NULL,Selector,unnamed-Selector,Selection,physical,1743448493401,undefined,775,hit,physical,psychological,A,physical;psychological
1743449012,483df338728e73183ef5894d7467915b,PennController,30,0,test_physpsych,NULL,PennController,41,_Trial_,End,1743448493404,undefined,775,hit,physical,psychological,A,NULL
1743449012,483df338728e73183ef5894d7467915b,PennController,8,0,test_physpsych,NULL,PennController,19,_Trial_,Start,1743448493406,undefined,754,hug,physical,psychological,A,NULL
1743449012,483df338728e73183ef5894d7467915b,PennController,8,0,test_physpsych,NULL,PennController,19,_Header_,Start,1743448493406,undefined,754,hug,physical,psychological,A,NULL
1743449012,483df338728e73183ef5894d7467915b,PennController,8,0,test_physpsych,NULL,PennController,19,_Header_,End,1743448493656,undefined,754,hug,physical,psychological,A,NULL
1743449012,483df338728e73183ef5894d7467915b,PennController,8,0,test_physpsych,NULL,Selector,unnamed-Selector,Selection,physical,1743448494913,undefined,754,hug,physical,psychological,A,physical;psychological
1743449012,483df338728e73183ef5894d7467915b,PennController,8,0,test_physpsych,NULL,PennController,19,_Trial_,End,1743448494916,undefined,754,hug,physical,psychological,A,NULL
1743449012,483df338728e73183ef5894d7467915b,PennController,35,0,test_physpsych,NULL,PennController,46,_Trial_,Start,1743448494919,undefined,923,despair,physical,psychological,A,NULL
1743449012,483df338728e73183ef5894d7467915b,PennController,35,0,test_physpsych,NULL,PennController,46,_Header_,Start,1743448494919,undefined,923,despair,physical,psychological,A,NULL
1743449012,483df338728e73183ef5894d7467915b,PennController,35,0,test_physpsych,NULL,PennController,46,_Header_,End,1743448495172,undefined,923,despair,physical,psychological,A,NULL
1743449012,483df338728e73183ef5894d7467915b,PennController,35,0,test_physpsych,NULL,Selector,unnamed-Selector,Selection,psychological,1743448496600,undefined,923,despair,physical,psychological,A,physical;psychological
1743449012,483df338728e73183ef5894d7467915b,PennController,35,0,test_physpsych,NULL,PennController,46,_Trial_,End,1743448496604,undefined,923,despair,physical,psychological,A,NULL
1743449012,483df338728e73183ef5894d7467915b,PennController,42,0,test_physpsych,NULL,PennController,53,_Trial_,Start,1743448496605,undefined,667,criticize,physical,psychological,A,NULL
1743449012,483df338728e73183ef5894d7467915b,PennController,42,0,test_physpsych,NULL,PennController,53,_Header_,Start,1743448496605,undefined,667,criticize,physical,psychological,A,NULL
1743449012,483df338728e73183ef5894d7467915b,PennController,42,0,test_physpsych,NULL,PennController,53,_Header_,End,1743448496856,undefined,667,criticize,physical,psychological,A,NULL
1743449012,483df338728e73183ef5894d7467915b,PennController,42,0,test_physpsych,NULL,Selector,unnamed-Selector,Selection,psychological,1743448498027,undefined,667,criticize,physical,psychological,A,physical;psychological
1743449012,483df338728e73183ef5894d7467915b,PennController,42,0,test_physpsych,NULL,PennController,53,_Trial_,End,1743448498030,undefined,667,criticize,physical,psychological,A,NULL
1743449012,483df338728e73183ef5894d7467915b,PennController,27,0,test_physpsych,NULL,PennController,38,_Trial_,Start,1743448498032,undefined,913,crash,physical,psychological,A,NULL
1743449012,483df338728e73183ef5894d7467915b,PennController,27,0,test_physpsych,NULL,PennController,38,_Header_,Start,1743448498032,undefined,913,crash,physical,psychological,A,NULL
1743449012,483df338728e73183ef5894d7467915b,PennController,27,0,test_physpsych,NULL,PennController,38,_Header_,End,1743448498285,undefined,913,crash,physical,psychological,A,NULL
1743449012,483df338728e73183ef5894d7467915b,PennController,27,0,test_physpsych,NULL,Selector,unnamed-Selector,Selection,physical,1743448499705,undefined,913,crash,physical,psychological,A,physical;psychological
1743449012,483df338728e73183ef5894d7467915b,PennController,27,0,test_physpsych,NULL,PennController,38,_Trial_,End,1743448499707,undefined,913,crash,physical,psychological,A,NULL
1743449012,483df338728e73183ef5894d7467915b,PennController,19,0,test_physpsych,NULL,PennController,30,_Trial_,Start,1743448499709,undefined,885,reassure,physical,psychological,A,NULL
1743449012,483df338728e73183ef5894d7467915b,PennController,19,0,test_physpsych,NULL,PennController,30,_Header_,Start,1743448499709,undefined,885,reassure,physical,psychological,A,NULL
1743449012,483df338728e73183ef5894d7467915b,PennController,19,0,test_physpsych,NULL,PennController,30,_Header_,End,1743448499963,undefined,885,reassure,physical,psychological,A,NULL
1743449012,483df338728e73183ef5894d7467915b,PennController,19,0,test_physpsych,NULL,Selector,unnamed-Selector,Selection,psychological,1743448501353,undefined,885,reassure,physical,psychological,A,physical;psychological
1743449012,483df338728e73183ef5894d7467915b,PennController,19,0,test_physpsych,NULL,PennController,30,_Trial_,End,1743448501356,undefined,885,reassure,physical,psychological,A,NULL
1743449012,483df338728e73183ef5894d7467915b,PennController,41,0,test_physpsych,NULL,PennController,52,_Trial_,Start,1743448501358,undefined,1025,dismay,physical,psychological,A,NULL
1743449012,483df338728e73183ef5894d7467915b,PennController,41,0,test_physpsych,NULL,PennController,52,_Header_,Start,1743448501358,undefined,1025,dismay,physical,psychological,A,NULL
1743449012,483df338728e73183ef5894d7467915b,PennController,41,0,test_physpsych,NULL,PennController,52,_Header_,End,1743448501609,undefined,1025,dismay,physical,psychological,A,NULL
1743449012,483df338728e73183ef5894d7467915b,PennController,41,0,test_physpsych,NULL,Selector,unnamed-Selector,Selection,psychological,1743448503138,undefined,1025,dismay,physical,psychological,A,physical;psychological
1743449012,483df338728e73183ef5894d7467915b,PennController,41,0,test_physpsych,NULL,PennController,52,_Trial_,End,1743448503141,undefined,1025,dismay,physical,psychological,A,NULL
1743449012,483df338728e73183ef5894d7467915b,PennController,12,0,test_physpsych,NULL,PennController,23,_Trial_,Start,1743448503143,undefined,788,decorate,physical,psychological,A,NULL
1743449012,483df338728e73183ef5894d7467915b,PennController,12,0,test_physpsych,NULL,PennController,23,_Header_,Start,1743448503143,undefined,788,decorate,physical,psychological,A,NULL
1743449012,483df338728e73183ef5894d7467915b,PennController,12,0,test_physpsych,NULL,PennController,23,_Header_,End,1743448503398,undefined,788,decorate,physical,psychological,A,NULL
1743449012,483df338728e73183ef5894d7467915b,PennController,12,0,test_physpsych,NULL,Selector,unnamed-Selector,Selection,physical,1743448504689,undefined,788,decorate,physical,psychological,A,physical;psychological
1743449012,483df338728e73183ef5894d7467915b,PennController,12,0,test_physpsych,NULL,PennController,23,_Trial_,End,1743448504693,undefined,788,decorate,physical,psychological,A,NULL
1743449012,483df338728e73183ef5894d7467915b,PennController,34,0,test_physpsych,NULL,PennController,45,_Trial_,Start,1743448504694,undefined,843,offend,physical,psychological,A,NULL
1743449012,483df338728e73183ef5894d7467915b,PennController,34,0,test_physpsych,NULL,PennController,45,_Header_,Start,1743448504694,undefined,843,offend,physical,psychological,A,NULL
1743449012,483df338728e73183ef5894d7467915b,PennController,34,0,test_physpsych,NULL,PennController,45,_Header_,End,1743448504949,undefined,843,offend,physical,psychological,A,NULL
1743449012,483df338728e73183ef5894d7467915b,PennController,34,0,test_physpsych,NULL,Selector,unnamed-Selector,Selection,psychological,1743448506297,undefined,843,offend,physical,psychological,A,physical;psychological
1743449012,483df338728e73183ef5894d7467915b,PennController,34,0,test_physpsych,NULL,PennController,45,_Trial_,End,1743448506301,undefined,843,offend,physical,psychological,A,NULL
1743449012,483df338728e73183ef5894d7467915b,PennController,22,0,test_physpsych,NULL,PennController,33,_Trial_,Start,1743448506303,undefined,725,adore,physical,psychological,A,NULL
1743449012,483df338728e73183ef5894d7467915b,PennController,22,0,test_physpsych,NULL,PennController,33,_Header_,Start,1743448506303,undefined,725,adore,physical,psychological,A,NULL
1743449012,483df338728e73183ef5894d7467915b,PennController,22,0,test_physpsych,NULL,PennController,33,_Header_,End,1743448506556,undefined,725,adore,physical,psychological,A,NULL
1743449012,483df338728e73183ef5894d7467915b,PennController,22,0,test_physpsych,NULL,Selector,unnamed-Selector,Selection,psychological,1743448507786,undefined,725,adore,physical,psychological,A,physical;psychological
1743449012,483df338728e73183ef5894d7467915b,PennController,22,0,test_physpsych,NULL,PennController,33,_Trial_,End,1743448507789,undefined,725,adore,physical,psychological,A,NULL
1743449012,483df338728e73183ef5894d7467915b,PennController,16,0,test_physpsych,NULL,PennController,27,_Trial_,Start,1743448507792,undefined,712,appreciate,physical,psychological,A,NULL
1743449012,483df338728e73183ef5894d7467915b,PennController,16,0,test_physpsych,NULL,PennController,27,_Header_,Start,1743448507792,undefined,712,appreciate,physical,psychological,A,NULL
1743449012,483df338728e73183ef5894d7467915b,PennController,16,0,test_physpsych,NULL,PennController,27,_Header_,End,1743448508045,undefined,712,appreciate,physical,psychological,A,NULL
1743449012,483df338728e73183ef5894d7467915b,PennController,16,0,test_physpsych,NULL,Selector,unnamed-Selector,Selection,psychological,1743448509263,undefined,712,appreciate,physical,psychological,A,physical;psychological
1743449012,483df338728e73183ef5894d7467915b,PennController,16,0,test_physpsych,NULL,PennController,27,_Trial_,End,1743448509265,undefined,712,appreciate,physical,psychological,A,NULL
1743449012,483df338728e73183ef5894d7467915b,PennController,42,0,test_physpsych,NULL,PennController,53,_Trial_,Start,1743448509267,undefined,706,criticize,physical,psychological,A,NULL
1743449012,483df338728e73183ef5894d7467915b,PennController,42,0,test_physpsych,NULL,PennController,53,_Header_,Start,1743448509267,undefined,706,criticize,physical,psychological,A,NULL
1743449012,483df338728e73183ef5894d7467915b,PennController,42,0,test_physpsych,NULL,PennController,53,_Header_,End,1743448509518,undefined,706,criticize,physical,psychological,A,NULL
1743449012,483df338728e73183ef5894d7467915b,PennController,42,0,test_physpsych,NULL,Selector,unnamed-Selector,Selection,psychological,1743448510728,undefined,706,criticize,physical,psychological,A,physical;psychological
1743449012,483df338728e73183ef5894d7467915b,PennController,42,0,test_physpsych,NULL,PennController,53,_Trial_,End,1743448510731,undefined,706,criticize,physical,psychological,A,NULL
1743449012,483df338728e73183ef5894d7467915b,PennController,18,0,test_physpsych,NULL,PennController,29,_Trial_,Start,1743448510733,undefined,1383,like,physical,psychological,A,NULL
1743449012,483df338728e73183ef5894d7467915b,PennController,18,0,test_physpsych,NULL,PennController,29,_Header_,Start,1743448510733,undefined,1383,like,physical,psychological,A,NULL
1743449012,483df338728e73183ef5894d7467915b,PennController,18,0,test_physpsych,NULL,PennController,29,_Header_,End,1743448510985,undefined,1383,like,physical,psychological,A,NULL
1743449012,483df338728e73183ef5894d7467915b,PennController,18,0,test_physpsych,NULL,Selector,unnamed-Selector,Selection,psychological,1743448512873,undefined,1383,like,physical,psychological,A,physical;psychological
1743449012,483df338728e73183ef5894d7467915b,PennController,18,0,test_physpsych,NULL,PennController,29,_Trial_,End,1743448512876,undefined,1383,like,physical,psychological,A,NULL
1743449012,483df338728e73183ef5894d7467915b,PennController,24,0,test_physpsych,NULL,PennController,35,_Trial_,Start,1743448512878,undefined,884,rust,physical,psychological,A,NULL
1743449012,483df338728e73183ef5894d7467915b,PennController,24,0,test_physpsych,NULL,PennController,35,_Header_,Start,1743448512878,undefined,884,rust,physical,psychological,A,NULL
1743449012,483df338728e73183ef5894d7467915b,PennController,24,0,test_physpsych,NULL,PennController,35,_Header_,End,1743448513132,undefined,884,rust,physical,psychological,A,NULL
1743449012,483df338728e73183ef5894d7467915b,PennController,24,0,test_physpsych,NULL,Selector,unnamed-Selector,Selection,physical,1743448514522,undefined,884,rust,physical,psychological,A,physical;psychological
1743449012,483df338728e73183ef5894d7467915b,PennController,24,0,test_physpsych,NULL,PennController,35,_Trial_,End,1743448514525,undefined,884,rust,physical,psychological,A,NULL
1743449012,483df338728e73183ef5894d7467915b,PennController,21,0,test_physpsych,NULL,PennController,32,_Trial_,Start,1743448514528,undefined,882,admire,physical,psychological,A,NULL
1743449012,483df338728e73183ef5894d7467915b,PennController,21,0,test_physpsych,NULL,PennController,32,_Header_,Start,1743448514528,undefined,882,admire,physical,psychological,A,NULL
1743449012,483df338728e73183ef5894d7467915b,PennController,21,0,test_physpsych,NULL,PennController,32,_Header_,End,1743448514782,undefined,882,admire,physical,psychological,A,NULL
1743449012,483df338728e73183ef5894d7467915b,PennController,21,0,test_physpsych,NULL,Selector,unnamed-Selector,Selection,psychological,1743448516169,undefined,882,admire,physical,psychological,A,physical;psychological
1743449012,483df338728e73183ef5894d7467915b,PennController,21,0,test_physpsych,NULL,PennController,32,_Trial_,End,1743448516173,undefined,882,admire,physical,psychological,A,NULL
1743449012,483df338728e73183ef5894d7467915b,PennController,9,0,test_physpsych,NULL,PennController,20,_Trial_,Start,1743448516175,undefined,901,produce,physical,psychological,A,NULL
1743449012,483df338728e73183ef5894d7467915b,PennController,9,0,test_physpsych,NULL,PennController,20,_Header_,Start,1743448516175,undefined,901,produce,physical,psychological,A,NULL
1743449012,483df338728e73183ef5894d7467915b,PennController,9,0,test_physpsych,NULL,PennController,20,_Header_,End,1743448516428,undefined,901,produce,physical,psychological,A,NULL
1743449012,483df338728e73183ef5894d7467915b,PennController,9,0,test_physpsych,NULL,Selector,unnamed-Selector,Selection,physical,1743448517833,undefined,901,produce,physical,psychological,A,physical;psychological
1743449012,483df338728e73183ef5894d7467915b,PennController,9,0,test_physpsych,NULL,PennController,20,_Trial_,End,1743448517837,undefined,901,produce,physical,psychological,A,NULL
1743449012,483df338728e73183ef5894d7467915b,PennController,6,0,test_physpsych,NULL,PennController,17,_Trial_,Start,1743448517839,undefined,1026,repair,physical,psychological,A,NULL
1743449012,483df338728e73183ef5894d7467915b,PennController,6,0,test_physpsych,NULL,PennController,17,_Header_,Start,1743448517839,undefined,1026,repair,physical,psychological,A,NULL
1743449012,483df338728e73183ef5894d7467915b,PennController,6,0,test_physpsych,NULL,PennController,17,_Header_,End,1743448518093,undefined,1026,repair,physical,psychological,A,NULL
1743449012,483df338728e73183ef5894d7467915b,PennController,6,0,test_physpsych,NULL,Selector,unnamed-Selector,Selection,physical,1743448519625,undefined,1026,repair,physical,psychological,A,physical;psychological
1743449012,483df338728e73183ef5894d7467915b,PennController,6,0,test_physpsych,NULL,PennController,17,_Trial_,End,1743448519629,undefined,1026,repair,physical,psychological,A,NULL
1743449012,483df338728e73183ef5894d7467915b,PennController,8,0,test_physpsych,NULL,PennController,19,_Trial_,Start,1743448519631,undefined,782,hug,physical,psychological,A,NULL
1743449012,483df338728e73183ef5894d7467915b,PennController,8,0,test_physpsych,NULL,PennController,19,_Header_,Start,1743448519631,undefined,782,hug,physical,psychological,A,NULL
1743449012,483df338728e73183ef5894d7467915b,PennController,8,0,test_physpsych,NULL,PennController,19,_Header_,End,1743448519881,undefined,782,hug,physical,psychological,A,NULL
1743449012,483df338728e73183ef5894d7467915b,PennController,8,0,test_physpsych,NULL,Selector,unnamed-Selector,Selection,physical,1743448521169,undefined,782,hug,physical,psychological,A,physical;psychological
1743449012,483df338728e73183ef5894d7467915b,PennController,8,0,test_physpsych,NULL,PennController,19,_Trial_,End,1743448521173,undefined,782,hug,physical,psychological,A,NULL
1743449012,483df338728e73183ef5894d7467915b,PennController,32,0,test_physpsych,NULL,PennController,43,_Trial_,Start,1743448521175,undefined,901,delete,physical,psychological,A,NULL
1743449012,483df338728e73183ef5894d7467915b,PennController,32,0,test_physpsych,NULL,PennController,43,_Header_,Start,1743448521175,undefined,901,delete,physical,psychological,A,NULL
1743449012,483df338728e73183ef5894d7467915b,PennController,32,0,test_physpsych,NULL,PennController,43,_Header_,End,1743448521429,undefined,901,delete,physical,psychological,A,NULL
1743449012,483df338728e73183ef5894d7467915b,PennController,32,0,test_physpsych,NULL,Selector,unnamed-Selector,Selection,psychological,1743448522833,undefined,901,delete,physical,psychological,A,physical;psychological
1743449012,483df338728e73183ef5894d7467915b,PennController,32,0,test_physpsych,NULL,PennController,43,_Trial_,End,1743448522837,undefined,901,delete,physical,psychological,A,NULL
1743449012,483df338728e73183ef5894d7467915b,PennController,43,0,test_physpsych,NULL,PennController,54,_Trial_,Start,1743448522840,undefined,1422,dread,physical,psychological,A,NULL
1743449012,483df338728e73183ef5894d7467915b,PennController,43,0,test_physpsych,NULL,PennController,54,_Header_,Start,1743448522840,undefined,1422,dread,physical,psychological,A,NULL
1743449012,483df338728e73183ef5894d7467915b,PennController,43,0,test_physpsych,NULL,PennController,54,_Header_,End,1743448523093,undefined,1422,dread,physical,psychological,A,NULL
1743449012,483df338728e73183ef5894d7467915b,PennController,43,0,test_physpsych,NULL,Selector,unnamed-Selector,Selection,psychological,1743448525017,undefined,1422,dread,physical,psychological,A,physical;psychological
1743449012,483df338728e73183ef5894d7467915b,PennController,43,0,test_physpsych,NULL,PennController,54,_Trial_,End,1743448525020,undefined,1422,dread,physical,psychological,A,NULL
1743449012,483df338728e73183ef5894d7467915b,PennController,4,0,test_physpsych,NULL,PennController,15,_Trial_,Start,1743448525022,undefined,757,cuddle,physical,psychological,A,NULL
1743449012,483df338728e73183ef5894d7467915b,PennController,4,0,test_physpsych,NULL,PennController,15,_Header_,Start,1743448525022,undefined,757,cuddle,physical,psychological,A,NULL
1743449012,483df338728e73183ef5894d7467915b,PennController,4,0,test_physpsych,NULL,PennController,15,_Header_,End,1743448525276,undefined,757,cuddle,physical,psychological,A,NULL
1743449012,483df338728e73183ef5894d7467915b,PennController,4,0,test_physpsych,NULL,Selector,unnamed-Selector,Selection,physical,1743448526538,undefined,757,cuddle,physical,psychological,A,physical;psychological
1743449012,483df338728e73183ef5894d7467915b,PennController,4,0,test_physpsych,NULL,PennController,15,_Trial_,End,1743448526541,undefined,757,cuddle,physical,psychological,A,NULL
1743449012,483df338728e73183ef5894d7467915b,PennController,30,0,test_physpsych,NULL,PennController,41,_Trial_,Start,1743448526543,undefined,1058,hit,physical,psychological,A,NULL
1743449012,483df338728e73183ef5894d7467915b,PennController,30,0,test_physpsych,NULL,PennController,41,_Header_,Start,1743448526543,undefined,1058,hit,physical,psychological,A,NULL
1743449012,483df338728e73183ef5894d7467915b,PennController,30,0,test_physpsych,NULL,PennController,41,_Header_,End,1743448526797,undefined,1058,hit,physical,psychological,A,NULL
1743449012,483df338728e73183ef5894d7467915b,PennController,30,0,test_physpsych,NULL,Selector,unnamed-Selector,Selection,physical,1743448528361,undefined,1058,hit,physical,psychological,A,physical;psychological
1743449012,483df338728e73183ef5894d7467915b,PennController,30,0,test_physpsych,NULL,PennController,41,_Trial_,End,1743448528364,undefined,1058,hit,physical,psychological,A,NULL
1743449012,483df338728e73183ef5894d7467915b,PennController,28,0,test_physpsych,NULL,PennController,39,_Trial_,Start,1743448528367,undefined,755,tear,physical,psychological,A,NULL
1743449012,483df338728e73183ef5894d7467915b,PennController,28,0,test_physpsych,NULL,PennController,39,_Header_,Start,1743448528367,undefined,755,tear,physical,psychological,A,NULL
1743449012,483df338728e73183ef5894d7467915b,PennController,28,0,test_physpsych,NULL,PennController,39,_Header_,End,1743448528620,undefined,755,tear,physical,psychological,A,NULL
1743449012,483df338728e73183ef5894d7467915b,PennController,28,0,test_physpsych,NULL,Selector,unnamed-Selector,Selection,physical,1743448529881,undefined,755,tear,physical,psychological,A,physical;psychological
1743449012,483df338728e73183ef5894d7467915b,PennController,28,0,test_physpsych,NULL,PennController,39,_Trial_,End,1743448529884,undefined,755,tear,physical,psychological,A,NULL
1743449012,483df338728e73183ef5894d7467915b,PennController,38,0,test_physpsych,NULL,PennController,49,_Trial_,Start,1743448529887,undefined,1012,dishonor,physical,psychological,A,NULL
1743449012,483df338728e73183ef5894d7467915b,PennController,38,0,test_physpsych,NULL,PennController,49,_Header_,Start,1743448529887,undefined,1012,dishonor,physical,psychological,A,NULL
1743449012,483df338728e73183ef5894d7467915b,PennController,38,0,test_physpsych,NULL,PennController,49,_Header_,End,1743448530140,undefined,1012,dishonor,physical,psychological,A,NULL
1743449012,483df338728e73183ef5894d7467915b,PennController,38,0,test_physpsych,NULL,Selector,unnamed-Selector,Selection,psychological,1743448531657,undefined,1012,dishonor,physical,psychological,A,physical;psychological
1743449012,483df338728e73183ef5894d7467915b,PennController,38,0,test_physpsych,NULL,PennController,49,_Trial_,End,1743448531661,undefined,1012,dishonor,physical,psychological,A,NULL
1743449012,483df338728e73183ef5894d7467915b,PennController,36,0,test_physpsych,NULL,PennController,47,_Trial_,Start,1743448531663,undefined,845,irritate,physical,psychological,A,NULL
1743449012,483df338728e73183ef5894d7467915b,PennController,36,0,test_physpsych,NULL,PennController,47,_Header_,Start,1743448531663,undefined,845,irritate,physical,psychological,A,NULL
1743449012,483df338728e73183ef5894d7467915b,PennController,36,0,test_physpsych,NULL,PennController,47,_Header_,End,1743448531916,undefined,845,irritate,physical,psychological,A,NULL
1743449012,483df338728e73183ef5894d7467915b,PennController,36,0,test_physpsych,NULL,Selector,unnamed-Selector,Selection,psychological,1743448533265,undefined,845,irritate,physical,psychological,A,physical;psychological
1743449012,483df338728e73183ef5894d7467915b,PennController,36,0,test_physpsych,NULL,PennController,47,_Trial_,End,1743448533269,undefined,845,irritate,physical,psychological,A,NULL
1743449012,483df338728e73183ef5894d7467915b,PennController,33,0,test_physpsych,NULL,PennController,44,_Trial_,Start,1743448533271,undefined,1292,corrode,physical,psychological,A,NULL
1743449012,483df338728e73183ef5894d7467915b,PennController,33,0,test_physpsych,NULL,PennController,44,_Header_,Start,1743448533271,undefined,1292,corrode,physical,psychological,A,NULL
1743449012,483df338728e73183ef5894d7467915b,PennController,33,0,test_physpsych,NULL,PennController,44,_Header_,End,1743448533526,undefined,1292,corrode,physical,psychological,A,NULL
1743449012,483df338728e73183ef5894d7467915b,PennController,33,0,test_physpsych,NULL,Selector,unnamed-Selector,Selection,physical,1743448535322,undefined,1292,corrode,physical,psychological,A,physical;psychological
1743449012,483df338728e73183ef5894d7467915b,PennController,33,0,test_physpsych,NULL,PennController,44,_Trial_,End,1743448535325,undefined,1292,corrode,physical,psychological,A,NULL
1743449012,483df338728e73183ef5894d7467915b,PennController,14,0,test_physpsych,NULL,PennController,25,_Trial_,Start,1743448535327,undefined,1252,content,physical,psychological,A,NULL
1743449012,483df338728e73183ef5894d7467915b,PennController,14,0,test_physpsych,NULL,PennController,25,_Header_,Start,1743448535327,undefined,1252,content,physical,psychological,A,NULL
1743449012,483df338728e73183ef5894d7467915b,PennController,14,0,test_physpsych,NULL,PennController,25,_Header_,End,1743448535579,undefined,1252,content,physical,psychological,A,NULL
1743449012,483df338728e73183ef5894d7467915b,PennController,14,0,test_physpsych,NULL,Selector,unnamed-Selector,Selection,physical,1743448537336,undefined,1252,content,physical,psychological,A,physical;psychological
1743449012,483df338728e73183ef5894d7467915b,PennController,14,0,test_physpsych,NULL,PennController,25,_Trial_,End,1743448537340,undefined,1252,content,physical,psychological,A,NULL
1743449012,483df338728e73183ef5894d7467915b,PennController,5,0,test_physpsych,NULL,PennController,16,_Trial_,Start,1743448537342,undefined,1012,build,physical,psychological,A,NULL
1743449012,483df338728e73183ef5894d7467915b,PennController,5,0,test_physpsych,NULL,PennController,16,_Header_,Start,1743448537342,undefined,1012,build,physical,psychological,A,NULL
1743449012,483df338728e73183ef5894d7467915b,PennController,5,0,test_physpsych,NULL,PennController,16,_Header_,End,1743448537594,undefined,1012,build,physical,psychological,A,NULL
1743449012,483df338728e73183ef5894d7467915b,PennController,5,0,test_physpsych,NULL,Selector,unnamed-Selector,Selection,physical,1743448539113,undefined,1012,build,physical,psychological,A,physical;psychological
1743449012,483df338728e73183ef5894d7467915b,PennController,5,0,test_physpsych,NULL,PennController,16,_Trial_,End,1743448539117,undefined,1012,build,physical,psychological,A,NULL
1743449012,483df338728e73183ef5894d7467915b,PennController,25,0,test_physpsych,NULL,PennController,36,_Trial_,Start,1743448539119,undefined,973,slaughter,physical,psychological,A,NULL
1743449012,483df338728e73183ef5894d7467915b,PennController,25,0,test_physpsych,NULL,PennController,36,_Header_,Start,1743448539119,undefined,973,slaughter,physical,psychological,A,NULL
1743449012,483df338728e73183ef5894d7467915b,PennController,25,0,test_physpsych,NULL,PennController,36,_Header_,End,1743448539372,undefined,973,slaughter,physical,psychological,A,NULL
1743449012,483df338728e73183ef5894d7467915b,PennController,25,0,test_physpsych,NULL,Selector,unnamed-Selector,Selection,physical,1743448540850,undefined,973,slaughter,physical,psychological,A,physical;psychological
1743449012,483df338728e73183ef5894d7467915b,PennController,25,0,test_physpsych,NULL,PennController,36,_Trial_,End,1743448540855,undefined,973,slaughter,physical,psychological,A,NULL
1743449012,483df338728e73183ef5894d7467915b,PennController,31,0,test_physpsych,NULL,PennController,42,_Trial_,Start,1743448540857,undefined,864,stain,physical,psychological,A,NULL
1743449012,483df338728e73183ef5894d7467915b,PennController,31,0,test_physpsych,NULL,PennController,42,_Header_,Start,1743448540857,undefined,864,stain,physical,psychological,A,NULL
1743449012,483df338728e73183ef5894d7467915b,PennController,31,0,test_physpsych,NULL,PennController,42,_Header_,End,1743448541111,undefined,864,stain,physical,psychological,A,NULL
1743449012,483df338728e73183ef5894d7467915b,PennController,31,0,test_physpsych,NULL,Selector,unnamed-Selector,Selection,physical,1743448542481,undefined,864,stain,physical,psychological,A,physical;psychological
1743449012,483df338728e73183ef5894d7467915b,PennController,31,0,test_physpsych,NULL,PennController,42,_Trial_,End,1743448542485,undefined,864,stain,physical,psychological,A,NULL
1743449012,483df338728e73183ef5894d7467915b,PennController,13,0,test_physpsych,NULL,PennController,24,_Trial_,Start,1743448542487,undefined,764,clean,physical,psychological,A,NULL
1743449012,483df338728e73183ef5894d7467915b,PennController,13,0,test_physpsych,NULL,PennController,24,_Header_,Start,1743448542487,undefined,764,clean,physical,psychological,A,NULL
1743449012,483df338728e73183ef5894d7467915b,PennController,13,0,test_physpsych,NULL,PennController,24,_Header_,End,1743448542740,undefined,764,clean,physical,psychological,A,NULL
1743449012,483df338728e73183ef5894d7467915b,PennController,13,0,test_physpsych,NULL,Selector,unnamed-Selector,Selection,physical,1743448544009,undefined,764,clean,physical,psychological,A,physical;psychological
1743449012,483df338728e73183ef5894d7467915b,PennController,13,0,test_physpsych,NULL,PennController,24,_Trial_,End,1743448544012,undefined,764,clean,physical,psychological,A,NULL
1743449012,483df338728e73183ef5894d7467915b,PennController,35,0,test_physpsych,NULL,PennController,46,_Trial_,Start,1743448544014,undefined,736,despair,physical,psychological,A,NULL
1743449012,483df338728e73183ef5894d7467915b,PennController,35,0,test_physpsych,NULL,PennController,46,_Header_,Start,1743448544014,undefined,736,despair,physical,psychological,A,NULL
1743449012,483df338728e73183ef5894d7467915b,PennController,35,0,test_physpsych,NULL,PennController,46,_Header_,End,1743448544264,undefined,736,despair,physical,psychological,A,NULL
1743449012,483df338728e73183ef5894d7467915b,PennController,35,0,test_physpsych,NULL,Selector,unnamed-Selector,Selection,psychological,1743448545506,undefined,736,despair,physical,psychological,A,physical;psychological
1743449012,483df338728e73183ef5894d7467915b,PennController,35,0,test_physpsych,NULL,PennController,46,_Trial_,End,1743448545509,undefined,736,despair,physical,psychological,A,NULL
1743449012,483df338728e73183ef5894d7467915b,PennController,40,0,test_physpsych,NULL,PennController,51,_Trial_,Start,1743448545511,undefined,733,discourage,physical,psychological,A,NULL
1743449012,483df338728e73183ef5894d7467915b,PennController,40,0,test_physpsych,NULL,PennController,51,_Header_,Start,1743448545511,undefined,733,discourage,physical,psychological,A,NULL
1743449012,483df338728e73183ef5894d7467915b,PennController,40,0,test_physpsych,NULL,PennController,51,_Header_,End,1743448545762,undefined,733,discourage,physical,psychological,A,NULL
1743449012,483df338728e73183ef5894d7467915b,PennController,40,0,test_physpsych,NULL,Selector,unnamed-Selector,Selection,psychological,1743448547001,undefined,733,discourage,physical,psychological,A,physical;psychological
1743449012,483df338728e73183ef5894d7467915b,PennController,40,0,test_physpsych,NULL,PennController,51,_Trial_,End,1743448547005,undefined,733,discourage,physical,psychological,A,NULL
1743449012,483df338728e73183ef5894d7467915b,PennController,10,0,test_physpsych,NULL,PennController,21,_Trial_,Start,1743448547007,undefined,690,sculpt,physical,psychological,A,NULL
1743449012,483df338728e73183ef5894d7467915b,PennController,10,0,test_physpsych,NULL,PennController,21,_Header_,Start,1743448547007,undefined,690,sculpt,physical,psychological,A,NULL
1743449012,483df338728e73183ef5894d7467915b,PennController,10,0,test_physpsych,NULL,PennController,21,_Header_,End,1743448547261,undefined,690,sculpt,physical,psychological,A,NULL
1743449012,483df338728e73183ef5894d7467915b,PennController,10,0,test_physpsych,NULL,Selector,unnamed-Selector,Selection,physical,1743448548457,undefined,690,sculpt,physical,psychological,A,physical;psychological
1743449012,483df338728e73183ef5894d7467915b,PennController,10,0,test_physpsych,NULL,PennController,21,_Trial_,End,1743448548460,undefined,690,sculpt,physical,psychological,A,NULL
1743449012,483df338728e73183ef5894d7467915b,PennController,15,0,test_physpsych,NULL,PennController,26,_Trial_,Start,1743448548462,undefined,773,encourage,physical,psychological,A,NULL
1743449012,483df338728e73183ef5894d7467915b,PennController,15,0,test_physpsych,NULL,PennController,26,_Header_,Start,1743448548462,undefined,773,encourage,physical,psychological,A,NULL
1743449012,483df338728e73183ef5894d7467915b,PennController,15,0,test_physpsych,NULL,PennController,26,_Header_,End,1743448548716,undefined,773,encourage,physical,psychological,A,NULL
1743449012,483df338728e73183ef5894d7467915b,PennController,15,0,test_physpsych,NULL,Selector,unnamed-Selector,Selection,psychological,1743448549994,undefined,773,encourage,physical,psychological,A,physical;psychological
1743449012,483df338728e73183ef5894d7467915b,PennController,15,0,test_physpsych,NULL,PennController,26,_Trial_,End,1743448549997,undefined,773,encourage,physical,psychological,A,NULL
1743449012,483df338728e73183ef5894d7467915b,PennController,20,0,test_physpsych,NULL,PennController,31,_Trial_,Start,1743448549998,undefined,797,respect,physical,psychological,A,NULL
1743449012,483df338728e73183ef5894d7467915b,PennController,20,0,test_physpsych,NULL,PennController,31,_Header_,Start,1743448549998,undefined,797,respect,physical,psychological,A,NULL
1743449012,483df338728e73183ef5894d7467915b,PennController,20,0,test_physpsych,NULL,PennController,31,_Header_,End,1743448550250,undefined,797,respect,physical,psychological,A,NULL
1743449012,483df338728e73183ef5894d7467915b,PennController,20,0,test_physpsych,NULL,Selector,unnamed-Selector,Selection,psychological,1743448551553,undefined,797,respect,physical,psychological,A,physical;psychological
1743449012,483df338728e73183ef5894d7467915b,PennController,20,0,test_physpsych,NULL,PennController,31,_Trial_,End,1743448551557,undefined,797,respect,physical,psychological,A,NULL
1743449012,483df338728e73183ef5894d7467915b,PennController,11,0,test_physpsych,NULL,PennController,22,_Trial_,Start,1743448551559,undefined,869,twinkle,physical,psychological,A,NULL
1743449012,483df338728e73183ef5894d7467915b,PennController,11,0,test_physpsych,NULL,PennController,22,_Header_,Start,1743448551559,undefined,869,twinkle,physical,psychological,A,NULL
1743449012,483df338728e73183ef5894d7467915b,PennController,11,0,test_physpsych,NULL,PennController,22,_Header_,End,1743448551813,undefined,869,twinkle,physical,psychological,A,NULL
1743449012,483df338728e73183ef5894d7467915b,PennController,11,0,test_physpsych,NULL,Selector,unnamed-Selector,Selection,physical,1743448553185,undefined,869,twinkle,physical,psychological,A,physical;psychological
1743449012,483df338728e73183ef5894d7467915b,PennController,11,0,test_physpsych,NULL,PennController,22,_Trial_,End,1743448553189,undefined,869,twinkle,physical,psychological,A,NULL
1743449012,483df338728e73183ef5894d7467915b,PennController,7,0,test_physpsych,NULL,PennController,18,_Trial_,Start,1743448553191,undefined,1317,caress,physical,psychological,A,NULL
1743449012,483df338728e73183ef5894d7467915b,PennController,7,0,test_physpsych,NULL,PennController,18,_Header_,Start,1743448553191,undefined,1317,caress,physical,psychological,A,NULL
1743449012,483df338728e73183ef5894d7467915b,PennController,7,0,test_physpsych,NULL,PennController,18,_Header_,End,1743448553444,undefined,1317,caress,physical,psychological,A,NULL
1743449012,483df338728e73183ef5894d7467915b,PennController,7,0,test_physpsych,NULL,Selector,unnamed-Selector,Selection,physical,1743448555265,undefined,1317,caress,physical,psychological,A,physical;psychological
1743449012,483df338728e73183ef5894d7467915b,PennController,7,0,test_physpsych,NULL,PennController,18,_Trial_,End,1743448555269,undefined,1317,caress,physical,psychological,A,NULL
1743449012,483df338728e73183ef5894d7467915b,PennController,26,0,test_physpsych,NULL,PennController,37,_Trial_,Start,1743448555271,undefined,685,slash,physical,psychological,A,NULL
1743449012,483df338728e73183ef5894d7467915b,PennController,26,0,test_physpsych,NULL,PennController,37,_Header_,Start,1743448555271,undefined,685,slash,physical,psychological,A,NULL
1743449012,483df338728e73183ef5894d7467915b,PennController,26,0,test_physpsych,NULL,PennController,37,_Header_,End,1743448555523,undefined,685,slash,physical,psychological,A,NULL
1743449012,483df338728e73183ef5894d7467915b,PennController,26,0,test_physpsych,NULL,Selector,unnamed-Selector,Selection,physical,1743448556713,undefined,685,slash,physical,psychological,A,physical;psychological
1743449012,483df338728e73183ef5894d7467915b,PennController,26,0,test_physpsych,NULL,PennController,37,_Trial_,End,1743448556717,undefined,685,slash,physical,psychological,A,NULL
1743449012,483df338728e73183ef5894d7467915b,PennController,29,0,test_physpsych,NULL,PennController,40,_Trial_,Start,1743448556718,undefined,709,burn,physical,psychological,A,NULL
1743449012,483df338728e73183ef5894d7467915b,PennController,29,0,test_physpsych,NULL,PennController,40,_Header_,Start,1743448556718,undefined,709,burn,physical,psychological,A,NULL
1743449012,483df338728e73183ef5894d7467915b,PennController,29,0,test_physpsych,NULL,PennController,40,_Header_,End,1743448556971,undefined,709,burn,physical,psychological,A,NULL
1743449012,483df338728e73183ef5894d7467915b,PennController,29,0,test_physpsych,NULL,Selector,unnamed-Selector,Selection,physical,1743448558185,undefined,709,burn,physical,psychological,A,physical;psychological
1743449012,483df338728e73183ef5894d7467915b,PennController,29,0,test_physpsych,NULL,PennController,40,_Trial_,End,1743448558188,undefined,709,burn,physical,psychological,A,NULL
1743449012,483df338728e73183ef5894d7467915b,PennController,23,0,test_physpsych,NULL,PennController,34,_Trial_,Start,1743448558189,undefined,1156,cherish,physical,psychological,A,NULL
1743449012,483df338728e73183ef5894d7467915b,PennController,23,0,test_physpsych,NULL,PennController,34,_Header_,Start,1743448558189,undefined,1156,cherish,physical,psychological,A,NULL
1743449012,483df338728e73183ef5894d7467915b,PennController,23,0,test_physpsych,NULL,PennController,34,_Header_,End,1743448558440,undefined,1156,cherish,physical,psychological,A,NULL
1743449012,483df338728e73183ef5894d7467915b,PennController,23,0,test_physpsych,NULL,Selector,unnamed-Selector,Selection,psychological,1743448560100,undefined,1156,cherish,physical,psychological,A,physical;psychological
1743449012,483df338728e73183ef5894d7467915b,PennController,23,0,test_physpsych,NULL,PennController,34,_Trial_,End,1743448560102,undefined,1156,cherish,physical,psychological,A,NULL
1743449012,483df338728e73183ef5894d7467915b,PennController,37,0,test_physpsych,NULL,PennController,48,_Trial_,Start,1743448560104,undefined,941,displease,physical,psychological,A,NULL
1743449012,483df338728e73183ef5894d7467915b,PennController,37,0,test_physpsych,NULL,PennController,48,_Header_,Start,1743448560104,undefined,941,displease,physical,psychological,A,NULL
1743449012,483df338728e73183ef5894d7467915b,PennController,37,0,test_physpsych,NULL,PennController,48,_Header_,End,1743448560355,undefined,941,displease,physical,psychological,A,NULL
1743449012,483df338728e73183ef5894d7467915b,PennController,37,0,test_physpsych,NULL,Selector,unnamed-Selector,Selection,psychological,1743448561801,undefined,941,displease,physical,psychological,A,physical;psychological
1743449012,483df338728e73183ef5894d7467915b,PennController,37,0,test_physpsych,NULL,PennController,48,_Trial_,End,1743448561804,undefined,941,displease,physical,psychological,A,NULL
1743449012,483df338728e73183ef5894d7467915b,PennController,17,0,test_physpsych,NULL,PennController,28,_Trial_,Start,1743448561805,undefined,707,impress,physical,psychological,A,NULL
1743449012,483df338728e73183ef5894d7467915b,PennController,17,0,test_physpsych,NULL,PennController,28,_Header_,Start,1743448561805,undefined,707,impress,physical,psychological,A,NULL
1743449012,483df338728e73183ef5894d7467915b,PennController,17,0,test_physpsych,NULL,PennController,28,_Header_,End,1743448562055,undefined,707,impress,physical,psychological,A,NULL
1743449012,483df338728e73183ef5894d7467915b,PennController,17,0,test_physpsych,NULL,Selector,unnamed-Selector,Selection,psychological,1743448563265,undefined,707,impress,physical,psychological,A,physical;psychological
1743449012,483df338728e73183ef5894d7467915b,PennController,17,0,test_physpsych,NULL,PennController,28,_Trial_,End,1743448563269,undefined,707,impress,physical,psychological,A,NULL
1743449012,483df338728e73183ef5894d7467915b,PennController,39,0,test_physpsych,NULL,PennController,50,_Trial_,Start,1743448563271,undefined,684,embarrass,physical,psychological,A,NULL
