"","ID.true","Word","Label","Task","BlockOrder","EventTime","Value","ReactionTime","Key_value_F","Key_value_J","Comments","Group","LogReactionTime","TrialNumber"
"1","5dea7a7df87f5519e686ff7b","fear","calibrator_phys_feedback","PhysPsych","PV",1743508049538,"psychological",1225,"psychological","physical","psychological;physical","B",7.11069612297883,1
"2","5dea7a7df87f5519e686ff7b","water","calibrator_phys_feedback","PhysPsych","PV",1743508053816,"psychological",1514,"psychological","physical","psychological;physical","B",7.32251043399739,2
"3","5dea7a7df87f5519e686ff7b","body","calibrator_phys_feedback","PhysPsych","PV",1743508058103,"physical",1524,"psychological","physical","psychological;physical","B",7.32909373624659,3
"4","5dea7a7df87f5519e686ff7b","heat","calibrator_phys_feedback","PhysPsych","PV",1743508062189,"psychological",1325,"psychological","physical","psychological;physical","B",7.18916773842032,4
"5","5dea7a7df87f5519e686ff7b","stone","calibrator_phys_feedback","PhysPsych","PV",1743508067135,"physical",2183,"psychological","physical","psychological;physical","B",7.68845535654994,5
"6","5dea7a7df87f5519e686ff7b","dream","calibrator_phys_feedback","PhysPsych","PV",1743508071572,"psychological",1676,"psychological","physical","psychological;physical","B",7.42416528104203,6
"7","5dea7a7df87f5519e686ff7b","mood","calibrator_phys_feedback","PhysPsych","PV",1743508077697,"psychological",3362,"psychological","physical","psychological;physical","B",8.12029131396856,7
"8","5dea7a7df87f5519e686ff7b","mind","calibrator_phys_feedback","PhysPsych","PV",1743508082378,"psychological",1920,"psychological","physical","psychological;physical","B",7.56008046502183,8
"9","5dea7a7df87f5519e686ff7b","memory","calibrator_phys_feedback","PhysPsych","PV",1743508086168,"psychological",1031,"psychological","physical","psychological;physical","B",6.93828448401696,9
"10","5dea7a7df87f5519e686ff7b","hand","calibrator_phys_feedback","PhysPsych","PV",1743508090340,"physical",1414,"psychological","physical","psychological;physical","B",7.25417784645652,10
"11","5dea7a7df87f5519e686ff7b","body","calibrator_phys_no_feedback","PhysPsych","PV",1743508097113,"physical",4006,"B","psychological;physical","","B",8.29554851622576,11
"12","5dea7a7df87f5519e686ff7b","mind","calibrator_phys_no_feedback","PhysPsych","PV",1743508100625,"psychological",2751,"B","psychological;physical","","B",7.91971976092457,12
"13","5dea7a7df87f5519e686ff7b","fear","calibrator_phys_no_feedback","PhysPsych","PV",1743508102488,"psychological",1104,"B","psychological;physical","","B",7.00669522683704,13
"14","5dea7a7df87f5519e686ff7b","stone","calibrator_phys_no_feedback","PhysPsych","PV",1743508104263,"physical",1018,"B","psychological;physical","","B",6.92559519711047,14
"15","5dea7a7df87f5519e686ff7b","hand","calibrator_phys_no_feedback","PhysPsych","PV",1743508105867,"physical",849,"B","psychological;physical","","B",6.74405918631135,15
"16","5dea7a7df87f5519e686ff7b","memory","calibrator_phys_no_feedback","PhysPsych","PV",1743508107487,"psychological",862,"B","psychological;physical","","B",6.75925527066369,16
"17","5dea7a7df87f5519e686ff7b","heat","calibrator_phys_no_feedback","PhysPsych","PV",1743508109115,"psychological",869,"B","psychological;physical","","B",6.76734312526539,17
"18","5dea7a7df87f5519e686ff7b","dream","calibrator_phys_no_feedback","PhysPsych","PV",1743508110539,"psychological",664,"B","psychological;physical","","B",6.49828214947643,18
"19","5dea7a7df87f5519e686ff7b","water","calibrator_phys_no_feedback","PhysPsych","PV",1743508111987,"psychological",692,"B","psychological;physical","","B",6.53958595561767,19
"20","5dea7a7df87f5519e686ff7b","mood","calibrator_phys_no_feedback","PhysPsych","PV",1743508113362,"psychological",619,"B","psychological;physical","","B",6.4281052726846,20
"21","5dea7a7df87f5519e686ff7b","invader","calibrator_val_feedback","Valence","PV",1743508309031,"negative",1015,"negative","positive","negative;positive","B",6.92264389147589,21
"22","5dea7a7df87f5519e686ff7b","free","calibrator_val_feedback","Valence","PV",1743508313165,"positive",1369,"negative","positive","negative;positive","B",7.22183582528845,22
"23","5dea7a7df87f5519e686ff7b","joke","calibrator_val_feedback","Valence","PV",1743508318418,"positive",2490,"negative","positive","negative;positive","B",7.82003798945875,23
"24","5dea7a7df87f5519e686ff7b","icebox","calibrator_val_feedback","Valence","PV",1743508323554,"positive",2370,"negative","positive","negative;positive","B",7.77064523412918,24
"25","5dea7a7df87f5519e686ff7b","grin","calibrator_val_feedback","Valence","PV",1743508327733,"positive",1418,"negative","positive","negative;positive","B",7.25700270709207,25
"26","5dea7a7df87f5519e686ff7b","industry","calibrator_val_feedback","Valence","PV",1743508332092,"negative",1598,"negative","positive","negative;positive","B",7.37650812632622,26
"27","5dea7a7df87f5519e686ff7b","kitten","calibrator_val_feedback","Valence","PV",1743508335959,"positive",1106,"negative","positive","negative;positive","B",7.00850518208228,27
"28","5dea7a7df87f5519e686ff7b","insecure","calibrator_val_feedback","Valence","PV",1743508339858,"negative",1138,"negative","positive","negative;positive","B",7.03702761468628,28
"29","5dea7a7df87f5519e686ff7b","hat","calibrator_val_feedback","Valence","PV",1743508344209,"positive",1589,"negative","positive","negative;positive","B",7.37086016653672,29
"30","5dea7a7df87f5519e686ff7b","jail","calibrator_val_feedback","Valence","PV",1743508348061,"negative",1093,"negative","positive","negative;positive","B",6.99668148817654,30
"31","5dea7a7df87f5519e686ff7b","jail","calibrator_val_no_feedback","Valence","PV",1743508351703,"negative",879,"B","negative;positive","","B",6.77878489768518,31
"32","5dea7a7df87f5519e686ff7b","free","calibrator_val_no_feedback","Valence","PV",1743508353337,"positive",877,"B","negative;positive","","B",6.77650699237218,32
"33","5dea7a7df87f5519e686ff7b","icebox","calibrator_val_no_feedback","Valence","PV",1743508355158,"positive",1058,"B","negative;positive","","B",6.96413561241824,33
"34","5dea7a7df87f5519e686ff7b","grin","calibrator_val_no_feedback","Valence","PV",1743508356684,"positive",765,"B","negative;positive","","B",6.63987583382654,34
"35","5dea7a7df87f5519e686ff7b","kitten","calibrator_val_no_feedback","Valence","PV",1743508358093,"positive",649,"B","negative;positive","","B",6.47543271670409,35
"36","5dea7a7df87f5519e686ff7b","insecure","calibrator_val_no_feedback","Valence","PV",1743508359587,"negative",736,"B","negative;positive","","B",6.60123011872888,36
"37","5dea7a7df87f5519e686ff7b","joke","calibrator_val_no_feedback","Valence","PV",1743508360897,"positive",555,"B","negative;positive","","B",6.31896811374643,37
"38","5dea7a7df87f5519e686ff7b","industry","calibrator_val_no_feedback","Valence","PV",1743508362430,"positive",774,"B","negative;positive","","B",6.65157187358973,38
"39","5dea7a7df87f5519e686ff7b","hat","calibrator_val_no_feedback","Valence","PV",1743508365697,"positive",2507,"B","negative;positive","","B",7.82684209815829,39
"40","5dea7a7df87f5519e686ff7b","invader","calibrator_val_no_feedback","Valence","PV",1743508367209,"negative",756,"B","negative;positive","","B",6.62804137617953,40
"41","669aed56568d11bad784de3b","water","calibrator_phys_feedback","PhysPsych","PV",1743535972404,"physical",2719,"physical","psychological","physical;psychological","A",7.90801944463247,1
"42","669aed56568d11bad784de3b","stone","calibrator_phys_feedback","PhysPsych","PV",1743535976420,"physical",1205,"physical","psychological","physical;psychological","A",7.09423484592476,2
"43","669aed56568d11bad784de3b","dream","calibrator_phys_feedback","PhysPsych","PV",1743535980731,"psychological",1519,"physical","psychological","physical;psychological","A",7.32580750259577,3
"44","669aed56568d11bad784de3b","heat","calibrator_phys_feedback","PhysPsych","PV",1743535984945,"psychological",1420,"physical","psychological","physical;psychological","A",7.25841215059531,4
"45","669aed56568d11bad784de3b","hand","calibrator_phys_feedback","PhysPsych","PV",1743535989065,"physical",1327,"physical","psychological","physical;psychological","A",7.19067603433221,5
"46","669aed56568d11bad784de3b","memory","calibrator_phys_feedback","PhysPsych","PV",1743535993202,"psychological",1340,"physical","psychological","physical;psychological","A",7.20042489294496,6
"47","669aed56568d11bad784de3b","mood","calibrator_phys_feedback","PhysPsych","PV",1743535997171,"psychological",1182,"physical","psychological","physical;psychological","A",7.07496319796604,7
"48","669aed56568d11bad784de3b","fear","calibrator_phys_feedback","PhysPsych","PV",1743536001068,"psychological",1123,"physical","psychological","physical;psychological","A",7.02375895473844,8
"49","669aed56568d11bad784de3b","body","calibrator_phys_feedback","PhysPsych","PV",1743536005046,"physical",1182,"physical","psychological","physical;psychological","A",7.07496319796604,9
"50","669aed56568d11bad784de3b","mind","calibrator_phys_feedback","PhysPsych","PV",1743536008839,"psychological",1018,"physical","psychological","physical;psychological","A",6.92559519711047,10
"51","669aed56568d11bad784de3b","stone","calibrator_phys_no_feedback","PhysPsych","PV",1743536012623,"physical",997,"A","physical;psychological","","A",6.90475076996184,11
"52","669aed56568d11bad784de3b","mood","calibrator_phys_no_feedback","PhysPsych","PV",1743536014555,"psychological",1144,"A","physical;psychological","","A",7.04228617193974,12
"53","669aed56568d11bad784de3b","heat","calibrator_phys_no_feedback","PhysPsych","PV",1743536017290,"psychological",1956,"A","physical;psychological","","A",7.57865685059476,13
"54","669aed56568d11bad784de3b","dream","calibrator_phys_no_feedback","PhysPsych","PV",1743536019229,"psychological",1156,"A","physical;psychological","","A",7.05272104923232,14
"55","669aed56568d11bad784de3b","fear","calibrator_phys_no_feedback","PhysPsych","PV",1743536021171,"psychological",1158,"A","physical;psychological","","A",7.05444965813294,15
"56","669aed56568d11bad784de3b","water","calibrator_phys_no_feedback","PhysPsych","PV",1743536022764,"physical",813,"A","physical;psychological","","A",6.70073110954781,16
"57","669aed56568d11bad784de3b","mind","calibrator_phys_no_feedback","PhysPsych","PV",1743536024395,"psychological",847,"A","physical;psychological","","A",6.74170069465205,17
"58","669aed56568d11bad784de3b","hand","calibrator_phys_no_feedback","PhysPsych","PV",1743536026420,"physical",1242,"A","physical;psychological","","A",7.12447826249342,18
"59","669aed56568d11bad784de3b","body","calibrator_phys_no_feedback","PhysPsych","PV",1743536028315,"physical",1107,"A","physical;psychological","","A",7.00940893270864,19
"60","669aed56568d11bad784de3b","memory","calibrator_phys_no_feedback","PhysPsych","PV",1743536030179,"psychological",1083,"A","physical;psychological","","A",6.98749024700099,20
"61","669aed56568d11bad784de3b","hat","calibrator_val_feedback","Valence","PV",1743536405437,"positive",2653,"positive","negative","positive;negative","A",7.88344635413774,21
"62","669aed56568d11bad784de3b","icebox","calibrator_val_feedback","Valence","PV",1743536410901,"positive",2679,"positive","negative","positive;negative","A",7.89319886954461,22
"63","669aed56568d11bad784de3b","kitten","calibrator_val_feedback","Valence","PV",1743536415169,"positive",1481,"positive","negative","positive;negative","A",7.3004728142678,23
"64","669aed56568d11bad784de3b","free","calibrator_val_feedback","Valence","PV",1743536419568,"positive",1611,"positive","negative","positive;negative","A",7.38461038317697,24
"65","669aed56568d11bad784de3b","industry","calibrator_val_feedback","Valence","PV",1743536424096,"positive",1733,"positive","negative","positive;negative","A",7.45760928971561,25
"66","669aed56568d11bad784de3b","invader","calibrator_val_feedback","Valence","PV",1743536428233,"negative",1347,"positive","negative","positive;negative","A",7.20563517641036,26
"67","669aed56568d11bad784de3b","insecure","calibrator_val_feedback","Valence","PV",1743536433557,"negative",2541,"positive","negative","positive;negative","A",7.84031298332016,27
"68","669aed56568d11bad784de3b","joke","calibrator_val_feedback","Valence","PV",1743536439673,"positive",3340,"positive","negative","positive;negative","A",8.11372608597075,28
"69","669aed56568d11bad784de3b","grin","calibrator_val_feedback","Valence","PV",1743536444578,"positive",2113,"positive","negative","positive;negative","A",7.65586401761606,29
"70","669aed56568d11bad784de3b","jail","calibrator_val_feedback","Valence","PV",1743536448298,"negative",934,"positive","negative","positive;negative","A",6.83947643822884,30
"71","669aed56568d11bad784de3b","jail","calibrator_val_no_feedback","Valence","PV",1743536452369,"negative",1282,"A","positive;negative","","A",7.15617663748062,31
"72","669aed56568d11bad784de3b","kitten","calibrator_val_no_feedback","Valence","PV",1743536454475,"positive",1322,"A","positive;negative","","A",7.18690102041163,32
"73","669aed56568d11bad784de3b","hat","calibrator_val_no_feedback","Valence","PV",1743536456060,"positive",801,"A","positive;negative","","A",6.68586094706836,33
"74","669aed56568d11bad784de3b","grin","calibrator_val_no_feedback","Valence","PV",1743536457779,"positive",937,"A","positive;negative","","A",6.84268328223842,34
"75","669aed56568d11bad784de3b","joke","calibrator_val_no_feedback","Valence","PV",1743536460201,"positive",1644,"A","positive;negative","","A",7.40488757561612,35
"76","669aed56568d11bad784de3b","icebox","calibrator_val_no_feedback","Valence","PV",1743536462115,"positive",1132,"A","positive;negative","","A",7.03174125876313,36
"77","669aed56568d11bad784de3b","free","calibrator_val_no_feedback","Valence","PV",1743536463858,"positive",962,"A","positive;negative","","A",6.86901445066571,37
"78","669aed56568d11bad784de3b","invader","calibrator_val_no_feedback","Valence","PV",1743536465420,"negative",783,"A","positive;negative","","A",6.6631326959908,38
"79","669aed56568d11bad784de3b","insecure","calibrator_val_no_feedback","Valence","PV",1743536467046,"negative",844,"A","positive;negative","","A",6.73815249459596,39
"80","669aed56568d11bad784de3b","industry","calibrator_val_no_feedback","Valence","PV",1743536469034,"positive",1209,"A","positive;negative","","A",7.09754885061479,40
"81","60ff2c3d915d23318b73ae8d","kitten","calibrator_val_feedback","Valence","VP",1743524389386,"positive",1724,"negative","positive","negative;positive","B",7.45240245122364,1
"82","60ff2c3d915d23318b73ae8d","free","calibrator_val_feedback","Valence","VP",1743524393425,"positive",1268,"negative","positive","negative;positive","B",7.14519613499717,2
"83","60ff2c3d915d23318b73ae8d","insecure","calibrator_val_feedback","Valence","VP",1743524397478,"negative",1283,"negative","positive","negative;positive","B",7.15695636461564,3
"84","60ff2c3d915d23318b73ae8d","invader","calibrator_val_feedback","Valence","VP",1743524401258,"negative",1000,"negative","positive","negative;positive","B",6.90775527898214,4
"85","60ff2c3d915d23318b73ae8d","jail","calibrator_val_feedback","Valence","VP",1743524404831,"negative",797,"negative","positive","negative;positive","B",6.68085467879022,5
"86","60ff2c3d915d23318b73ae8d","icebox","calibrator_val_feedback","Valence","VP",1743524408735,"positive",1119,"negative","positive","negative;positive","B",7.02019070831193,6
"87","60ff2c3d915d23318b73ae8d","joke","calibrator_val_feedback","Valence","VP",1743524412334,"positive",825,"negative","positive","negative;positive","B",6.71538338633468,7
"88","60ff2c3d915d23318b73ae8d","grin","calibrator_val_feedback","Valence","VP",1743524416164,"positive",1064,"negative","positive","negative;positive","B",6.96979066990159,8
"89","60ff2c3d915d23318b73ae8d","hat","calibrator_val_feedback","Valence","VP",1743524420484,"positive",1527,"negative","positive","negative;positive","B",7.33106030521863,9
"90","60ff2c3d915d23318b73ae8d","industry","calibrator_val_feedback","Valence","VP",1743524424051,"positive",779,"negative","positive","negative;positive","B",6.65801104587075,10
"91","60ff2c3d915d23318b73ae8d","jail","calibrator_val_no_feedback","Valence","VP",1743524427916,"negative",1078,"B","negative;positive","","B",6.98286275146894,11
"92","60ff2c3d915d23318b73ae8d","joke","calibrator_val_no_feedback","Valence","VP",1743524430131,"negative",1444,"B","negative;positive","","B",7.27517231945277,12
"93","60ff2c3d915d23318b73ae8d","industry","calibrator_val_no_feedback","Valence","VP",1743524432461,"positive",1561,"B","negative;positive","","B",7.35308192051543,13
"94","60ff2c3d915d23318b73ae8d","kitten","calibrator_val_no_feedback","Valence","VP",1743524434139,"positive",908,"B","negative;positive","","B",6.81124437860129,14
"95","60ff2c3d915d23318b73ae8d","hat","calibrator_val_no_feedback","Valence","VP",1743524436032,"positive",1118,"B","negative;positive","","B",7.01929665371504,15
"96","60ff2c3d915d23318b73ae8d","icebox","calibrator_val_no_feedback","Valence","VP",1743524437756,"positive",947,"B","negative;positive","","B",6.85329909318608,16
"97","60ff2c3d915d23318b73ae8d","invader","calibrator_val_no_feedback","Valence","VP",1743524439311,"negative",787,"B","negative;positive","","B",6.6682282484174,17
"98","60ff2c3d915d23318b73ae8d","insecure","calibrator_val_no_feedback","Valence","VP",1743524441204,"negative",1126,"B","negative;positive","","B",7.02642680869964,18
"99","60ff2c3d915d23318b73ae8d","free","calibrator_val_no_feedback","Valence","VP",1743524442894,"positive",924,"B","negative;positive","","B",6.82871207164168,19
"100","60ff2c3d915d23318b73ae8d","grin","calibrator_val_no_feedback","Valence","VP",1743524444231,"positive",569,"B","negative;positive","","B",6.34388043412633,20
"101","60ff2c3d915d23318b73ae8d","hand","calibrator_phys_feedback","PhysPsych","VP",1743524768341,"physical",1208,"psychological","physical","psychological;physical","B",7.09672137849476,21
"102","60ff2c3d915d23318b73ae8d","mood","calibrator_phys_feedback","PhysPsych","VP",1743524772563,"psychological",1455,"psychological","physical","psychological;physical","B",7.28276117960559,22
"103","60ff2c3d915d23318b73ae8d","fear","calibrator_phys_feedback","PhysPsych","VP",1743524777941,"psychological",1328,"psychological","physical","psychological;physical","B",7.19142933003638,23
"104","60ff2c3d915d23318b73ae8d","heat","calibrator_phys_feedback","PhysPsych","VP",1743524781447,"physical",2004,"psychological","physical","psychological;physical","B",7.60290046220476,24
"105","60ff2c3d915d23318b73ae8d","body","calibrator_phys_feedback","PhysPsych","VP",1743524785256,"physical",1038,"psychological","physical","psychological;physical","B",6.94505106372583,25
"106","60ff2c3d915d23318b73ae8d","dream","calibrator_phys_feedback","PhysPsych","VP",1743524789260,"psychological",1219,"psychological","physical","psychological;physical","B",7.10578612948127,26
"107","60ff2c3d915d23318b73ae8d","mind","calibrator_phys_feedback","PhysPsych","VP",1743524793022,"psychological",985,"psychological","physical","psychological;physical","B",6.89264164117209,27
"108","60ff2c3d915d23318b73ae8d","memory","calibrator_phys_feedback","PhysPsych","VP",1743524796650,"psychological",849,"psychological","physical","psychological;physical","B",6.74405918631135,28
"109","60ff2c3d915d23318b73ae8d","water","calibrator_phys_feedback","PhysPsych","VP",1743524800465,"physical",1042,"psychological","physical","psychological;physical","B",6.94889722231331,29
"110","60ff2c3d915d23318b73ae8d","stone","calibrator_phys_feedback","PhysPsych","VP",1743524804380,"physical",1137,"psychological","physical","psychological;physical","B",7.03614849375054,30
"111","60ff2c3d915d23318b73ae8d","hand","calibrator_phys_no_feedback","PhysPsych","VP",1743524808095,"physical",946,"B","psychological;physical","","B",6.85224256905188,31
"112","60ff2c3d915d23318b73ae8d","stone","calibrator_phys_no_feedback","PhysPsych","VP",1743524809607,"physical",744,"B","psychological;physical","","B",6.61204103483309,32
"113","60ff2c3d915d23318b73ae8d","body","calibrator_phys_no_feedback","PhysPsych","VP",1743524811046,"physical",679,"B","psychological;physical","","B",6.5206211275587,33
"114","60ff2c3d915d23318b73ae8d","water","calibrator_phys_no_feedback","PhysPsych","VP",1743524813057,"physical",1249,"B","psychological;physical","","B",7.13009851012558,34
"115","60ff2c3d915d23318b73ae8d","memory","calibrator_phys_no_feedback","PhysPsych","VP",1743524814629,"psychological",807,"B","psychological;physical","","B",6.69332366826995,35
"116","60ff2c3d915d23318b73ae8d","fear","calibrator_phys_no_feedback","PhysPsych","VP",1743524816218,"psychological",819,"B","psychological;physical","","B",6.70808408385307,36
"117","60ff2c3d915d23318b73ae8d","heat","calibrator_phys_no_feedback","PhysPsych","VP",1743524818736,"physical",1753,"B","psychological;physical","","B",7.46908388492123,37
"118","60ff2c3d915d23318b73ae8d","dream","calibrator_phys_no_feedback","PhysPsych","VP",1743524820470,"psychological",967,"B","psychological;physical","","B",6.87419849545329,38
"119","60ff2c3d915d23318b73ae8d","mood","calibrator_phys_no_feedback","PhysPsych","VP",1743524822243,"psychological",1011,"B","psychological;physical","","B",6.91869521902047,39
"120","60ff2c3d915d23318b73ae8d","mind","calibrator_phys_no_feedback","PhysPsych","VP",1743524824085,"psychological",1077,"B","psychological;physical","","B",6.98193467715639,40
"121","604938ac63ef0de4b710e653","heat","calibrator_phys_feedback","PhysPsych","PV",1743533688029,"physical",1986,"physical","psychological","physical;psychological","A",7.59387784460512,1
"122","604938ac63ef0de4b710e653","dream","calibrator_phys_feedback","PhysPsych","PV",1743533692652,"psychological",1848,"physical","psychological","physical;psychological","A",7.52185925220163,2
"123","604938ac63ef0de4b710e653","water","calibrator_phys_feedback","PhysPsych","PV",1743533696802,"physical",1383,"physical","psychological","physical;psychological","A",7.23201033166476,3
"124","604938ac63ef0de4b710e653","mind","calibrator_phys_feedback","PhysPsych","PV",1743533700398,"psychological",829,"physical","psychological","physical;psychological","A",6.7202201551353,4
"125","604938ac63ef0de4b710e653","stone","calibrator_phys_feedback","PhysPsych","PV",1743533704715,"physical",1551,"physical","psychological","physical;psychological","A",7.34665516317654,5
"126","604938ac63ef0de4b710e653","fear","calibrator_phys_feedback","PhysPsych","PV",1743533708317,"physical",836,"physical","psychological","physical;psychological","A",6.7286286130847,6
"127","604938ac63ef0de4b710e653","body","calibrator_phys_feedback","PhysPsych","PV",1743533712229,"physical",1147,"physical","psychological","physical;psychological","A",7.04490511712937,7
"128","604938ac63ef0de4b710e653","memory","calibrator_phys_feedback","PhysPsych","PV",1743533715805,"psychological",806,"physical","psychological","physical;psychological","A",6.69208374250663,8
"129","604938ac63ef0de4b710e653","mood","calibrator_phys_feedback","PhysPsych","PV",1743533719925,"psychological",1353,"physical","psychological","physical;psychological","A",7.21007962817079,9
"130","604938ac63ef0de4b710e653","hand","calibrator_phys_feedback","PhysPsych","PV",1743533723424,"physical",734,"physical","psychological","physical;psychological","A",6.59850902861452,10
"131","604938ac63ef0de4b710e653","fear","calibrator_phys_no_feedback","PhysPsych","PV",1743533727628,"psychological",1435,"A","physical;psychological","","A",7.26892012819372,11
"132","604938ac63ef0de4b710e653","water","calibrator_phys_no_feedback","PhysPsych","PV",1743533729235,"physical",844,"A","physical;psychological","","A",6.73815249459596,12
"133","604938ac63ef0de4b710e653","mood","calibrator_phys_no_feedback","PhysPsych","PV",1743533731288,"psychological",1291,"A","physical;psychological","","A",7.16317239084664,13
"134","604938ac63ef0de4b710e653","heat","calibrator_phys_no_feedback","PhysPsych","PV",1743533732976,"physical",923,"A","physical;psychological","","A",6.82762923450285,14
"135","604938ac63ef0de4b710e653","body","calibrator_phys_no_feedback","PhysPsych","PV",1743533734786,"physical",1049,"A","physical;psychological","","A",6.9555926083963,15
"136","604938ac63ef0de4b710e653","memory","calibrator_phys_no_feedback","PhysPsych","PV",1743533736243,"psychological",693,"A","physical;psychological","","A",6.5410299991899,16
"137","604938ac63ef0de4b710e653","stone","calibrator_phys_no_feedback","PhysPsych","PV",1743533737669,"physical",664,"A","physical;psychological","","A",6.49828214947643,17
"138","604938ac63ef0de4b710e653","hand","calibrator_phys_no_feedback","PhysPsych","PV",1743533739015,"physical",583,"A","physical;psychological","","A",6.36818718635049,18
"139","604938ac63ef0de4b710e653","mind","calibrator_phys_no_feedback","PhysPsych","PV",1743533740374,"psychological",597,"A","physical;psychological","","A",6.3919171133926,19
"140","604938ac63ef0de4b710e653","dream","calibrator_phys_no_feedback","PhysPsych","PV",1743533741752,"psychological",618,"A","physical;psychological","","A",6.42648845745769,20
"141","604938ac63ef0de4b710e653","industry","calibrator_val_feedback","Valence","PV",1743533999723,"positive",1804,"positive","negative","positive;negative","A",7.49776170062257,21
"142","604938ac63ef0de4b710e653","kitten","calibrator_val_feedback","Valence","PV",1743534003726,"positive",1239,"positive","negative","positive;negative","A",7.12205988162914,22
"143","604938ac63ef0de4b710e653","joke","calibrator_val_feedback","Valence","PV",1743534007347,"positive",861,"positive","negative","positive;negative","A",6.75809450442773,23
"144","604938ac63ef0de4b710e653","hat","calibrator_val_feedback","Valence","PV",1743534011198,"positive",1085,"positive","negative","positive;negative","A",6.98933526597456,24
"145","604938ac63ef0de4b710e653","insecure","calibrator_val_feedback","Valence","PV",1743534015065,"negative",1105,"positive","negative","positive;negative","A",7.00760061395185,25
"146","604938ac63ef0de4b710e653","jail","calibrator_val_feedback","Valence","PV",1743534018670,"negative",839,"positive","negative","positive;negative","A",6.73221070646721,26
"147","604938ac63ef0de4b710e653","free","calibrator_val_feedback","Valence","PV",1743534022334,"positive",896,"positive","negative","positive;negative","A",6.79794041297493,27
"148","604938ac63ef0de4b710e653","icebox","calibrator_val_feedback","Valence","PV",1743534032709,"negative",7605,"positive","negative","positive;negative","A",8.93656120469339,28
"149","604938ac63ef0de4b710e653","grin","calibrator_val_feedback","Valence","PV",1743534037080,"positive",1604,"positive","negative","positive;negative","A",7.38025578842646,29
"150","604938ac63ef0de4b710e653","invader","calibrator_val_feedback","Valence","PV",1743534041227,"negative",1383,"positive","negative","positive;negative","A",7.23201033166476,30
"151","604938ac63ef0de4b710e653","industry","calibrator_val_no_feedback","Valence","PV",1743534045359,"positive",1364,"A","positive;negative","","A",7.21817683840341,31
"152","604938ac63ef0de4b710e653","free","calibrator_val_no_feedback","Valence","PV",1743534046727,"positive",606,"A","positive;negative","","A",6.40687998606931,32
"153","604938ac63ef0de4b710e653","joke","calibrator_val_no_feedback","Valence","PV",1743534048071,"positive",583,"A","positive;negative","","A",6.36818718635049,33
"154","604938ac63ef0de4b710e653","icebox","calibrator_val_no_feedback","Valence","PV",1743534049613,"negative",783,"A","positive;negative","","A",6.6631326959908,34
"155","604938ac63ef0de4b710e653","invader","calibrator_val_no_feedback","Valence","PV",1743534051198,"negative",824,"A","positive;negative","","A",6.71417052990947,35
"156","604938ac63ef0de4b710e653","hat","calibrator_val_no_feedback","Valence","PV",1743534052667,"positive",704,"A","positive;negative","","A",6.55677835615804,36
"157","604938ac63ef0de4b710e653","grin","calibrator_val_no_feedback","Valence","PV",1743534054388,"positive",963,"A","positive;negative","","A",6.87005341179813,37
"158","604938ac63ef0de4b710e653","insecure","calibrator_val_no_feedback","Valence","PV",1743534055886,"negative",734,"A","positive;negative","","A",6.59850902861452,38
"159","604938ac63ef0de4b710e653","kitten","calibrator_val_no_feedback","Valence","PV",1743534057374,"positive",728,"A","positive;negative","","A",6.59030104819669,39
"160","604938ac63ef0de4b710e653","jail","calibrator_val_no_feedback","Valence","PV",1743534058813,"negative",676,"A","positive;negative","","A",6.51619307604296,40
"161","636261a282f90a4b0998fe5c","industry","calibrator_val_feedback","Valence","VP",1743439058605,"positive",1383,"negative","positive","negative;positive","B",7.23201033166476,1
"162","636261a282f90a4b0998fe5c","grin","calibrator_val_feedback","Valence","VP",1743439063468,"positive",1234,"negative","positive","negative;positive","B",7.11801620446533,2
"163","636261a282f90a4b0998fe5c","joke","calibrator_val_feedback","Valence","VP",1743439065780,"positive",931,"negative","positive","negative;positive","B",6.83625927727707,3
"164","636261a282f90a4b0998fe5c","insecure","calibrator_val_feedback","Valence","VP",1743439069756,"negative",1197,"negative","positive","negative;positive","B",7.08757370555797,4
"165","636261a282f90a4b0998fe5c","kitten","calibrator_val_feedback","Valence","VP",1743439073692,"positive",1163,"negative","positive","negative;positive","B",7.05875815251866,5
"166","636261a282f90a4b0998fe5c","invader","calibrator_val_feedback","Valence","VP",1743439077532,"negative",1063,"negative","positive","negative;positive","B",6.96885037834195,6
"167","636261a282f90a4b0998fe5c","free","calibrator_val_feedback","Valence","VP",1743439081420,"positive",1103,"negative","positive","negative;positive","B",7.0057890192535,7
"168","636261a282f90a4b0998fe5c","icebox","calibrator_val_feedback","Valence","VP",1743439085332,"positive",1129,"negative","positive","negative;positive","B",7.02908756414966,8
"169","636261a282f90a4b0998fe5c","jail","calibrator_val_feedback","Valence","VP",1743439089660,"negative",1550,"negative","positive","negative;positive","B",7.34601020991329,9
"170","636261a282f90a4b0998fe5c","hat","calibrator_val_feedback","Valence","VP",1743439094308,"negative",1876,"negative","positive","negative;positive","B",7.53689712956617,10
"171","636261a282f90a4b0998fe5c","kitten","calibrator_val_no_feedback","Valence","VP",1743439099132,"positive",2033,"B","negative;positive","","B",7.61726781362835,11
"172","636261a282f90a4b0998fe5c","insecure","calibrator_val_no_feedback","Valence","VP",1743439101284,"negative",1383,"B","negative;positive","","B",7.23201033166476,12
"173","636261a282f90a4b0998fe5c","invader","calibrator_val_no_feedback","Valence","VP",1743439102838,"negative",783,"B","negative;positive","","B",6.6631326959908,13
"174","636261a282f90a4b0998fe5c","free","calibrator_val_no_feedback","Valence","VP",1743439104461,"positive",844,"B","negative;positive","","B",6.73815249459596,14
"175","636261a282f90a4b0998fe5c","grin","calibrator_val_no_feedback","Valence","VP",1743439105947,"positive",713,"B","negative;positive","","B",6.5694814204143,15
"176","636261a282f90a4b0998fe5c","hat","calibrator_val_no_feedback","Valence","VP",1743439107604,"positive",884,"B","negative;positive","","B",6.78445706263764,16
"177","636261a282f90a4b0998fe5c","jail","calibrator_val_no_feedback","Valence","VP",1743439110788,"negative",2423,"B","negative;positive","","B",7.79276172081653,17
"178","636261a282f90a4b0998fe5c","icebox","calibrator_val_no_feedback","Valence","VP",1743439112685,"positive",1121,"B","negative;positive","","B",7.02197642307216,18
"179","636261a282f90a4b0998fe5c","industry","calibrator_val_no_feedback","Valence","VP",1743439114595,"positive",1150,"B","negative;positive","","B",7.0475172213573,19
"180","636261a282f90a4b0998fe5c","joke","calibrator_val_no_feedback","Valence","VP",1743439116356,"positive",994,"B","negative;positive","","B",6.90173720665657,20
"181","636261a282f90a4b0998fe5c","mood","calibrator_phys_feedback","PhysPsych","VP",1743439609795,"psychological",935,"psychological","physical","psychological;physical","B",6.84054652928869,21
"182","636261a282f90a4b0998fe5c","fear","calibrator_phys_feedback","PhysPsych","VP",1743439613355,"psychological",765,"psychological","physical","psychological;physical","B",6.63987583382654,22
"183","636261a282f90a4b0998fe5c","mind","calibrator_phys_feedback","PhysPsych","VP",1743439616907,"psychological",754,"psychological","physical","psychological;physical","B",6.62539236800796,23
"184","636261a282f90a4b0998fe5c","hand","calibrator_phys_feedback","PhysPsych","VP",1743439620299,"physical",599,"psychological","physical","psychological;physical","B",6.39526159811545,24
"185","636261a282f90a4b0998fe5c","body","calibrator_phys_feedback","PhysPsych","VP",1743439623755,"physical",676,"psychological","physical","psychological;physical","B",6.51619307604296,25
"186","636261a282f90a4b0998fe5c","memory","calibrator_phys_feedback","PhysPsych","VP",1743439627611,"psychological",1083,"psychological","physical","psychological;physical","B",6.98749024700099,26
"187","636261a282f90a4b0998fe5c","water","calibrator_phys_feedback","PhysPsych","VP",1743439631323,"physical",933,"psychological","physical","psychological;physical","B",6.83840520084734,27
"188","636261a282f90a4b0998fe5c","heat","calibrator_phys_feedback","PhysPsych","VP",1743439635781,"physical",1661,"psychological","physical","psychological;physical","B",7.41517510961329,28
"189","636261a282f90a4b0998fe5c","dream","calibrator_phys_feedback","PhysPsych","VP",1743439639475,"psychological",913,"psychological","physical","psychological;physical","B",6.81673588059497,29
"190","636261a282f90a4b0998fe5c","stone","calibrator_phys_feedback","PhysPsych","VP",1743439643620,"physical",1371,"psychological","physical","psychological;physical","B",7.22329567956231,30
"191","636261a282f90a4b0998fe5c","water","calibrator_phys_no_feedback","PhysPsych","VP",1743439647251,"physical",860,"B","psychological;physical","","B",6.75693238924755,31
"192","636261a282f90a4b0998fe5c","hand","calibrator_phys_no_feedback","PhysPsych","VP",1743439650307,"physical",2289,"B","psychological;physical","","B",7.73587031995257,32
"193","636261a282f90a4b0998fe5c","mood","calibrator_phys_no_feedback","PhysPsych","VP",1743439651755,"psychological",668,"B","psychological;physical","","B",6.50428817353665,33
"194","636261a282f90a4b0998fe5c","mind","calibrator_phys_no_feedback","PhysPsych","VP",1743439653156,"physical",627,"B","psychological;physical","","B",6.44094654063292,34
"195","636261a282f90a4b0998fe5c","body","calibrator_phys_no_feedback","PhysPsych","VP",1743439654875,"physical",949,"B","psychological;physical","","B",6.85540879860993,35
"196","636261a282f90a4b0998fe5c","fear","calibrator_phys_no_feedback","PhysPsych","VP",1743439656770,"psychological",1136,"B","psychological;physical","","B",7.0352685992811,36
"197","636261a282f90a4b0998fe5c","heat","calibrator_phys_no_feedback","PhysPsych","VP",1743439658187,"physical",648,"B","psychological;physical","","B",6.47389069635227,37
"198","636261a282f90a4b0998fe5c","stone","calibrator_phys_no_feedback","PhysPsych","VP",1743439659922,"physical",977,"B","psychological;physical","","B",6.88448665204278,38
"199","636261a282f90a4b0998fe5c","memory","calibrator_phys_no_feedback","PhysPsych","VP",1743439661435,"psychological",741,"B","psychological;physical","","B",6.60800062529609,39
"200","636261a282f90a4b0998fe5c","dream","calibrator_phys_no_feedback","PhysPsych","VP",1743439662946,"psychological",738,"B","psychological;physical","","B",6.60394382460047,40
"201","605776c7ffd8cb64476fc73f","industry","calibrator_val_feedback","Valence","VP",1743431953240,"negative",1966,"positive","negative","positive;negative","A",7.58375630070711,1
"202","605776c7ffd8cb64476fc73f","insecure","calibrator_val_feedback","Valence","VP",1743431957263,"negative",1234,"positive","negative","positive;negative","A",7.11801620446533,2
"203","605776c7ffd8cb64476fc73f","kitten","calibrator_val_feedback","Valence","VP",1743431960823,"positive",755,"positive","negative","positive;negative","A",6.62671774924902,3
"204","605776c7ffd8cb64476fc73f","invader","calibrator_val_feedback","Valence","VP",1743431964310,"negative",700,"positive","negative","positive;negative","A",6.5510803350434,4
"205","605776c7ffd8cb64476fc73f","hat","calibrator_val_feedback","Valence","VP",1743431968446,"positive",1336,"positive","negative","positive;negative","A",7.19743535409659,5
"206","605776c7ffd8cb64476fc73f","jail","calibrator_val_feedback","Valence","VP",1743431972071,"negative",829,"positive","negative","positive;negative","A",6.7202201551353,6
"207","605776c7ffd8cb64476fc73f","grin","calibrator_val_feedback","Valence","VP",1743431975614,"positive",748,"positive","negative","positive;negative","A",6.61740297797448,7
"208","605776c7ffd8cb64476fc73f","free","calibrator_val_feedback","Valence","VP",1743431979463,"positive",1056,"positive","negative","positive;negative","A",6.96224346426621,8
"209","605776c7ffd8cb64476fc73f","joke","calibrator_val_feedback","Valence","VP",1743431983167,"positive",901,"positive","negative","positive;negative","A",6.80350525760834,9
"210","605776c7ffd8cb64476fc73f","icebox","calibrator_val_feedback","Valence","VP",1743431987195,"negative",1231,"positive","negative","positive;negative","A",7.11558212618445,10
"211","605776c7ffd8cb64476fc73f","jail","calibrator_val_no_feedback","Valence","VP",1743431990711,"negative",721,"A","positive;negative","","A",6.58063913728495,11
"212","605776c7ffd8cb64476fc73f","kitten","calibrator_val_no_feedback","Valence","VP",1743431993287,"positive",1796,"A","positive;negative","","A",7.49331724886215,12
"213","605776c7ffd8cb64476fc73f","hat","calibrator_val_no_feedback","Valence","VP",1743431995183,"positive",1113,"A","positive;negative","","A",7.01481435127554,13
"214","605776c7ffd8cb64476fc73f","industry","calibrator_val_no_feedback","Valence","VP",1743431996806,"negative",836,"A","positive;negative","","A",6.7286286130847,14
"215","605776c7ffd8cb64476fc73f","icebox","calibrator_val_no_feedback","Valence","VP",1743431998799,"positive",1206,"A","positive;negative","","A",7.09506437728713,15
"216","605776c7ffd8cb64476fc73f","joke","calibrator_val_no_feedback","Valence","VP",1743432000551,"positive",965,"A","positive;negative","","A",6.87212810133899,16
"217","605776c7ffd8cb64476fc73f","insecure","calibrator_val_no_feedback","Valence","VP",1743432002503,"negative",1166,"A","positive;negative","","A",7.06133436691044,17
"218","605776c7ffd8cb64476fc73f","invader","calibrator_val_no_feedback","Valence","VP",1743432004064,"negative",776,"A","positive;negative","","A",6.65415252018322,18
"219","605776c7ffd8cb64476fc73f","grin","calibrator_val_no_feedback","Valence","VP",1743432005599,"positive",751,"A","positive;negative","","A",6.62140565176413,19
"220","605776c7ffd8cb64476fc73f","free","calibrator_val_no_feedback","Valence","VP",1743432007095,"positive",711,"A","positive;negative","","A",6.56667242980324,20
"221","605776c7ffd8cb64476fc73f","heat","calibrator_phys_feedback","PhysPsych","VP",1743432213655,"psychological",1286,"physical","psychological","physical;psychological","A",7.15929190479756,21
"222","605776c7ffd8cb64476fc73f","fear","calibrator_phys_feedback","PhysPsych","VP",1743432217560,"psychological",1104,"physical","psychological","physical;psychological","A",7.00669522683704,22
"223","605776c7ffd8cb64476fc73f","dream","calibrator_phys_feedback","PhysPsych","VP",1743432221327,"psychological",970,"physical","psychological","physical;psychological","A",6.87729607149743,23
"224","605776c7ffd8cb64476fc73f","stone","calibrator_phys_feedback","PhysPsych","VP",1743432225205,"physical",1082,"physical","psychological","physical;psychological","A",6.98656645940643,24
"225","605776c7ffd8cb64476fc73f","mood","calibrator_phys_feedback","PhysPsych","VP",1743432228694,"psychological",701,"physical","psychological","physical;psychological","A",6.55250788703459,25
"226","605776c7ffd8cb64476fc73f","hand","calibrator_phys_feedback","PhysPsych","VP",1743432232207,"physical",725,"physical","psychological","physical;psychological","A",6.58617165485467,26
"227","605776c7ffd8cb64476fc73f","body","calibrator_phys_feedback","PhysPsych","VP",1743432235775,"physical",778,"physical","psychological","physical;psychological","A",6.65672652417839,27
"228","605776c7ffd8cb64476fc73f","water","calibrator_phys_feedback","PhysPsych","VP",1743432239456,"physical",885,"physical","psychological","physical;psychological","A",6.78558764500793,28
"229","605776c7ffd8cb64476fc73f","memory","calibrator_phys_feedback","PhysPsych","VP",1743432242952,"psychological",703,"physical","psychological","physical;psychological","A",6.55535689181067,29
"230","605776c7ffd8cb64476fc73f","mind","calibrator_phys_feedback","PhysPsych","VP",1743432246394,"psychological",655,"physical","psychological","physical;psychological","A",6.48463523563525,30
"231","605776c7ffd8cb64476fc73f","memory","calibrator_phys_no_feedback","PhysPsych","VP",1743432250089,"psychological",897,"A","physical;psychological","","A",6.7990558620588,31
"232","605776c7ffd8cb64476fc73f","mind","calibrator_phys_no_feedback","PhysPsych","VP",1743432251704,"psychological",826,"A","physical;psychological","","A",6.71659477352098,32
"233","605776c7ffd8cb64476fc73f","water","calibrator_phys_no_feedback","PhysPsych","VP",1743432253033,"physical",542,"A","physical;psychological","","A",6.29526600143965,33
"234","605776c7ffd8cb64476fc73f","dream","calibrator_phys_no_feedback","PhysPsych","VP",1743432254448,"psychological",630,"A","physical;psychological","","A",6.44571981938558,34
"235","605776c7ffd8cb64476fc73f","stone","calibrator_phys_no_feedback","PhysPsych","VP",1743432256608,"physical",1377,"A","physical;psychological","","A",7.22766249872865,35
"236","605776c7ffd8cb64476fc73f","heat","calibrator_phys_no_feedback","PhysPsych","VP",1743432258217,"physical",822,"A","physical;psychological","","A",6.71174039505618,36
"237","605776c7ffd8cb64476fc73f","hand","calibrator_phys_no_feedback","PhysPsych","VP",1743432259753,"physical",751,"A","physical;psychological","","A",6.62140565176413,37
"238","605776c7ffd8cb64476fc73f","body","calibrator_phys_no_feedback","PhysPsych","VP",1743432261313,"physical",773,"A","physical;psychological","","A",6.65027904858742,38
"239","605776c7ffd8cb64476fc73f","mood","calibrator_phys_no_feedback","PhysPsych","VP",1743432262753,"psychological",652,"A","physical;psychological","","A",6.48004456192665,39
"240","605776c7ffd8cb64476fc73f","fear","calibrator_phys_no_feedback","PhysPsych","VP",1743432264257,"psychological",719,"A","physical;psychological","","A",6.57786135772105,40
"241","66514573b9a70d7b816ef18f","kitten","calibrator_val_feedback","Valence","VP",1743514730073,"positive",1651,"positive","negative","positive;negative","A",7.40913644392013,1
"242","66514573b9a70d7b816ef18f","insecure","calibrator_val_feedback","Valence","VP",1743514733776,"negative",935,"positive","negative","positive;negative","A",6.84054652928869,2
"243","66514573b9a70d7b816ef18f","icebox","calibrator_val_feedback","Valence","VP",1743514737848,"negative",1313,"positive","negative","positive;negative","A",7.1800698743028,3
"244","66514573b9a70d7b816ef18f","industry","calibrator_val_feedback","Valence","VP",1743514741636,"positive",1024,"positive","negative","positive;negative","A",6.93147180559945,4
"245","66514573b9a70d7b816ef18f","hat","calibrator_val_feedback","Valence","VP",1743514745068,"positive",670,"positive","negative","positive;negative","A",6.50727771238501,5
"246","66514573b9a70d7b816ef18f","grin","calibrator_val_feedback","Valence","VP",1743514748522,"positive",686,"positive","negative","positive;negative","A",6.53087762772588,6
"247","66514573b9a70d7b816ef18f","joke","calibrator_val_feedback","Valence","VP",1743514752080,"positive",797,"positive","negative","positive;negative","A",6.68085467879022,7
"248","66514573b9a70d7b816ef18f","jail","calibrator_val_feedback","Valence","VP",1743514755392,"negative",549,"positive","negative","positive;negative","A",6.30809844150953,8
"249","66514573b9a70d7b816ef18f","invader","calibrator_val_feedback","Valence","VP",1743514758805,"negative",650,"positive","negative","positive;negative","A",6.47697236288968,9
"250","66514573b9a70d7b816ef18f","free","calibrator_val_feedback","Valence","VP",1743514762241,"positive",672,"positive","negative","positive;negative","A",6.51025834052315,10
"251","66514573b9a70d7b816ef18f","hat","calibrator_val_no_feedback","Valence","VP",1743514765517,"positive",519,"A","positive;negative","","A",6.25190388316589,11
"252","66514573b9a70d7b816ef18f","grin","calibrator_val_no_feedback","Valence","VP",1743514766942,"positive",665,"A","positive;negative","","A",6.49978704065585,12
"253","66514573b9a70d7b816ef18f","free","calibrator_val_no_feedback","Valence","VP",1743514768261,"positive",558,"A","positive;negative","","A",6.32435896238131,13
"254","66514573b9a70d7b816ef18f","invader","calibrator_val_no_feedback","Valence","VP",1743514769638,"negative",622,"A","positive;negative","","A",6.43294009273918,14
"255","66514573b9a70d7b816ef18f","industry","calibrator_val_no_feedback","Valence","VP",1743514770956,"positive",561,"A","positive;negative","","A",6.3297209055227,15
"256","66514573b9a70d7b816ef18f","jail","calibrator_val_no_feedback","Valence","VP",1743514772164,"negative",451,"A","positive;negative","","A",6.11146733950268,16
"257","66514573b9a70d7b816ef18f","icebox","calibrator_val_no_feedback","Valence","VP",1743514773439,"negative",514,"A","positive;negative","","A",6.24222326545517,17
"258","66514573b9a70d7b816ef18f","kitten","calibrator_val_no_feedback","Valence","VP",1743514774626,"positive",431,"A","positive;negative","","A",6.06610809010375,18
"259","66514573b9a70d7b816ef18f","joke","calibrator_val_no_feedback","Valence","VP",1743514775826,"negative",443,"A","positive;negative","","A",6.09356977004514,19
"260","66514573b9a70d7b816ef18f","insecure","calibrator_val_no_feedback","Valence","VP",1743514777118,"negative",533,"A","positive;negative","","A",6.27852142416584,20
"261","66514573b9a70d7b816ef18f","mood","calibrator_phys_feedback","PhysPsych","VP",1743514968497,"psychological",1724,"physical","psychological","physical;psychological","A",7.45240245122364,21
"262","66514573b9a70d7b816ef18f","fear","calibrator_phys_feedback","PhysPsych","VP",1743514973352,"psychological",2096,"physical","psychological","physical;psychological","A",7.64778604544093,22
"263","66514573b9a70d7b816ef18f","body","calibrator_phys_feedback","PhysPsych","VP",1743514977215,"physical",1104,"physical","psychological","physical;psychological","A",7.00669522683704,23
"264","66514573b9a70d7b816ef18f","mind","calibrator_phys_feedback","PhysPsych","VP",1743514981199,"psychological",1223,"physical","psychological","physical;psychological","A",7.10906213568717,24
"265","66514573b9a70d7b816ef18f","water","calibrator_phys_feedback","PhysPsych","VP",1743514985648,"physical",1687,"physical","psychological","physical;psychological","A",7.43070708254597,25
"266","66514573b9a70d7b816ef18f","dream","calibrator_phys_feedback","PhysPsych","VP",1743514990378,"psychological",1971,"physical","psychological","physical;psychological","A",7.58629630715272,26
"267","66514573b9a70d7b816ef18f","stone","calibrator_phys_feedback","PhysPsych","VP",1743514993955,"physical",818,"physical","psychological","physical;psychological","A",6.70686233660275,27
"268","66514573b9a70d7b816ef18f","hand","calibrator_phys_feedback","PhysPsych","VP",1743514997422,"physical",701,"physical","psychological","physical;psychological","A",6.55250788703459,28
"269","66514573b9a70d7b816ef18f","heat","calibrator_phys_feedback","PhysPsych","VP",1743515001654,"physical",1470,"physical","psychological","physical;psychological","A",7.29301767977278,29
"270","66514573b9a70d7b816ef18f","memory","calibrator_phys_feedback","PhysPsych","VP",1743515006437,"psychological",2020,"physical","psychological","physical;psychological","A",7.61085279039525,30
"271","66514573b9a70d7b816ef18f","mood","calibrator_phys_no_feedback","PhysPsych","VP",1743515011135,"psychological",1940,"A","physical;psychological","","A",7.57044325205737,31
"272","66514573b9a70d7b816ef18f","mind","calibrator_phys_no_feedback","PhysPsych","VP",1743515014801,"psychological",2904,"A","physical;psychological","","A",7.97384437594469,32
"273","66514573b9a70d7b816ef18f","hand","calibrator_phys_no_feedback","PhysPsych","VP",1743515016232,"physical",676,"A","physical;psychological","","A",6.51619307604296,33
"274","66514573b9a70d7b816ef18f","fear","calibrator_phys_no_feedback","PhysPsych","VP",1743515017768,"psychological",773,"A","physical;psychological","","A",6.65027904858742,34
"275","66514573b9a70d7b816ef18f","heat","calibrator_phys_no_feedback","PhysPsych","VP",1743515019230,"physical",705,"A","physical;psychological","","A",6.55819780281227,35
"276","66514573b9a70d7b816ef18f","stone","calibrator_phys_no_feedback","PhysPsych","VP",1743515020763,"physical",779,"A","physical;psychological","","A",6.65801104587075,36
"277","66514573b9a70d7b816ef18f","memory","calibrator_phys_no_feedback","PhysPsych","VP",1743515022861,"psychological",1337,"A","physical;psychological","","A",7.19818357710194,37
"278","66514573b9a70d7b816ef18f","dream","calibrator_phys_no_feedback","PhysPsych","VP",1743515025741,"psychological",2122,"A","physical;psychological","","A",7.66011431917393,38
"279","66514573b9a70d7b816ef18f","body","calibrator_phys_no_feedback","PhysPsych","VP",1743515027022,"physical",521,"A","physical;psychological","","A",6.25575004175337,39
"280","66514573b9a70d7b816ef18f","water","calibrator_phys_no_feedback","PhysPsych","VP",1743515028378,"physical",599,"A","physical;psychological","","A",6.39526159811545,40
"281","662c299e6db88649ff13ccae","invader","calibrator_val_feedback","Valence","VP",1743436819993,"negative",1096,"negative","positive","negative;positive","B",6.99942246750796,1
"282","662c299e6db88649ff13ccae","hat","calibrator_val_feedback","Valence","VP",1743436823901,"positive",1121,"negative","positive","negative;positive","B",7.02197642307216,2
"283","662c299e6db88649ff13ccae","joke","calibrator_val_feedback","Valence","VP",1743436828220,"negative",1539,"negative","positive","negative;positive","B",7.33888813383888,3
"284","662c299e6db88649ff13ccae","icebox","calibrator_val_feedback","Valence","VP",1743436833023,"positive",2026,"negative","positive","negative;positive","B",7.61381868480863,4
"285","662c299e6db88649ff13ccae","industry","calibrator_val_feedback","Valence","VP",1743436836661,"positive",859,"negative","positive","negative;positive","B",6.75576892198425,5
"286","662c299e6db88649ff13ccae","grin","calibrator_val_feedback","Valence","VP",1743436840216,"positive",778,"negative","positive","negative;positive","B",6.65672652417839,6
"287","662c299e6db88649ff13ccae","free","calibrator_val_feedback","Valence","VP",1743436843778,"positive",780,"negative","positive","negative;positive","B",6.65929391968364,7
"288","662c299e6db88649ff13ccae","kitten","calibrator_val_feedback","Valence","VP",1743436847166,"positive",610,"negative","positive","negative;positive","B",6.41345895716736,8
"289","662c299e6db88649ff13ccae","insecure","calibrator_val_feedback","Valence","VP",1743436850979,"negative",1041,"negative","positive","negative;positive","B",6.94793706861497,9
"290","662c299e6db88649ff13ccae","jail","calibrator_val_feedback","Valence","VP",1743436854512,"negative",754,"negative","positive","negative;positive","B",6.62539236800796,10
"291","662c299e6db88649ff13ccae","invader","calibrator_val_no_feedback","Valence","VP",1743436858165,"negative",874,"B","negative;positive","","B",6.77308037565554,11
"292","662c299e6db88649ff13ccae","joke","calibrator_val_no_feedback","Valence","VP",1743436859674,"positive",742,"B","negative;positive","","B",6.60934924316738,12
"293","662c299e6db88649ff13ccae","grin","calibrator_val_no_feedback","Valence","VP",1743436861178,"positive",728,"B","negative;positive","","B",6.59030104819669,13
"294","662c299e6db88649ff13ccae","free","calibrator_val_no_feedback","Valence","VP",1743436862580,"positive",632,"B","negative;positive","","B",6.44888939414686,14
"295","662c299e6db88649ff13ccae","insecure","calibrator_val_no_feedback","Valence","VP",1743436864065,"negative",717,"B","negative;positive","","B",6.57507584059962,15
"296","662c299e6db88649ff13ccae","jail","calibrator_val_no_feedback","Valence","VP",1743436865445,"negative",607,"B","negative;positive","","B",6.4085287910595,16
"297","662c299e6db88649ff13ccae","kitten","calibrator_val_no_feedback","Valence","VP",1743436866844,"positive",633,"B","negative;positive","","B",6.45047042214418,17
"298","662c299e6db88649ff13ccae","icebox","calibrator_val_no_feedback","Valence","VP",1743436868252,"positive",640,"B","negative;positive","","B",6.46146817635372,18
"299","662c299e6db88649ff13ccae","industry","calibrator_val_no_feedback","Valence","VP",1743436869737,"positive",720,"B","negative;positive","","B",6.5792512120101,19
"300","662c299e6db88649ff13ccae","hat","calibrator_val_no_feedback","Valence","VP",1743436871062,"positive",561,"B","negative;positive","","B",6.3297209055227,20
"301","662c299e6db88649ff13ccae","mood","calibrator_phys_feedback","PhysPsych","VP",1743437087333,"psychological",1288,"psychological","physical","psychological;physical","B",7.1608459066643,21
"302","662c299e6db88649ff13ccae","memory","calibrator_phys_feedback","PhysPsych","VP",1743437091094,"psychological",984,"psychological","physical","psychological;physical","B",6.89162589705225,22
"303","662c299e6db88649ff13ccae","hand","calibrator_phys_feedback","PhysPsych","VP",1743437094630,"physical",764,"psychological","physical","psychological;physical","B",6.63856778916652,23
"304","662c299e6db88649ff13ccae","dream","calibrator_phys_feedback","PhysPsych","VP",1743437098546,"psychological",1153,"psychological","physical","psychological;physical","B",7.05012252026906,24
"305","662c299e6db88649ff13ccae","stone","calibrator_phys_feedback","PhysPsych","VP",1743437102324,"physical",1009,"psychological","physical","psychological;physical","B",6.91671502035361,25
"306","662c299e6db88649ff13ccae","fear","calibrator_phys_feedback","PhysPsych","VP",1743437105997,"psychological",904,"psychological","physical","psychological;physical","B",6.80682936039218,26
"307","662c299e6db88649ff13ccae","heat","calibrator_phys_feedback","PhysPsych","VP",1743437109667,"psychological",893,"psychological","physical","psychological;physical","B",6.7945865808765,27
"308","662c299e6db88649ff13ccae","mind","calibrator_phys_feedback","PhysPsych","VP",1743437113149,"psychological",713,"psychological","physical","psychological;physical","B",6.5694814204143,28
"309","662c299e6db88649ff13ccae","water","calibrator_phys_feedback","PhysPsych","VP",1743437116712,"physical",791,"psychological","physical","psychological;physical","B",6.67329796776765,29
"310","662c299e6db88649ff13ccae","body","calibrator_phys_feedback","PhysPsych","VP",1743437120857,"physical",1373,"psychological","physical","psychological;physical","B",7.22475340576797,30
"311","662c299e6db88649ff13ccae","stone","calibrator_phys_no_feedback","PhysPsych","VP",1743437124681,"physical",1056,"B","psychological;physical","","B",6.96224346426621,31
"312","662c299e6db88649ff13ccae","memory","calibrator_phys_no_feedback","PhysPsych","VP",1743437126152,"psychological",702,"B","psychological;physical","","B",6.55393340402581,32
"313","662c299e6db88649ff13ccae","hand","calibrator_phys_no_feedback","PhysPsych","VP",1743437127586,"physical",663,"B","psychological;physical","","B",6.49677499018586,33
"314","662c299e6db88649ff13ccae","body","calibrator_phys_no_feedback","PhysPsych","VP",1743437128939,"physical",595,"B","psychological;physical","","B",6.38856140554563,34
"315","662c299e6db88649ff13ccae","dream","calibrator_phys_no_feedback","PhysPsych","VP",1743437130238,"psychological",526,"B","psychological;physical","","B",6.26530121273771,35
"316","662c299e6db88649ff13ccae","mind","calibrator_phys_no_feedback","PhysPsych","VP",1743437131841,"psychological",834,"B","psychological;physical","","B",6.72623340235875,36
"317","662c299e6db88649ff13ccae","mood","calibrator_phys_no_feedback","PhysPsych","VP",1743437133479,"psychological",879,"B","psychological;physical","","B",6.77878489768518,37
"318","662c299e6db88649ff13ccae","heat","calibrator_phys_no_feedback","PhysPsych","VP",1743437135179,"physical",936,"B","psychological;physical","","B",6.84161547647759,38
"319","662c299e6db88649ff13ccae","water","calibrator_phys_no_feedback","PhysPsych","VP",1743437136646,"physical",699,"B","psychological;physical","","B",6.54965074223381,39
"320","662c299e6db88649ff13ccae","fear","calibrator_phys_no_feedback","PhysPsych","VP",1743437138420,"psychological",1009,"B","psychological;physical","","B",6.91671502035361,40
"321","65cb708afe5755feaeec417f","grin","calibrator_val_feedback","Valence","VP",1743511658593,"positive",1237,"positive","negative","positive;negative","A",7.12044437239249,1
"322","65cb708afe5755feaeec417f","icebox","calibrator_val_feedback","Valence","VP",1743511660938,"positive",1466,"positive","negative","positive;negative","A",7.2902928824466,2
"323","65cb708afe5755feaeec417f","industry","calibrator_val_feedback","Valence","VP",1743511665490,"negative",1791,"positive","negative","positive;negative","A",7.49052940206071,3
"324","65cb708afe5755feaeec417f","kitten","calibrator_val_feedback","Valence","VP",1743511669007,"positive",748,"positive","negative","positive;negative","A",6.61740297797448,4
"325","65cb708afe5755feaeec417f","insecure","calibrator_val_feedback","Valence","VP",1743511672787,"negative",1013,"positive","negative","positive;negative","A",6.92067150424868,5
"326","65cb708afe5755feaeec417f","joke","calibrator_val_feedback","Valence","VP",1743511676825,"positive",1275,"positive","negative","positive;negative","A",7.15070145759253,6
"327","65cb708afe5755feaeec417f","invader","calibrator_val_feedback","Valence","VP",1743511680668,"negative",1083,"positive","negative","positive;negative","A",6.98749024700099,7
"328","65cb708afe5755feaeec417f","hat","calibrator_val_feedback","Valence","VP",1743511684589,"positive",1158,"positive","negative","positive;negative","A",7.05444965813294,8
"329","65cb708afe5755feaeec417f","jail","calibrator_val_feedback","Valence","VP",1743511688152,"negative",796,"positive","negative","positive;negative","A",6.67959918584438,9
"330","65cb708afe5755feaeec417f","free","calibrator_val_feedback","Valence","VP",1743511691677,"positive",761,"positive","negative","positive;negative","A",6.63463335786169,10
"331","65cb708afe5755feaeec417f","joke","calibrator_val_no_feedback","Valence","VP",1743511695401,"positive",958,"A","positive;negative","","A",6.86484777797086,11
"332","65cb708afe5755feaeec417f","grin","calibrator_val_no_feedback","Valence","VP",1743511696977,"positive",813,"A","positive;negative","","A",6.70073110954781,12
"333","65cb708afe5755feaeec417f","invader","calibrator_val_no_feedback","Valence","VP",1743511698543,"negative",808,"A","positive;negative","","A",6.69456205852109,13
"334","65cb708afe5755feaeec417f","free","calibrator_val_no_feedback","Valence","VP",1743511699925,"positive",624,"A","positive;negative","","A",6.43615036836943,14
"335","65cb708afe5755feaeec417f","jail","calibrator_val_no_feedback","Valence","VP",1743511701476,"negative",789,"A","positive;negative","","A",6.67076632084587,15
"336","65cb708afe5755feaeec417f","icebox","calibrator_val_no_feedback","Valence","VP",1743511702938,"positive",707,"A","positive;negative","","A",6.56103066589657,16
"337","65cb708afe5755feaeec417f","hat","calibrator_val_no_feedback","Valence","VP",1743511704150,"positive",452,"A","positive;negative","","A",6.11368217983223,17
"338","65cb708afe5755feaeec417f","kitten","calibrator_val_no_feedback","Valence","VP",1743511705561,"positive",648,"A","positive;negative","","A",6.47389069635227,18
"339","65cb708afe5755feaeec417f","insecure","calibrator_val_no_feedback","Valence","VP",1743511706932,"negative",612,"A","positive;negative","","A",6.41673228251233,19
"340","65cb708afe5755feaeec417f","industry","calibrator_val_no_feedback","Valence","VP",1743511708488,"negative",797,"A","positive;negative","","A",6.68085467879022,20
"341","65cb708afe5755feaeec417f","dream","calibrator_phys_feedback","PhysPsych","VP",1743511921161,"psychological",1501,"physical","psychological","physical;psychological","A",7.31388683163346,21
"342","65cb708afe5755feaeec417f","mind","calibrator_phys_feedback","PhysPsych","VP",1743511924684,"psychological",758,"physical","psychological","physical;psychological","A",6.63068338564237,22
"343","65cb708afe5755feaeec417f","stone","calibrator_phys_feedback","PhysPsych","VP",1743511930856,"physical",3407,"physical","psychological","physical;psychological","A",8.13358741766097,23
"344","65cb708afe5755feaeec417f","fear","calibrator_phys_feedback","PhysPsych","VP",1743511934667,"psychological",1050,"physical","psychological","physical;psychological","A",6.95654544315157,24
"345","65cb708afe5755feaeec417f","heat","calibrator_phys_feedback","PhysPsych","VP",1743511938589,"psychological",1160,"physical","psychological","physical;psychological","A",7.05617528410041,25
"346","65cb708afe5755feaeec417f","mood","calibrator_phys_feedback","PhysPsych","VP",1743511942403,"psychological",1050,"physical","psychological","physical;psychological","A",6.95654544315157,26
"347","65cb708afe5755feaeec417f","hand","calibrator_phys_feedback","PhysPsych","VP",1743511945872,"physical",707,"physical","psychological","physical;psychological","A",6.56103066589657,27
"348","65cb708afe5755feaeec417f","body","calibrator_phys_feedback","PhysPsych","VP",1743511949318,"physical",683,"physical","psychological","physical;psychological","A",6.52649485957079,28
"349","65cb708afe5755feaeec417f","memory","calibrator_phys_feedback","PhysPsych","VP",1743511952891,"physical",809,"physical","psychological","physical;psychological","A",6.69579891705849,29
"350","65cb708afe5755feaeec417f","water","calibrator_phys_feedback","PhysPsych","VP",1743511956437,"physical",782,"physical","psychological","physical;psychological","A",6.66185474054531,30
"351","65cb708afe5755feaeec417f","fear","calibrator_phys_no_feedback","PhysPsych","VP",1743511959888,"psychological",687,"A","physical;psychological","","A",6.53233429222235,31
"352","65cb708afe5755feaeec417f","body","calibrator_phys_no_feedback","PhysPsych","VP",1743511961479,"physical",833,"A","physical;psychological","","A",6.72503364216684,32
"353","65cb708afe5755feaeec417f","memory","calibrator_phys_no_feedback","PhysPsych","VP",1743511962714,"psychological",475,"A","physical;psychological","","A",6.16331480403464,33
"354","65cb708afe5755feaeec417f","hand","calibrator_phys_no_feedback","PhysPsych","VP",1743511964123,"physical",648,"A","physical;psychological","","A",6.47389069635227,34
"355","65cb708afe5755feaeec417f","mood","calibrator_phys_no_feedback","PhysPsych","VP",1743511965695,"psychological",810,"A","physical;psychological","","A",6.69703424766648,35
"356","65cb708afe5755feaeec417f","stone","calibrator_phys_no_feedback","PhysPsych","VP",1743511967135,"physical",681,"A","physical;psychological","","A",6.52356230614951,36
"357","65cb708afe5755feaeec417f","water","calibrator_phys_no_feedback","PhysPsych","VP",1743511968845,"physical",952,"A","physical;psychological","","A",6.85856503479136,37
"358","65cb708afe5755feaeec417f","heat","calibrator_phys_no_feedback","PhysPsych","VP",1743511970050,"physical",445,"A","physical;psychological","","A",6.09807428216624,38
"359","65cb708afe5755feaeec417f","mind","calibrator_phys_no_feedback","PhysPsych","VP",1743511971499,"psychological",690,"A","physical;psychological","","A",6.5366915975913,39
"360","65cb708afe5755feaeec417f","dream","calibrator_phys_no_feedback","PhysPsych","VP",1743511972855,"psychological",595,"A","physical;psychological","","A",6.38856140554563,40
"361","561d98e03d7fe8000b0f5e09","jail","calibrator_val_feedback","Valence","VP",1743522555070,"negative",1566,"negative","positive","negative;positive","B",7.35627987655075,1
"362","561d98e03d7fe8000b0f5e09","insecure","calibrator_val_feedback","Valence","VP",1743522557019,"negative",1079,"negative","positive","negative;positive","B",6.98378996525813,2
"363","561d98e03d7fe8000b0f5e09","free","calibrator_val_feedback","Valence","VP",1743522561937,"positive",1421,"negative","positive","negative;positive","B",7.2591161280971,3
"364","561d98e03d7fe8000b0f5e09","joke","calibrator_val_feedback","Valence","VP",1743522566949,"positive",2208,"negative","positive","negative;positive","B",7.69984240739699,4
"365","561d98e03d7fe8000b0f5e09","grin","calibrator_val_feedback","Valence","VP",1743522570750,"positive",1780,"negative","positive","negative;positive","B",7.48436864328613,5
"366","561d98e03d7fe8000b0f5e09","hat","calibrator_val_feedback","Valence","VP",1743522575617,"positive",2096,"negative","positive","negative;positive","B",7.64778604544093,6
"367","561d98e03d7fe8000b0f5e09","invader","calibrator_val_feedback","Valence","VP",1743522579925,"negative",1550,"negative","positive","negative;positive","B",7.34601020991329,7
"368","561d98e03d7fe8000b0f5e09","kitten","calibrator_val_feedback","Valence","VP",1743522584021,"positive",1321,"negative","positive","negative;positive","B",7.18614430452233,8
"369","561d98e03d7fe8000b0f5e09","industry","calibrator_val_feedback","Valence","VP",1743522588275,"positive",1477,"negative","positive","negative;positive","B",7.29776828253138,9
"370","561d98e03d7fe8000b0f5e09","icebox","calibrator_val_feedback","Valence","VP",1743522594927,"positive",3880,"negative","positive","negative;positive","B",8.26359043261732,10
"371","561d98e03d7fe8000b0f5e09","kitten","calibrator_val_no_feedback","Valence","VP",1743522599915,"positive",2220,"B","negative;positive","","B",7.70526247486633,11
"372","561d98e03d7fe8000b0f5e09","hat","calibrator_val_no_feedback","Valence","VP",1743522602675,"positive",2000,"B","negative;positive","","B",7.60090245954208,12
"373","561d98e03d7fe8000b0f5e09","industry","calibrator_val_no_feedback","Valence","VP",1743522604858,"positive",1421,"B","negative;positive","","B",7.2591161280971,13
"374","561d98e03d7fe8000b0f5e09","grin","calibrator_val_no_feedback","Valence","VP",1743522606664,"positive",1039,"B","negative;positive","","B",6.94601399109923,14
"375","561d98e03d7fe8000b0f5e09","jail","calibrator_val_no_feedback","Valence","VP",1743522609234,"negative",1790,"B","negative;positive","","B",7.4899708988348,15
"376","561d98e03d7fe8000b0f5e09","icebox","calibrator_val_no_feedback","Valence","VP",1743522611823,"positive",1813,"B","negative;positive","","B",7.50273821075485,16
"377","561d98e03d7fe8000b0f5e09","invader","calibrator_val_no_feedback","Valence","VP",1743522614675,"negative",2081,"B","negative;positive","","B",7.64060382639363,17
"378","561d98e03d7fe8000b0f5e09","free","calibrator_val_no_feedback","Valence","VP",1743522617482,"negative",2032,"B","negative;positive","","B",7.61677580869837,18
"379","561d98e03d7fe8000b0f5e09","insecure","calibrator_val_no_feedback","Valence","VP",1743522619609,"negative",1353,"B","negative;positive","","B",7.21007962817079,19
"380","561d98e03d7fe8000b0f5e09","joke","calibrator_val_no_feedback","Valence","VP",1743522621413,"positive",1022,"B","negative;positive","","B",6.92951677076365,20
"381","561d98e03d7fe8000b0f5e09","water","calibrator_phys_feedback","PhysPsych","VP",1743522876510,"physical",2064,"psychological","physical","psychological;physical","B",7.63240112660145,21
"382","561d98e03d7fe8000b0f5e09","stone","calibrator_phys_feedback","PhysPsych","VP",1743522881410,"physical",2111,"psychological","physical","psychological;physical","B",7.65491704784832,22
"383","561d98e03d7fe8000b0f5e09","memory","calibrator_phys_feedback","PhysPsych","VP",1743522886040,"psychological",1864,"psychological","physical","psychological;physical","B",7.53047999524554,23
"384","561d98e03d7fe8000b0f5e09","dream","calibrator_phys_feedback","PhysPsych","VP",1743522890470,"psychological",1657,"psychological","physical","psychological;physical","B",7.41276401742656,24
"385","561d98e03d7fe8000b0f5e09","mood","calibrator_phys_feedback","PhysPsych","VP",1743522894953,"psychological",1719,"psychological","physical","psychological;physical","B",7.44949800538285,25
"386","561d98e03d7fe8000b0f5e09","body","calibrator_phys_feedback","PhysPsych","VP",1743522899656,"physical",1928,"psychological","physical","psychological;physical","B",7.56423847517049,26
"387","561d98e03d7fe8000b0f5e09","heat","calibrator_phys_feedback","PhysPsych","VP",1743522904764,"physical",2346,"psychological","physical","psychological;physical","B",7.76046702921342,27
"388","561d98e03d7fe8000b0f5e09","fear","calibrator_phys_feedback","PhysPsych","VP",1743522909114,"psychological",1582,"psychological","physical","psychological;physical","B",7.3664451483276,28
"389","561d98e03d7fe8000b0f5e09","hand","calibrator_phys_feedback","PhysPsych","VP",1743522914430,"physical",2550,"psychological","physical","psychological;physical","B",7.84384863815247,29
"390","561d98e03d7fe8000b0f5e09","mind","calibrator_phys_feedback","PhysPsych","VP",1743522919346,"psychological",2132,"psychological","physical","psychological;physical","B",7.66481578528574,30
"391","561d98e03d7fe8000b0f5e09","heat","calibrator_phys_no_feedback","PhysPsych","VP",1743522924702,"physical",2575,"B","psychological;physical","","B",7.85360481309784,31
"392","561d98e03d7fe8000b0f5e09","mood","calibrator_phys_no_feedback","PhysPsych","VP",1743522927683,"psychological",2215,"B","psychological;physical","","B",7.70300768247924,32
"393","561d98e03d7fe8000b0f5e09","memory","calibrator_phys_no_feedback","PhysPsych","VP",1743522930164,"psychological",1715,"B","psychological;physical","","B",7.44716835960004,33
"394","561d98e03d7fe8000b0f5e09","stone","calibrator_phys_no_feedback","PhysPsych","VP",1743522932045,"physical",1107,"B","psychological;physical","","B",7.00940893270864,34
"395","561d98e03d7fe8000b0f5e09","fear","calibrator_phys_no_feedback","PhysPsych","VP",1743522934555,"psychological",1733,"B","psychological;physical","","B",7.45760928971561,35
"396","561d98e03d7fe8000b0f5e09","body","calibrator_phys_no_feedback","PhysPsych","VP",1743522936751,"physical",1425,"B","psychological;physical","","B",7.26192709270275,36
"397","561d98e03d7fe8000b0f5e09","mind","calibrator_phys_no_feedback","PhysPsych","VP",1743522939399,"psychological",1876,"B","psychological;physical","","B",7.53689712956617,37
"398","561d98e03d7fe8000b0f5e09","water","calibrator_phys_no_feedback","PhysPsych","VP",1743522942754,"physical",2585,"B","psychological;physical","","B",7.85748078694253,38
"399","561d98e03d7fe8000b0f5e09","dream","calibrator_phys_no_feedback","PhysPsych","VP",1743522944805,"psychological",1283,"B","psychological;physical","","B",7.15695636461564,39
"400","561d98e03d7fe8000b0f5e09","hand","calibrator_phys_no_feedback","PhysPsych","VP",1743522946997,"physical",1422,"B","psychological;physical","","B",7.25981961036319,40
"401","63f8ce09e792bf06684febec","dream","calibrator_phys_feedback","PhysPsych","PV",1743532052241,"psychological",3311,"physical","psychological","physical;psychological","A",8.10500553754725,1
"402","63f8ce09e792bf06684febec","hand","calibrator_phys_feedback","PhysPsych","PV",1743532055953,"physical",988,"physical","psychological","physical;psychological","A",6.89568269774787,2
"403","63f8ce09e792bf06684febec","stone","calibrator_phys_feedback","PhysPsych","PV",1743532059889,"physical",1218,"physical","psychological","physical;psychological","A",7.10496544826984,3
"404","63f8ce09e792bf06684febec","water","calibrator_phys_feedback","PhysPsych","PV",1743532062505,"physical",808,"physical","psychological","physical;psychological","A",6.69456205852109,4
"405","63f8ce09e792bf06684febec","body","calibrator_phys_feedback","PhysPsych","PV",1743532065986,"physical",1127,"physical","psychological","physical;psychological","A",7.02731451403978,5
"406","63f8ce09e792bf06684febec","heat","calibrator_phys_feedback","PhysPsych","PV",1743532072906,"psychological",4419,"physical","psychological","physical;psychological","A",8.39366870513074,6
"407","63f8ce09e792bf06684febec","mind","calibrator_phys_feedback","PhysPsych","PV",1743532076729,"psychological",784,"physical","psychological","physical;psychological","A",6.66440902035041,7
"408","63f8ce09e792bf06684febec","memory","calibrator_phys_feedback","PhysPsych","PV",1743532081105,"psychological",957,"physical","psychological","physical;psychological","A",6.86380339145295,8
"409","63f8ce09e792bf06684febec","fear","calibrator_phys_feedback","PhysPsych","PV",1743532084490,"psychological",844,"physical","psychological","physical;psychological","A",6.73815249459596,9
"410","63f8ce09e792bf06684febec","mood","calibrator_phys_feedback","PhysPsych","PV",1743532088682,"psychological",1263,"physical","psychological","physical;psychological","A",7.14124512235049,10
"411","63f8ce09e792bf06684febec","mind","calibrator_phys_no_feedback","PhysPsych","PV",1743532093005,"psychological",2674,"A","physical;psychological","","A",7.89133075766189,11
"412","63f8ce09e792bf06684febec","memory","calibrator_phys_no_feedback","PhysPsych","PV",1743532094589,"psychological",829,"A","physical;psychological","","A",6.7202201551353,12
"413","63f8ce09e792bf06684febec","dream","calibrator_phys_no_feedback","PhysPsych","PV",1743532096172,"psychological",827,"A","physical;psychological","","A",6.71780469502369,13
"414","63f8ce09e792bf06684febec","stone","calibrator_phys_no_feedback","PhysPsych","PV",1743532097589,"physical",657,"A","physical;psychological","","A",6.48768401848461,14
"415","63f8ce09e792bf06684febec","fear","calibrator_phys_no_feedback","PhysPsych","PV",1743532099365,"psychological",1016,"A","physical;psychological","","A",6.92362862813843,15
"416","63f8ce09e792bf06684febec","mood","calibrator_phys_no_feedback","PhysPsych","PV",1743532100837,"psychological",713,"A","physical;psychological","","A",6.5694814204143,16
"417","63f8ce09e792bf06684febec","water","calibrator_phys_no_feedback","PhysPsych","PV",1743532102461,"physical",870,"A","physical;psychological","","A",6.76849321164863,17
"418","63f8ce09e792bf06684febec","hand","calibrator_phys_no_feedback","PhysPsych","PV",1743532104021,"physical",804,"A","physical;psychological","","A",6.68959926917897,18
"419","63f8ce09e792bf06684febec","heat","calibrator_phys_no_feedback","PhysPsych","PV",1743532105733,"physical",953,"A","physical;psychological","","A",6.8596149036542,19
"420","63f8ce09e792bf06684febec","body","calibrator_phys_no_feedback","PhysPsych","PV",1743532107277,"physical",786,"A","physical;psychological","","A",6.66695679242921,20
"421","63f8ce09e792bf06684febec","free","calibrator_val_feedback","Valence","PV",1743532369033,"positive",1424,"positive","negative","positive;negative","A",7.26122509197192,21
"422","63f8ce09e792bf06684febec","invader","calibrator_val_feedback","Valence","PV",1743532372049,"negative",1182,"positive","negative","positive;negative","A",7.07496319796604,22
"423","63f8ce09e792bf06684febec","jail","calibrator_val_feedback","Valence","PV",1743532376197,"negative",1390,"positive","negative","positive;negative","A",7.23705902612474,23
"424","63f8ce09e792bf06684febec","joke","calibrator_val_feedback","Valence","PV",1743532380525,"positive",1571,"positive","negative","positive;negative","A",7.35946763825562,24
"425","63f8ce09e792bf06684febec","industry","calibrator_val_feedback","Valence","PV",1743532385033,"positive",1747,"positive","negative","positive;negative","A",7.46565531013406,25
"426","63f8ce09e792bf06684febec","grin","calibrator_val_feedback","Valence","PV",1743532389077,"positive",1283,"positive","negative","positive;negative","A",7.15695636461564,26
"427","63f8ce09e792bf06684febec","icebox","calibrator_val_feedback","Valence","PV",1743532392855,"positive",1020,"positive","negative","positive;negative","A",6.92755790627832,27
"428","63f8ce09e792bf06684febec","kitten","calibrator_val_feedback","Valence","PV",1743532396297,"positive",685,"positive","negative","positive;negative","A",6.52941883826223,28
"429","63f8ce09e792bf06684febec","insecure","calibrator_val_feedback","Valence","PV",1743532400386,"negative",1327,"positive","negative","positive;negative","A",7.19067603433221,29
"430","63f8ce09e792bf06684febec","hat","calibrator_val_feedback","Valence","PV",1743532404204,"positive",1056,"positive","negative","positive;negative","A",6.96224346426621,30
"431","63f8ce09e792bf06684febec","kitten","calibrator_val_no_feedback","Valence","PV",1743532407795,"positive",827,"A","positive;negative","","A",6.71780469502369,31
"432","63f8ce09e792bf06684febec","grin","calibrator_val_no_feedback","Valence","PV",1743532409346,"positive",794,"A","positive;negative","","A",6.67708346124714,32
"433","63f8ce09e792bf06684febec","joke","calibrator_val_no_feedback","Valence","PV",1743532410922,"positive",818,"A","positive;negative","","A",6.70686233660275,33
"434","63f8ce09e792bf06684febec","insecure","calibrator_val_no_feedback","Valence","PV",1743532412394,"negative",714,"A","positive;negative","","A",6.57088296233958,34
"435","63f8ce09e792bf06684febec","industry","calibrator_val_no_feedback","Valence","PV",1743532414114,"positive",962,"A","positive;negative","","A",6.86901445066571,35
"436","63f8ce09e792bf06684febec","icebox","calibrator_val_no_feedback","Valence","PV",1743532415523,"positive",649,"A","positive;negative","","A",6.47543271670409,36
"437","63f8ce09e792bf06684febec","hat","calibrator_val_no_feedback","Valence","PV",1743532416923,"positive",641,"A","positive;negative","","A",6.46302945692067,37
"438","63f8ce09e792bf06684febec","free","calibrator_val_no_feedback","Valence","PV",1743532418250,"positive",569,"A","positive;negative","","A",6.34388043412633,38
"439","63f8ce09e792bf06684febec","jail","calibrator_val_no_feedback","Valence","PV",1743532419667,"negative",661,"A","positive;negative","","A",6.49375383985169,39
"440","63f8ce09e792bf06684febec","invader","calibrator_val_no_feedback","Valence","PV",1743532421035,"negative",611,"A","positive;negative","","A",6.4150969591716,40
"441","6234e1b277e7fe207a9ad500","insecure","calibrator_val_feedback","Valence","VP",1743516534166,"negative",1897,"positive","negative","positive;negative","A",7.54802896993501,1
"442","6234e1b277e7fe207a9ad500","icebox","calibrator_val_feedback","Valence","VP",1743516538123,"negative",1194,"positive","negative","positive;negative","A",7.08506429395255,2
"443","6234e1b277e7fe207a9ad500","grin","calibrator_val_feedback","Valence","VP",1743516541852,"positive",964,"positive","negative","positive;negative","A",6.87109129461055,3
"444","6234e1b277e7fe207a9ad500","free","calibrator_val_feedback","Valence","VP",1743516545313,"negative",703,"positive","negative","positive;negative","A",6.55535689181067,4
"445","6234e1b277e7fe207a9ad500","jail","calibrator_val_feedback","Valence","VP",1743516549098,"negative",1025,"positive","negative","positive;negative","A",6.93244789157251,5
"446","6234e1b277e7fe207a9ad500","kitten","calibrator_val_feedback","Valence","VP",1743516552749,"positive",899,"positive","negative","positive;negative","A",6.80128303447162,6
"447","6234e1b277e7fe207a9ad500","industry","calibrator_val_feedback","Valence","VP",1743516556454,"negative",945,"positive","negative","positive;negative","A",6.85118492749374,7
"448","6234e1b277e7fe207a9ad500","hat","calibrator_val_feedback","Valence","VP",1743516559955,"positive",742,"positive","negative","positive;negative","A",6.60934924316738,8
"449","6234e1b277e7fe207a9ad500","invader","calibrator_val_feedback","Valence","VP",1743516563298,"negative",583,"positive","negative","positive;negative","A",6.36818718635049,9
"450","6234e1b277e7fe207a9ad500","joke","calibrator_val_feedback","Valence","VP",1743516566799,"positive",744,"positive","negative","positive;negative","A",6.61204103483309,10
"451","6234e1b277e7fe207a9ad500","joke","calibrator_val_no_feedback","Valence","VP",1743516570154,"positive",595,"A","positive;negative","","A",6.38856140554563,11
"452","6234e1b277e7fe207a9ad500","grin","calibrator_val_no_feedback","Valence","VP",1743516571648,"positive",738,"A","positive;negative","","A",6.60394382460047,12
"453","6234e1b277e7fe207a9ad500","jail","calibrator_val_no_feedback","Valence","VP",1743516573049,"negative",645,"A","positive;negative","","A",6.46925031679577,13
"454","6234e1b277e7fe207a9ad500","free","calibrator_val_no_feedback","Valence","VP",1743516574427,"positive",625,"A","positive;negative","","A",6.4377516497364,14
"455","6234e1b277e7fe207a9ad500","insecure","calibrator_val_no_feedback","Valence","VP",1743516575698,"negative",512,"A","positive;negative","","A",6.23832462503951,15
"456","6234e1b277e7fe207a9ad500","invader","calibrator_val_no_feedback","Valence","VP",1743516576965,"negative",512,"A","positive;negative","","A",6.23832462503951,16
"457","6234e1b277e7fe207a9ad500","hat","calibrator_val_no_feedback","Valence","VP",1743516578117,"positive",395,"A","positive;negative","","A",5.97888576490112,17
"458","6234e1b277e7fe207a9ad500","kitten","calibrator_val_no_feedback","Valence","VP",1743516579160,"positive",285,"A","positive;negative","","A",5.65248918026865,18
"459","6234e1b277e7fe207a9ad500","industry","calibrator_val_no_feedback","Valence","VP",1743516580382,"positive",470,"A","positive;negative","","A",6.1527326947041,19
"460","6234e1b277e7fe207a9ad500","icebox","calibrator_val_no_feedback","Valence","VP",1743516581538,"negative",399,"A","positive;negative","","A",5.98896141688986,20
"461","6234e1b277e7fe207a9ad500","stone","calibrator_phys_feedback","PhysPsych","VP",1743516853166,"physical",1620,"physical","psychological","physical;psychological","A",7.39018142822643,21
"462","6234e1b277e7fe207a9ad500","water","calibrator_phys_feedback","PhysPsych","VP",1743516857295,"physical",1369,"physical","psychological","physical;psychological","A",7.22183582528845,22
"463","6234e1b277e7fe207a9ad500","body","calibrator_phys_feedback","PhysPsych","VP",1743516862108,"physical",2057,"physical","psychological","physical;psychological","A",7.62900388965296,23
"464","6234e1b277e7fe207a9ad500","heat","calibrator_phys_feedback","PhysPsych","VP",1743516866163,"physical",1298,"physical","psychological","physical;psychological","A",7.16857989726403,24
"465","6234e1b277e7fe207a9ad500","fear","calibrator_phys_feedback","PhysPsych","VP",1743516869997,"psychological",1078,"physical","psychological","physical;psychological","A",6.98286275146894,25
"466","6234e1b277e7fe207a9ad500","hand","calibrator_phys_feedback","PhysPsych","VP",1743516873700,"physical",946,"physical","psychological","physical;psychological","A",6.85224256905188,26
"467","6234e1b277e7fe207a9ad500","memory","calibrator_phys_feedback","PhysPsych","VP",1743516877777,"psychological",1319,"physical","psychological","physical;psychological","A",7.18462915271731,27
"468","6234e1b277e7fe207a9ad500","mind","calibrator_phys_feedback","PhysPsych","VP",1743516882495,"psychological",1963,"physical","psychological","physical;psychological","A",7.58222919427646,28
"469","6234e1b277e7fe207a9ad500","dream","calibrator_phys_feedback","PhysPsych","VP",1743516886745,"psychological",1492,"physical","psychological","physical;psychological","A",7.30787278076371,29
"470","6234e1b277e7fe207a9ad500","mood","calibrator_phys_feedback","PhysPsych","VP",1743516890589,"psychological",1083,"physical","psychological","physical;psychological","A",6.98749024700099,30
"471","6234e1b277e7fe207a9ad500","body","calibrator_phys_no_feedback","PhysPsych","VP",1743516894414,"physical",1069,"A","physical;psychological","","A",6.97447891102505,31
"472","6234e1b277e7fe207a9ad500","mood","calibrator_phys_no_feedback","PhysPsych","VP",1743516897058,"psychological",1886,"A","physical;psychological","","A",7.5422134631934,32
"473","6234e1b277e7fe207a9ad500","memory","calibrator_phys_no_feedback","PhysPsych","VP",1743516901037,"psychological",3223,"A","physical;psychological","","A",8.07806788181544,33
"474","6234e1b277e7fe207a9ad500","dream","calibrator_phys_no_feedback","PhysPsych","VP",1743516903727,"psychological",1937,"A","physical;psychological","","A",7.568895663407,34
"475","6234e1b277e7fe207a9ad500","fear","calibrator_phys_no_feedback","PhysPsych","VP",1743516905966,"psychological",1482,"A","physical;psychological","","A",7.30114780585603,35
"476","6234e1b277e7fe207a9ad500","stone","calibrator_phys_no_feedback","PhysPsych","VP",1743516907734,"physical",1014,"A","physical;psychological","","A",6.92165818415113,36
"477","6234e1b277e7fe207a9ad500","water","calibrator_phys_no_feedback","PhysPsych","VP",1743516909360,"physical",868,"A","physical;psychological","","A",6.76619171466035,37
"478","6234e1b277e7fe207a9ad500","heat","calibrator_phys_no_feedback","PhysPsych","VP",1743516911006,"physical",893,"A","physical;psychological","","A",6.7945865808765,38
"479","6234e1b277e7fe207a9ad500","hand","calibrator_phys_no_feedback","PhysPsych","VP",1743516912638,"physical",875,"A","physical;psychological","","A",6.77422388635761,39
"480","6234e1b277e7fe207a9ad500","mind","calibrator_phys_no_feedback","PhysPsych","VP",1743516914159,"psychological",768,"A","physical;psychological","","A",6.64378973314767,40
"481","5d62886927a84f00010fbbb4","hand","calibrator_phys_feedback","PhysPsych","PV",1743501939331,"physical",1337,"psychological","physical","psychological;physical","B",7.19818357710194,1
"482","5d62886927a84f00010fbbb4","heat","calibrator_phys_feedback","PhysPsych","PV",1743501942908,"psychological",820,"psychological","physical","psychological;physical","B",6.7093043402583,2
"483","5d62886927a84f00010fbbb4","mood","calibrator_phys_feedback","PhysPsych","PV",1743501946450,"psychological",785,"psychological","physical","psychological;physical","B",6.66568371778241,3
"484","5d62886927a84f00010fbbb4","mind","calibrator_phys_feedback","PhysPsych","PV",1743501949961,"psychological",756,"psychological","physical","psychological;physical","B",6.62804137617953,4
"485","5d62886927a84f00010fbbb4","fear","calibrator_phys_feedback","PhysPsych","PV",1743501953482,"psychological",763,"psychological","physical","psychological;physical","B",6.63725803128446,5
"486","5d62886927a84f00010fbbb4","body","calibrator_phys_feedback","PhysPsych","PV",1743501957287,"physical",1043,"psychological","physical","psychological;physical","B",6.94985645500077,6
"487","5d62886927a84f00010fbbb4","memory","calibrator_phys_feedback","PhysPsych","PV",1743501961039,"psychological",995,"psychological","physical","psychological;physical","B",6.90274273715859,7
"488","5d62886927a84f00010fbbb4","dream","calibrator_phys_feedback","PhysPsych","PV",1743501964513,"psychological",718,"psychological","physical","psychological;physical","B",6.57646956904822,8
"489","5d62886927a84f00010fbbb4","stone","calibrator_phys_feedback","PhysPsych","PV",1743501968134,"physical",861,"psychological","physical","psychological;physical","B",6.75809450442773,9
"490","5d62886927a84f00010fbbb4","water","calibrator_phys_feedback","PhysPsych","PV",1743501971940,"physical",1047,"psychological","physical","psychological;physical","B",6.95368421087054,10
"491","5d62886927a84f00010fbbb4","mood","calibrator_phys_no_feedback","PhysPsych","PV",1743501975356,"psychological",657,"B","psychological;physical","","B",6.48768401848461,11
"492","5d62886927a84f00010fbbb4","hand","calibrator_phys_no_feedback","PhysPsych","PV",1743501976944,"physical",831,"B","psychological;physical","","B",6.72262979485545,12
"493","5d62886927a84f00010fbbb4","heat","calibrator_phys_no_feedback","PhysPsych","PV",1743501978414,"physical",712,"B","psychological;physical","","B",6.56807791141198,13
"494","5d62886927a84f00010fbbb4","memory","calibrator_phys_no_feedback","PhysPsych","PV",1743501979795,"psychological",626,"B","psychological;physical","","B",6.4393503711001,14
"495","5d62886927a84f00010fbbb4","stone","calibrator_phys_no_feedback","PhysPsych","PV",1743501981140,"physical",591,"B","psychological;physical","","B",6.3818160174061,15
"496","5d62886927a84f00010fbbb4","mind","calibrator_phys_no_feedback","PhysPsych","PV",1743501982522,"psychological",625,"B","psychological;physical","","B",6.4377516497364,16
"497","5d62886927a84f00010fbbb4","body","calibrator_phys_no_feedback","PhysPsych","PV",1743501983977,"physical",703,"B","psychological;physical","","B",6.55535689181067,17
"498","5d62886927a84f00010fbbb4","dream","calibrator_phys_no_feedback","PhysPsych","PV",1743501985299,"psychological",563,"B","psychological;physical","","B",6.33327962813969,18
"499","5d62886927a84f00010fbbb4","water","calibrator_phys_no_feedback","PhysPsych","PV",1743501986659,"physical",603,"B","psychological;physical","","B",6.40191719672719,19
"500","5d62886927a84f00010fbbb4","fear","calibrator_phys_no_feedback","PhysPsych","PV",1743501988092,"psychological",676,"B","psychological;physical","","B",6.51619307604296,20
"501","5d62886927a84f00010fbbb4","hat","calibrator_val_feedback","Valence","PV",1743502253206,"positive",1288,"negative","positive","negative;positive","B",7.1608459066643,21
"502","5d62886927a84f00010fbbb4","jail","calibrator_val_feedback","Valence","PV",1743502257600,"negative",1635,"negative","positive","negative;positive","B",7.39939808333135,22
"503","5d62886927a84f00010fbbb4","insecure","calibrator_val_feedback","Valence","PV",1743502261529,"negative",1173,"negative","positive","negative;positive","B",7.06731984865348,23
"504","5d62886927a84f00010fbbb4","grin","calibrator_val_feedback","Valence","PV",1743502265373,"positive",1088,"negative","positive","negative;positive","B",6.99209642741589,24
"505","5d62886927a84f00010fbbb4","industry","calibrator_val_feedback","Valence","PV",1743502269281,"positive",1153,"negative","positive","negative;positive","B",7.05012252026906,25
"506","5d62886927a84f00010fbbb4","free","calibrator_val_feedback","Valence","PV",1743502273095,"positive",1054,"negative","positive","negative;positive","B",6.96034772910131,26
"507","5d62886927a84f00010fbbb4","kitten","calibrator_val_feedback","Valence","PV",1743502276523,"positive",669,"negative","positive","negative;positive","B",6.50578406012823,27
"508","5d62886927a84f00010fbbb4","invader","calibrator_val_feedback","Valence","PV",1743502279976,"negative",699,"negative","positive","negative;positive","B",6.54965074223381,28
"509","5d62886927a84f00010fbbb4","icebox","calibrator_val_feedback","Valence","PV",1743502283826,"positive",1097,"negative","positive","negative;positive","B",7.00033446027523,29
"510","5d62886927a84f00010fbbb4","joke","calibrator_val_feedback","Valence","PV",1743502287263,"positive",680,"negative","positive","negative;positive","B",6.52209279817015,30
"511","5d62886927a84f00010fbbb4","invader","calibrator_val_no_feedback","Valence","PV",1743502290636,"negative",612,"B","negative;positive","","B",6.41673228251233,31
"512","5d62886927a84f00010fbbb4","industry","calibrator_val_no_feedback","Valence","PV",1743502292275,"positive",887,"B","negative;positive","","B",6.78784498230958,32
"513","5d62886927a84f00010fbbb4","joke","calibrator_val_no_feedback","Valence","PV",1743502293922,"positive",892,"B","negative;positive","","B",6.79346613258001,33
"514","5d62886927a84f00010fbbb4","hat","calibrator_val_no_feedback","Valence","PV",1743502295487,"positive",807,"B","negative;positive","","B",6.69332366826995,34
"515","5d62886927a84f00010fbbb4","jail","calibrator_val_no_feedback","Valence","PV",1743502296844,"positive",604,"B","negative;positive","","B",6.40357419793482,35
"516","5d62886927a84f00010fbbb4","icebox","calibrator_val_no_feedback","Valence","PV",1743502298287,"positive",691,"B","negative;positive","","B",6.53813982376767,36
"517","5d62886927a84f00010fbbb4","free","calibrator_val_no_feedback","Valence","PV",1743502300078,"positive",1037,"B","negative;positive","","B",6.94408720822953,37
"518","5d62886927a84f00010fbbb4","insecure","calibrator_val_no_feedback","Valence","PV",1743502301417,"negative",584,"B","negative;positive","","B",6.36990098282823,38
"519","5d62886927a84f00010fbbb4","kitten","calibrator_val_no_feedback","Valence","PV",1743502302864,"positive",692,"B","negative;positive","","B",6.53958595561767,39
"520","5d62886927a84f00010fbbb4","grin","calibrator_val_no_feedback","Valence","PV",1743502304415,"positive",797,"B","negative;positive","","B",6.68085467879022,40
"521","5dea96a5770a431bbed1efb2","memory","calibrator_phys_feedback","PhysPsych","PV",1743448378777,"psychological",2217,"physical","psychological","physical;psychological","A",7.70391020961631,1
"522","5dea96a5770a431bbed1efb2","body","calibrator_phys_feedback","PhysPsych","PV",1743448382753,"physical",1206,"physical","psychological","physical;psychological","A",7.09506437728713,2
"523","5dea96a5770a431bbed1efb2","mood","calibrator_phys_feedback","PhysPsych","PV",1743448386615,"psychological",1092,"physical","psychological","physical;psychological","A",6.99576615630485,3
"524","5dea96a5770a431bbed1efb2","hand","calibrator_phys_feedback","PhysPsych","PV",1743448390408,"physical",1029,"physical","psychological","physical;psychological","A",6.93634273583405,4
"525","5dea96a5770a431bbed1efb2","stone","calibrator_phys_feedback","PhysPsych","PV",1743448394385,"physical",1209,"physical","psychological","physical;psychological","A",7.09754885061479,5
"526","5dea96a5770a431bbed1efb2","dream","calibrator_phys_feedback","PhysPsych","PV",1743448398088,"psychological",935,"physical","psychological","physical;psychological","A",6.84054652928869,6
"527","5dea96a5770a431bbed1efb2","fear","calibrator_phys_feedback","PhysPsych","PV",1743448401825,"psychological",968,"physical","psychological","physical;psychological","A",6.87523208727658,7
"528","5dea96a5770a431bbed1efb2","water","calibrator_phys_feedback","PhysPsych","PV",1743448405617,"physical",1027,"physical","psychological","physical;psychological","A",6.93439720992856,8
"529","5dea96a5770a431bbed1efb2","heat","calibrator_phys_feedback","PhysPsych","PV",1743448409631,"physical",1250,"physical","psychological","physical;psychological","A",7.13089883029635,9
"530","5dea96a5770a431bbed1efb2","mind","calibrator_phys_feedback","PhysPsych","PV",1743448413177,"psychological",782,"physical","psychological","physical;psychological","A",6.66185474054531,10
"531","5dea96a5770a431bbed1efb2","fear","calibrator_phys_no_feedback","PhysPsych","PV",1743448417265,"psychological",1320,"A","physical;psychological","","A",7.18538701558042,11
"532","5dea96a5770a431bbed1efb2","mind","calibrator_phys_no_feedback","PhysPsych","PV",1743448418752,"psychological",724,"A","physical;psychological","","A",6.58479139238572,12
"533","5dea96a5770a431bbed1efb2","body","calibrator_phys_no_feedback","PhysPsych","PV",1743448420241,"physical",732,"A","physical;psychological","","A",6.59578051396131,13
"534","5dea96a5770a431bbed1efb2","hand","calibrator_phys_no_feedback","PhysPsych","PV",1743448421752,"physical",747,"A","physical;psychological","","A",6.61606518513282,14
"535","5dea96a5770a431bbed1efb2","mood","calibrator_phys_no_feedback","PhysPsych","PV",1743448423241,"psychological",724,"A","physical;psychological","","A",6.58479139238572,15
"536","5dea96a5770a431bbed1efb2","heat","calibrator_phys_no_feedback","PhysPsych","PV",1743448424721,"physical",714,"A","physical;psychological","","A",6.57088296233958,16
"537","5dea96a5770a431bbed1efb2","stone","calibrator_phys_no_feedback","PhysPsych","PV",1743448426136,"physical",651,"A","physical;psychological","","A",6.47850964220857,17
"538","5dea96a5770a431bbed1efb2","dream","calibrator_phys_no_feedback","PhysPsych","PV",1743448427616,"psychological",716,"A","physical;psychological","","A",6.57368016696065,18
"539","5dea96a5770a431bbed1efb2","memory","calibrator_phys_no_feedback","PhysPsych","PV",1743448429033,"psychological",657,"A","physical;psychological","","A",6.48768401848461,19
"540","5dea96a5770a431bbed1efb2","water","calibrator_phys_no_feedback","PhysPsych","PV",1743448430471,"physical",678,"A","physical;psychological","","A",6.5191472879404,20
"541","5dea96a5770a431bbed1efb2","hat","calibrator_val_feedback","Valence","PV",1743448704691,"positive",2887,"positive","negative","positive;negative","A",7.96797317966293,21
"542","5dea96a5770a431bbed1efb2","industry","calibrator_val_feedback","Valence","PV",1743448709266,"positive",1810,"positive","negative","positive;negative","A",7.50108212425987,22
"543","5dea96a5770a431bbed1efb2","invader","calibrator_val_feedback","Valence","PV",1743448713369,"negative",1337,"positive","negative","positive;negative","A",7.19818357710194,23
"544","5dea96a5770a431bbed1efb2","joke","calibrator_val_feedback","Valence","PV",1743448717266,"positive",1129,"positive","negative","positive;negative","A",7.02908756414966,24
"545","5dea96a5770a431bbed1efb2","insecure","calibrator_val_feedback","Valence","PV",1743448721210,"negative",1182,"positive","negative","positive;negative","A",7.07496319796604,25
"546","5dea96a5770a431bbed1efb2","kitten","calibrator_val_feedback","Valence","PV",1743448724826,"positive",846,"positive","negative","positive;negative","A",6.74051935960622,26
"547","5dea96a5770a431bbed1efb2","grin","calibrator_val_feedback","Valence","PV",1743448729009,"positive",1418,"positive","negative","positive;negative","A",7.25700270709207,27
"548","5dea96a5770a431bbed1efb2","icebox","calibrator_val_feedback","Valence","PV",1743448733194,"positive",1419,"positive","negative","positive;negative","A",7.25770767716004,28
"549","5dea96a5770a431bbed1efb2","jail","calibrator_val_feedback","Valence","PV",1743448736810,"negative",849,"positive","negative","positive;negative","A",6.74405918631135,29
"550","5dea96a5770a431bbed1efb2","free","calibrator_val_feedback","Valence","PV",1743448740650,"positive",1073,"positive","negative","positive;negative","A",6.9782137426307,30
"551","5dea96a5770a431bbed1efb2","grin","calibrator_val_no_feedback","Valence","PV",1743448744274,"positive",857,"A","positive;negative","","A",6.75343791859778,31
"552","5dea96a5770a431bbed1efb2","icebox","calibrator_val_no_feedback","Valence","PV",1743448745970,"positive",932,"A","positive;negative","","A",6.83733281468559,32
"553","5dea96a5770a431bbed1efb2","jail","calibrator_val_no_feedback","Valence","PV",1743448747441,"negative",708,"A","positive;negative","","A",6.56244409369372,33
"554","5dea96a5770a431bbed1efb2","hat","calibrator_val_no_feedback","Valence","PV",1743448748899,"positive",694,"A","positive;negative","","A",6.5424719605068,34
"555","5dea96a5770a431bbed1efb2","insecure","calibrator_val_no_feedback","Valence","PV",1743448750480,"negative",819,"A","positive;negative","","A",6.70808408385307,35
"556","5dea96a5770a431bbed1efb2","invader","calibrator_val_no_feedback","Valence","PV",1743448752001,"negative",760,"A","positive;negative","","A",6.63331843328038,36
"557","5dea96a5770a431bbed1efb2","industry","calibrator_val_no_feedback","Valence","PV",1743448753522,"positive",758,"A","positive;negative","","A",6.63068338564237,37
"558","5dea96a5770a431bbed1efb2","free","calibrator_val_no_feedback","Valence","PV",1743448755042,"positive",758,"A","positive;negative","","A",6.63068338564237,38
"559","5dea96a5770a431bbed1efb2","kitten","calibrator_val_no_feedback","Valence","PV",1743448756476,"positive",673,"A","positive;negative","","A",6.51174532964473,39
"560","5dea96a5770a431bbed1efb2","joke","calibrator_val_no_feedback","Valence","PV",1743448757931,"positive",698,"A","positive;negative","","A",6.54821910276237,40
"561","65b284df91ee570e25ba50a3","invader","calibrator_val_feedback","Valence","VP",1743515470355,"negative",271,"positive","negative","positive;negative","A",5.6021188208797,1
"562","65b284df91ee570e25ba50a3","hat","calibrator_val_feedback","Valence","VP",1743515472446,"positive",1304,"positive","negative","positive;negative","A",7.1731917424866,2
