#
# Results on Tue, 11 Feb 2025 16:10:22 GMT
# USER AGENT: Mozilla/5.0 (Windows NT 10.0; Win64; x64) AppleWebKit/537.36 (KHTML, like Gecko) Chrome/132.0.0.0 Safari/537.36
# Design number was non-random = 0
#
# Columns below this comment are as follows:
# 1. Results reception time.
# 2. MD5 hash of participant's IP address.
# 3. Controller name.
# 4. Order number of item.
# 5. Inner element number.
# 6. Label.
# 7. Latin Square Group.
# 8. PennElementType.
# 9. PennElementName.
# 10. Parameter.
# 11. Value.
# 12. EventTime.
# 13. Comments.
1739290222,788165cd7e7797856ea29dcf25907801,PennController,1,0,welcome,NULL,PennController,0,_Trial_,Start,1739289516099,NULL
1739290222,788165cd7e7797856ea29dcf25907801,PennController,1,0,welcome,NULL,PennController,0,_Header_,Start,1739289516100,NULL
1739290222,788165cd7e7797856ea29dcf25907801,PennController,1,0,welcome,NULL,PennController,0,_Header_,End,1739289516358,NULL
1739290222,788165cd7e7797856ea29dcf25907801,PennController,1,0,welcome,NULL,PennController,0,_Trial_,End,1739289519418,NULL
# 13. ID.
# 14. Comments.
1739290222,788165cd7e7797856ea29dcf25907801,PennController,124,0,consent,NULL,PennController,2,_Trial_,Start,1739289519428,6063a680ba3790e15ab14ba9,NULL
1739290222,788165cd7e7797856ea29dcf25907801,PennController,124,0,consent,NULL,PennController,2,_Header_,Start,1739289519428,6063a680ba3790e15ab14ba9,NULL
1739290222,788165cd7e7797856ea29dcf25907801,PennController,124,0,consent,NULL,PennController,2,_Header_,End,1739289519680,6063a680ba3790e15ab14ba9,NULL
1739290222,788165cd7e7797856ea29dcf25907801,PennController,124,0,consent,NULL,TextInput,ID,Final,6063a680ba3790e15ab14ba9,1739289536514,6063a680ba3790e15ab14ba9,NULL
1739290222,788165cd7e7797856ea29dcf25907801,PennController,124,0,consent,NULL,PennController,2,_Trial_,End,1739289536543,6063a680ba3790e15ab14ba9,NULL
# 13. Comments.
1739290222,788165cd7e7797856ea29dcf25907801,PennController,126,0,instructions1_val,NULL,PennController,4,_Trial_,Start,1739289536546,NULL
1739290222,788165cd7e7797856ea29dcf25907801,PennController,126,0,instructions1_val,NULL,PennController,4,_Header_,Start,1739289536546,NULL
1739290222,788165cd7e7797856ea29dcf25907801,PennController,126,0,instructions1_val,NULL,PennController,4,_Header_,End,1739289536801,NULL
1739290222,788165cd7e7797856ea29dcf25907801,PennController,126,0,instructions1_val,NULL,PennController,4,_Trial_,End,1739289567118,NULL
1739290222,788165cd7e7797856ea29dcf25907801,PennController,127,0,instructions2_val,NULL,PennController,5,_Trial_,Start,1739289567124,NULL
1739290222,788165cd7e7797856ea29dcf25907801,PennController,127,0,instructions2_val,NULL,PennController,5,_Header_,Start,1739289567124,NULL
1739290222,788165cd7e7797856ea29dcf25907801,PennController,127,0,instructions2_val,NULL,PennController,5,_Header_,End,1739289567382,NULL
1739290222,788165cd7e7797856ea29dcf25907801,PennController,127,0,instructions2_val,NULL,PennController,5,_Trial_,End,1739289584747,NULL
1739290222,788165cd7e7797856ea29dcf25907801,PennController,128,0,instructions3_hands,NULL,PennController,6,_Trial_,Start,1739289584752,NULL
1739290222,788165cd7e7797856ea29dcf25907801,PennController,128,0,instructions3_hands,NULL,PennController,6,_Header_,Start,1739289584752,NULL
1739290222,788165cd7e7797856ea29dcf25907801,PennController,128,0,instructions3_hands,NULL,PennController,6,_Header_,End,1739289585006,NULL
1739290222,788165cd7e7797856ea29dcf25907801,PennController,128,0,instructions3_hands,NULL,PennController,6,_Trial_,End,1739289597941,NULL
1739290222,788165cd7e7797856ea29dcf25907801,PennController,129,0,practice_intro_val,NULL,PennController,7,_Trial_,Start,1739289597945,NULL
1739290222,788165cd7e7797856ea29dcf25907801,PennController,129,0,practice_intro_val,NULL,PennController,7,_Header_,Start,1739289597945,NULL
1739290222,788165cd7e7797856ea29dcf25907801,PennController,129,0,practice_intro_val,NULL,PennController,7,_Header_,End,1739289598202,NULL
1739290222,788165cd7e7797856ea29dcf25907801,PennController,129,0,practice_intro_val,NULL,PennController,7,_Trial_,End,1739289600289,NULL
# 13. ID.
# 14. ReactionTime.
# 15. Word.
# 16. selectedKey.
# 17. selectedValue.
# 18. Key_value_F.
# 19. Key_value_J.
# 20. Group.
# 21. Comments.
1739290222,788165cd7e7797856ea29dcf25907801,PennController,110,0,calibrator_val_feedback,NULL,PennController,121,_Trial_,Start,1739289600293,undefined,1460,invader,undefined,negative,positive,negative,A,NULL
1739290222,788165cd7e7797856ea29dcf25907801,PennController,110,0,calibrator_val_feedback,NULL,PennController,121,_Header_,Start,1739289600293,undefined,1460,invader,undefined,negative,positive,negative,A,NULL
1739290222,788165cd7e7797856ea29dcf25907801,PennController,110,0,calibrator_val_feedback,NULL,PennController,121,_Header_,End,1739289600549,undefined,1460,invader,undefined,negative,positive,negative,A,NULL
1739290222,788165cd7e7797856ea29dcf25907801,PennController,110,0,calibrator_val_feedback,NULL,Selector,Selection,Selection,negative,1739289602515,undefined,1460,invader,undefined,negative,positive,negative,A,positive;negative
1739290222,788165cd7e7797856ea29dcf25907801,PennController,110,0,calibrator_val_feedback,NULL,PennController,121,_Trial_,End,1739289604537,undefined,1460,invader,undefined,negative,positive,negative,A,NULL
1739290222,788165cd7e7797856ea29dcf25907801,PennController,108,0,calibrator_val_feedback,NULL,PennController,119,_Trial_,Start,1739289604541,undefined,1356,industry,undefined,negative,positive,negative,A,NULL
1739290222,788165cd7e7797856ea29dcf25907801,PennController,108,0,calibrator_val_feedback,NULL,PennController,119,_Header_,Start,1739289604541,undefined,1356,industry,undefined,negative,positive,negative,A,NULL
1739290222,788165cd7e7797856ea29dcf25907801,PennController,108,0,calibrator_val_feedback,NULL,PennController,119,_Header_,End,1739289604793,undefined,1356,industry,undefined,negative,positive,negative,A,NULL
1739290222,788165cd7e7797856ea29dcf25907801,PennController,108,0,calibrator_val_feedback,NULL,Selector,Selection,Selection,positive,1739289606656,undefined,1356,industry,undefined,negative,positive,negative,A,positive;negative
1739290222,788165cd7e7797856ea29dcf25907801,PennController,108,0,calibrator_val_feedback,NULL,PennController,119,_Trial_,End,1739289608670,undefined,1356,industry,undefined,negative,positive,negative,A,NULL
1739290222,788165cd7e7797856ea29dcf25907801,PennController,106,0,calibrator_val_feedback,NULL,PennController,117,_Trial_,Start,1739289608674,undefined,1729,hat,undefined,negative,positive,negative,A,NULL
1739290222,788165cd7e7797856ea29dcf25907801,PennController,106,0,calibrator_val_feedback,NULL,PennController,117,_Header_,Start,1739289608674,undefined,1729,hat,undefined,negative,positive,negative,A,NULL
1739290222,788165cd7e7797856ea29dcf25907801,PennController,106,0,calibrator_val_feedback,NULL,PennController,117,_Header_,End,1739289608933,undefined,1729,hat,undefined,negative,positive,negative,A,NULL
1739290222,788165cd7e7797856ea29dcf25907801,PennController,106,0,calibrator_val_feedback,NULL,Selector,Selection,Selection,positive,1739289611166,undefined,1729,hat,undefined,negative,positive,negative,A,positive;negative
1739290222,788165cd7e7797856ea29dcf25907801,PennController,106,0,calibrator_val_feedback,NULL,PennController,117,_Trial_,End,1739289613177,undefined,1729,hat,undefined,negative,positive,negative,A,NULL
1739290222,788165cd7e7797856ea29dcf25907801,PennController,112,0,calibrator_val_feedback,NULL,PennController,123,_Trial_,Start,1739289613182,undefined,1521,joke,undefined,negative,positive,negative,A,NULL
1739290222,788165cd7e7797856ea29dcf25907801,PennController,112,0,calibrator_val_feedback,NULL,PennController,123,_Header_,Start,1739289613182,undefined,1521,joke,undefined,negative,positive,negative,A,NULL
1739290222,788165cd7e7797856ea29dcf25907801,PennController,112,0,calibrator_val_feedback,NULL,PennController,123,_Header_,End,1739289613436,undefined,1521,joke,undefined,negative,positive,negative,A,NULL
1739290222,788165cd7e7797856ea29dcf25907801,PennController,112,0,calibrator_val_feedback,NULL,Selector,Selection,Selection,negative,1739289615462,undefined,1521,joke,undefined,negative,positive,negative,A,positive;negative
1739290222,788165cd7e7797856ea29dcf25907801,PennController,112,0,calibrator_val_feedback,NULL,PennController,123,_Trial_,End,1739289617478,undefined,1521,joke,undefined,negative,positive,negative,A,NULL
1739290222,788165cd7e7797856ea29dcf25907801,PennController,105,0,calibrator_val_feedback,NULL,PennController,116,_Trial_,Start,1739289617482,undefined,1109,grin,undefined,negative,positive,negative,A,NULL
1739290222,788165cd7e7797856ea29dcf25907801,PennController,105,0,calibrator_val_feedback,NULL,PennController,116,_Header_,Start,1739289617482,undefined,1109,grin,undefined,negative,positive,negative,A,NULL
1739290222,788165cd7e7797856ea29dcf25907801,PennController,105,0,calibrator_val_feedback,NULL,PennController,116,_Header_,End,1739289617741,undefined,1109,grin,undefined,negative,positive,negative,A,NULL
1739290222,788165cd7e7797856ea29dcf25907801,PennController,105,0,calibrator_val_feedback,NULL,Selector,Selection,Selection,positive,1739289619356,undefined,1109,grin,undefined,negative,positive,negative,A,positive;negative
1739290222,788165cd7e7797856ea29dcf25907801,PennController,105,0,calibrator_val_feedback,NULL,PennController,116,_Trial_,End,1739289621368,undefined,1109,grin,undefined,negative,positive,negative,A,NULL
1739290222,788165cd7e7797856ea29dcf25907801,PennController,111,0,calibrator_val_feedback,NULL,PennController,122,_Trial_,Start,1739289621371,undefined,792,jail,undefined,negative,positive,negative,A,NULL
1739290222,788165cd7e7797856ea29dcf25907801,PennController,111,0,calibrator_val_feedback,NULL,PennController,122,_Header_,Start,1739289621371,undefined,792,jail,undefined,negative,positive,negative,A,NULL
1739290222,788165cd7e7797856ea29dcf25907801,PennController,111,0,calibrator_val_feedback,NULL,PennController,122,_Header_,End,1739289621630,undefined,792,jail,undefined,negative,positive,negative,A,NULL
1739290222,788165cd7e7797856ea29dcf25907801,PennController,111,0,calibrator_val_feedback,NULL,Selector,Selection,Selection,negative,1739289622932,undefined,792,jail,undefined,negative,positive,negative,A,positive;negative
1739290222,788165cd7e7797856ea29dcf25907801,PennController,111,0,calibrator_val_feedback,NULL,PennController,122,_Trial_,End,1739289624944,undefined,792,jail,undefined,negative,positive,negative,A,NULL
1739290222,788165cd7e7797856ea29dcf25907801,PennController,113,0,calibrator_val_feedback,NULL,PennController,124,_Trial_,Start,1739289624945,undefined,1278,kitten,undefined,negative,positive,negative,A,NULL
1739290222,788165cd7e7797856ea29dcf25907801,PennController,113,0,calibrator_val_feedback,NULL,PennController,124,_Header_,Start,1739289624945,undefined,1278,kitten,undefined,negative,positive,negative,A,NULL
1739290222,788165cd7e7797856ea29dcf25907801,PennController,113,0,calibrator_val_feedback,NULL,PennController,124,_Header_,End,1739289625201,undefined,1278,kitten,undefined,negative,positive,negative,A,NULL
1739290222,788165cd7e7797856ea29dcf25907801,PennController,113,0,calibrator_val_feedback,NULL,Selector,Selection,Selection,positive,1739289626989,undefined,1278,kitten,undefined,negative,positive,negative,A,positive;negative
1739290222,788165cd7e7797856ea29dcf25907801,PennController,113,0,calibrator_val_feedback,NULL,PennController,124,_Trial_,End,1739289628995,undefined,1278,kitten,undefined,negative,positive,negative,A,NULL
1739290222,788165cd7e7797856ea29dcf25907801,PennController,109,0,calibrator_val_feedback,NULL,PennController,120,_Trial_,Start,1739289628998,undefined,768,insecure,undefined,negative,positive,negative,A,NULL
1739290222,788165cd7e7797856ea29dcf25907801,PennController,109,0,calibrator_val_feedback,NULL,PennController,120,_Header_,Start,1739289628998,undefined,768,insecure,undefined,negative,positive,negative,A,NULL
1739290222,788165cd7e7797856ea29dcf25907801,PennController,109,0,calibrator_val_feedback,NULL,PennController,120,_Header_,End,1739289629252,undefined,768,insecure,undefined,negative,positive,negative,A,NULL
1739290222,788165cd7e7797856ea29dcf25907801,PennController,109,0,calibrator_val_feedback,NULL,Selector,Selection,Selection,negative,1739289630525,undefined,768,insecure,undefined,negative,positive,negative,A,positive;negative
1739290222,788165cd7e7797856ea29dcf25907801,PennController,109,0,calibrator_val_feedback,NULL,PennController,120,_Trial_,End,1739289632534,undefined,768,insecure,undefined,negative,positive,negative,A,NULL
1739290222,788165cd7e7797856ea29dcf25907801,PennController,107,0,calibrator_val_feedback,NULL,PennController,118,_Trial_,Start,1739289632537,undefined,866,icebox,undefined,negative,positive,negative,A,NULL
1739290222,788165cd7e7797856ea29dcf25907801,PennController,107,0,calibrator_val_feedback,NULL,PennController,118,_Header_,Start,1739289632537,undefined,866,icebox,undefined,negative,positive,negative,A,NULL
1739290222,788165cd7e7797856ea29dcf25907801,PennController,107,0,calibrator_val_feedback,NULL,PennController,118,_Header_,End,1739289632788,undefined,866,icebox,undefined,negative,positive,negative,A,NULL
1739290222,788165cd7e7797856ea29dcf25907801,PennController,107,0,calibrator_val_feedback,NULL,Selector,Selection,Selection,positive,1739289634162,undefined,866,icebox,undefined,negative,positive,negative,A,positive;negative
1739290222,788165cd7e7797856ea29dcf25907801,PennController,107,0,calibrator_val_feedback,NULL,PennController,118,_Trial_,End,1739289636175,undefined,866,icebox,undefined,negative,positive,negative,A,NULL
1739290222,788165cd7e7797856ea29dcf25907801,PennController,104,0,calibrator_val_feedback,NULL,PennController,115,_Trial_,Start,1739289636178,undefined,1016,free,undefined,negative,positive,negative,A,NULL
1739290222,788165cd7e7797856ea29dcf25907801,PennController,104,0,calibrator_val_feedback,NULL,PennController,115,_Header_,Start,1739289636178,undefined,1016,free,undefined,negative,positive,negative,A,NULL
1739290222,788165cd7e7797856ea29dcf25907801,PennController,104,0,calibrator_val_feedback,NULL,PennController,115,_Header_,End,1739289636432,undefined,1016,free,undefined,negative,positive,negative,A,NULL
1739290222,788165cd7e7797856ea29dcf25907801,PennController,104,0,calibrator_val_feedback,NULL,Selector,Selection,Selection,positive,1739289637958,undefined,1016,free,undefined,negative,positive,negative,A,positive;negative
1739290222,788165cd7e7797856ea29dcf25907801,PennController,104,0,calibrator_val_feedback,NULL,PennController,115,_Trial_,End,1739289639966,undefined,1016,free,undefined,negative,positive,negative,A,NULL
# 16. Key_value_F.
# 17. Key_value_J.
# 18. Group.
# 19. Comments.
1739290222,788165cd7e7797856ea29dcf25907801,PennController,119,0,calibrator_val_no_feedback,NULL,PennController,130,_Trial_,Start,1739289639970,undefined,617,insecure,positive,negative,A,NULL
1739290222,788165cd7e7797856ea29dcf25907801,PennController,119,0,calibrator_val_no_feedback,NULL,PennController,130,_Header_,Start,1739289639970,undefined,617,insecure,positive,negative,A,NULL
1739290222,788165cd7e7797856ea29dcf25907801,PennController,119,0,calibrator_val_no_feedback,NULL,PennController,130,_Header_,End,1739289640222,undefined,617,insecure,positive,negative,A,NULL
1739290222,788165cd7e7797856ea29dcf25907801,PennController,119,0,calibrator_val_no_feedback,NULL,Selector,unnamed-Selector,Selection,negative,1739289641351,undefined,617,insecure,positive,negative,A,positive;negative
1739290222,788165cd7e7797856ea29dcf25907801,PennController,119,0,calibrator_val_no_feedback,NULL,PennController,130,_Trial_,End,1739289641356,undefined,617,insecure,positive,negative,A,NULL
1739290222,788165cd7e7797856ea29dcf25907801,PennController,115,0,calibrator_val_no_feedback,NULL,PennController,126,_Trial_,Start,1739289641360,undefined,856,grin,positive,negative,A,NULL
1739290222,788165cd7e7797856ea29dcf25907801,PennController,115,0,calibrator_val_no_feedback,NULL,PennController,126,_Header_,Start,1739289641360,undefined,856,grin,positive,negative,A,NULL
1739290222,788165cd7e7797856ea29dcf25907801,PennController,115,0,calibrator_val_no_feedback,NULL,PennController,126,_Header_,End,1739289641615,undefined,856,grin,positive,negative,A,NULL
1739290222,788165cd7e7797856ea29dcf25907801,PennController,115,0,calibrator_val_no_feedback,NULL,Selector,unnamed-Selector,Selection,positive,1739289642983,undefined,856,grin,positive,negative,A,positive;negative
1739290222,788165cd7e7797856ea29dcf25907801,PennController,115,0,calibrator_val_no_feedback,NULL,PennController,126,_Trial_,End,1739289642989,undefined,856,grin,positive,negative,A,NULL
1739290222,788165cd7e7797856ea29dcf25907801,PennController,122,0,calibrator_val_no_feedback,NULL,PennController,133,_Trial_,Start,1739289642992,undefined,660,joke,positive,negative,A,NULL
1739290222,788165cd7e7797856ea29dcf25907801,PennController,122,0,calibrator_val_no_feedback,NULL,PennController,133,_Header_,Start,1739289642992,undefined,660,joke,positive,negative,A,NULL
1739290222,788165cd7e7797856ea29dcf25907801,PennController,122,0,calibrator_val_no_feedback,NULL,PennController,133,_Header_,End,1739289643251,undefined,660,joke,positive,negative,A,NULL
1739290222,788165cd7e7797856ea29dcf25907801,PennController,122,0,calibrator_val_no_feedback,NULL,Selector,unnamed-Selector,Selection,negative,1739289644417,undefined,660,joke,positive,negative,A,positive;negative
1739290222,788165cd7e7797856ea29dcf25907801,PennController,122,0,calibrator_val_no_feedback,NULL,PennController,133,_Trial_,End,1739289644422,undefined,660,joke,positive,negative,A,NULL
1739290222,788165cd7e7797856ea29dcf25907801,PennController,116,0,calibrator_val_no_feedback,NULL,PennController,127,_Trial_,Start,1739289644425,undefined,580,hat,positive,negative,A,NULL
1739290222,788165cd7e7797856ea29dcf25907801,PennController,116,0,calibrator_val_no_feedback,NULL,PennController,127,_Header_,Start,1739289644425,undefined,580,hat,positive,negative,A,NULL
1739290222,788165cd7e7797856ea29dcf25907801,PennController,116,0,calibrator_val_no_feedback,NULL,PennController,127,_Header_,End,1739289644681,undefined,580,hat,positive,negative,A,NULL
1739290222,788165cd7e7797856ea29dcf25907801,PennController,116,0,calibrator_val_no_feedback,NULL,Selector,unnamed-Selector,Selection,positive,1739289645773,undefined,580,hat,positive,negative,A,positive;negative
1739290222,788165cd7e7797856ea29dcf25907801,PennController,116,0,calibrator_val_no_feedback,NULL,PennController,127,_Trial_,End,1739289645778,undefined,580,hat,positive,negative,A,NULL
1739290222,788165cd7e7797856ea29dcf25907801,PennController,118,0,calibrator_val_no_feedback,NULL,PennController,129,_Trial_,Start,1739289645782,undefined,710,industry,positive,negative,A,NULL
1739290222,788165cd7e7797856ea29dcf25907801,PennController,118,0,calibrator_val_no_feedback,NULL,PennController,129,_Header_,Start,1739289645782,undefined,710,industry,positive,negative,A,NULL
1739290222,788165cd7e7797856ea29dcf25907801,PennController,118,0,calibrator_val_no_feedback,NULL,PennController,129,_Header_,End,1739289646046,undefined,710,industry,positive,negative,A,NULL
1739290222,788165cd7e7797856ea29dcf25907801,PennController,118,0,calibrator_val_no_feedback,NULL,Selector,unnamed-Selector,Selection,positive,1739289647263,undefined,710,industry,positive,negative,A,positive;negative
1739290222,788165cd7e7797856ea29dcf25907801,PennController,118,0,calibrator_val_no_feedback,NULL,PennController,129,_Trial_,End,1739289647268,undefined,710,industry,positive,negative,A,NULL
1739290222,788165cd7e7797856ea29dcf25907801,PennController,114,0,calibrator_val_no_feedback,NULL,PennController,125,_Trial_,Start,1739289647271,undefined,663,free,positive,negative,A,NULL
1739290222,788165cd7e7797856ea29dcf25907801,PennController,114,0,calibrator_val_no_feedback,NULL,PennController,125,_Header_,Start,1739289647271,undefined,663,free,positive,negative,A,NULL
1739290222,788165cd7e7797856ea29dcf25907801,PennController,114,0,calibrator_val_no_feedback,NULL,PennController,125,_Header_,End,1739289647525,undefined,663,free,positive,negative,A,NULL
1739290222,788165cd7e7797856ea29dcf25907801,PennController,114,0,calibrator_val_no_feedback,NULL,Selector,unnamed-Selector,Selection,positive,1739289648702,undefined,663,free,positive,negative,A,positive;negative
1739290222,788165cd7e7797856ea29dcf25907801,PennController,114,0,calibrator_val_no_feedback,NULL,PennController,125,_Trial_,End,1739289648704,undefined,663,free,positive,negative,A,NULL
1739290222,788165cd7e7797856ea29dcf25907801,PennController,120,0,calibrator_val_no_feedback,NULL,PennController,131,_Trial_,Start,1739289648705,undefined,610,invader,positive,negative,A,NULL
1739290222,788165cd7e7797856ea29dcf25907801,PennController,120,0,calibrator_val_no_feedback,NULL,PennController,131,_Header_,Start,1739289648705,undefined,610,invader,positive,negative,A,NULL
1739290222,788165cd7e7797856ea29dcf25907801,PennController,120,0,calibrator_val_no_feedback,NULL,PennController,131,_Header_,End,1739289648963,undefined,610,invader,positive,negative,A,NULL
1739290222,788165cd7e7797856ea29dcf25907801,PennController,120,0,calibrator_val_no_feedback,NULL,Selector,unnamed-Selector,Selection,negative,1739289650083,undefined,610,invader,positive,negative,A,positive;negative
1739290222,788165cd7e7797856ea29dcf25907801,PennController,120,0,calibrator_val_no_feedback,NULL,PennController,131,_Trial_,End,1739289650088,undefined,610,invader,positive,negative,A,NULL
1739290222,788165cd7e7797856ea29dcf25907801,PennController,121,0,calibrator_val_no_feedback,NULL,PennController,132,_Trial_,Start,1739289650092,undefined,553,jail,positive,negative,A,NULL
1739290222,788165cd7e7797856ea29dcf25907801,PennController,121,0,calibrator_val_no_feedback,NULL,PennController,132,_Header_,Start,1739289650092,undefined,553,jail,positive,negative,A,NULL
1739290222,788165cd7e7797856ea29dcf25907801,PennController,121,0,calibrator_val_no_feedback,NULL,PennController,132,_Header_,End,1739289650343,undefined,553,jail,positive,negative,A,NULL
1739290222,788165cd7e7797856ea29dcf25907801,PennController,121,0,calibrator_val_no_feedback,NULL,Selector,unnamed-Selector,Selection,negative,1739289651406,undefined,553,jail,positive,negative,A,positive;negative
1739290222,788165cd7e7797856ea29dcf25907801,PennController,121,0,calibrator_val_no_feedback,NULL,PennController,132,_Trial_,End,1739289651411,undefined,553,jail,positive,negative,A,NULL
1739290222,788165cd7e7797856ea29dcf25907801,PennController,117,0,calibrator_val_no_feedback,NULL,PennController,128,_Trial_,Start,1739289651415,undefined,600,icebox,positive,negative,A,NULL
1739290222,788165cd7e7797856ea29dcf25907801,PennController,117,0,calibrator_val_no_feedback,NULL,PennController,128,_Header_,Start,1739289651415,undefined,600,icebox,positive,negative,A,NULL
1739290222,788165cd7e7797856ea29dcf25907801,PennController,117,0,calibrator_val_no_feedback,NULL,PennController,128,_Header_,End,1739289651673,undefined,600,icebox,positive,negative,A,NULL
1739290222,788165cd7e7797856ea29dcf25907801,PennController,117,0,calibrator_val_no_feedback,NULL,Selector,unnamed-Selector,Selection,positive,1739289652781,undefined,600,icebox,positive,negative,A,positive;negative
1739290222,788165cd7e7797856ea29dcf25907801,PennController,117,0,calibrator_val_no_feedback,NULL,PennController,128,_Trial_,End,1739289652783,undefined,600,icebox,positive,negative,A,NULL
1739290222,788165cd7e7797856ea29dcf25907801,PennController,123,0,calibrator_val_no_feedback,NULL,PennController,134,_Trial_,Start,1739289652785,undefined,546,kitten,positive,negative,A,NULL
1739290222,788165cd7e7797856ea29dcf25907801,PennController,123,0,calibrator_val_no_feedback,NULL,PennController,134,_Header_,Start,1739289652785,undefined,546,kitten,positive,negative,A,NULL
1739290222,788165cd7e7797856ea29dcf25907801,PennController,123,0,calibrator_val_no_feedback,NULL,PennController,134,_Header_,End,1739289653040,undefined,546,kitten,positive,negative,A,NULL
1739290222,788165cd7e7797856ea29dcf25907801,PennController,123,0,calibrator_val_no_feedback,NULL,Selector,unnamed-Selector,Selection,positive,1739289654091,undefined,546,kitten,positive,negative,A,positive;negative
1739290222,788165cd7e7797856ea29dcf25907801,PennController,123,0,calibrator_val_no_feedback,NULL,PennController,134,_Trial_,End,1739289654096,undefined,546,kitten,positive,negative,A,NULL
# 13. Comments.
1739290222,788165cd7e7797856ea29dcf25907801,PennController,130,0,endinstructions_val,NULL,PennController,8,_Trial_,Start,1739289654099,NULL
1739290222,788165cd7e7797856ea29dcf25907801,PennController,130,0,endinstructions_val,NULL,PennController,8,_Header_,Start,1739289654099,NULL
1739290222,788165cd7e7797856ea29dcf25907801,PennController,130,0,endinstructions_val,NULL,PennController,8,_Header_,End,1739289654355,NULL
1739290222,788165cd7e7797856ea29dcf25907801,PennController,130,0,endinstructions_val,NULL,PennController,8,_Trial_,End,1739289662951,NULL
# 13. ID.
# 14. ReactionTime.
# 15. Word.
# 16. ConcValCombo.
# 17. Key_value_F.
# 18. Key_value_J.
# 19. Group.
# 20. Comments.
1739290222,788165cd7e7797856ea29dcf25907801,PennController,69,0,test_val,NULL,PennController,80,_Trial_,Start,1739289662954,undefined,736,Rough,concrete-negative,positive,negative,A,NULL
1739290222,788165cd7e7797856ea29dcf25907801,PennController,69,0,test_val,NULL,PennController,80,_Header_,Start,1739289662954,undefined,736,Rough,concrete-negative,positive,negative,A,NULL
1739290222,788165cd7e7797856ea29dcf25907801,PennController,69,0,test_val,NULL,PennController,80,_Header_,End,1739289663212,undefined,736,Rough,concrete-negative,positive,negative,A,NULL
1739290222,788165cd7e7797856ea29dcf25907801,PennController,69,0,test_val,NULL,Selector,unnamed-Selector,Selection,negative,1739289664457,undefined,736,Rough,concrete-negative,positive,negative,A,positive;negative
1739290222,788165cd7e7797856ea29dcf25907801,PennController,69,0,test_val,NULL,PennController,80,_Trial_,End,1739289664463,undefined,736,Rough,concrete-negative,positive,negative,A,NULL
1739290222,788165cd7e7797856ea29dcf25907801,PennController,66,0,test_val,NULL,PennController,77,_Trial_,Start,1739289664467,undefined,624,Smelly,concrete-negative,positive,negative,A,NULL
1739290222,788165cd7e7797856ea29dcf25907801,PennController,66,0,test_val,NULL,PennController,77,_Header_,Start,1739289664467,undefined,624,Smelly,concrete-negative,positive,negative,A,NULL
1739290222,788165cd7e7797856ea29dcf25907801,PennController,66,0,test_val,NULL,PennController,77,_Header_,End,1739289664717,undefined,624,Smelly,concrete-negative,positive,negative,A,NULL
1739290222,788165cd7e7797856ea29dcf25907801,PennController,66,0,test_val,NULL,Selector,unnamed-Selector,Selection,negative,1739289665846,undefined,624,Smelly,concrete-negative,positive,negative,A,positive;negative
1739290222,788165cd7e7797856ea29dcf25907801,PennController,66,0,test_val,NULL,PennController,77,_Trial_,End,1739289665851,undefined,624,Smelly,concrete-negative,positive,negative,A,NULL
1739290222,788165cd7e7797856ea29dcf25907801,PennController,57,0,test_val,NULL,PennController,68,_Trial_,Start,1739289665855,undefined,541,Kind,abstract-positive,positive,negative,A,NULL
1739290222,788165cd7e7797856ea29dcf25907801,PennController,57,0,test_val,NULL,PennController,68,_Header_,Start,1739289665855,undefined,541,Kind,abstract-positive,positive,negative,A,NULL
1739290222,788165cd7e7797856ea29dcf25907801,PennController,57,0,test_val,NULL,PennController,68,_Header_,End,1739289666108,undefined,541,Kind,abstract-positive,positive,negative,A,NULL
1739290222,788165cd7e7797856ea29dcf25907801,PennController,57,0,test_val,NULL,Selector,unnamed-Selector,Selection,positive,1739289667156,undefined,541,Kind,abstract-positive,positive,negative,A,positive;negative
1739290222,788165cd7e7797856ea29dcf25907801,PennController,57,0,test_val,NULL,PennController,68,_Trial_,End,1739289667162,undefined,541,Kind,abstract-positive,positive,negative,A,NULL
1739290222,788165cd7e7797856ea29dcf25907801,PennController,72,0,test_val,NULL,PennController,83,_Trial_,Start,1739289667165,undefined,600,Greasy,concrete-negative,positive,negative,A,NULL
1739290222,788165cd7e7797856ea29dcf25907801,PennController,72,0,test_val,NULL,PennController,83,_Header_,Start,1739289667165,undefined,600,Greasy,concrete-negative,positive,negative,A,NULL
1739290222,788165cd7e7797856ea29dcf25907801,PennController,72,0,test_val,NULL,PennController,83,_Header_,End,1739289667418,undefined,600,Greasy,concrete-negative,positive,negative,A,NULL
1739290222,788165cd7e7797856ea29dcf25907801,PennController,72,0,test_val,NULL,Selector,unnamed-Selector,Selection,negative,1739289668524,undefined,600,Greasy,concrete-negative,positive,negative,A,positive;negative
1739290222,788165cd7e7797856ea29dcf25907801,PennController,72,0,test_val,NULL,PennController,83,_Trial_,End,1739289668530,undefined,600,Greasy,concrete-negative,positive,negative,A,NULL
1739290222,788165cd7e7797856ea29dcf25907801,PennController,76,0,test_val,NULL,PennController,87,_Trial_,Start,1739289668533,undefined,587,Helpless,abstract-negative,positive,negative,A,NULL
1739290222,788165cd7e7797856ea29dcf25907801,PennController,76,0,test_val,NULL,PennController,87,_Header_,Start,1739289668533,undefined,587,Helpless,abstract-negative,positive,negative,A,NULL
1739290222,788165cd7e7797856ea29dcf25907801,PennController,76,0,test_val,NULL,PennController,87,_Header_,End,1739289668790,undefined,587,Helpless,abstract-negative,positive,negative,A,NULL
1739290222,788165cd7e7797856ea29dcf25907801,PennController,76,0,test_val,NULL,Selector,unnamed-Selector,Selection,positive,1739289669882,undefined,587,Helpless,abstract-negative,positive,negative,A,positive;negative
1739290222,788165cd7e7797856ea29dcf25907801,PennController,76,0,test_val,NULL,PennController,87,_Trial_,End,1739289669887,undefined,587,Helpless,abstract-negative,positive,negative,A,NULL
1739290222,788165cd7e7797856ea29dcf25907801,PennController,58,0,test_val,NULL,PennController,69,_Trial_,Start,1739289669890,undefined,590,Joyful,abstract-positive,positive,negative,A,NULL
1739290222,788165cd7e7797856ea29dcf25907801,PennController,58,0,test_val,NULL,PennController,69,_Header_,Start,1739289669890,undefined,590,Joyful,abstract-positive,positive,negative,A,NULL
1739290222,788165cd7e7797856ea29dcf25907801,PennController,58,0,test_val,NULL,PennController,69,_Header_,End,1739289670141,undefined,590,Joyful,abstract-positive,positive,negative,A,NULL
1739290222,788165cd7e7797856ea29dcf25907801,PennController,58,0,test_val,NULL,Selector,unnamed-Selector,Selection,positive,1739289671243,undefined,590,Joyful,abstract-positive,positive,negative,A,positive;negative
1739290222,788165cd7e7797856ea29dcf25907801,PennController,58,0,test_val,NULL,PennController,69,_Trial_,End,1739289671248,undefined,590,Joyful,abstract-positive,positive,negative,A,NULL
1739290222,788165cd7e7797856ea29dcf25907801,PennController,45,0,test_val,NULL,PennController,56,_Trial_,Start,1739289671251,undefined,614,Fresh,concrete-positive,positive,negative,A,NULL
1739290222,788165cd7e7797856ea29dcf25907801,PennController,45,0,test_val,NULL,PennController,56,_Header_,Start,1739289671251,undefined,614,Fresh,concrete-positive,positive,negative,A,NULL
1739290222,788165cd7e7797856ea29dcf25907801,PennController,45,0,test_val,NULL,PennController,56,_Header_,End,1739289671503,undefined,614,Fresh,concrete-positive,positive,negative,A,NULL
1739290222,788165cd7e7797856ea29dcf25907801,PennController,45,0,test_val,NULL,Selector,unnamed-Selector,Selection,positive,1739289672627,undefined,614,Fresh,concrete-positive,positive,negative,A,positive;negative
1739290222,788165cd7e7797856ea29dcf25907801,PennController,45,0,test_val,NULL,PennController,56,_Trial_,End,1739289672632,undefined,614,Fresh,concrete-positive,positive,negative,A,NULL
1739290222,788165cd7e7797856ea29dcf25907801,PennController,68,0,test_val,NULL,PennController,79,_Trial_,Start,1739289672635,undefined,616,Dark,concrete-negative,positive,negative,A,NULL
1739290222,788165cd7e7797856ea29dcf25907801,PennController,68,0,test_val,NULL,PennController,79,_Header_,Start,1739289672635,undefined,616,Dark,concrete-negative,positive,negative,A,NULL
1739290222,788165cd7e7797856ea29dcf25907801,PennController,68,0,test_val,NULL,PennController,79,_Header_,End,1739289672894,undefined,616,Dark,concrete-negative,positive,negative,A,NULL
1739290222,788165cd7e7797856ea29dcf25907801,PennController,68,0,test_val,NULL,Selector,unnamed-Selector,Selection,negative,1739289674015,undefined,616,Dark,concrete-negative,positive,negative,A,positive;negative
1739290222,788165cd7e7797856ea29dcf25907801,PennController,68,0,test_val,NULL,PennController,79,_Trial_,End,1739289674020,undefined,616,Dark,concrete-negative,positive,negative,A,NULL
1739290222,788165cd7e7797856ea29dcf25907801,PennController,55,0,test_val,NULL,PennController,66,_Trial_,Start,1739289674023,undefined,634,Loving,abstract-positive,positive,negative,A,NULL
1739290222,788165cd7e7797856ea29dcf25907801,PennController,55,0,test_val,NULL,PennController,66,_Header_,Start,1739289674023,undefined,634,Loving,abstract-positive,positive,negative,A,NULL
1739290222,788165cd7e7797856ea29dcf25907801,PennController,55,0,test_val,NULL,PennController,66,_Header_,End,1739289674278,undefined,634,Loving,abstract-positive,positive,negative,A,NULL
1739290222,788165cd7e7797856ea29dcf25907801,PennController,55,0,test_val,NULL,Selector,unnamed-Selector,Selection,positive,1739289675422,undefined,634,Loving,abstract-positive,positive,negative,A,positive;negative
1739290222,788165cd7e7797856ea29dcf25907801,PennController,55,0,test_val,NULL,PennController,66,_Trial_,End,1739289675428,undefined,634,Loving,abstract-positive,positive,negative,A,NULL
1739290222,788165cd7e7797856ea29dcf25907801,PennController,71,0,test_val,NULL,PennController,82,_Trial_,Start,1739289675432,undefined,649,Rotten,concrete-negative,positive,negative,A,NULL
1739290222,788165cd7e7797856ea29dcf25907801,PennController,71,0,test_val,NULL,PennController,82,_Header_,Start,1739289675432,undefined,649,Rotten,concrete-negative,positive,negative,A,NULL
1739290222,788165cd7e7797856ea29dcf25907801,PennController,71,0,test_val,NULL,PennController,82,_Header_,End,1739289675690,undefined,649,Rotten,concrete-negative,positive,negative,A,NULL
1739290222,788165cd7e7797856ea29dcf25907801,PennController,71,0,test_val,NULL,Selector,unnamed-Selector,Selection,negative,1739289676849,undefined,649,Rotten,concrete-negative,positive,negative,A,positive;negative
1739290222,788165cd7e7797856ea29dcf25907801,PennController,71,0,test_val,NULL,PennController,82,_Trial_,End,1739289676855,undefined,649,Rotten,concrete-negative,positive,negative,A,NULL
1739290222,788165cd7e7797856ea29dcf25907801,PennController,67,0,test_val,NULL,PennController,78,_Trial_,Start,1739289676858,undefined,751,Cold,concrete-negative,positive,negative,A,NULL
1739290222,788165cd7e7797856ea29dcf25907801,PennController,67,0,test_val,NULL,PennController,78,_Header_,Start,1739289676858,undefined,751,Cold,concrete-negative,positive,negative,A,NULL
1739290222,788165cd7e7797856ea29dcf25907801,PennController,67,0,test_val,NULL,PennController,78,_Header_,End,1739289677116,undefined,751,Cold,concrete-negative,positive,negative,A,NULL
1739290222,788165cd7e7797856ea29dcf25907801,PennController,67,0,test_val,NULL,Selector,unnamed-Selector,Selection,negative,1739289678373,undefined,751,Cold,concrete-negative,positive,negative,A,positive;negative
1739290222,788165cd7e7797856ea29dcf25907801,PennController,67,0,test_val,NULL,PennController,78,_Trial_,End,1739289678379,undefined,751,Cold,concrete-negative,positive,negative,A,NULL
1739290222,788165cd7e7797856ea29dcf25907801,PennController,49,0,test_val,NULL,PennController,60,_Trial_,Start,1739289678382,undefined,649,Fragrant,concrete-positive,positive,negative,A,NULL
1739290222,788165cd7e7797856ea29dcf25907801,PennController,49,0,test_val,NULL,PennController,60,_Header_,Start,1739289678382,undefined,649,Fragrant,concrete-positive,positive,negative,A,NULL
1739290222,788165cd7e7797856ea29dcf25907801,PennController,49,0,test_val,NULL,PennController,60,_Header_,End,1739289678639,undefined,649,Fragrant,concrete-positive,positive,negative,A,NULL
1739290222,788165cd7e7797856ea29dcf25907801,PennController,49,0,test_val,NULL,Selector,unnamed-Selector,Selection,positive,1739289679798,undefined,649,Fragrant,concrete-positive,positive,negative,A,positive;negative
1739290222,788165cd7e7797856ea29dcf25907801,PennController,49,0,test_val,NULL,PennController,60,_Trial_,End,1739289679803,undefined,649,Fragrant,concrete-positive,positive,negative,A,NULL
1739290222,788165cd7e7797856ea29dcf25907801,PennController,79,0,test_val,NULL,PennController,90,_Trial_,Start,1739289679806,undefined,632,Anxious,abstract-negative,positive,negative,A,NULL
1739290222,788165cd7e7797856ea29dcf25907801,PennController,79,0,test_val,NULL,PennController,90,_Header_,Start,1739289679806,undefined,632,Anxious,abstract-negative,positive,negative,A,NULL
1739290222,788165cd7e7797856ea29dcf25907801,PennController,79,0,test_val,NULL,PennController,90,_Header_,End,1739289680064,undefined,632,Anxious,abstract-negative,positive,negative,A,NULL
1739290222,788165cd7e7797856ea29dcf25907801,PennController,79,0,test_val,NULL,Selector,unnamed-Selector,Selection,negative,1739289681203,undefined,632,Anxious,abstract-negative,positive,negative,A,positive;negative
1739290222,788165cd7e7797856ea29dcf25907801,PennController,79,0,test_val,NULL,PennController,90,_Trial_,End,1739289681208,undefined,632,Anxious,abstract-negative,positive,negative,A,NULL
1739290222,788165cd7e7797856ea29dcf25907801,PennController,54,0,test_val,NULL,PennController,65,_Trial_,Start,1739289681211,undefined,677,Hopeful,abstract-positive,positive,negative,A,NULL
1739290222,788165cd7e7797856ea29dcf25907801,PennController,54,0,test_val,NULL,PennController,65,_Header_,Start,1739289681212,undefined,677,Hopeful,abstract-positive,positive,negative,A,NULL
1739290222,788165cd7e7797856ea29dcf25907801,PennController,54,0,test_val,NULL,PennController,65,_Header_,End,1739289681466,undefined,677,Hopeful,abstract-positive,positive,negative,A,NULL
1739290222,788165cd7e7797856ea29dcf25907801,PennController,54,0,test_val,NULL,Selector,unnamed-Selector,Selection,positive,1739289682651,undefined,677,Hopeful,abstract-positive,positive,negative,A,positive;negative
1739290222,788165cd7e7797856ea29dcf25907801,PennController,54,0,test_val,NULL,PennController,65,_Trial_,End,1739289682654,undefined,677,Hopeful,abstract-positive,positive,negative,A,NULL
1739290222,788165cd7e7797856ea29dcf25907801,PennController,53,0,test_val,NULL,PennController,64,_Trial_,Start,1739289682655,undefined,762,Cool,concrete-positive,positive,negative,A,NULL
1739290222,788165cd7e7797856ea29dcf25907801,PennController,53,0,test_val,NULL,PennController,64,_Header_,Start,1739289682655,undefined,762,Cool,concrete-positive,positive,negative,A,NULL
1739290222,788165cd7e7797856ea29dcf25907801,PennController,53,0,test_val,NULL,PennController,64,_Header_,End,1739289682907,undefined,762,Cool,concrete-positive,positive,negative,A,NULL
1739290222,788165cd7e7797856ea29dcf25907801,PennController,53,0,test_val,NULL,Selector,unnamed-Selector,Selection,positive,1739289684172,undefined,762,Cool,concrete-positive,positive,negative,A,positive;negative
1739290222,788165cd7e7797856ea29dcf25907801,PennController,53,0,test_val,NULL,PennController,64,_Trial_,End,1739289684174,undefined,762,Cool,concrete-positive,positive,negative,A,NULL
1739290222,788165cd7e7797856ea29dcf25907801,PennController,74,0,test_val,NULL,PennController,85,_Trial_,Start,1739289684176,undefined,726,Hopeless,abstract-negative,positive,negative,A,NULL
1739290222,788165cd7e7797856ea29dcf25907801,PennController,74,0,test_val,NULL,PennController,85,_Header_,Start,1739289684176,undefined,726,Hopeless,abstract-negative,positive,negative,A,NULL
1739290222,788165cd7e7797856ea29dcf25907801,PennController,74,0,test_val,NULL,PennController,85,_Header_,End,1739289684433,undefined,726,Hopeless,abstract-negative,positive,negative,A,NULL
1739290222,788165cd7e7797856ea29dcf25907801,PennController,74,0,test_val,NULL,Selector,unnamed-Selector,Selection,negative,1739289685669,undefined,726,Hopeless,abstract-negative,positive,negative,A,positive;negative
1739290222,788165cd7e7797856ea29dcf25907801,PennController,74,0,test_val,NULL,PennController,85,_Trial_,End,1739289685672,undefined,726,Hopeless,abstract-negative,positive,negative,A,NULL
1739290222,788165cd7e7797856ea29dcf25907801,PennController,75,0,test_val,NULL,PennController,86,_Trial_,Start,1739289685673,undefined,649,Worthless,abstract-negative,positive,negative,A,NULL
1739290222,788165cd7e7797856ea29dcf25907801,PennController,75,0,test_val,NULL,PennController,86,_Header_,Start,1739289685673,undefined,649,Worthless,abstract-negative,positive,negative,A,NULL
1739290222,788165cd7e7797856ea29dcf25907801,PennController,75,0,test_val,NULL,PennController,86,_Header_,End,1739289685925,undefined,649,Worthless,abstract-negative,positive,negative,A,NULL
1739290222,788165cd7e7797856ea29dcf25907801,PennController,75,0,test_val,NULL,Selector,unnamed-Selector,Selection,negative,1739289687080,undefined,649,Worthless,abstract-negative,positive,negative,A,positive;negative
1739290222,788165cd7e7797856ea29dcf25907801,PennController,75,0,test_val,NULL,PennController,86,_Trial_,End,1739289687082,undefined,649,Worthless,abstract-negative,positive,negative,A,NULL
1739290222,788165cd7e7797856ea29dcf25907801,PennController,50,0,test_val,NULL,PennController,61,_Trial_,Start,1739289687083,undefined,624,Colorful,concrete-positive,positive,negative,A,NULL
1739290222,788165cd7e7797856ea29dcf25907801,PennController,50,0,test_val,NULL,PennController,61,_Header_,Start,1739289687083,undefined,624,Colorful,concrete-positive,positive,negative,A,NULL
1739290222,788165cd7e7797856ea29dcf25907801,PennController,50,0,test_val,NULL,PennController,61,_Header_,End,1739289687342,undefined,624,Colorful,concrete-positive,positive,negative,A,NULL
1739290222,788165cd7e7797856ea29dcf25907801,PennController,50,0,test_val,NULL,Selector,unnamed-Selector,Selection,positive,1739289688474,undefined,624,Colorful,concrete-positive,positive,negative,A,positive;negative
1739290222,788165cd7e7797856ea29dcf25907801,PennController,50,0,test_val,NULL,PennController,61,_Trial_,End,1739289688477,undefined,624,Colorful,concrete-positive,positive,negative,A,NULL
1739290222,788165cd7e7797856ea29dcf25907801,PennController,63,0,test_val,NULL,PennController,74,_Trial_,Start,1739289688479,undefined,800,Resilient,abstract-positive,positive,negative,A,NULL
1739290222,788165cd7e7797856ea29dcf25907801,PennController,63,0,test_val,NULL,PennController,74,_Header_,Start,1739289688479,undefined,800,Resilient,abstract-positive,positive,negative,A,NULL
1739290222,788165cd7e7797856ea29dcf25907801,PennController,63,0,test_val,NULL,PennController,74,_Header_,End,1739289688734,undefined,800,Resilient,abstract-positive,positive,negative,A,NULL
1739290222,788165cd7e7797856ea29dcf25907801,PennController,63,0,test_val,NULL,Selector,unnamed-Selector,Selection,positive,1739289690044,undefined,800,Resilient,abstract-positive,positive,negative,A,positive;negative
1739290222,788165cd7e7797856ea29dcf25907801,PennController,63,0,test_val,NULL,PennController,74,_Trial_,End,1739289690047,undefined,800,Resilient,abstract-positive,positive,negative,A,NULL
1739290222,788165cd7e7797856ea29dcf25907801,PennController,78,0,test_val,NULL,PennController,89,_Trial_,Start,1739289690049,undefined,745,Regretful,abstract-negative,positive,negative,A,NULL
1739290222,788165cd7e7797856ea29dcf25907801,PennController,78,0,test_val,NULL,PennController,89,_Header_,Start,1739289690049,undefined,745,Regretful,abstract-negative,positive,negative,A,NULL
1739290222,788165cd7e7797856ea29dcf25907801,PennController,78,0,test_val,NULL,PennController,89,_Header_,End,1739289690299,undefined,745,Regretful,abstract-negative,positive,negative,A,NULL
1739290222,788165cd7e7797856ea29dcf25907801,PennController,78,0,test_val,NULL,Selector,unnamed-Selector,Selection,negative,1739289691553,undefined,745,Regretful,abstract-negative,positive,negative,A,positive;negative
1739290222,788165cd7e7797856ea29dcf25907801,PennController,78,0,test_val,NULL,PennController,89,_Trial_,End,1739289691556,undefined,745,Regretful,abstract-negative,positive,negative,A,NULL
1739290222,788165cd7e7797856ea29dcf25907801,PennController,83,0,test_val,NULL,PennController,94,_Trial_,Start,1739289691558,undefined,579,Despairing,abstract-negative,positive,negative,A,NULL
1739290222,788165cd7e7797856ea29dcf25907801,PennController,83,0,test_val,NULL,PennController,94,_Header_,Start,1739289691558,undefined,579,Despairing,abstract-negative,positive,negative,A,NULL
1739290222,788165cd7e7797856ea29dcf25907801,PennController,83,0,test_val,NULL,PennController,94,_Header_,End,1739289691811,undefined,579,Despairing,abstract-negative,positive,negative,A,NULL
1739290222,788165cd7e7797856ea29dcf25907801,PennController,83,0,test_val,NULL,Selector,unnamed-Selector,Selection,negative,1739289692897,undefined,579,Despairing,abstract-negative,positive,negative,A,positive;negative
1739290222,788165cd7e7797856ea29dcf25907801,PennController,83,0,test_val,NULL,PennController,94,_Trial_,End,1739289692902,undefined,579,Despairing,abstract-negative,positive,negative,A,NULL
1739290222,788165cd7e7797856ea29dcf25907801,PennController,61,0,test_val,NULL,PennController,72,_Trial_,Start,1739289692905,undefined,644,Generous,abstract-positive,positive,negative,A,NULL
1739290222,788165cd7e7797856ea29dcf25907801,PennController,61,0,test_val,NULL,PennController,72,_Header_,Start,1739289692905,undefined,644,Generous,abstract-positive,positive,negative,A,NULL
1739290222,788165cd7e7797856ea29dcf25907801,PennController,61,0,test_val,NULL,PennController,72,_Header_,End,1739289693156,undefined,644,Generous,abstract-positive,positive,negative,A,NULL
1739290222,788165cd7e7797856ea29dcf25907801,PennController,61,0,test_val,NULL,Selector,unnamed-Selector,Selection,positive,1739289694307,undefined,644,Generous,abstract-positive,positive,negative,A,positive;negative
1739290222,788165cd7e7797856ea29dcf25907801,PennController,61,0,test_val,NULL,PennController,72,_Trial_,End,1739289694312,undefined,644,Generous,abstract-positive,positive,negative,A,NULL
1739290222,788165cd7e7797856ea29dcf25907801,PennController,44,0,test_val,NULL,PennController,55,_Trial_,Start,1739289694316,undefined,753,Warm,concrete-positive,positive,negative,A,NULL
1739290222,788165cd7e7797856ea29dcf25907801,PennController,44,0,test_val,NULL,PennController,55,_Header_,Start,1739289694316,undefined,753,Warm,concrete-positive,positive,negative,A,NULL
1739290222,788165cd7e7797856ea29dcf25907801,PennController,44,0,test_val,NULL,PennController,55,_Header_,End,1739289694573,undefined,753,Warm,concrete-positive,positive,negative,A,NULL
1739290222,788165cd7e7797856ea29dcf25907801,PennController,44,0,test_val,NULL,Selector,unnamed-Selector,Selection,positive,1739289695840,undefined,753,Warm,concrete-positive,positive,negative,A,positive;negative
1739290222,788165cd7e7797856ea29dcf25907801,PennController,44,0,test_val,NULL,PennController,55,_Trial_,End,1739289695845,undefined,753,Warm,concrete-positive,positive,negative,A,NULL
1739290222,788165cd7e7797856ea29dcf25907801,PennController,62,0,test_val,NULL,PennController,73,_Trial_,Start,1739289695848,undefined,743,Harmonious,abstract-positive,positive,negative,A,NULL
1739290222,788165cd7e7797856ea29dcf25907801,PennController,62,0,test_val,NULL,PennController,73,_Header_,Start,1739289695848,undefined,743,Harmonious,abstract-positive,positive,negative,A,NULL
1739290222,788165cd7e7797856ea29dcf25907801,PennController,62,0,test_val,NULL,PennController,73,_Header_,End,1739289696101,undefined,743,Harmonious,abstract-positive,positive,negative,A,NULL
1739290222,788165cd7e7797856ea29dcf25907801,PennController,62,0,test_val,NULL,Selector,unnamed-Selector,Selection,positive,1739289697351,undefined,743,Harmonious,abstract-positive,positive,negative,A,positive;negative
1739290222,788165cd7e7797856ea29dcf25907801,PennController,62,0,test_val,NULL,PennController,73,_Trial_,End,1739289697356,undefined,743,Harmonious,abstract-positive,positive,negative,A,NULL
1739290222,788165cd7e7797856ea29dcf25907801,PennController,59,0,test_val,NULL,PennController,70,_Trial_,Start,1739289697360,undefined,663,Peaceful,abstract-positive,positive,negative,A,NULL
1739290222,788165cd7e7797856ea29dcf25907801,PennController,59,0,test_val,NULL,PennController,70,_Header_,Start,1739289697360,undefined,663,Peaceful,abstract-positive,positive,negative,A,NULL
1739290222,788165cd7e7797856ea29dcf25907801,PennController,59,0,test_val,NULL,PennController,70,_Header_,End,1739289697615,undefined,663,Peaceful,abstract-positive,positive,negative,A,NULL
1739290222,788165cd7e7797856ea29dcf25907801,PennController,59,0,test_val,NULL,Selector,unnamed-Selector,Selection,positive,1739289698785,undefined,663,Peaceful,abstract-positive,positive,negative,A,positive;negative
1739290222,788165cd7e7797856ea29dcf25907801,PennController,59,0,test_val,NULL,PennController,70,_Trial_,End,1739289698790,undefined,663,Peaceful,abstract-positive,positive,negative,A,NULL
1739290222,788165cd7e7797856ea29dcf25907801,PennController,80,0,test_val,NULL,PennController,91,_Trial_,Start,1739289698793,undefined,671,Bitter,abstract-negative,positive,negative,A,NULL
1739290222,788165cd7e7797856ea29dcf25907801,PennController,80,0,test_val,NULL,PennController,91,_Header_,Start,1739289698793,undefined,671,Bitter,abstract-negative,positive,negative,A,NULL
1739290222,788165cd7e7797856ea29dcf25907801,PennController,80,0,test_val,NULL,PennController,91,_Header_,End,1739289699050,undefined,671,Bitter,abstract-negative,positive,negative,A,NULL
1739290222,788165cd7e7797856ea29dcf25907801,PennController,80,0,test_val,NULL,Selector,unnamed-Selector,Selection,negative,1739289700233,undefined,671,Bitter,abstract-negative,positive,negative,A,positive;negative
1739290222,788165cd7e7797856ea29dcf25907801,PennController,80,0,test_val,NULL,PennController,91,_Trial_,End,1739289700241,undefined,671,Bitter,abstract-negative,positive,negative,A,NULL
1739290222,788165cd7e7797856ea29dcf25907801,PennController,64,0,test_val,NULL,PennController,75,_Trial_,Start,1739289700245,undefined,869,Dirty,concrete-negative,positive,negative,A,NULL
1739290222,788165cd7e7797856ea29dcf25907801,PennController,64,0,test_val,NULL,PennController,75,_Header_,Start,1739289700245,undefined,869,Dirty,concrete-negative,positive,negative,A,NULL
1739290222,788165cd7e7797856ea29dcf25907801,PennController,64,0,test_val,NULL,PennController,75,_Header_,End,1739289700496,undefined,869,Dirty,concrete-negative,positive,negative,A,NULL
1739290222,788165cd7e7797856ea29dcf25907801,PennController,64,0,test_val,NULL,Selector,unnamed-Selector,Selection,negative,1739289701876,undefined,869,Dirty,concrete-negative,positive,negative,A,positive;negative
1739290222,788165cd7e7797856ea29dcf25907801,PennController,64,0,test_val,NULL,PennController,75,_Trial_,End,1739289701881,undefined,869,Dirty,concrete-negative,positive,negative,A,NULL
1739290222,788165cd7e7797856ea29dcf25907801,PennController,48,0,test_val,NULL,PennController,59,_Trial_,Start,1739289701884,undefined,605,Clean,concrete-positive,positive,negative,A,NULL
1739290222,788165cd7e7797856ea29dcf25907801,PennController,48,0,test_val,NULL,PennController,59,_Header_,Start,1739289701884,undefined,605,Clean,concrete-positive,positive,negative,A,NULL
1739290222,788165cd7e7797856ea29dcf25907801,PennController,48,0,test_val,NULL,PennController,59,_Header_,End,1739289702140,undefined,605,Clean,concrete-positive,positive,negative,A,NULL
1739290222,788165cd7e7797856ea29dcf25907801,PennController,48,0,test_val,NULL,Selector,unnamed-Selector,Selection,positive,1739289703256,undefined,605,Clean,concrete-positive,positive,negative,A,positive;negative
1739290222,788165cd7e7797856ea29dcf25907801,PennController,48,0,test_val,NULL,PennController,59,_Trial_,End,1739289703262,undefined,605,Clean,concrete-positive,positive,negative,A,NULL
1739290222,788165cd7e7797856ea29dcf25907801,PennController,82,0,test_val,NULL,PennController,93,_Trial_,Start,1739289703265,undefined,679,Fearful,abstract-negative,positive,negative,A,NULL
1739290222,788165cd7e7797856ea29dcf25907801,PennController,82,0,test_val,NULL,PennController,93,_Header_,Start,1739289703265,undefined,679,Fearful,abstract-negative,positive,negative,A,NULL
1739290222,788165cd7e7797856ea29dcf25907801,PennController,82,0,test_val,NULL,PennController,93,_Header_,End,1739289703520,undefined,679,Fearful,abstract-negative,positive,negative,A,NULL
1739290222,788165cd7e7797856ea29dcf25907801,PennController,82,0,test_val,NULL,Selector,unnamed-Selector,Selection,negative,1739289704704,undefined,679,Fearful,abstract-negative,positive,negative,A,positive;negative
1739290222,788165cd7e7797856ea29dcf25907801,PennController,82,0,test_val,NULL,PennController,93,_Trial_,End,1739289704706,undefined,679,Fearful,abstract-negative,positive,negative,A,NULL
1739290222,788165cd7e7797856ea29dcf25907801,PennController,52,0,test_val,NULL,PennController,63,_Trial_,Start,1739289704708,undefined,564,Delicious,concrete-positive,positive,negative,A,NULL
1739290222,788165cd7e7797856ea29dcf25907801,PennController,52,0,test_val,NULL,PennController,63,_Header_,Start,1739289704708,undefined,564,Delicious,concrete-positive,positive,negative,A,NULL
1739290222,788165cd7e7797856ea29dcf25907801,PennController,52,0,test_val,NULL,PennController,63,_Header_,End,1739289704962,undefined,564,Delicious,concrete-positive,positive,negative,A,NULL
1739290222,788165cd7e7797856ea29dcf25907801,PennController,52,0,test_val,NULL,Selector,unnamed-Selector,Selection,positive,1739289706030,undefined,564,Delicious,concrete-positive,positive,negative,A,positive;negative
1739290222,788165cd7e7797856ea29dcf25907801,PennController,52,0,test_val,NULL,PennController,63,_Trial_,End,1739289706035,undefined,564,Delicious,concrete-positive,positive,negative,A,NULL
1739290222,788165cd7e7797856ea29dcf25907801,PennController,60,0,test_val,NULL,PennController,71,_Trial_,Start,1739289706039,undefined,612,Inspiring,abstract-positive,positive,negative,A,NULL
1739290222,788165cd7e7797856ea29dcf25907801,PennController,60,0,test_val,NULL,PennController,71,_Header_,Start,1739289706039,undefined,612,Inspiring,abstract-positive,positive,negative,A,NULL
1739290222,788165cd7e7797856ea29dcf25907801,PennController,60,0,test_val,NULL,PennController,71,_Header_,End,1739289706295,undefined,612,Inspiring,abstract-positive,positive,negative,A,NULL
1739290222,788165cd7e7797856ea29dcf25907801,PennController,60,0,test_val,NULL,Selector,unnamed-Selector,Selection,positive,1739289707418,undefined,612,Inspiring,abstract-positive,positive,negative,A,positive;negative
1739290222,788165cd7e7797856ea29dcf25907801,PennController,60,0,test_val,NULL,PennController,71,_Trial_,End,1739289707423,undefined,612,Inspiring,abstract-positive,positive,negative,A,NULL
1739290222,788165cd7e7797856ea29dcf25907801,PennController,81,0,test_val,NULL,PennController,92,_Trial_,Start,1739289707427,undefined,655,Ashamed,abstract-negative,positive,negative,A,NULL
1739290222,788165cd7e7797856ea29dcf25907801,PennController,81,0,test_val,NULL,PennController,92,_Header_,Start,1739289707427,undefined,655,Ashamed,abstract-negative,positive,negative,A,NULL
1739290222,788165cd7e7797856ea29dcf25907801,PennController,81,0,test_val,NULL,PennController,92,_Header_,End,1739289707678,undefined,655,Ashamed,abstract-negative,positive,negative,A,NULL
1739290222,788165cd7e7797856ea29dcf25907801,PennController,81,0,test_val,NULL,Selector,unnamed-Selector,Selection,negative,1739289708838,undefined,655,Ashamed,abstract-negative,positive,negative,A,positive;negative
1739290222,788165cd7e7797856ea29dcf25907801,PennController,81,0,test_val,NULL,PennController,92,_Trial_,End,1739289708843,undefined,655,Ashamed,abstract-negative,positive,negative,A,NULL
1739290222,788165cd7e7797856ea29dcf25907801,PennController,73,0,test_val,NULL,PennController,84,_Trial_,Start,1739289708845,undefined,592,Bitter,concrete-negative,positive,negative,A,NULL
1739290222,788165cd7e7797856ea29dcf25907801,PennController,73,0,test_val,NULL,PennController,84,_Header_,Start,1739289708845,undefined,592,Bitter,concrete-negative,positive,negative,A,NULL
1739290222,788165cd7e7797856ea29dcf25907801,PennController,73,0,test_val,NULL,PennController,84,_Header_,End,1739289709096,undefined,592,Bitter,concrete-negative,positive,negative,A,NULL
1739290222,788165cd7e7797856ea29dcf25907801,PennController,73,0,test_val,NULL,Selector,unnamed-Selector,Selection,negative,1739289710201,undefined,592,Bitter,concrete-negative,positive,negative,A,positive;negative
1739290222,788165cd7e7797856ea29dcf25907801,PennController,73,0,test_val,NULL,PennController,84,_Trial_,End,1739289710206,undefined,592,Bitter,concrete-negative,positive,negative,A,NULL
1739290222,788165cd7e7797856ea29dcf25907801,PennController,77,0,test_val,NULL,PennController,88,_Trial_,Start,1739289710210,undefined,731,Lonely,abstract-negative,positive,negative,A,NULL
1739290222,788165cd7e7797856ea29dcf25907801,PennController,77,0,test_val,NULL,PennController,88,_Header_,Start,1739289710210,undefined,731,Lonely,abstract-negative,positive,negative,A,NULL
1739290222,788165cd7e7797856ea29dcf25907801,PennController,77,0,test_val,NULL,PennController,88,_Header_,End,1739289710461,undefined,731,Lonely,abstract-negative,positive,negative,A,NULL
1739290222,788165cd7e7797856ea29dcf25907801,PennController,77,0,test_val,NULL,Selector,unnamed-Selector,Selection,negative,1739289711699,undefined,731,Lonely,abstract-negative,positive,negative,A,positive;negative
1739290222,788165cd7e7797856ea29dcf25907801,PennController,77,0,test_val,NULL,PennController,88,_Trial_,End,1739289711704,undefined,731,Lonely,abstract-negative,positive,negative,A,NULL
1739290222,788165cd7e7797856ea29dcf25907801,PennController,65,0,test_val,NULL,PennController,76,_Trial_,Start,1739289711708,undefined,661,Sticky,concrete-negative,positive,negative,A,NULL
1739290222,788165cd7e7797856ea29dcf25907801,PennController,65,0,test_val,NULL,PennController,76,_Header_,Start,1739289711708,undefined,661,Sticky,concrete-negative,positive,negative,A,NULL
1739290222,788165cd7e7797856ea29dcf25907801,PennController,65,0,test_val,NULL,PennController,76,_Header_,End,1739289711966,undefined,661,Sticky,concrete-negative,positive,negative,A,NULL
1739290222,788165cd7e7797856ea29dcf25907801,PennController,65,0,test_val,NULL,Selector,unnamed-Selector,Selection,negative,1739289713135,undefined,661,Sticky,concrete-negative,positive,negative,A,positive;negative
1739290222,788165cd7e7797856ea29dcf25907801,PennController,65,0,test_val,NULL,PennController,76,_Trial_,End,1739289713141,undefined,661,Sticky,concrete-negative,positive,negative,A,NULL
1739290222,788165cd7e7797856ea29dcf25907801,PennController,46,0,test_val,NULL,PennController,57,_Trial_,Start,1739289713144,undefined,918,Soft,concrete-positive,positive,negative,A,NULL
1739290222,788165cd7e7797856ea29dcf25907801,PennController,46,0,test_val,NULL,PennController,57,_Header_,Start,1739289713144,undefined,918,Soft,concrete-positive,positive,negative,A,NULL
1739290222,788165cd7e7797856ea29dcf25907801,PennController,46,0,test_val,NULL,PennController,57,_Header_,End,1739289713398,undefined,918,Soft,concrete-positive,positive,negative,A,NULL
1739290222,788165cd7e7797856ea29dcf25907801,PennController,46,0,test_val,NULL,Selector,unnamed-Selector,Selection,positive,1739289714828,undefined,918,Soft,concrete-positive,positive,negative,A,positive;negative
1739290222,788165cd7e7797856ea29dcf25907801,PennController,46,0,test_val,NULL,PennController,57,_Trial_,End,1739289714833,undefined,918,Soft,concrete-positive,positive,negative,A,NULL
1739290222,788165cd7e7797856ea29dcf25907801,PennController,47,0,test_val,NULL,PennController,58,_Trial_,Start,1739289714836,undefined,568,Bright,concrete-positive,positive,negative,A,NULL
1739290222,788165cd7e7797856ea29dcf25907801,PennController,47,0,test_val,NULL,PennController,58,_Header_,Start,1739289714836,undefined,568,Bright,concrete-positive,positive,negative,A,NULL
1739290222,788165cd7e7797856ea29dcf25907801,PennController,47,0,test_val,NULL,PennController,58,_Header_,End,1739289715095,undefined,568,Bright,concrete-positive,positive,negative,A,NULL
1739290222,788165cd7e7797856ea29dcf25907801,PennController,47,0,test_val,NULL,Selector,unnamed-Selector,Selection,positive,1739289716169,undefined,568,Bright,concrete-positive,positive,negative,A,positive;negative
1739290222,788165cd7e7797856ea29dcf25907801,PennController,47,0,test_val,NULL,PennController,58,_Trial_,End,1739289716174,undefined,568,Bright,concrete-positive,positive,negative,A,NULL
1739290222,788165cd7e7797856ea29dcf25907801,PennController,70,0,test_val,NULL,PennController,81,_Trial_,Start,1739289716177,undefined,681,Noisy,concrete-negative,positive,negative,A,NULL
1739290222,788165cd7e7797856ea29dcf25907801,PennController,70,0,test_val,NULL,PennController,81,_Header_,Start,1739289716177,undefined,681,Noisy,concrete-negative,positive,negative,A,NULL
1739290222,788165cd7e7797856ea29dcf25907801,PennController,70,0,test_val,NULL,PennController,81,_Header_,End,1739289716428,undefined,681,Noisy,concrete-negative,positive,negative,A,NULL
1739290222,788165cd7e7797856ea29dcf25907801,PennController,70,0,test_val,NULL,Selector,unnamed-Selector,Selection,negative,1739289717620,undefined,681,Noisy,concrete-negative,positive,negative,A,positive;negative
1739290222,788165cd7e7797856ea29dcf25907801,PennController,70,0,test_val,NULL,PennController,81,_Trial_,End,1739289717625,undefined,681,Noisy,concrete-negative,positive,negative,A,NULL
1739290222,788165cd7e7797856ea29dcf25907801,PennController,51,0,test_val,NULL,PennController,62,_Trial_,Start,1739289717629,undefined,784,Smooth,concrete-positive,positive,negative,A,NULL
1739290222,788165cd7e7797856ea29dcf25907801,PennController,51,0,test_val,NULL,PennController,62,_Header_,Start,1739289717629,undefined,784,Smooth,concrete-positive,positive,negative,A,NULL
1739290222,788165cd7e7797856ea29dcf25907801,PennController,51,0,test_val,NULL,PennController,62,_Header_,End,1739289717879,undefined,784,Smooth,concrete-positive,positive,negative,A,NULL
1739290222,788165cd7e7797856ea29dcf25907801,PennController,51,0,test_val,NULL,Selector,unnamed-Selector,Selection,positive,1739289719175,undefined,784,Smooth,concrete-positive,positive,negative,A,positive;negative
1739290222,788165cd7e7797856ea29dcf25907801,PennController,51,0,test_val,NULL,PennController,62,_Trial_,End,1739289719180,undefined,784,Smooth,concrete-positive,positive,negative,A,NULL
1739290222,788165cd7e7797856ea29dcf25907801,PennController,56,0,test_val,NULL,PennController,67,_Trial_,Start,1739289719183,undefined,702,Grateful,abstract-positive,positive,negative,A,NULL
1739290222,788165cd7e7797856ea29dcf25907801,PennController,56,0,test_val,NULL,PennController,67,_Header_,Start,1739289719183,undefined,702,Grateful,abstract-positive,positive,negative,A,NULL
1739290222,788165cd7e7797856ea29dcf25907801,PennController,56,0,test_val,NULL,PennController,67,_Header_,End,1739289719436,undefined,702,Grateful,abstract-positive,positive,negative,A,NULL
1739290222,788165cd7e7797856ea29dcf25907801,PennController,56,0,test_val,NULL,Selector,unnamed-Selector,Selection,positive,1739289720642,undefined,702,Grateful,abstract-positive,positive,negative,A,positive;negative
1739290222,788165cd7e7797856ea29dcf25907801,PennController,56,0,test_val,NULL,PennController,67,_Trial_,End,1739289720647,undefined,702,Grateful,abstract-positive,positive,negative,A,NULL
1739290222,788165cd7e7797856ea29dcf25907801,PennController,83,0,test_val,NULL,PennController,94,_Trial_,Start,1739289720650,undefined,689,Despairing,abstract-negative,positive,negative,A,NULL
1739290222,788165cd7e7797856ea29dcf25907801,PennController,83,0,test_val,NULL,PennController,94,_Header_,Start,1739289720650,undefined,689,Despairing,abstract-negative,positive,negative,A,NULL
1739290222,788165cd7e7797856ea29dcf25907801,PennController,83,0,test_val,NULL,PennController,94,_Header_,End,1739289720902,undefined,689,Despairing,abstract-negative,positive,negative,A,NULL
1739290222,788165cd7e7797856ea29dcf25907801,PennController,83,0,test_val,NULL,Selector,unnamed-Selector,Selection,negative,1739289722103,undefined,689,Despairing,abstract-negative,positive,negative,A,positive;negative
1739290222,788165cd7e7797856ea29dcf25907801,PennController,83,0,test_val,NULL,PennController,94,_Trial_,End,1739289722108,undefined,689,Despairing,abstract-negative,positive,negative,A,NULL
1739290222,788165cd7e7797856ea29dcf25907801,PennController,48,0,test_val,NULL,PennController,59,_Trial_,Start,1739289722111,undefined,573,Clean,concrete-positive,positive,negative,A,NULL
1739290222,788165cd7e7797856ea29dcf25907801,PennController,48,0,test_val,NULL,PennController,59,_Header_,Start,1739289722111,undefined,573,Clean,concrete-positive,positive,negative,A,NULL
1739290222,788165cd7e7797856ea29dcf25907801,PennController,48,0,test_val,NULL,PennController,59,_Header_,End,1739289722364,undefined,573,Clean,concrete-positive,positive,negative,A,NULL
1739290222,788165cd7e7797856ea29dcf25907801,PennController,48,0,test_val,NULL,Selector,unnamed-Selector,Selection,positive,1739289723449,undefined,573,Clean,concrete-positive,positive,negative,A,positive;negative
1739290222,788165cd7e7797856ea29dcf25907801,PennController,48,0,test_val,NULL,PennController,59,_Trial_,End,1739289723454,undefined,573,Clean,concrete-positive,positive,negative,A,NULL
1739290222,788165cd7e7797856ea29dcf25907801,PennController,79,0,test_val,NULL,PennController,90,_Trial_,Start,1739289723458,undefined,552,Anxious,abstract-negative,positive,negative,A,NULL
1739290222,788165cd7e7797856ea29dcf25907801,PennController,79,0,test_val,NULL,PennController,90,_Header_,Start,1739289723458,undefined,552,Anxious,abstract-negative,positive,negative,A,NULL
1739290222,788165cd7e7797856ea29dcf25907801,PennController,79,0,test_val,NULL,PennController,90,_Header_,End,1739289723715,undefined,552,Anxious,abstract-negative,positive,negative,A,NULL
1739290222,788165cd7e7797856ea29dcf25907801,PennController,79,0,test_val,NULL,Selector,unnamed-Selector,Selection,negative,1739289724777,undefined,552,Anxious,abstract-negative,positive,negative,A,positive;negative
1739290222,788165cd7e7797856ea29dcf25907801,PennController,79,0,test_val,NULL,PennController,90,_Trial_,End,1739289724782,undefined,552,Anxious,abstract-negative,positive,negative,A,NULL
1739290222,788165cd7e7797856ea29dcf25907801,PennController,65,0,test_val,NULL,PennController,76,_Trial_,Start,1739289724785,undefined,543,Sticky,concrete-negative,positive,negative,A,NULL
1739290222,788165cd7e7797856ea29dcf25907801,PennController,65,0,test_val,NULL,PennController,76,_Header_,Start,1739289724785,undefined,543,Sticky,concrete-negative,positive,negative,A,NULL
1739290222,788165cd7e7797856ea29dcf25907801,PennController,65,0,test_val,NULL,PennController,76,_Header_,End,1739289725039,undefined,543,Sticky,concrete-negative,positive,negative,A,NULL
1739290222,788165cd7e7797856ea29dcf25907801,PennController,65,0,test_val,NULL,Selector,unnamed-Selector,Selection,negative,1739289726093,undefined,543,Sticky,concrete-negative,positive,negative,A,positive;negative
1739290222,788165cd7e7797856ea29dcf25907801,PennController,65,0,test_val,NULL,PennController,76,_Trial_,End,1739289726097,undefined,543,Sticky,concrete-negative,positive,negative,A,NULL
1739290222,788165cd7e7797856ea29dcf25907801,PennController,61,0,test_val,NULL,PennController,72,_Trial_,Start,1739289726100,undefined,588,Generous,abstract-positive,positive,negative,A,NULL
1739290222,788165cd7e7797856ea29dcf25907801,PennController,61,0,test_val,NULL,PennController,72,_Header_,Start,1739289726100,undefined,588,Generous,abstract-positive,positive,negative,A,NULL
1739290222,788165cd7e7797856ea29dcf25907801,PennController,61,0,test_val,NULL,PennController,72,_Header_,End,1739289726357,undefined,588,Generous,abstract-positive,positive,negative,A,NULL
1739290222,788165cd7e7797856ea29dcf25907801,PennController,61,0,test_val,NULL,Selector,unnamed-Selector,Selection,positive,1739289727456,undefined,588,Generous,abstract-positive,positive,negative,A,positive;negative
1739290222,788165cd7e7797856ea29dcf25907801,PennController,61,0,test_val,NULL,PennController,72,_Trial_,End,1739289727462,undefined,588,Generous,abstract-positive,positive,negative,A,NULL
1739290222,788165cd7e7797856ea29dcf25907801,PennController,64,0,test_val,NULL,PennController,75,_Trial_,Start,1739289727465,undefined,578,Dirty,concrete-negative,positive,negative,A,NULL
1739290222,788165cd7e7797856ea29dcf25907801,PennController,64,0,test_val,NULL,PennController,75,_Header_,Start,1739289727465,undefined,578,Dirty,concrete-negative,positive,negative,A,NULL
1739290222,788165cd7e7797856ea29dcf25907801,PennController,64,0,test_val,NULL,PennController,75,_Header_,End,1739289727718,undefined,578,Dirty,concrete-negative,positive,negative,A,NULL
1739290222,788165cd7e7797856ea29dcf25907801,PennController,64,0,test_val,NULL,Selector,unnamed-Selector,Selection,negative,1739289728805,undefined,578,Dirty,concrete-negative,positive,negative,A,positive;negative
1739290222,788165cd7e7797856ea29dcf25907801,PennController,64,0,test_val,NULL,PennController,75,_Trial_,End,1739289728810,undefined,578,Dirty,concrete-negative,positive,negative,A,NULL
1739290222,788165cd7e7797856ea29dcf25907801,PennController,57,0,test_val,NULL,PennController,68,_Trial_,Start,1739289728813,undefined,602,Kind,abstract-positive,positive,negative,A,NULL
1739290222,788165cd7e7797856ea29dcf25907801,PennController,57,0,test_val,NULL,PennController,68,_Header_,Start,1739289728813,undefined,602,Kind,abstract-positive,positive,negative,A,NULL
1739290222,788165cd7e7797856ea29dcf25907801,PennController,57,0,test_val,NULL,PennController,68,_Header_,End,1739289729069,undefined,602,Kind,abstract-positive,positive,negative,A,NULL
1739290222,788165cd7e7797856ea29dcf25907801,PennController,57,0,test_val,NULL,Selector,unnamed-Selector,Selection,positive,1739289730176,undefined,602,Kind,abstract-positive,positive,negative,A,positive;negative
1739290222,788165cd7e7797856ea29dcf25907801,PennController,57,0,test_val,NULL,PennController,68,_Trial_,End,1739289730181,undefined,602,Kind,abstract-positive,positive,negative,A,NULL
1739290222,788165cd7e7797856ea29dcf25907801,PennController,63,0,test_val,NULL,PennController,74,_Trial_,Start,1739289730184,undefined,640,Resilient,abstract-positive,positive,negative,A,NULL
1739290222,788165cd7e7797856ea29dcf25907801,PennController,63,0,test_val,NULL,PennController,74,_Header_,Start,1739289730184,undefined,640,Resilient,abstract-positive,positive,negative,A,NULL
1739290222,788165cd7e7797856ea29dcf25907801,PennController,63,0,test_val,NULL,PennController,74,_Header_,End,1739289730437,undefined,640,Resilient,abstract-positive,positive,negative,A,NULL
1739290222,788165cd7e7797856ea29dcf25907801,PennController,63,0,test_val,NULL,Selector,unnamed-Selector,Selection,negative,1739289731581,undefined,640,Resilient,abstract-positive,positive,negative,A,positive;negative
1739290222,788165cd7e7797856ea29dcf25907801,PennController,63,0,test_val,NULL,PennController,74,_Trial_,End,1739289731587,undefined,640,Resilient,abstract-positive,positive,negative,A,NULL
1739290222,788165cd7e7797856ea29dcf25907801,PennController,52,0,test_val,NULL,PennController,63,_Trial_,Start,1739289731590,undefined,649,Delicious,concrete-positive,positive,negative,A,NULL
1739290222,788165cd7e7797856ea29dcf25907801,PennController,52,0,test_val,NULL,PennController,63,_Header_,Start,1739289731590,undefined,649,Delicious,concrete-positive,positive,negative,A,NULL
1739290222,788165cd7e7797856ea29dcf25907801,PennController,52,0,test_val,NULL,PennController,63,_Header_,End,1739289731842,undefined,649,Delicious,concrete-positive,positive,negative,A,NULL
1739290222,788165cd7e7797856ea29dcf25907801,PennController,52,0,test_val,NULL,Selector,unnamed-Selector,Selection,positive,1739289733004,undefined,649,Delicious,concrete-positive,positive,negative,A,positive;negative
1739290222,788165cd7e7797856ea29dcf25907801,PennController,52,0,test_val,NULL,PennController,63,_Trial_,End,1739289733009,undefined,649,Delicious,concrete-positive,positive,negative,A,NULL
1739290222,788165cd7e7797856ea29dcf25907801,PennController,46,0,test_val,NULL,PennController,57,_Trial_,Start,1739289733013,undefined,578,Soft,concrete-positive,positive,negative,A,NULL
1739290222,788165cd7e7797856ea29dcf25907801,PennController,46,0,test_val,NULL,PennController,57,_Header_,Start,1739289733013,undefined,578,Soft,concrete-positive,positive,negative,A,NULL
1739290222,788165cd7e7797856ea29dcf25907801,PennController,46,0,test_val,NULL,PennController,57,_Header_,End,1739289733263,undefined,578,Soft,concrete-positive,positive,negative,A,NULL
1739290222,788165cd7e7797856ea29dcf25907801,PennController,46,0,test_val,NULL,Selector,unnamed-Selector,Selection,positive,1739289734348,undefined,578,Soft,concrete-positive,positive,negative,A,positive;negative
1739290222,788165cd7e7797856ea29dcf25907801,PennController,46,0,test_val,NULL,PennController,57,_Trial_,End,1739289734353,undefined,578,Soft,concrete-positive,positive,negative,A,NULL
1739290222,788165cd7e7797856ea29dcf25907801,PennController,45,0,test_val,NULL,PennController,56,_Trial_,Start,1739289734356,undefined,617,Fresh,concrete-positive,positive,negative,A,NULL
1739290222,788165cd7e7797856ea29dcf25907801,PennController,45,0,test_val,NULL,PennController,56,_Header_,Start,1739289734356,undefined,617,Fresh,concrete-positive,positive,negative,A,NULL
1739290222,788165cd7e7797856ea29dcf25907801,PennController,45,0,test_val,NULL,PennController,56,_Header_,End,1739289734614,undefined,617,Fresh,concrete-positive,positive,negative,A,NULL
1739290222,788165cd7e7797856ea29dcf25907801,PennController,45,0,test_val,NULL,Selector,unnamed-Selector,Selection,positive,1739289735737,undefined,617,Fresh,concrete-positive,positive,negative,A,positive;negative
1739290222,788165cd7e7797856ea29dcf25907801,PennController,45,0,test_val,NULL,PennController,56,_Trial_,End,1739289735744,undefined,617,Fresh,concrete-positive,positive,negative,A,NULL
1739290222,788165cd7e7797856ea29dcf25907801,PennController,54,0,test_val,NULL,PennController,65,_Trial_,Start,1739289735749,undefined,598,Hopeful,abstract-positive,positive,negative,A,NULL
1739290222,788165cd7e7797856ea29dcf25907801,PennController,54,0,test_val,NULL,PennController,65,_Header_,Start,1739289735749,undefined,598,Hopeful,abstract-positive,positive,negative,A,NULL
1739290222,788165cd7e7797856ea29dcf25907801,PennController,54,0,test_val,NULL,PennController,65,_Header_,End,1739289736002,undefined,598,Hopeful,abstract-positive,positive,negative,A,NULL
1739290222,788165cd7e7797856ea29dcf25907801,PennController,54,0,test_val,NULL,Selector,unnamed-Selector,Selection,positive,1739289737113,undefined,598,Hopeful,abstract-positive,positive,negative,A,positive;negative
1739290222,788165cd7e7797856ea29dcf25907801,PennController,54,0,test_val,NULL,PennController,65,_Trial_,End,1739289737118,undefined,598,Hopeful,abstract-positive,positive,negative,A,NULL
1739290222,788165cd7e7797856ea29dcf25907801,PennController,47,0,test_val,NULL,PennController,58,_Trial_,Start,1739289737121,undefined,536,Bright,concrete-positive,positive,negative,A,NULL
1739290222,788165cd7e7797856ea29dcf25907801,PennController,47,0,test_val,NULL,PennController,58,_Header_,Start,1739289737121,undefined,536,Bright,concrete-positive,positive,negative,A,NULL
1739290222,788165cd7e7797856ea29dcf25907801,PennController,47,0,test_val,NULL,PennController,58,_Header_,End,1739289737376,undefined,536,Bright,concrete-positive,positive,negative,A,NULL
1739290222,788165cd7e7797856ea29dcf25907801,PennController,47,0,test_val,NULL,Selector,unnamed-Selector,Selection,positive,1739289738417,undefined,536,Bright,concrete-positive,positive,negative,A,positive;negative
1739290222,788165cd7e7797856ea29dcf25907801,PennController,47,0,test_val,NULL,PennController,58,_Trial_,End,1739289738422,undefined,536,Bright,concrete-positive,positive,negative,A,NULL
1739290222,788165cd7e7797856ea29dcf25907801,PennController,60,0,test_val,NULL,PennController,71,_Trial_,Start,1739289738426,undefined,632,Inspiring,abstract-positive,positive,negative,A,NULL
1739290222,788165cd7e7797856ea29dcf25907801,PennController,60,0,test_val,NULL,PennController,71,_Header_,Start,1739289738426,undefined,632,Inspiring,abstract-positive,positive,negative,A,NULL
1739290222,788165cd7e7797856ea29dcf25907801,PennController,60,0,test_val,NULL,PennController,71,_Header_,End,1739289738684,undefined,632,Inspiring,abstract-positive,positive,negative,A,NULL
1739290222,788165cd7e7797856ea29dcf25907801,PennController,60,0,test_val,NULL,Selector,unnamed-Selector,Selection,positive,1739289739826,undefined,632,Inspiring,abstract-positive,positive,negative,A,positive;negative
1739290222,788165cd7e7797856ea29dcf25907801,PennController,60,0,test_val,NULL,PennController,71,_Trial_,End,1739289739831,undefined,632,Inspiring,abstract-positive,positive,negative,A,NULL
1739290222,788165cd7e7797856ea29dcf25907801,PennController,55,0,test_val,NULL,PennController,66,_Trial_,Start,1739289739835,undefined,507,Loving,abstract-positive,positive,negative,A,NULL
1739290222,788165cd7e7797856ea29dcf25907801,PennController,55,0,test_val,NULL,PennController,66,_Header_,Start,1739289739835,undefined,507,Loving,abstract-positive,positive,negative,A,NULL
1739290222,788165cd7e7797856ea29dcf25907801,PennController,55,0,test_val,NULL,PennController,66,_Header_,End,1739289740088,undefined,507,Loving,abstract-positive,positive,negative,A,NULL
1739290222,788165cd7e7797856ea29dcf25907801,PennController,55,0,test_val,NULL,Selector,unnamed-Selector,Selection,positive,1739289741108,undefined,507,Loving,abstract-positive,positive,negative,A,positive;negative
1739290222,788165cd7e7797856ea29dcf25907801,PennController,55,0,test_val,NULL,PennController,66,_Trial_,End,1739289741113,undefined,507,Loving,abstract-positive,positive,negative,A,NULL
1739290222,788165cd7e7797856ea29dcf25907801,PennController,80,0,test_val,NULL,PennController,91,_Trial_,Start,1739289741117,undefined,534,Bitter,abstract-negative,positive,negative,A,NULL
1739290222,788165cd7e7797856ea29dcf25907801,PennController,80,0,test_val,NULL,PennController,91,_Header_,Start,1739289741117,undefined,534,Bitter,abstract-negative,positive,negative,A,NULL
1739290222,788165cd7e7797856ea29dcf25907801,PennController,80,0,test_val,NULL,PennController,91,_Header_,End,1739289741367,undefined,534,Bitter,abstract-negative,positive,negative,A,NULL
1739290222,788165cd7e7797856ea29dcf25907801,PennController,80,0,test_val,NULL,Selector,unnamed-Selector,Selection,negative,1739289742406,undefined,534,Bitter,abstract-negative,positive,negative,A,positive;negative
1739290222,788165cd7e7797856ea29dcf25907801,PennController,80,0,test_val,NULL,PennController,91,_Trial_,End,1739289742409,undefined,534,Bitter,abstract-negative,positive,negative,A,NULL
1739290222,788165cd7e7797856ea29dcf25907801,PennController,68,0,test_val,NULL,PennController,79,_Trial_,Start,1739289742410,undefined,515,Dark,concrete-negative,positive,negative,A,NULL
1739290222,788165cd7e7797856ea29dcf25907801,PennController,68,0,test_val,NULL,PennController,79,_Header_,Start,1739289742410,undefined,515,Dark,concrete-negative,positive,negative,A,NULL
1739290222,788165cd7e7797856ea29dcf25907801,PennController,68,0,test_val,NULL,PennController,79,_Header_,End,1739289742664,undefined,515,Dark,concrete-negative,positive,negative,A,NULL
1739290222,788165cd7e7797856ea29dcf25907801,PennController,68,0,test_val,NULL,Selector,unnamed-Selector,Selection,negative,1739289743689,undefined,515,Dark,concrete-negative,positive,negative,A,positive;negative
1739290222,788165cd7e7797856ea29dcf25907801,PennController,68,0,test_val,NULL,PennController,79,_Trial_,End,1739289743692,undefined,515,Dark,concrete-negative,positive,negative,A,NULL
1739290222,788165cd7e7797856ea29dcf25907801,PennController,70,0,test_val,NULL,PennController,81,_Trial_,Start,1739289743694,undefined,588,Noisy,concrete-negative,positive,negative,A,NULL
1739290222,788165cd7e7797856ea29dcf25907801,PennController,70,0,test_val,NULL,PennController,81,_Header_,Start,1739289743694,undefined,588,Noisy,concrete-negative,positive,negative,A,NULL
1739290222,788165cd7e7797856ea29dcf25907801,PennController,70,0,test_val,NULL,PennController,81,_Header_,End,1739289743947,undefined,588,Noisy,concrete-negative,positive,negative,A,NULL
1739290222,788165cd7e7797856ea29dcf25907801,PennController,70,0,test_val,NULL,Selector,unnamed-Selector,Selection,negative,1739289745044,undefined,588,Noisy,concrete-negative,positive,negative,A,positive;negative
1739290222,788165cd7e7797856ea29dcf25907801,PennController,70,0,test_val,NULL,PennController,81,_Trial_,End,1739289745047,undefined,588,Noisy,concrete-negative,positive,negative,A,NULL
1739290222,788165cd7e7797856ea29dcf25907801,PennController,72,0,test_val,NULL,PennController,83,_Trial_,Start,1739289745048,undefined,485,Greasy,concrete-negative,positive,negative,A,NULL
1739290222,788165cd7e7797856ea29dcf25907801,PennController,72,0,test_val,NULL,PennController,83,_Header_,Start,1739289745048,undefined,485,Greasy,concrete-negative,positive,negative,A,NULL
1739290222,788165cd7e7797856ea29dcf25907801,PennController,72,0,test_val,NULL,PennController,83,_Header_,End,1739289745302,undefined,485,Greasy,concrete-negative,positive,negative,A,NULL
1739290222,788165cd7e7797856ea29dcf25907801,PennController,72,0,test_val,NULL,Selector,unnamed-Selector,Selection,negative,1739289746291,undefined,485,Greasy,concrete-negative,positive,negative,A,positive;negative
1739290222,788165cd7e7797856ea29dcf25907801,PennController,72,0,test_val,NULL,PennController,83,_Trial_,End,1739289746293,undefined,485,Greasy,concrete-negative,positive,negative,A,NULL
1739290222,788165cd7e7797856ea29dcf25907801,PennController,62,0,test_val,NULL,PennController,73,_Trial_,Start,1739289746295,undefined,609,Harmonious,abstract-positive,positive,negative,A,NULL
1739290222,788165cd7e7797856ea29dcf25907801,PennController,62,0,test_val,NULL,PennController,73,_Header_,Start,1739289746295,undefined,609,Harmonious,abstract-positive,positive,negative,A,NULL
1739290222,788165cd7e7797856ea29dcf25907801,PennController,62,0,test_val,NULL,PennController,73,_Header_,End,1739289746552,undefined,609,Harmonious,abstract-positive,positive,negative,A,NULL
1739290222,788165cd7e7797856ea29dcf25907801,PennController,62,0,test_val,NULL,Selector,unnamed-Selector,Selection,positive,1739289747664,undefined,609,Harmonious,abstract-positive,positive,negative,A,positive;negative
1739290222,788165cd7e7797856ea29dcf25907801,PennController,62,0,test_val,NULL,PennController,73,_Trial_,End,1739289747666,undefined,609,Harmonious,abstract-positive,positive,negative,A,NULL
1739290222,788165cd7e7797856ea29dcf25907801,PennController,56,0,test_val,NULL,PennController,67,_Trial_,Start,1739289747668,undefined,570,Grateful,abstract-positive,positive,negative,A,NULL
1739290222,788165cd7e7797856ea29dcf25907801,PennController,56,0,test_val,NULL,PennController,67,_Header_,Start,1739289747668,undefined,570,Grateful,abstract-positive,positive,negative,A,NULL
1739290222,788165cd7e7797856ea29dcf25907801,PennController,56,0,test_val,NULL,PennController,67,_Header_,End,1739289747923,undefined,570,Grateful,abstract-positive,positive,negative,A,NULL
1739290222,788165cd7e7797856ea29dcf25907801,PennController,56,0,test_val,NULL,Selector,unnamed-Selector,Selection,positive,1739289748995,undefined,570,Grateful,abstract-positive,positive,negative,A,positive;negative
1739290222,788165cd7e7797856ea29dcf25907801,PennController,56,0,test_val,NULL,PennController,67,_Trial_,End,1739289748998,undefined,570,Grateful,abstract-positive,positive,negative,A,NULL
1739290222,788165cd7e7797856ea29dcf25907801,PennController,73,0,test_val,NULL,PennController,84,_Trial_,Start,1739289749001,undefined,520,Bitter,concrete-negative,positive,negative,A,NULL
1739290222,788165cd7e7797856ea29dcf25907801,PennController,73,0,test_val,NULL,PennController,84,_Header_,Start,1739289749001,undefined,520,Bitter,concrete-negative,positive,negative,A,NULL
1739290222,788165cd7e7797856ea29dcf25907801,PennController,73,0,test_val,NULL,PennController,84,_Header_,End,1739289749254,undefined,520,Bitter,concrete-negative,positive,negative,A,NULL
1739290222,788165cd7e7797856ea29dcf25907801,PennController,73,0,test_val,NULL,Selector,unnamed-Selector,Selection,negative,1739289750285,undefined,520,Bitter,concrete-negative,positive,negative,A,positive;negative
1739290222,788165cd7e7797856ea29dcf25907801,PennController,73,0,test_val,NULL,PennController,84,_Trial_,End,1739289750288,undefined,520,Bitter,concrete-negative,positive,negative,A,NULL
1739290222,788165cd7e7797856ea29dcf25907801,PennController,69,0,test_val,NULL,PennController,80,_Trial_,Start,1739289750290,undefined,614,Rough,concrete-negative,positive,negative,A,NULL
1739290222,788165cd7e7797856ea29dcf25907801,PennController,69,0,test_val,NULL,PennController,80,_Header_,Start,1739289750290,undefined,614,Rough,concrete-negative,positive,negative,A,NULL
1739290222,788165cd7e7797856ea29dcf25907801,PennController,69,0,test_val,NULL,PennController,80,_Header_,End,1739289750543,undefined,614,Rough,concrete-negative,positive,negative,A,NULL
1739290222,788165cd7e7797856ea29dcf25907801,PennController,69,0,test_val,NULL,Selector,unnamed-Selector,Selection,negative,1739289751665,undefined,614,Rough,concrete-negative,positive,negative,A,positive;negative
1739290222,788165cd7e7797856ea29dcf25907801,PennController,69,0,test_val,NULL,PennController,80,_Trial_,End,1739289751669,undefined,614,Rough,concrete-negative,positive,negative,A,NULL
1739290222,788165cd7e7797856ea29dcf25907801,PennController,51,0,test_val,NULL,PennController,62,_Trial_,Start,1739289751671,undefined,583,Smooth,concrete-positive,positive,negative,A,NULL
1739290222,788165cd7e7797856ea29dcf25907801,PennController,51,0,test_val,NULL,PennController,62,_Header_,Start,1739289751671,undefined,583,Smooth,concrete-positive,positive,negative,A,NULL
1739290222,788165cd7e7797856ea29dcf25907801,PennController,51,0,test_val,NULL,PennController,62,_Header_,End,1739289751926,undefined,583,Smooth,concrete-positive,positive,negative,A,NULL
1739290222,788165cd7e7797856ea29dcf25907801,PennController,51,0,test_val,NULL,Selector,unnamed-Selector,Selection,positive,1739289753016,undefined,583,Smooth,concrete-positive,positive,negative,A,positive;negative
1739290222,788165cd7e7797856ea29dcf25907801,PennController,51,0,test_val,NULL,PennController,62,_Trial_,End,1739289753021,undefined,583,Smooth,concrete-positive,positive,negative,A,NULL
1739290222,788165cd7e7797856ea29dcf25907801,PennController,67,0,test_val,NULL,PennController,78,_Trial_,Start,1739289753024,undefined,911,Cold,concrete-negative,positive,negative,A,NULL
1739290222,788165cd7e7797856ea29dcf25907801,PennController,67,0,test_val,NULL,PennController,78,_Header_,Start,1739289753024,undefined,911,Cold,concrete-negative,positive,negative,A,NULL
1739290222,788165cd7e7797856ea29dcf25907801,PennController,67,0,test_val,NULL,PennController,78,_Header_,End,1739289753281,undefined,911,Cold,concrete-negative,positive,negative,A,NULL
1739290222,788165cd7e7797856ea29dcf25907801,PennController,67,0,test_val,NULL,Selector,unnamed-Selector,Selection,negative,1739289754698,undefined,911,Cold,concrete-negative,positive,negative,A,positive;negative
1739290222,788165cd7e7797856ea29dcf25907801,PennController,67,0,test_val,NULL,PennController,78,_Trial_,End,1739289754701,undefined,911,Cold,concrete-negative,positive,negative,A,NULL
1739290222,788165cd7e7797856ea29dcf25907801,PennController,76,0,test_val,NULL,PennController,87,_Trial_,Start,1739289754702,undefined,679,Helpless,abstract-negative,positive,negative,A,NULL
1739290222,788165cd7e7797856ea29dcf25907801,PennController,76,0,test_val,NULL,PennController,87,_Header_,Start,1739289754702,undefined,679,Helpless,abstract-negative,positive,negative,A,NULL
1739290222,788165cd7e7797856ea29dcf25907801,PennController,76,0,test_val,NULL,PennController,87,_Header_,End,1739289754953,undefined,679,Helpless,abstract-negative,positive,negative,A,NULL
1739290222,788165cd7e7797856ea29dcf25907801,PennController,76,0,test_val,NULL,Selector,unnamed-Selector,Selection,positive,1739289756141,undefined,679,Helpless,abstract-negative,positive,negative,A,positive;negative
1739290222,788165cd7e7797856ea29dcf25907801,PennController,76,0,test_val,NULL,PennController,87,_Trial_,End,1739289756146,undefined,679,Helpless,abstract-negative,positive,negative,A,NULL
1739290222,788165cd7e7797856ea29dcf25907801,PennController,82,0,test_val,NULL,PennController,93,_Trial_,Start,1739289756149,undefined,730,Fearful,abstract-negative,positive,negative,A,NULL
1739290222,788165cd7e7797856ea29dcf25907801,PennController,82,0,test_val,NULL,PennController,93,_Header_,Start,1739289756149,undefined,730,Fearful,abstract-negative,positive,negative,A,NULL
1739290222,788165cd7e7797856ea29dcf25907801,PennController,82,0,test_val,NULL,PennController,93,_Header_,End,1739289756405,undefined,730,Fearful,abstract-negative,positive,negative,A,NULL
1739290222,788165cd7e7797856ea29dcf25907801,PennController,82,0,test_val,NULL,Selector,unnamed-Selector,Selection,positive,1739289757646,undefined,730,Fearful,abstract-negative,positive,negative,A,positive;negative
1739290222,788165cd7e7797856ea29dcf25907801,PennController,82,0,test_val,NULL,PennController,93,_Trial_,End,1739289757651,undefined,730,Fearful,abstract-negative,positive,negative,A,NULL
1739290222,788165cd7e7797856ea29dcf25907801,PennController,44,0,test_val,NULL,PennController,55,_Trial_,Start,1739289757654,undefined,651,Warm,concrete-positive,positive,negative,A,NULL
1739290222,788165cd7e7797856ea29dcf25907801,PennController,44,0,test_val,NULL,PennController,55,_Header_,Start,1739289757654,undefined,651,Warm,concrete-positive,positive,negative,A,NULL
1739290222,788165cd7e7797856ea29dcf25907801,PennController,44,0,test_val,NULL,PennController,55,_Header_,End,1739289757905,undefined,651,Warm,concrete-positive,positive,negative,A,NULL
1739290222,788165cd7e7797856ea29dcf25907801,PennController,44,0,test_val,NULL,Selector,unnamed-Selector,Selection,positive,1739289759065,undefined,651,Warm,concrete-positive,positive,negative,A,positive;negative
1739290222,788165cd7e7797856ea29dcf25907801,PennController,44,0,test_val,NULL,PennController,55,_Trial_,End,1739289759070,undefined,651,Warm,concrete-positive,positive,negative,A,NULL
1739290222,788165cd7e7797856ea29dcf25907801,PennController,74,0,test_val,NULL,PennController,85,_Trial_,Start,1739289759074,undefined,695,Hopeless,abstract-negative,positive,negative,A,NULL
1739290222,788165cd7e7797856ea29dcf25907801,PennController,74,0,test_val,NULL,PennController,85,_Header_,Start,1739289759074,undefined,695,Hopeless,abstract-negative,positive,negative,A,NULL
1739290222,788165cd7e7797856ea29dcf25907801,PennController,74,0,test_val,NULL,PennController,85,_Header_,End,1739289759329,undefined,695,Hopeless,abstract-negative,positive,negative,A,NULL
1739290222,788165cd7e7797856ea29dcf25907801,PennController,74,0,test_val,NULL,Selector,unnamed-Selector,Selection,negative,1739289760529,undefined,695,Hopeless,abstract-negative,positive,negative,A,positive;negative
1739290222,788165cd7e7797856ea29dcf25907801,PennController,74,0,test_val,NULL,PennController,85,_Trial_,End,1739289760534,undefined,695,Hopeless,abstract-negative,positive,negative,A,NULL
1739290222,788165cd7e7797856ea29dcf25907801,PennController,53,0,test_val,NULL,PennController,64,_Trial_,Start,1739289760537,undefined,518,Cool,concrete-positive,positive,negative,A,NULL
1739290222,788165cd7e7797856ea29dcf25907801,PennController,53,0,test_val,NULL,PennController,64,_Header_,Start,1739289760537,undefined,518,Cool,concrete-positive,positive,negative,A,NULL
1739290222,788165cd7e7797856ea29dcf25907801,PennController,53,0,test_val,NULL,PennController,64,_Header_,End,1739289760788,undefined,518,Cool,concrete-positive,positive,negative,A,NULL
1739290222,788165cd7e7797856ea29dcf25907801,PennController,53,0,test_val,NULL,Selector,unnamed-Selector,Selection,positive,1739289761818,undefined,518,Cool,concrete-positive,positive,negative,A,positive;negative
1739290222,788165cd7e7797856ea29dcf25907801,PennController,53,0,test_val,NULL,PennController,64,_Trial_,End,1739289761820,undefined,518,Cool,concrete-positive,positive,negative,A,NULL
1739290222,788165cd7e7797856ea29dcf25907801,PennController,66,0,test_val,NULL,PennController,77,_Trial_,Start,1739289761821,undefined,540,Smelly,concrete-negative,positive,negative,A,NULL
1739290222,788165cd7e7797856ea29dcf25907801,PennController,66,0,test_val,NULL,PennController,77,_Header_,Start,1739289761821,undefined,540,Smelly,concrete-negative,positive,negative,A,NULL
1739290222,788165cd7e7797856ea29dcf25907801,PennController,66,0,test_val,NULL,PennController,77,_Header_,End,1739289762075,undefined,540,Smelly,concrete-negative,positive,negative,A,NULL
1739290222,788165cd7e7797856ea29dcf25907801,PennController,66,0,test_val,NULL,Selector,unnamed-Selector,Selection,negative,1739289763125,undefined,540,Smelly,concrete-negative,positive,negative,A,positive;negative
1739290222,788165cd7e7797856ea29dcf25907801,PennController,66,0,test_val,NULL,PennController,77,_Trial_,End,1739289763130,undefined,540,Smelly,concrete-negative,positive,negative,A,NULL
1739290222,788165cd7e7797856ea29dcf25907801,PennController,71,0,test_val,NULL,PennController,82,_Trial_,Start,1739289763133,undefined,649,Rotten,concrete-negative,positive,negative,A,NULL
1739290222,788165cd7e7797856ea29dcf25907801,PennController,71,0,test_val,NULL,PennController,82,_Header_,Start,1739289763133,undefined,649,Rotten,concrete-negative,positive,negative,A,NULL
1739290222,788165cd7e7797856ea29dcf25907801,PennController,71,0,test_val,NULL,PennController,82,_Header_,End,1739289763392,undefined,649,Rotten,concrete-negative,positive,negative,A,NULL
1739290222,788165cd7e7797856ea29dcf25907801,PennController,71,0,test_val,NULL,Selector,unnamed-Selector,Selection,negative,1739289764553,undefined,649,Rotten,concrete-negative,positive,negative,A,positive;negative
1739290222,788165cd7e7797856ea29dcf25907801,PennController,71,0,test_val,NULL,PennController,82,_Trial_,End,1739289764558,undefined,649,Rotten,concrete-negative,positive,negative,A,NULL
1739290222,788165cd7e7797856ea29dcf25907801,PennController,81,0,test_val,NULL,PennController,92,_Trial_,Start,1739289764561,undefined,564,Ashamed,abstract-negative,positive,negative,A,NULL
1739290222,788165cd7e7797856ea29dcf25907801,PennController,81,0,test_val,NULL,PennController,92,_Header_,Start,1739289764561,undefined,564,Ashamed,abstract-negative,positive,negative,A,NULL
1739290222,788165cd7e7797856ea29dcf25907801,PennController,81,0,test_val,NULL,PennController,92,_Header_,End,1739289764812,undefined,564,Ashamed,abstract-negative,positive,negative,A,NULL
1739290222,788165cd7e7797856ea29dcf25907801,PennController,81,0,test_val,NULL,Selector,unnamed-Selector,Selection,negative,1739289765887,undefined,564,Ashamed,abstract-negative,positive,negative,A,positive;negative
1739290222,788165cd7e7797856ea29dcf25907801,PennController,81,0,test_val,NULL,PennController,92,_Trial_,End,1739289765892,undefined,564,Ashamed,abstract-negative,positive,negative,A,NULL
1739290222,788165cd7e7797856ea29dcf25907801,PennController,75,0,test_val,NULL,PennController,86,_Trial_,Start,1739289765895,undefined,579,Worthless,abstract-negative,positive,negative,A,NULL
1739290222,788165cd7e7797856ea29dcf25907801,PennController,75,0,test_val,NULL,PennController,86,_Header_,Start,1739289765895,undefined,579,Worthless,abstract-negative,positive,negative,A,NULL
1739290222,788165cd7e7797856ea29dcf25907801,PennController,75,0,test_val,NULL,PennController,86,_Header_,End,1739289766148,undefined,579,Worthless,abstract-negative,positive,negative,A,NULL
1739290222,788165cd7e7797856ea29dcf25907801,PennController,75,0,test_val,NULL,Selector,unnamed-Selector,Selection,negative,1739289767243,undefined,579,Worthless,abstract-negative,positive,negative,A,positive;negative
1739290222,788165cd7e7797856ea29dcf25907801,PennController,75,0,test_val,NULL,PennController,86,_Trial_,End,1739289767248,undefined,579,Worthless,abstract-negative,positive,negative,A,NULL
1739290222,788165cd7e7797856ea29dcf25907801,PennController,77,0,test_val,NULL,PennController,88,_Trial_,Start,1739289767251,undefined,651,Lonely,abstract-negative,positive,negative,A,NULL
1739290222,788165cd7e7797856ea29dcf25907801,PennController,77,0,test_val,NULL,PennController,88,_Header_,Start,1739289767251,undefined,651,Lonely,abstract-negative,positive,negative,A,NULL
1739290222,788165cd7e7797856ea29dcf25907801,PennController,77,0,test_val,NULL,PennController,88,_Header_,End,1739289767501,undefined,651,Lonely,abstract-negative,positive,negative,A,NULL
1739290222,788165cd7e7797856ea29dcf25907801,PennController,77,0,test_val,NULL,Selector,unnamed-Selector,Selection,negative,1739289768659,undefined,651,Lonely,abstract-negative,positive,negative,A,positive;negative
1739290222,788165cd7e7797856ea29dcf25907801,PennController,77,0,test_val,NULL,PennController,88,_Trial_,End,1739289768665,undefined,651,Lonely,abstract-negative,positive,negative,A,NULL
1739290222,788165cd7e7797856ea29dcf25907801,PennController,58,0,test_val,NULL,PennController,69,_Trial_,Start,1739289768668,undefined,651,Joyful,abstract-positive,positive,negative,A,NULL
1739290222,788165cd7e7797856ea29dcf25907801,PennController,58,0,test_val,NULL,PennController,69,_Header_,Start,1739289768668,undefined,651,Joyful,abstract-positive,positive,negative,A,NULL
1739290222,788165cd7e7797856ea29dcf25907801,PennController,58,0,test_val,NULL,PennController,69,_Header_,End,1739289768924,undefined,651,Joyful,abstract-positive,positive,negative,A,NULL
1739290222,788165cd7e7797856ea29dcf25907801,PennController,58,0,test_val,NULL,Selector,unnamed-Selector,Selection,positive,1739289770086,undefined,651,Joyful,abstract-positive,positive,negative,A,positive;negative
1739290222,788165cd7e7797856ea29dcf25907801,PennController,58,0,test_val,NULL,PennController,69,_Trial_,End,1739289770091,undefined,651,Joyful,abstract-positive,positive,negative,A,NULL
1739290222,788165cd7e7797856ea29dcf25907801,PennController,78,0,test_val,NULL,PennController,89,_Trial_,Start,1739289770095,undefined,853,Regretful,abstract-negative,positive,negative,A,NULL
1739290222,788165cd7e7797856ea29dcf25907801,PennController,78,0,test_val,NULL,PennController,89,_Header_,Start,1739289770095,undefined,853,Regretful,abstract-negative,positive,negative,A,NULL
1739290222,788165cd7e7797856ea29dcf25907801,PennController,78,0,test_val,NULL,PennController,89,_Header_,End,1739289770352,undefined,853,Regretful,abstract-negative,positive,negative,A,NULL
1739290222,788165cd7e7797856ea29dcf25907801,PennController,78,0,test_val,NULL,Selector,unnamed-Selector,Selection,negative,1739289771719,undefined,853,Regretful,abstract-negative,positive,negative,A,positive;negative
1739290222,788165cd7e7797856ea29dcf25907801,PennController,78,0,test_val,NULL,PennController,89,_Trial_,End,1739289771724,undefined,853,Regretful,abstract-negative,positive,negative,A,NULL
1739290222,788165cd7e7797856ea29dcf25907801,PennController,50,0,test_val,NULL,PennController,61,_Trial_,Start,1739289771728,undefined,570,Colorful,concrete-positive,positive,negative,A,NULL
1739290222,788165cd7e7797856ea29dcf25907801,PennController,50,0,test_val,NULL,PennController,61,_Header_,Start,1739289771728,undefined,570,Colorful,concrete-positive,positive,negative,A,NULL
