"","ID.true","Word","Label","Task","BlockOrder","EventTime","Value","ReactionTime","Key_value_F","Key_value_J","Comments","Group","LogReactionTime","TrialNumber"
"1","5d2a3561d3edf900018016a1","polite","calibrator_conc_feedback","Concrete","CV",1739279888150,"abstract",841,"concrete","abstract","concrete;abstract","A",6.73459165997295,1
"2","5d2a3561d3edf900018016a1","whistle","calibrator_conc_feedback","Concrete","CV",1739279889985,"abstract",808,"concrete","abstract","concrete;abstract","A",6.69456205852109,2
"3","5d2a3561d3edf900018016a1","grasshopper","calibrator_conc_feedback","Concrete","CV",1739279894132,"concrete",1386,"concrete","abstract","concrete;abstract","A",7.23417717974985,3
"4","5d2a3561d3edf900018016a1","marriage","calibrator_conc_feedback","Concrete","CV",1739279898219,"abstract",1324,"concrete","abstract","concrete;abstract","A",7.18841273649695,4
"5","5d2a3561d3edf900018016a1","kick","calibrator_conc_feedback","Concrete","CV",1739279901712,"concrete",736,"concrete","abstract","concrete;abstract","A",6.60123011872888,5
"6","5d2a3561d3edf900018016a1","insecure","calibrator_conc_feedback","Concrete","CV",1739279906162,"abstract",1690,"concrete","abstract","concrete;abstract","A",7.43248380791712,6
"7","5d2a3561d3edf900018016a1","theory","calibrator_conc_feedback","Concrete","CV",1739279910255,"abstract",1333,"concrete","abstract","concrete;abstract","A",7.19518732017871,7
"8","5d2a3561d3edf900018016a1","shirt","calibrator_conc_feedback","Concrete","CV",1739279913991,"concrete",979,"concrete","abstract","concrete;abstract","A",6.88653164253051,8
"9","5d2a3561d3edf900018016a1","sugar","calibrator_conc_feedback","Concrete","CV",1739279917996,"abstract",1243,"concrete","abstract","concrete;abstract","A",7.12528309151071,9
"10","5d2a3561d3edf900018016a1","gas","calibrator_conc_feedback","Concrete","CV",1739279921591,"abstract",834,"concrete","abstract","concrete;abstract","A",6.72623340235875,10
"11","5d2a3561d3edf900018016a1","sugar","calibrator_conc_no_feedback","Concrete","CV",1739279925296,"concrete",947,"A","concrete;abstract","","",6.85329909318608,11
"12","5d2a3561d3edf900018016a1","insecure","calibrator_conc_no_feedback","Concrete","CV",1739279927483,"concrete",1426,"A","concrete;abstract","","",7.26262860097424,12
"13","5d2a3561d3edf900018016a1","gas","calibrator_conc_no_feedback","Concrete","CV",1739279929259,"concrete",1021,"A","concrete;abstract","","",6.92853781816467,13
"14","5d2a3561d3edf900018016a1","whistle","calibrator_conc_no_feedback","Concrete","CV",1739279930943,"concrete",925,"A","concrete;abstract","","",6.82979373751242,14
"15","5d2a3561d3edf900018016a1","marriage","calibrator_conc_no_feedback","Concrete","CV",1739279932677,"abstract",976,"A","concrete;abstract","","",6.88346258641309,15
"16","5d2a3561d3edf900018016a1","kick","calibrator_conc_no_feedback","Concrete","CV",1739279934161,"concrete",731,"A","concrete;abstract","","",6.59441345974978,16
"17","5d2a3561d3edf900018016a1","theory","calibrator_conc_no_feedback","Concrete","CV",1739279935758,"abstract",842,"A","concrete;abstract","","",6.73578001424233,17
"18","5d2a3561d3edf900018016a1","polite","calibrator_conc_no_feedback","Concrete","CV",1739279937073,"abstract",557,"A","concrete;abstract","","",6.32256523992728,18
"19","5d2a3561d3edf900018016a1","grasshopper","calibrator_conc_no_feedback","Concrete","CV",1739279938664,"concrete",835,"A","concrete;abstract","","",6.72743172485086,19
"20","5d2a3561d3edf900018016a1","shirt","calibrator_conc_no_feedback","Concrete","CV",1739279940121,"concrete",698,"A","concrete;abstract","","",6.54821910276237,20
"21","5d2a3561d3edf900018016a1","insecure","calibrator_val_feedback","Valence","CV",1739280378188,"negative",731,"positive","negative","positive;negative","A",6.59441345974978,21
"22","5d2a3561d3edf900018016a1","grin","calibrator_val_feedback","Valence","CV",1739280381944,"positive",998,"positive","negative","positive;negative","A",6.90575327631146,22
"23","5d2a3561d3edf900018016a1","industry","calibrator_val_feedback","Valence","CV",1739280385685,"positive",982,"positive","negative","positive;negative","A",6.88959130835447,23
"24","5d2a3561d3edf900018016a1","joke","calibrator_val_feedback","Valence","CV",1739280389248,"positive",803,"positive","negative","positive;negative","A",6.68835471394676,24
"25","5d2a3561d3edf900018016a1","hat","calibrator_val_feedback","Valence","CV",1739280393838,"positive",1277,"positive","negative","positive;negative","A",7.15226885603254,25
"26","5d2a3561d3edf900018016a1","kitten","calibrator_val_feedback","Valence","CV",1739280397428,"positive",831,"positive","negative","positive;negative","A",6.72262979485545,26
"27","5d2a3561d3edf900018016a1","icebox","calibrator_val_feedback","Valence","CV",1739280400936,"positive",747,"positive","negative","positive;negative","A",6.61606518513282,27
"28","5d2a3561d3edf900018016a1","invader","calibrator_val_feedback","Valence","CV",1739280404602,"negative",904,"positive","negative","positive;negative","A",6.80682936039218,28
"29","5d2a3561d3edf900018016a1","free","calibrator_val_feedback","Valence","CV",1739280408482,"positive",1119,"positive","negative","positive;negative","A",7.02019070831193,29
"30","5d2a3561d3edf900018016a1","jail","calibrator_val_feedback","Valence","CV",1739280412218,"negative",980,"positive","negative","positive;negative","A",6.88755257166462,30
"31","5d2a3561d3edf900018016a1","hat","calibrator_val_no_feedback","Valence","CV",1739280415613,"positive",638,"A","positive;negative","","",6.45833828334479,31
"32","5d2a3561d3edf900018016a1","invader","calibrator_val_no_feedback","Valence","CV",1739280417145,"negative",776,"A","positive;negative","","",6.65415252018322,32
"33","5d2a3561d3edf900018016a1","insecure","calibrator_val_no_feedback","Valence","CV",1739280419062,"negative",1160,"A","positive;negative","","",7.05617528410041,33
"34","5d2a3561d3edf900018016a1","grin","calibrator_val_no_feedback","Valence","CV",1739280420342,"positive",527,"A","positive;negative","","",6.26720054854136,34
"35","5d2a3561d3edf900018016a1","free","calibrator_val_no_feedback","Valence","CV",1739280421656,"positive",558,"A","positive;negative","","",6.32435896238131,35
"36","5d2a3561d3edf900018016a1","jail","calibrator_val_no_feedback","Valence","CV",1739280422854,"negative",445,"A","positive;negative","","",6.09807428216624,36
"37","5d2a3561d3edf900018016a1","icebox","calibrator_val_no_feedback","Valence","CV",1739280424284,"positive",667,"A","positive;negative","","",6.50279004591562,37
"38","5d2a3561d3edf900018016a1","joke","calibrator_val_no_feedback","Valence","CV",1739280425603,"positive",563,"A","positive;negative","","",6.33327962813969,38
"39","5d2a3561d3edf900018016a1","kitten","calibrator_val_no_feedback","Valence","CV",1739280426937,"positive",578,"A","positive;negative","","",6.35957386867238,39
"40","5d2a3561d3edf900018016a1","industry","calibrator_val_no_feedback","Valence","CV",1739280428446,"positive",754,"A","positive;negative","","",6.62539236800796,40
"41","63bed6e176fba857a47fbaff","icebox","calibrator_val_feedback","Valence","VC",1739296175695,"positive",1497,"negative","positive","negative;positive","B",7.31121838441963,1
"42","63bed6e176fba857a47fbaff","industry","calibrator_val_feedback","Valence","VC",1739296178533,"positive",39,"negative","positive","negative;positive","B",3.66356164612965,2
"43","63bed6e176fba857a47fbaff","hat","calibrator_val_feedback","Valence","VC",1739296181364,"positive",72,"negative","positive","negative;positive","B",4.27666611901606,3
"44","63bed6e176fba857a47fbaff","jail","calibrator_val_feedback","Valence","VC",1739296184165,"positive",130,"negative","positive","negative;positive","B",4.86753445045558,4
"45","63bed6e176fba857a47fbaff","grin","calibrator_val_feedback","Valence","VC",1739296187055,"negative",56,"negative","positive","negative;positive","B",4.02535169073515,5
"46","63bed6e176fba857a47fbaff","kitten","calibrator_val_feedback","Valence","VC",1739296189878,"negative",20,"negative","positive","negative;positive","B",2.99573227355399,6
"47","63bed6e176fba857a47fbaff","insecure","calibrator_val_feedback","Valence","VC",1739296192677,"positive",75,"negative","positive","negative;positive","B",4.31748811353631,7
"48","63bed6e176fba857a47fbaff","free","calibrator_val_feedback","Valence","VC",1739296195512,"positive",108,"negative","positive","negative;positive","B",4.68213122712422,8
"49","63bed6e176fba857a47fbaff","joke","calibrator_val_feedback","Valence","VC",1739296198380,"positive",108,"negative","positive","negative;positive","B",4.68213122712422,9
"50","63bed6e176fba857a47fbaff","invader","calibrator_val_feedback","Valence","VC",1739296201204,"positive",95,"negative","positive","negative;positive","B",4.55387689160054,10
"51","63bed6e176fba857a47fbaff","kitten","calibrator_val_no_feedback","Valence","VC",1739296202119,"positive",60,"B","negative;positive","","",4.0943445622221,11
"52","63bed6e176fba857a47fbaff","industry","calibrator_val_no_feedback","Valence","VC",1739296202928,"negative",54,"B","negative;positive","","",3.98898404656427,12
"53","63bed6e176fba857a47fbaff","jail","calibrator_val_no_feedback","Valence","VC",1739296203768,"negative",84,"B","negative;positive","","",4.43081679884331,13
"54","63bed6e176fba857a47fbaff","grin","calibrator_val_no_feedback","Valence","VC",1739296204548,"negative",25,"B","negative;positive","","",3.2188758248682,14
"55","63bed6e176fba857a47fbaff","hat","calibrator_val_no_feedback","Valence","VC",1739296205348,"negative",45,"B","negative;positive","","",3.80666248977032,15
"56","63bed6e176fba857a47fbaff","icebox","calibrator_val_no_feedback","Valence","VC",1739296206134,"negative",29,"B","negative;positive","","",3.36729582998647,16
"57","63bed6e176fba857a47fbaff","insecure","calibrator_val_no_feedback","Valence","VC",1739296206960,"negative",71,"B","negative;positive","","",4.26267987704132,17
"58","63bed6e176fba857a47fbaff","joke","calibrator_val_no_feedback","Valence","VC",1739296207836,"negative",120,"B","negative;positive","","",4.78749174278205,18
"59","63bed6e176fba857a47fbaff","free","calibrator_val_no_feedback","Valence","VC",1739296208655,"positive",64,"B","negative;positive","","",4.15888308335967,19
"60","63bed6e176fba857a47fbaff","invader","calibrator_val_no_feedback","Valence","VC",1739296209418,"positive",8,"B","negative;positive","","",2.07944154167984,20
"61","63bed6e176fba857a47fbaff","grasshopper","calibrator_conc_feedback","Concrete","VC",1739296334475,"concrete",730,"abstract","concrete","abstract;concrete","B",6.59304453414244,21
"62","63bed6e176fba857a47fbaff","whistle","calibrator_conc_feedback","Concrete","VC",1739296337343,"abstract",41,"abstract","concrete","abstract;concrete","B",3.71357206670431,22
"63","63bed6e176fba857a47fbaff","marriage","calibrator_conc_feedback","Concrete","VC",1739296340139,"concrete",29,"abstract","concrete","abstract;concrete","B",3.36729582998647,23
"64","63bed6e176fba857a47fbaff","gas","calibrator_conc_feedback","Concrete","VC",1739296342931,"concrete",7,"abstract","concrete","abstract;concrete","B",1.94591014905531,24
"65","63bed6e176fba857a47fbaff","insecure","calibrator_conc_feedback","Concrete","VC",1739296345675,"abstract",29,"abstract","concrete","abstract;concrete","B",3.36729582998647,25
"66","63bed6e176fba857a47fbaff","shirt","calibrator_conc_feedback","Concrete","VC",1739296348507,"concrete",98,"abstract","concrete","abstract;concrete","B",4.58496747867057,26
"67","63bed6e176fba857a47fbaff","polite","calibrator_conc_feedback","Concrete","VC",1739296351246,"concrete",40,"abstract","concrete","abstract;concrete","B",3.68887945411394,27
"68","63bed6e176fba857a47fbaff","kick","calibrator_conc_feedback","Concrete","VC",1739296353970,"concrete",10,"abstract","concrete","abstract;concrete","B",2.30258509299405,28
"69","63bed6e176fba857a47fbaff","sugar","calibrator_conc_feedback","Concrete","VC",1739296356894,"concrete",11,"abstract","concrete","abstract;concrete","B",2.39789527279837,29
"70","63bed6e176fba857a47fbaff","theory","calibrator_conc_feedback","Concrete","VC",1739296359710,"concrete",30,"abstract","concrete","abstract;concrete","B",3.40119738166216,30
"71","63bed6e176fba857a47fbaff","kick","calibrator_conc_no_feedback","Concrete","VC",1739296360529,"concrete",57,"B","abstract;concrete","","",4.04305126783455,31
"72","63bed6e176fba857a47fbaff","grasshopper","calibrator_conc_no_feedback","Concrete","VC",1739296361315,"concrete",30,"B","abstract;concrete","","",3.40119738166216,32
"73","63bed6e176fba857a47fbaff","polite","calibrator_conc_no_feedback","Concrete","VC",1739296362101,"concrete",28,"B","abstract;concrete","","",3.3322045101752,33
"74","63bed6e176fba857a47fbaff","shirt","calibrator_conc_no_feedback","Concrete","VC",1739296362887,"concrete",29,"B","abstract;concrete","","",3.36729582998647,34
"75","63bed6e176fba857a47fbaff","gas","calibrator_conc_no_feedback","Concrete","VC",1739296363795,"abstract",156,"B","abstract;concrete","","",5.04985600724954,35
"76","63bed6e176fba857a47fbaff","marriage","calibrator_conc_no_feedback","Concrete","VC",1739296364596,"abstract",45,"B","abstract;concrete","","",3.80666248977032,36
"77","63bed6e176fba857a47fbaff","insecure","calibrator_conc_no_feedback","Concrete","VC",1739296365407,"abstract",53,"B","abstract;concrete","","",3.97029191355212,37
"78","63bed6e176fba857a47fbaff","theory","calibrator_conc_no_feedback","Concrete","VC",1739296366264,"concrete",102,"B","abstract;concrete","","",4.62497281328427,38
"79","63bed6e176fba857a47fbaff","whistle","calibrator_conc_no_feedback","Concrete","VC",1739296367064,"concrete",44,"B","abstract;concrete","","",3.78418963391826,39
"80","63bed6e176fba857a47fbaff","sugar","calibrator_conc_no_feedback","Concrete","VC",1739296367850,"concrete",34,"B","abstract;concrete","","",3.52636052461616,40
"81","5fc2f07939c5f20b2e86607f","theory","calibrator_conc_feedback","Concrete","CV",1739282924208,"abstract",3339,"abstract","concrete","abstract;concrete","B",8.11342663994365,1
"82","5fc2f07939c5f20b2e86607f","whistle","calibrator_conc_feedback","Concrete","CV",1739282929373,"abstract",2391,"abstract","concrete","abstract;concrete","B",7.77946696745832,2
"83","5fc2f07939c5f20b2e86607f","gas","calibrator_conc_feedback","Concrete","CV",1739282933935,"concrete",1781,"abstract","concrete","abstract;concrete","B",7.48493028328966,3
"84","5fc2f07939c5f20b2e86607f","grasshopper","calibrator_conc_feedback","Concrete","CV",1739282938286,"concrete",1575,"abstract","concrete","abstract;concrete","B",7.36201055125973,4
"85","5fc2f07939c5f20b2e86607f","kick","calibrator_conc_feedback","Concrete","CV",1739282943295,"concrete",2235,"abstract","concrete","abstract;concrete","B",7.71199650704767,5
"86","5fc2f07939c5f20b2e86607f","shirt","calibrator_conc_feedback","Concrete","CV",1739282947471,"concrete",1398,"abstract","concrete","abstract;concrete","B",7.24279792279376,6
"87","5fc2f07939c5f20b2e86607f","insecure","calibrator_conc_feedback","Concrete","CV",1739282952735,"abstract",2480,"abstract","concrete","abstract;concrete","B",7.81601383915903,7
"88","5fc2f07939c5f20b2e86607f","marriage","calibrator_conc_feedback","Concrete","CV",1739282957326,"abstract",1821,"abstract","concrete","abstract;concrete","B",7.50714107972761,8
"89","5fc2f07939c5f20b2e86607f","polite","calibrator_conc_feedback","Concrete","CV",1739282961711,"abstract",1608,"abstract","concrete","abstract;concrete","B",7.38274644973891,9
"90","5fc2f07939c5f20b2e86607f","sugar","calibrator_conc_feedback","Concrete","CV",1739282966030,"concrete",1552,"abstract","concrete","abstract;concrete","B",7.34729970074316,10
"91","5fc2f07939c5f20b2e86607f","marriage","calibrator_conc_no_feedback","Concrete","CV",1739282970254,"abstract",1448,"B","abstract;concrete","","",7.27793857294566,11
"92","5fc2f07939c5f20b2e86607f","theory","calibrator_conc_no_feedback","Concrete","CV",1739282972639,"abstract",1613,"B","abstract;concrete","","",7.38585107812521,12
"93","5fc2f07939c5f20b2e86607f","kick","calibrator_conc_no_feedback","Concrete","CV",1739282974782,"abstract",1379,"B","abstract;concrete","","",7.2291138777933,13
"94","5fc2f07939c5f20b2e86607f","shirt","calibrator_conc_no_feedback","Concrete","CV",1739282977263,"concrete",1700,"B","abstract;concrete","","",7.43838353004431,14
"95","5fc2f07939c5f20b2e86607f","gas","calibrator_conc_no_feedback","Concrete","CV",1739282979502,"concrete",1463,"B","abstract;concrete","","",7.28824440102012,15
"96","5fc2f07939c5f20b2e86607f","whistle","calibrator_conc_no_feedback","Concrete","CV",1739282982077,"abstract",1809,"B","abstract;concrete","","",7.50052948539529,16
"97","5fc2f07939c5f20b2e86607f","sugar","calibrator_conc_no_feedback","Concrete","CV",1739282983949,"concrete",1096,"B","abstract;concrete","","",6.99942246750796,17
"98","5fc2f07939c5f20b2e86607f","insecure","calibrator_conc_no_feedback","Concrete","CV",1739282985582,"concrete",865,"B","abstract;concrete","","",6.76272950693188,18
"99","5fc2f07939c5f20b2e86607f","grasshopper","calibrator_conc_no_feedback","Concrete","CV",1739282988000,"concrete",1645,"B","abstract;concrete","","",7.40549566319947,19
"100","5fc2f07939c5f20b2e86607f","polite","calibrator_conc_no_feedback","Concrete","CV",1739282990110,"abstract",1345,"B","abstract;concrete","","",7.20414929203594,20
"101","5fc2f07939c5f20b2e86607f","free","calibrator_val_feedback","Valence","CV",1739283195662,"positive",1055,"negative","positive","negative;positive","B",6.96129604591017,21
"102","5fc2f07939c5f20b2e86607f","jail","calibrator_val_feedback","Valence","CV",1739283199663,"negative",1224,"negative","positive","negative;positive","B",7.10987946307227,22
"103","5fc2f07939c5f20b2e86607f","insecure","calibrator_val_feedback","Valence","CV",1739283203502,"negative",1064,"negative","positive","negative;positive","B",6.96979066990159,23
"104","5fc2f07939c5f20b2e86607f","joke","calibrator_val_feedback","Valence","CV",1739283208190,"negative",1904,"negative","positive","negative;positive","B",7.55171221535131,24
"105","5fc2f07939c5f20b2e86607f","kitten","calibrator_val_feedback","Valence","CV",1739283212174,"positive",1210,"negative","positive","negative;positive","B",7.09837563859079,25
"106","5fc2f07939c5f20b2e86607f","invader","calibrator_val_feedback","Valence","CV",1739283216175,"negative",1222,"negative","positive","negative;positive","B",7.10824413973154,26
"107","5fc2f07939c5f20b2e86607f","grin","calibrator_val_feedback","Valence","CV",1739283219903,"positive",959,"negative","positive","negative;positive","B",6.86589107488344,27
"108","5fc2f07939c5f20b2e86607f","hat","calibrator_val_feedback","Valence","CV",1739283223470,"positive",790,"negative","positive","negative;positive","B",6.67203294546107,28
"109","5fc2f07939c5f20b2e86607f","industry","calibrator_val_feedback","Valence","CV",1739283227566,"positive",1314,"negative","positive","negative;positive","B",7.18083119904456,29
"110","5fc2f07939c5f20b2e86607f","icebox","calibrator_val_feedback","Valence","CV",1739283231501,"positive",1159,"negative","positive","negative;positive","B",7.05531284333975,30
"111","5fc2f07939c5f20b2e86607f","grin","calibrator_val_no_feedback","Valence","CV",1739283235086,"positive",816,"B","negative;positive","","",6.70441435496411,31
"112","5fc2f07939c5f20b2e86607f","hat","calibrator_val_no_feedback","Valence","CV",1739283236815,"positive",949,"B","negative;positive","","",6.85540879860993,32
"113","5fc2f07939c5f20b2e86607f","invader","calibrator_val_no_feedback","Valence","CV",1739283238350,"negative",759,"B","negative;positive","","",6.63200177739563,33
"114","5fc2f07939c5f20b2e86607f","kitten","calibrator_val_no_feedback","Valence","CV",1739283239742,"positive",620,"B","negative;positive","","",6.42971947803914,34
"115","5fc2f07939c5f20b2e86607f","industry","calibrator_val_no_feedback","Valence","CV",1739283241822,"negative",1312,"B","negative;positive","","",7.17930796950403,35
"116","5fc2f07939c5f20b2e86607f","free","calibrator_val_no_feedback","Valence","CV",1739283243470,"positive",866,"B","negative;positive","","",6.76388490856244,36
"117","5fc2f07939c5f20b2e86607f","joke","calibrator_val_no_feedback","Valence","CV",1739283245118,"positive",871,"B","negative;positive","","",6.7696419768525,37
"118","5fc2f07939c5f20b2e86607f","jail","calibrator_val_no_feedback","Valence","CV",1739283246623,"negative",724,"B","negative;positive","","",6.58479139238572,38
"119","5fc2f07939c5f20b2e86607f","insecure","calibrator_val_no_feedback","Valence","CV",1739283248108,"negative",711,"B","negative;positive","","",6.56667242980324,39
"120","5fc2f07939c5f20b2e86607f","icebox","calibrator_val_no_feedback","Valence","CV",1739283249646,"positive",766,"B","negative;positive","","",6.64118216974059,40
"121","66d9d8108156d32cbe34ee6f","kick","calibrator_conc_feedback","Concrete","CV",1739282774232,"concrete",2103,"abstract","concrete","abstract;concrete","B",7.6511201757027,1
"122","66d9d8108156d32cbe34ee6f","polite","calibrator_conc_feedback","Concrete","CV",1739282778938,"abstract",1944,"abstract","concrete","abstract;concrete","B",7.57250298502038,2
"123","66d9d8108156d32cbe34ee6f","gas","calibrator_conc_feedback","Concrete","CV",1739282785833,"concrete",4129,"abstract","concrete","abstract;concrete","B",8.32579052588609,3
"124","66d9d8108156d32cbe34ee6f","whistle","calibrator_conc_feedback","Concrete","CV",1739282790672,"concrete",2078,"abstract","concrete","abstract;concrete","B",7.63916117165917,4
"125","66d9d8108156d32cbe34ee6f","shirt","calibrator_conc_feedback","Concrete","CV",1739282795369,"concrete",1930,"abstract","concrete","abstract;concrete","B",7.56527528189893,5
"126","66d9d8108156d32cbe34ee6f","grasshopper","calibrator_conc_feedback","Concrete","CV",1739282799297,"concrete",1162,"abstract","concrete","abstract;concrete","B",7.05789793741186,6
"127","66d9d8108156d32cbe34ee6f","insecure","calibrator_conc_feedback","Concrete","CV",1739282804618,"abstract",2559,"abstract","concrete","abstract;concrete","B",7.84737183615979,7
"128","66d9d8108156d32cbe34ee6f","marriage","calibrator_conc_feedback","Concrete","CV",1739282868907,"abstract",61527,"abstract","concrete","abstract;concrete","B",11.0272313818418,8
"129","66d9d8108156d32cbe34ee6f","sugar","calibrator_conc_feedback","Concrete","CV",1739282888383,"concrete",16712,"abstract","concrete","abstract;concrete","B",9.7238823032364,9
"130","66d9d8108156d32cbe34ee6f","theory","calibrator_conc_feedback","Concrete","CV",1739282907804,"abstract",16654,"abstract","concrete","abstract;concrete","B",9.72040570679576,10
"131","66d9d8108156d32cbe34ee6f","insecure","calibrator_conc_no_feedback","Concrete","CV",1739282911409,"abstract",843,"B","abstract;concrete","","",6.73696695800186,11
"132","66d9d8108156d32cbe34ee6f","theory","calibrator_conc_no_feedback","Concrete","CV",1739282913185,"abstract",1013,"B","abstract;concrete","","",6.92067150424868,12
"133","66d9d8108156d32cbe34ee6f","shirt","calibrator_conc_no_feedback","Concrete","CV",1739282915528,"concrete",1584,"B","abstract;concrete","","",7.36770857237437,13
"134","66d9d8108156d32cbe34ee6f","gas","calibrator_conc_no_feedback","Concrete","CV",1739282917753,"concrete",1466,"B","abstract;concrete","","",7.2902928824466,14
"135","66d9d8108156d32cbe34ee6f","kick","calibrator_conc_no_feedback","Concrete","CV",1739282919417,"concrete",903,"B","abstract;concrete","","",6.80572255341699,15
"136","66d9d8108156d32cbe34ee6f","whistle","calibrator_conc_no_feedback","Concrete","CV",1739282920833,"concrete",656,"B","abstract;concrete","","",6.48616078894409,16
"137","66d9d8108156d32cbe34ee6f","sugar","calibrator_conc_no_feedback","Concrete","CV",1739282922226,"concrete",632,"B","abstract;concrete","","",6.44888939414686,17
"138","66d9d8108156d32cbe34ee6f","polite","calibrator_conc_no_feedback","Concrete","CV",1739282923729,"abstract",742,"B","abstract;concrete","","",6.60934924316738,18
"139","66d9d8108156d32cbe34ee6f","marriage","calibrator_conc_no_feedback","Concrete","CV",1739282925297,"abstract",809,"B","abstract;concrete","","",6.69579891705849,19
"140","66d9d8108156d32cbe34ee6f","grasshopper","calibrator_conc_no_feedback","Concrete","CV",1739282926710,"concrete",652,"B","abstract;concrete","","",6.48004456192665,20
"141","66d9d8108156d32cbe34ee6f","industry","calibrator_val_feedback","Valence","CV",1739284123360,"positive",3642,"negative","positive","negative;positive","B",8.20028826028755,21
"142","66d9d8108156d32cbe34ee6f","free","calibrator_val_feedback","Valence","CV",1739284127639,"positive",1511,"negative","positive","negative;positive","B",7.32052696227274,22
"143","66d9d8108156d32cbe34ee6f","joke","calibrator_val_feedback","Valence","CV",1739284131799,"positive",1395,"negative","positive","negative;positive","B",7.24064969425547,23
"144","66d9d8108156d32cbe34ee6f","icebox","calibrator_val_feedback","Valence","CV",1739284135879,"positive",1315,"negative","positive","negative;positive","B",7.18159194461187,24
"145","66d9d8108156d32cbe34ee6f","insecure","calibrator_val_feedback","Valence","CV",1739284140303,"negative",1661,"negative","positive","negative;positive","B",7.41517510961329,25
"146","66d9d8108156d32cbe34ee6f","kitten","calibrator_val_feedback","Valence","CV",1739284143875,"positive",807,"negative","positive","negative;positive","B",6.69332366826995,26
"147","66d9d8108156d32cbe34ee6f","invader","calibrator_val_feedback","Valence","CV",1739284147564,"negative",929,"negative","positive","negative;positive","B",6.83410873881384,27
"148","66d9d8108156d32cbe34ee6f","jail","calibrator_val_feedback","Valence","CV",1739284151155,"negative",825,"negative","positive","negative;positive","B",6.71538338633468,28
"149","66d9d8108156d32cbe34ee6f","hat","calibrator_val_feedback","Valence","CV",1739284154578,"positive",657,"negative","positive","negative;positive","B",6.48768401848461,29
"150","66d9d8108156d32cbe34ee6f","grin","calibrator_val_feedback","Valence","CV",1739284158010,"positive",671,"negative","positive","negative;positive","B",6.50876913697168,30
"151","66d9d8108156d32cbe34ee6f","invader","calibrator_val_no_feedback","Valence","CV",1739284161539,"negative",769,"B","negative;positive","","",6.64509096950564,31
"152","66d9d8108156d32cbe34ee6f","jail","calibrator_val_no_feedback","Valence","CV",1739284162875,"negative",577,"B","negative;positive","","",6.3578422665081,32
"153","66d9d8108156d32cbe34ee6f","insecure","calibrator_val_no_feedback","Valence","CV",1739284164259,"negative",624,"B","negative;positive","","",6.43615036836943,33
"154","66d9d8108156d32cbe34ee6f","industry","calibrator_val_no_feedback","Valence","CV",1739284165779,"positive",763,"B","negative;positive","","",6.63725803128446,34
"155","66d9d8108156d32cbe34ee6f","grin","calibrator_val_no_feedback","Valence","CV",1739284167467,"positive",929,"B","negative;positive","","",6.83410873881384,35
"156","66d9d8108156d32cbe34ee6f","hat","calibrator_val_no_feedback","Valence","CV",1739284169012,"positive",782,"B","negative;positive","","",6.66185474054531,36
"157","66d9d8108156d32cbe34ee6f","kitten","calibrator_val_no_feedback","Valence","CV",1739284170451,"positive",678,"B","negative;positive","","",6.5191472879404,37
"158","66d9d8108156d32cbe34ee6f","icebox","calibrator_val_no_feedback","Valence","CV",1739284171751,"positive",539,"B","negative;positive","","",6.289715570909,38
"159","66d9d8108156d32cbe34ee6f","joke","calibrator_val_no_feedback","Valence","CV",1739284173083,"positive",570,"B","negative;positive","","",6.3456363608286,39
"160","66d9d8108156d32cbe34ee6f","free","calibrator_val_no_feedback","Valence","CV",1739284174502,"positive",655,"B","negative;positive","","",6.48463523563525,40
"161","6155b9c45f96867d9d9631fd","invader","calibrator_val_feedback","Valence","VC",1739295256069,"negative",1981,"positive","negative","positive;negative","A",7.59135704669855,1
"162","6155b9c45f96867d9d9631fd","kitten","calibrator_val_feedback","Valence","VC",1739295261301,"positive",2449,"positive","negative","positive;negative","A",7.80343505695217,2
"163","6155b9c45f96867d9d9631fd","joke","calibrator_val_feedback","Valence","VC",1739295265479,"positive",1394,"positive","negative","positive;negative","A",7.23993259132047,3
"164","6155b9c45f96867d9d9631fd","insecure","calibrator_val_feedback","Valence","VC",1739295270267,"negative",2016,"positive","negative","positive;negative","A",7.60887062919126,4
"165","6155b9c45f96867d9d9631fd","icebox","calibrator_val_feedback","Valence","VC",1739295275483,"positive",2442,"positive","negative","positive;negative","A",7.80057265467065,5
"166","6155b9c45f96867d9d9631fd","grin","calibrator_val_feedback","Valence","VC",1739295280059,"positive",1795,"positive","negative","positive;negative","A",7.49276030092238,6
"167","6155b9c45f96867d9d9631fd","industry","calibrator_val_feedback","Valence","VC",1739295284566,"positive",1733,"positive","negative","positive;negative","A",7.45760928971561,7
"168","6155b9c45f96867d9d9631fd","free","calibrator_val_feedback","Valence","VC",1739295289509,"positive",2162,"positive","negative","positive;negative","A",7.67878899819915,8
"169","6155b9c45f96867d9d9631fd","hat","calibrator_val_feedback","Valence","VC",1739295294124,"positive",1832,"positive","negative","positive;negative","A",7.51316354523408,9
"170","6155b9c45f96867d9d9631fd","jail","calibrator_val_feedback","Valence","VC",1739295298741,"positive",1824,"positive","negative","positive;negative","A",7.50878717063428,10
"171","6155b9c45f96867d9d9631fd","insecure","calibrator_val_no_feedback","Valence","VC",1739295303078,"negative",1560,"A","positive;negative","","",7.35244110024358,11
"172","6155b9c45f96867d9d9631fd","joke","calibrator_val_no_feedback","Valence","VC",1739295305047,"positive",1203,"A","positive;negative","","",7.09257371597468,12
"173","6155b9c45f96867d9d9631fd","icebox","calibrator_val_no_feedback","Valence","VC",1739295307485,"positive",1666,"A","positive;negative","","",7.41818082272679,13
"174","6155b9c45f96867d9d9631fd","industry","calibrator_val_no_feedback","Valence","VC",1739295310579,"positive",2317,"A","positive;negative","","",7.74802852443238,14
"175","6155b9c45f96867d9d9631fd","hat","calibrator_val_no_feedback","Valence","VC",1739295313236,"positive",1886,"A","positive;negative","","",7.5422134631934,15
"176","6155b9c45f96867d9d9631fd","invader","calibrator_val_no_feedback","Valence","VC",1739295315227,"negative",1213,"A","positive;negative","","",7.10085190894405,16
"177","6155b9c45f96867d9d9631fd","free","calibrator_val_no_feedback","Valence","VC",1739295317006,"positive",1001,"A","positive;negative","","",6.90875477931522,17
"178","6155b9c45f96867d9d9631fd","kitten","calibrator_val_no_feedback","Valence","VC",1739295318731,"positive",951,"A","positive;negative","","",6.85751406254539,18
"179","6155b9c45f96867d9d9631fd","grin","calibrator_val_no_feedback","Valence","VC",1739295320619,"positive",1116,"A","positive;negative","","",7.01750614294126,19
"180","6155b9c45f96867d9d9631fd","jail","calibrator_val_no_feedback","Valence","VC",1739295322203,"negative",812,"A","positive;negative","","",6.69950034016168,20
"181","6155b9c45f96867d9d9631fd","whistle","calibrator_conc_feedback","Concrete","VC",1739295592751,"concrete",2056,"concrete","abstract","concrete;abstract","A",7.62851762657506,21
"182","6155b9c45f96867d9d9631fd","insecure","calibrator_conc_feedback","Concrete","VC",1739295597022,"abstract",1491,"concrete","abstract","concrete;abstract","A",7.30720231476474,22
"183","6155b9c45f96867d9d9631fd","marriage","calibrator_conc_feedback","Concrete","VC",1739295602394,"concrete",2602,"concrete","abstract","concrete;abstract","A",7.86403565907245,23
"184","6155b9c45f96867d9d9631fd","polite","calibrator_conc_feedback","Concrete","VC",1739295607619,"abstract",2448,"concrete","abstract","concrete;abstract","A",7.80302664363222,24
"185","6155b9c45f96867d9d9631fd","kick","calibrator_conc_feedback","Concrete","VC",1739295611734,"concrete",1338,"concrete","abstract","concrete;abstract","A",7.19893124068817,25
"186","6155b9c45f96867d9d9631fd","theory","calibrator_conc_feedback","Concrete","VC",1739295615844,"abstract",1318,"concrete","abstract","concrete;abstract","A",7.18387071506245,26
"187","6155b9c45f96867d9d9631fd","sugar","calibrator_conc_feedback","Concrete","VC",1739295619763,"concrete",1142,"concrete","abstract","concrete;abstract","A",7.04053639021596,27
"188","6155b9c45f96867d9d9631fd","grasshopper","calibrator_conc_feedback","Concrete","VC",1739295623844,"concrete",1297,"concrete","abstract","concrete;abstract","A",7.16780918431644,28
"189","6155b9c45f96867d9d9631fd","shirt","calibrator_conc_feedback","Concrete","VC",1739295628027,"concrete",1405,"concrete","abstract","concrete;abstract","A",7.24779258176785,29
"190","6155b9c45f96867d9d9631fd","gas","calibrator_conc_feedback","Concrete","VC",1739295632522,"abstract",1713,"concrete","abstract","concrete;abstract","A",7.44600149832412,30
"191","6155b9c45f96867d9d9631fd","whistle","calibrator_conc_no_feedback","Concrete","VC",1739295636476,"concrete",1182,"A","concrete;abstract","","",7.07496319796604,31
"192","6155b9c45f96867d9d9631fd","gas","calibrator_conc_no_feedback","Concrete","VC",1739295637979,"concrete",735,"A","concrete;abstract","","",6.59987049921284,32
"193","6155b9c45f96867d9d9631fd","insecure","calibrator_conc_no_feedback","Concrete","VC",1739295639572,"abstract",829,"A","concrete;abstract","","",6.7202201551353,33
"194","6155b9c45f96867d9d9631fd","theory","calibrator_conc_no_feedback","Concrete","VC",1739295641083,"abstract",741,"A","concrete;abstract","","",6.60800062529609,34
"195","6155b9c45f96867d9d9631fd","polite","calibrator_conc_no_feedback","Concrete","VC",1739295642683,"abstract",831,"A","concrete;abstract","","",6.72262979485545,35
"196","6155b9c45f96867d9d9631fd","marriage","calibrator_conc_no_feedback","Concrete","VC",1739295644308,"concrete",853,"A","concrete;abstract","","",6.74875954749168,36
"197","6155b9c45f96867d9d9631fd","kick","calibrator_conc_no_feedback","Concrete","VC",1739295646382,"concrete",1300,"A","concrete;abstract","","",7.17011954344963,37
"198","6155b9c45f96867d9d9631fd","grasshopper","calibrator_conc_no_feedback","Concrete","VC",1739295647970,"concrete",824,"A","concrete;abstract","","",6.71417052990947,38
"199","6155b9c45f96867d9d9631fd","shirt","calibrator_conc_no_feedback","Concrete","VC",1739295649476,"concrete",733,"A","concrete;abstract","","",6.59714570188665,39
"200","6155b9c45f96867d9d9631fd","sugar","calibrator_conc_no_feedback","Concrete","VC",1739295651044,"concrete",800,"A","concrete;abstract","","",6.68461172766793,40
"201","55132578fdf99b1b0568bdb8","grasshopper","calibrator_conc_feedback","Concrete","CV",1739275698963,"concrete",1090,"concrete","abstract","concrete;abstract","A",6.99393297522319,1
"202","55132578fdf99b1b0568bdb8","gas","calibrator_conc_feedback","Concrete","CV",1739275701748,"concrete",880,"concrete","abstract","concrete;abstract","A",6.77992190747225,2
"203","55132578fdf99b1b0568bdb8","kick","calibrator_conc_feedback","Concrete","CV",1739275704557,"abstract",1080,"concrete","abstract","concrete;abstract","A",6.98471632011827,3
"204","55132578fdf99b1b0568bdb8","polite","calibrator_conc_feedback","Concrete","CV",1739275709166,"abstract",1846,"concrete","abstract","concrete;abstract","A",7.5207764150628,4
"205","55132578fdf99b1b0568bdb8","theory","calibrator_conc_feedback","Concrete","CV",1739275712958,"abstract",1026,"concrete","abstract","concrete;abstract","A",6.93342302573071,5
"206","55132578fdf99b1b0568bdb8","marriage","calibrator_conc_feedback","Concrete","CV",1739275717060,"abstract",1339,"concrete","abstract","concrete;abstract","A",7.19967834569117,6
"207","55132578fdf99b1b0568bdb8","shirt","calibrator_conc_feedback","Concrete","CV",1739275720693,"concrete",867,"concrete","abstract","concrete;abstract","A",6.76503897678054,7
"208","55132578fdf99b1b0568bdb8","sugar","calibrator_conc_feedback","Concrete","CV",1739275724535,"concrete",1079,"concrete","abstract","concrete;abstract","A",6.98378996525813,8
"209","55132578fdf99b1b0568bdb8","insecure","calibrator_conc_feedback","Concrete","CV",1739275728370,"abstract",1069,"concrete","abstract","concrete;abstract","A",6.97447891102505,9
"210","55132578fdf99b1b0568bdb8","whistle","calibrator_conc_feedback","Concrete","CV",1739275732700,"abstract",1561,"concrete","abstract","concrete;abstract","A",7.35308192051543,10
"211","55132578fdf99b1b0568bdb8","gas","calibrator_conc_no_feedback","Concrete","CV",1739275737315,"concrete",1849,"A","concrete;abstract","","",7.52240023138712,11
"212","55132578fdf99b1b0568bdb8","sugar","calibrator_conc_no_feedback","Concrete","CV",1739275739123,"concrete",1045,"A","concrete;abstract","","",6.95177216439891,12
"213","55132578fdf99b1b0568bdb8","whistle","calibrator_conc_no_feedback","Concrete","CV",1739275741090,"abstract",1207,"A","concrete;abstract","","",7.09589322109753,13
"214","55132578fdf99b1b0568bdb8","insecure","calibrator_conc_no_feedback","Concrete","CV",1739275742785,"abstract",934,"A","concrete;abstract","","",6.83947643822884,14
"215","55132578fdf99b1b0568bdb8","theory","calibrator_conc_no_feedback","Concrete","CV",1739275744404,"abstract",857,"A","concrete;abstract","","",6.75343791859778,15
"216","55132578fdf99b1b0568bdb8","marriage","calibrator_conc_no_feedback","Concrete","CV",1739275745878,"abstract",709,"A","concrete;abstract","","",6.56385552653213,16
"217","55132578fdf99b1b0568bdb8","grasshopper","calibrator_conc_no_feedback","Concrete","CV",1739275747241,"concrete",602,"A","concrete;abstract","","",6.40025744530882,17
"218","55132578fdf99b1b0568bdb8","polite","calibrator_conc_no_feedback","Concrete","CV",1739275748688,"abstract",684,"A","concrete;abstract","","",6.52795791762255,18
"219","55132578fdf99b1b0568bdb8","shirt","calibrator_conc_no_feedback","Concrete","CV",1739275751149,"concrete",1701,"A","concrete;abstract","","",7.43897159239586,19
"220","55132578fdf99b1b0568bdb8","kick","calibrator_conc_no_feedback","Concrete","CV",1739275753402,"concrete",1494,"A","concrete;abstract","","",7.30921236569276,20
"221","55132578fdf99b1b0568bdb8","jail","calibrator_val_feedback","Valence","CV",1739276263614,"negative",1164,"positive","negative","positive;negative","A",7.05961762829138,21
"222","55132578fdf99b1b0568bdb8","industry","calibrator_val_feedback","Valence","CV",1739276267997,"negative",1616,"positive","negative","positive;negative","A",7.38770923908104,22
"223","55132578fdf99b1b0568bdb8","joke","calibrator_val_feedback","Valence","CV",1739276272305,"positive",1540,"positive","negative","positive;negative","A",7.33953769540767,23
"224","55132578fdf99b1b0568bdb8","hat","calibrator_val_feedback","Valence","CV",1739276276407,"positive",1333,"positive","negative","positive;negative","A",7.19518732017871,24
"225","55132578fdf99b1b0568bdb8","insecure","calibrator_val_feedback","Valence","CV",1739276280353,"negative",1175,"positive","negative","positive;negative","A",7.06902342657826,25
"226","55132578fdf99b1b0568bdb8","invader","calibrator_val_feedback","Valence","CV",1739276284121,"negative",999,"positive","negative","positive;negative","A",6.90675477864855,26
"227","55132578fdf99b1b0568bdb8","kitten","calibrator_val_feedback","Valence","CV",1739276287732,"positive",847,"positive","negative","positive;negative","A",6.74170069465205,27
"228","55132578fdf99b1b0568bdb8","grin","calibrator_val_feedback","Valence","CV",1739276291512,"positive",1013,"positive","negative","positive;negative","A",6.92067150424868,28
"229","55132578fdf99b1b0568bdb8","icebox","calibrator_val_feedback","Valence","CV",1739276295755,"positive",1479,"positive","negative","positive;negative","A",7.2991214627108,29
"230","55132578fdf99b1b0568bdb8","free","calibrator_val_feedback","Valence","CV",1739276299540,"positive",1016,"positive","negative","positive;negative","A",6.92362862813843,30
"231","55132578fdf99b1b0568bdb8","invader","calibrator_val_no_feedback","Valence","CV",1739276303410,"negative",1107,"A","positive;negative","","",7.00940893270864,31
"232","55132578fdf99b1b0568bdb8","kitten","calibrator_val_no_feedback","Valence","CV",1739276304878,"positive",708,"A","positive;negative","","",6.56244409369372,32
"233","55132578fdf99b1b0568bdb8","jail","calibrator_val_no_feedback","Valence","CV",1739276306407,"negative",769,"A","positive;negative","","",6.64509096950564,33
"234","55132578fdf99b1b0568bdb8","joke","calibrator_val_no_feedback","Valence","CV",1739276307839,"positive",673,"A","positive;negative","","",6.51174532964473,34
"235","55132578fdf99b1b0568bdb8","grin","calibrator_val_no_feedback","Valence","CV",1739276309190,"positive",589,"A","positive;negative","","",6.37842618365159,35
"236","55132578fdf99b1b0568bdb8","icebox","calibrator_val_no_feedback","Valence","CV",1739276310564,"positive",609,"A","positive;negative","","",6.4118182677099,36
"237","55132578fdf99b1b0568bdb8","industry","calibrator_val_no_feedback","Valence","CV",1739276312129,"negative",802,"A","positive;negative","","",6.68710860786651,37
"238","55132578fdf99b1b0568bdb8","hat","calibrator_val_no_feedback","Valence","CV",1739276313420,"positive",530,"A","positive;negative","","",6.27287700654617,38
"239","55132578fdf99b1b0568bdb8","free","calibrator_val_no_feedback","Valence","CV",1739276314910,"positive",729,"A","positive;negative","","",6.59167373200866,39
"240","55132578fdf99b1b0568bdb8","insecure","calibrator_val_no_feedback","Valence","CV",1739276316619,"negative",950,"A","positive;negative","","",6.85646198459459,40
"241","5cdb3e9caa4e2a00019a16bc","whistle","calibrator_conc_feedback","Concrete","CV",1739278864944,"concrete",3344,"concrete","abstract","concrete;abstract","A",8.11492297420459,1
"242","5cdb3e9caa4e2a00019a16bc","shirt","calibrator_conc_feedback","Concrete","CV",1739278868949,"concrete",1247,"concrete","abstract","concrete;abstract","A",7.12849594568004,2
"243","5cdb3e9caa4e2a00019a16bc","polite","calibrator_conc_feedback","Concrete","CV",1739278873236,"abstract",1533,"concrete","abstract","concrete;abstract","A",7.33498187887181,3
"244","5cdb3e9caa4e2a00019a16bc","kick","calibrator_conc_feedback","Concrete","CV",1739278878041,"concrete",2045,"concrete","abstract","concrete;abstract","A",7.6231530684769,4
"245","5cdb3e9caa4e2a00019a16bc","marriage","calibrator_conc_feedback","Concrete","CV",1739278882285,"concrete",1488,"concrete","abstract","concrete;abstract","A",7.30518821539304,5
"246","5cdb3e9caa4e2a00019a16bc","grasshopper","calibrator_conc_feedback","Concrete","CV",1739278888308,"concrete",3265,"concrete","abstract","concrete;abstract","A",8.09101504171053,6
"247","5cdb3e9caa4e2a00019a16bc","sugar","calibrator_conc_feedback","Concrete","CV",1739278892780,"concrete",1715,"concrete","abstract","concrete;abstract","A",7.44716835960004,7
"248","5cdb3e9caa4e2a00019a16bc","theory","calibrator_conc_feedback","Concrete","CV",1739278899211,"concrete",3674,"concrete","abstract","concrete;abstract","A",8.20903626577507,8
"249","5cdb3e9caa4e2a00019a16bc","gas","calibrator_conc_feedback","Concrete","CV",1739278903467,"concrete",1503,"concrete","abstract","concrete;abstract","A",7.31521838975297,9
"250","5cdb3e9caa4e2a00019a16bc","insecure","calibrator_conc_feedback","Concrete","CV",1739278907881,"abstract",1653,"concrete","abstract","concrete;abstract","A",7.41034709782102,10
"251","5cdb3e9caa4e2a00019a16bc","whistle","calibrator_conc_no_feedback","Concrete","CV",1739278911606,"concrete",965,"A","concrete;abstract","","",6.87212810133899,11
"252","5cdb3e9caa4e2a00019a16bc","gas","calibrator_conc_no_feedback","Concrete","CV",1739278914228,"concrete",1866,"A","concrete;abstract","","",7.53155238140729,12
"253","5cdb3e9caa4e2a00019a16bc","polite","calibrator_conc_no_feedback","Concrete","CV",1739278915786,"abstract",804,"A","concrete;abstract","","",6.68959926917897,13
"254","5cdb3e9caa4e2a00019a16bc","kick","calibrator_conc_no_feedback","Concrete","CV",1739278918130,"concrete",1591,"A","concrete;abstract","","",7.37211802833779,14
"255","5cdb3e9caa4e2a00019a16bc","insecure","calibrator_conc_no_feedback","Concrete","CV",1739278920218,"abstract",1331,"A","concrete;abstract","","",7.19368581839511,15
"256","5cdb3e9caa4e2a00019a16bc","theory","calibrator_conc_no_feedback","Concrete","CV",1739278922290,"abstract",1316,"A","concrete;abstract","","",7.18235211188526,16
"257","5cdb3e9caa4e2a00019a16bc","grasshopper","calibrator_conc_no_feedback","Concrete","CV",1739278924102,"concrete",1055,"A","concrete;abstract","","",6.96129604591017,17
"258","5cdb3e9caa4e2a00019a16bc","shirt","calibrator_conc_no_feedback","Concrete","CV",1739278926190,"concrete",1330,"A","concrete;abstract","","",7.1929342212158,18
"259","5cdb3e9caa4e2a00019a16bc","sugar","calibrator_conc_no_feedback","Concrete","CV",1739278927938,"concrete",988,"A","concrete;abstract","","",6.89568269774787,19
"260","5cdb3e9caa4e2a00019a16bc","marriage","calibrator_conc_no_feedback","Concrete","CV",1739278929490,"abstract",797,"A","concrete;abstract","","",6.68085467879022,20
"261","5cdb3e9caa4e2a00019a16bc","joke","calibrator_val_feedback","Valence","CV",1739279263100,"positive",1505,"positive","negative","positive;negative","A",7.31654817718298,21
"262","5cdb3e9caa4e2a00019a16bc","free","calibrator_val_feedback","Valence","CV",1739279266787,"positive",927,"positive","negative","positive;negative","A",6.83195356556585,22
"263","5cdb3e9caa4e2a00019a16bc","insecure","calibrator_val_feedback","Valence","CV",1739279270340,"negative",791,"positive","negative","positive;negative","A",6.67329796776765,23
"264","5cdb3e9caa4e2a00019a16bc","hat","calibrator_val_feedback","Valence","CV",1739279273797,"positive",702,"positive","negative","positive;negative","A",6.55393340402581,24
"265","5cdb3e9caa4e2a00019a16bc","kitten","calibrator_val_feedback","Valence","CV",1739279277385,"positive",831,"positive","negative","positive;negative","A",6.72262979485545,25
"266","5cdb3e9caa4e2a00019a16bc","invader","calibrator_val_feedback","Valence","CV",1739279281123,"negative",984,"positive","negative","positive;negative","A",6.89162589705225,26
"267","5cdb3e9caa4e2a00019a16bc","icebox","calibrator_val_feedback","Valence","CV",1739279284511,"positive",630,"positive","negative","positive;negative","A",6.44571981938558,27
"268","5cdb3e9caa4e2a00019a16bc","grin","calibrator_val_feedback","Valence","CV",1739279288038,"positive",767,"positive","negative","positive;negative","A",6.64248680136726,28
"269","5cdb3e9caa4e2a00019a16bc","industry","calibrator_val_feedback","Valence","CV",1739279291849,"positive",1053,"positive","negative","positive;negative","A",6.95939851213398,29
"270","5cdb3e9caa4e2a00019a16bc","jail","calibrator_val_feedback","Valence","CV",1739279296480,"negative",1875,"positive","negative","positive;negative","A",7.53636393840451,30
"271","5cdb3e9caa4e2a00019a16bc","icebox","calibrator_val_no_feedback","Valence","CV",1739279302270,"negative",3035,"A","positive;negative","","",8.0179667034936,31
"272","5cdb3e9caa4e2a00019a16bc","invader","calibrator_val_no_feedback","Valence","CV",1739279304513,"negative",1488,"A","positive;negative","","",7.30518821539304,32
"273","5cdb3e9caa4e2a00019a16bc","free","calibrator_val_no_feedback","Valence","CV",1739279306184,"positive",914,"A","positive;negative","","",6.81783057145415,33
"274","5cdb3e9caa4e2a00019a16bc","industry","calibrator_val_no_feedback","Valence","CV",1739279308245,"negative",1308,"A","positive;negative","","",7.17625453201714,34
"275","5cdb3e9caa4e2a00019a16bc","joke","calibrator_val_no_feedback","Valence","CV",1739279310254,"positive",1254,"A","positive;negative","","",7.13409372119287,35
"276","5cdb3e9caa4e2a00019a16bc","grin","calibrator_val_no_feedback","Valence","CV",1739279311907,"positive",897,"A","positive;negative","","",6.7990558620588,36
"277","5cdb3e9caa4e2a00019a16bc","insecure","calibrator_val_no_feedback","Valence","CV",1739279314223,"negative",1560,"A","positive;negative","","",7.35244110024358,37
"278","5cdb3e9caa4e2a00019a16bc","kitten","calibrator_val_no_feedback","Valence","CV",1739279317925,"positive",2949,"A","positive;negative","","",7.98922140881528,38
"279","5cdb3e9caa4e2a00019a16bc","hat","calibrator_val_no_feedback","Valence","CV",1739279319424,"positive",746,"A","positive;negative","","",6.61472560020376,39
"280","5cdb3e9caa4e2a00019a16bc","jail","calibrator_val_no_feedback","Valence","CV",1739279320949,"negative",772,"A","positive;negative","","",6.64898455002478,40
"281","60b96835d5cbb2261c7fd22c","whistle","calibrator_conc_feedback","Concrete","CV",1739285958073,"concrete",1610,"abstract","concrete","abstract;concrete","B",7.38398945797851,1
"282","60b96835d5cbb2261c7fd22c","shirt","calibrator_conc_feedback","Concrete","CV",1739285963208,"concrete",2371,"abstract","concrete","abstract;concrete","B",7.77106708606541,2
"283","60b96835d5cbb2261c7fd22c","insecure","calibrator_conc_feedback","Concrete","CV",1739285967554,"abstract",1579,"abstract","concrete","abstract;concrete","B",7.36454701425564,3
"284","60b96835d5cbb2261c7fd22c","sugar","calibrator_conc_feedback","Concrete","CV",1739285971865,"concrete",1545,"abstract","concrete","abstract;concrete","B",7.34277918933185,4
"285","60b96835d5cbb2261c7fd22c","marriage","calibrator_conc_feedback","Concrete","CV",1739285975789,"abstract",1157,"abstract","concrete","abstract;concrete","B",7.05358572719368,5
"286","60b96835d5cbb2261c7fd22c","grasshopper","calibrator_conc_feedback","Concrete","CV",1739285979653,"concrete",1099,"abstract","concrete","abstract;concrete","B",7.00215595440362,6
"287","60b96835d5cbb2261c7fd22c","kick","calibrator_conc_feedback","Concrete","CV",1739285985795,"abstract",3378,"abstract","concrete","abstract;concrete","B",8.12503909736775,7
"288","60b96835d5cbb2261c7fd22c","gas","calibrator_conc_feedback","Concrete","CV",1739285992192,"concrete",3630,"abstract","concrete","abstract;concrete","B",8.1969879272589,8
"289","60b96835d5cbb2261c7fd22c","polite","calibrator_conc_feedback","Concrete","CV",1739285996626,"abstract",1670,"abstract","concrete","abstract;concrete","B",7.4205789054108,9
"290","60b96835d5cbb2261c7fd22c","theory","calibrator_conc_feedback","Concrete","CV",1739286000805,"abstract",1415,"abstract","concrete","abstract;concrete","B",7.25488481007734,10
"291","60b96835d5cbb2261c7fd22c","insecure","calibrator_conc_no_feedback","Concrete","CV",1739286004411,"abstract",838,"B","abstract;concrete","","",6.73101810048208,11
"292","60b96835d5cbb2261c7fd22c","kick","calibrator_conc_no_feedback","Concrete","CV",1739286010139,"concrete",4964,"B","abstract;concrete","","",8.5099671463245,12
"293","60b96835d5cbb2261c7fd22c","grasshopper","calibrator_conc_no_feedback","Concrete","CV",1739286011741,"concrete",841,"B","abstract;concrete","","",6.73459165997295,13
"294","60b96835d5cbb2261c7fd22c","marriage","calibrator_conc_no_feedback","Concrete","CV",1739286013784,"abstract",1283,"B","abstract;concrete","","",7.15695636461564,14
"295","60b96835d5cbb2261c7fd22c","sugar","calibrator_conc_no_feedback","Concrete","CV",1739286015610,"concrete",1065,"B","abstract;concrete","","",6.97073007814353,15
"296","60b96835d5cbb2261c7fd22c","whistle","calibrator_conc_no_feedback","Concrete","CV",1739286017546,"concrete",1177,"B","abstract;concrete","","",7.07072410726028,16
"297","60b96835d5cbb2261c7fd22c","polite","calibrator_conc_no_feedback","Concrete","CV",1739286019166,"abstract",859,"B","abstract;concrete","","",6.75576892198425,17
"298","60b96835d5cbb2261c7fd22c","theory","calibrator_conc_no_feedback","Concrete","CV",1739286021475,"abstract",1545,"B","abstract;concrete","","",7.34277918933185,18
"299","60b96835d5cbb2261c7fd22c","gas","calibrator_conc_no_feedback","Concrete","CV",1739286027077,"abstract",4841,"B","abstract;concrete","","",8.4848765899397,19
"300","60b96835d5cbb2261c7fd22c","shirt","calibrator_conc_no_feedback","Concrete","CV",1739286028933,"concrete",1092,"B","abstract;concrete","","",6.99576615630485,20
"301","60b96835d5cbb2261c7fd22c","jail","calibrator_val_feedback","Valence","CV",1739286267636,"negative",3834,"negative","positive","negative;positive","B",8.25166392360559,21
"302","60b96835d5cbb2261c7fd22c","grin","calibrator_val_feedback","Valence","CV",1739286272211,"positive",1810,"negative","positive","negative;positive","B",7.50108212425987,22
"303","60b96835d5cbb2261c7fd22c","icebox","calibrator_val_feedback","Valence","CV",1739286278162,"negative",3188,"negative","positive","negative;positive","B",8.06714903991011,23
"304","60b96835d5cbb2261c7fd22c","joke","calibrator_val_feedback","Valence","CV",1739286283179,"positive",2248,"negative","positive","negative;positive","B",7.71779621101358,24
"305","60b96835d5cbb2261c7fd22c","kitten","calibrator_val_feedback","Valence","CV",1739286289582,"negative",1704,"negative","positive","negative;positive","B",7.44073370738926,25
"306","60b96835d5cbb2261c7fd22c","hat","calibrator_val_feedback","Valence","CV",1739286292991,"positive",2585,"negative","positive","negative;positive","B",7.85748078694253,26
"307","60b96835d5cbb2261c7fd22c","industry","calibrator_val_feedback","Valence","CV",1739286297917,"positive",2163,"negative","positive","negative;positive","B",7.67925142595306,27
"308","60b96835d5cbb2261c7fd22c","free","calibrator_val_feedback","Valence","CV",1739286303559,"positive",2878,"negative","positive","negative;positive","B",7.96485088744731,28
"309","60b96835d5cbb2261c7fd22c","insecure","calibrator_val_feedback","Valence","CV",1739286307921,"negative",1602,"negative","positive","negative;positive","B",7.3790081276283,29
"310","60b96835d5cbb2261c7fd22c","invader","calibrator_val_feedback","Valence","CV",1739286313928,"negative",3243,"negative","positive","negative;positive","B",8.08425410630732,30
"311","60b96835d5cbb2261c7fd22c","hat","calibrator_val_no_feedback","Valence","CV",1739286318268,"positive",1579,"B","negative;positive","","",7.36454701425564,31
"312","60b96835d5cbb2261c7fd22c","insecure","calibrator_val_no_feedback","Valence","CV",1739286319754,"negative",727,"B","negative;positive","","",6.58892647753352,32
"313","60b96835d5cbb2261c7fd22c","jail","calibrator_val_no_feedback","Valence","CV",1739286321434,"negative",921,"B","negative;positive","","",6.82546003625531,33
"314","60b96835d5cbb2261c7fd22c","joke","calibrator_val_no_feedback","Valence","CV",1739286323048,"positive",851,"B","negative;positive","","",6.74641212857337,34
"315","60b96835d5cbb2261c7fd22c","grin","calibrator_val_no_feedback","Valence","CV",1739286325062,"positive",1257,"B","negative;positive","","",7.13648320859025,35
"316","60b96835d5cbb2261c7fd22c","free","calibrator_val_no_feedback","Valence","CV",1739286327296,"positive",1475,"B","negative;positive","","",7.29641326877392,36
"317","60b96835d5cbb2261c7fd22c","invader","calibrator_val_no_feedback","Valence","CV",1739286329078,"negative",1022,"B","negative;positive","","",6.92951677076365,37
"318","60b96835d5cbb2261c7fd22c","kitten","calibrator_val_no_feedback","Valence","CV",1739286330723,"positive",885,"B","negative;positive","","",6.78558764500793,38
"319","60b96835d5cbb2261c7fd22c","icebox","calibrator_val_no_feedback","Valence","CV",1739286332611,"negative",1130,"B","negative;positive","","",7.02997291170639,39
"320","60b96835d5cbb2261c7fd22c","industry","calibrator_val_no_feedback","Valence","CV",1739286334390,"positive",1022,"B","negative;positive","","",6.92951677076365,40
"321","6063a680ba3790e15ab14ba9","invader","calibrator_val_feedback","Valence","VC",1739289602515,"negative",1460,"positive","negative","positive;negative","A",7.28619171470238,1
"322","6063a680ba3790e15ab14ba9","industry","calibrator_val_feedback","Valence","VC",1739289606656,"positive",1356,"positive","negative","positive;negative","A",7.21229446850034,2
"323","6063a680ba3790e15ab14ba9","hat","calibrator_val_feedback","Valence","VC",1739289611166,"positive",1729,"positive","negative","positive;negative","A",7.45529848568329,3
"324","6063a680ba3790e15ab14ba9","joke","calibrator_val_feedback","Valence","VC",1739289615462,"negative",1521,"positive","negative","positive;negative","A",7.32712329225929,4
"325","6063a680ba3790e15ab14ba9","grin","calibrator_val_feedback","Valence","VC",1739289619356,"positive",1109,"positive","negative","positive;negative","A",7.01121398735037,5
"326","6063a680ba3790e15ab14ba9","jail","calibrator_val_feedback","Valence","VC",1739289622932,"negative",792,"positive","negative","positive;negative","A",6.67456139181443,6
"327","6063a680ba3790e15ab14ba9","kitten","calibrator_val_feedback","Valence","VC",1739289626989,"positive",1278,"positive","negative","positive;negative","A",7.15305163493748,7
"328","6063a680ba3790e15ab14ba9","insecure","calibrator_val_feedback","Valence","VC",1739289630525,"negative",768,"positive","negative","positive;negative","A",6.64378973314767,8
"329","6063a680ba3790e15ab14ba9","icebox","calibrator_val_feedback","Valence","VC",1739289634162,"positive",866,"positive","negative","positive;negative","A",6.76388490856244,9
"330","6063a680ba3790e15ab14ba9","free","calibrator_val_feedback","Valence","VC",1739289637958,"positive",1016,"positive","negative","positive;negative","A",6.92362862813843,10
"331","6063a680ba3790e15ab14ba9","insecure","calibrator_val_no_feedback","Valence","VC",1739289641351,"negative",617,"A","positive;negative","","",6.42486902390539,11
"332","6063a680ba3790e15ab14ba9","grin","calibrator_val_no_feedback","Valence","VC",1739289642983,"positive",856,"A","positive;negative","","",6.75227037614174,12
"333","6063a680ba3790e15ab14ba9","joke","calibrator_val_no_feedback","Valence","VC",1739289644417,"negative",660,"A","positive;negative","","",6.49223983502047,13
"334","6063a680ba3790e15ab14ba9","hat","calibrator_val_no_feedback","Valence","VC",1739289645773,"positive",580,"A","positive;negative","","",6.36302810354046,14
"335","6063a680ba3790e15ab14ba9","industry","calibrator_val_no_feedback","Valence","VC",1739289647263,"positive",710,"A","positive;negative","","",6.56526497003536,15
"336","6063a680ba3790e15ab14ba9","free","calibrator_val_no_feedback","Valence","VC",1739289648702,"positive",663,"A","positive;negative","","",6.49677499018586,16
"337","6063a680ba3790e15ab14ba9","invader","calibrator_val_no_feedback","Valence","VC",1739289650083,"negative",610,"A","positive;negative","","",6.41345895716736,17
"338","6063a680ba3790e15ab14ba9","jail","calibrator_val_no_feedback","Valence","VC",1739289651406,"negative",553,"A","positive;negative","","",6.31535800152233,18
"339","6063a680ba3790e15ab14ba9","icebox","calibrator_val_no_feedback","Valence","VC",1739289652781,"positive",600,"A","positive;negative","","",6.39692965521615,19
"340","6063a680ba3790e15ab14ba9","kitten","calibrator_val_no_feedback","Valence","VC",1739289654091,"positive",546,"A","positive;negative","","",6.30261897574491,20
"341","6063a680ba3790e15ab14ba9","theory","calibrator_conc_feedback","Concrete","VC",1739289929944,"abstract",1002,"concrete","abstract","concrete;abstract","A",6.90975328164481,21
"342","6063a680ba3790e15ab14ba9","sugar","calibrator_conc_feedback","Concrete","VC",1739289934061,"concrete",1349,"concrete","abstract","concrete;abstract","A",7.20711885620776,22
"343","6063a680ba3790e15ab14ba9","kick","calibrator_conc_feedback","Concrete","VC",1739289939346,"concrete",2508,"concrete","abstract","concrete;abstract","A",7.82724090175281,23
"344","6063a680ba3790e15ab14ba9","grasshopper","calibrator_conc_feedback","Concrete","VC",1739289944224,"concrete",2100,"concrete","abstract","concrete;abstract","A",7.64969262371151,24
"345","6063a680ba3790e15ab14ba9","whistle","calibrator_conc_feedback","Concrete","VC",1739289948754,"concrete",1749,"concrete","abstract","concrete;abstract","A",7.4667994750186,25
"346","6063a680ba3790e15ab14ba9","insecure","calibrator_conc_feedback","Concrete","VC",1739289952429,"abstract",898,"concrete","abstract","concrete;abstract","A",6.8001700683022,26
"347","6063a680ba3790e15ab14ba9","gas","calibrator_conc_feedback","Concrete","VC",1739289957242,"concrete",2031,"concrete","abstract","concrete;abstract","A",7.61628356158038,27
"348","6063a680ba3790e15ab14ba9","shirt","calibrator_conc_feedback","Concrete","VC",1739289962465,"concrete",2447,"concrete","abstract","concrete;abstract","A",7.80261806344267,28
"349","6063a680ba3790e15ab14ba9","marriage","calibrator_conc_feedback","Concrete","VC",1739289966923,"abstract",1679,"concrete","abstract","concrete;abstract","A",7.42595365707754,29
"350","6063a680ba3790e15ab14ba9","polite","calibrator_conc_feedback","Concrete","VC",1739289971043,"abstract",1341,"concrete","abstract","concrete;abstract","A",7.20117088328168,30
"351","6063a680ba3790e15ab14ba9","insecure","calibrator_conc_no_feedback","Concrete","VC",1739289975280,"abstract",1461,"A","concrete;abstract","","",7.2868764117507,31
"352","6063a680ba3790e15ab14ba9","kick","calibrator_conc_no_feedback","Concrete","VC",1739289977026,"concrete",973,"A","concrete;abstract","","",6.880384082186,32
"353","6063a680ba3790e15ab14ba9","shirt","calibrator_conc_no_feedback","Concrete","VC",1739289978809,"concrete",1006,"A","concrete;abstract","","",6.91373735065968,33
"354","6063a680ba3790e15ab14ba9","theory","calibrator_conc_no_feedback","Concrete","VC",1739289980538,"abstract",960,"A","concrete;abstract","","",6.86693328446188,34
"355","6063a680ba3790e15ab14ba9","grasshopper","calibrator_conc_no_feedback","Concrete","VC",1739289982076,"concrete",759,"A","concrete;abstract","","",6.63200177739563,35
"356","6063a680ba3790e15ab14ba9","whistle","calibrator_conc_no_feedback","Concrete","VC",1739289983508,"concrete",669,"A","concrete;abstract","","",6.50578406012823,36
"357","6063a680ba3790e15ab14ba9","sugar","calibrator_conc_no_feedback","Concrete","VC",1739289984895,"concrete",625,"A","concrete;abstract","","",6.4377516497364,37
"358","6063a680ba3790e15ab14ba9","gas","calibrator_conc_no_feedback","Concrete","VC",1739289986352,"concrete",690,"A","concrete;abstract","","",6.5366915975913,38
"359","6063a680ba3790e15ab14ba9","polite","calibrator_conc_no_feedback","Concrete","VC",1739289988109,"abstract",1000,"A","concrete;abstract","","",6.90775527898214,39
"360","6063a680ba3790e15ab14ba9","marriage","calibrator_conc_no_feedback","Concrete","VC",1739289989619,"abstract",747,"A","concrete;abstract","","",6.61606518513282,40
"361","58ab2db50da7f10001de8e34","industry","calibrator_val_feedback","Valence","VC",1739299114261,"positive",1426,"negative","positive","negative;positive","B",7.26262860097424,1
"362","58ab2db50da7f10001de8e34","free","calibrator_val_feedback","Valence","VC",1739299116901,"positive",906,"negative","positive","negative;positive","B",6.80903930604298,2
"363","58ab2db50da7f10001de8e34","kitten","calibrator_val_feedback","Valence","VC",1739299120259,"positive",580,"negative","positive","negative;positive","B",6.36302810354046,3
"364","58ab2db50da7f10001de8e34","hat","calibrator_val_feedback","Valence","VC",1739299123851,"positive",808,"negative","positive","negative;positive","B",6.69456205852109,4
"365","58ab2db50da7f10001de8e34","grin","calibrator_val_feedback","Valence","VC",1739299127548,"positive",921,"negative","positive","negative;positive","B",6.82546003625531,5
"366","58ab2db50da7f10001de8e34","joke","calibrator_val_feedback","Valence","VC",1739299130969,"positive",649,"negative","positive","negative;positive","B",6.47543271670409,6
"367","58ab2db50da7f10001de8e34","icebox","calibrator_val_feedback","Valence","VC",1739299135247,"negative",1516,"negative","positive","negative;positive","B",7.32383056620232,7
"368","58ab2db50da7f10001de8e34","jail","calibrator_val_feedback","Valence","VC",1739299138812,"negative",783,"negative","positive","negative;positive","B",6.6631326959908,8
"369","58ab2db50da7f10001de8e34","insecure","calibrator_val_feedback","Valence","VC",1739299142586,"negative",995,"negative","positive","negative;positive","B",6.90274273715859,9
"370","58ab2db50da7f10001de8e34","invader","calibrator_val_feedback","Valence","VC",1739299146165,"negative",817,"negative","positive","negative;positive","B",6.70563909486,10
"371","58ab2db50da7f10001de8e34","invader","calibrator_val_no_feedback","Valence","VC",1739299149544,"negative",613,"B","negative;positive","","",6.41836493593621,11
"372","58ab2db50da7f10001de8e34","kitten","calibrator_val_no_feedback","Valence","VC",1739299150880,"positive",568,"B","negative;positive","","",6.34212141872115,12
"373","58ab2db50da7f10001de8e34","joke","calibrator_val_no_feedback","Valence","VC",1739299152300,"positive",648,"B","negative;positive","","",6.47389069635227,13
"374","58ab2db50da7f10001de8e34","insecure","calibrator_val_no_feedback","Valence","VC",1739299153822,"negative",748,"B","negative;positive","","",6.61740297797448,14
"375","58ab2db50da7f10001de8e34","industry","calibrator_val_no_feedback","Valence","VC",1739299156977,"positive",2381,"B","negative;positive","","",7.77527584648686,15
"376","58ab2db50da7f10001de8e34","free","calibrator_val_no_feedback","Valence","VC",1739299158262,"positive",512,"B","negative;positive","","",6.23832462503951,16
"377","58ab2db50da7f10001de8e34","hat","calibrator_val_no_feedback","Valence","VC",1739299159742,"positive",711,"B","negative;positive","","",6.56667242980324,17
"378","58ab2db50da7f10001de8e34","grin","calibrator_val_no_feedback","Valence","VC",1739299161071,"positive",553,"B","negative;positive","","",6.31535800152233,18
"379","58ab2db50da7f10001de8e34","icebox","calibrator_val_no_feedback","Valence","VC",1739299163940,"negative",2100,"B","negative;positive","","",7.64969262371151,19
"380","58ab2db50da7f10001de8e34","jail","calibrator_val_no_feedback","Valence","VC",1739299165363,"negative",659,"B","negative;positive","","",6.49072353450251,20
"381","58ab2db50da7f10001de8e34","theory","calibrator_conc_feedback","Concrete","VC",1739299393307,"abstract",1301,"abstract","concrete","abstract;concrete","B",7.1708884785125,21
"382","58ab2db50da7f10001de8e34","polite","calibrator_conc_feedback","Concrete","VC",1739299396815,"concrete",742,"abstract","concrete","abstract;concrete","B",6.60934924316738,22
"383","58ab2db50da7f10001de8e34","marriage","calibrator_conc_feedback","Concrete","VC",1739299401634,"concrete",2041,"abstract","concrete","abstract;concrete","B",7.62119516280984,23
"384","58ab2db50da7f10001de8e34","sugar","calibrator_conc_feedback","Concrete","VC",1739299405852,"concrete",1435,"abstract","concrete","abstract;concrete","B",7.26892012819372,24
"385","58ab2db50da7f10001de8e34","kick","calibrator_conc_feedback","Concrete","VC",1739299409571,"concrete",946,"abstract","concrete","abstract;concrete","B",6.85224256905188,25
"386","58ab2db50da7f10001de8e34","gas","calibrator_conc_feedback","Concrete","VC",1739299413616,"concrete",1270,"abstract","concrete","abstract;concrete","B",7.14677217945264,26
"387","58ab2db50da7f10001de8e34","whistle","calibrator_conc_feedback","Concrete","VC",1739299417345,"concrete",952,"abstract","concrete","abstract;concrete","B",6.85856503479136,27
"388","58ab2db50da7f10001de8e34","grasshopper","calibrator_conc_feedback","Concrete","VC",1739299421045,"concrete",936,"abstract","concrete","abstract;concrete","B",6.84161547647759,28
"389","58ab2db50da7f10001de8e34","insecure","calibrator_conc_feedback","Concrete","VC",1739299424914,"concrete",1094,"abstract","concrete","abstract;concrete","B",6.99759598298193,29
"390","58ab2db50da7f10001de8e34","shirt","calibrator_conc_feedback","Concrete","VC",1739299428463,"concrete",767,"abstract","concrete","abstract;concrete","B",6.64248680136726,30
"391","58ab2db50da7f10001de8e34","marriage","calibrator_conc_no_feedback","Concrete","VC",1739299432893,"concrete",1660,"B","abstract;concrete","","",7.41457288135059,31
"392","58ab2db50da7f10001de8e34","polite","calibrator_conc_no_feedback","Concrete","VC",1739299434659,"abstract",1005,"B","abstract;concrete","","",6.91274282049318,32
"393","58ab2db50da7f10001de8e34","whistle","calibrator_conc_no_feedback","Concrete","VC",1739299436405,"concrete",978,"B","abstract;concrete","","",6.88550967003482,33
"394","58ab2db50da7f10001de8e34","kick","calibrator_conc_no_feedback","Concrete","VC",1739299437885,"concrete",719,"B","abstract;concrete","","",6.57786135772105,34
"395","58ab2db50da7f10001de8e34","insecure","calibrator_conc_no_feedback","Concrete","VC",1739299439723,"abstract",1068,"B","abstract;concrete","","",6.97354301952014,35
"396","58ab2db50da7f10001de8e34","shirt","calibrator_conc_no_feedback","Concrete","VC",1739299441074,"concrete",581,"B","abstract;concrete","","",6.36475075685191,36
"397","58ab2db50da7f10001de8e34","gas","calibrator_conc_no_feedback","Concrete","VC",1739299442731,"concrete",893,"B","abstract;concrete","","",6.7945865808765,37
"398","58ab2db50da7f10001de8e34","sugar","calibrator_conc_no_feedback","Concrete","VC",1739299444064,"concrete",563,"B","abstract;concrete","","",6.33327962813969,38
"399","58ab2db50da7f10001de8e34","theory","calibrator_conc_no_feedback","Concrete","VC",1739299446024,"abstract",1190,"B","abstract;concrete","","",7.08170858610557,39
"400","58ab2db50da7f10001de8e34","grasshopper","calibrator_conc_no_feedback","Concrete","VC",1739299447557,"concrete",762,"B","abstract;concrete","","",6.63594655568665,40
"401","5f36e3d19ff99d12681ffca7","jail","calibrator_val_feedback","Valence","VC",1739295393299,"negative",1745,"negative","positive","negative;positive","B",7.46450983463653,1
"402","5f36e3d19ff99d12681ffca7","insecure","calibrator_val_feedback","Valence","VC",1739295396741,"negative",1466,"negative","positive","negative;positive","B",7.2902928824466,2
"403","5f36e3d19ff99d12681ffca7","industry","calibrator_val_feedback","Valence","VC",1739295400934,"positive",1974,"negative","positive","negative;positive","B",7.58781721999343,3
"404","5f36e3d19ff99d12681ffca7","icebox","calibrator_val_feedback","Valence","VC",1739295405479,"positive",1781,"negative","positive","negative;positive","B",7.48493028328966,4
"405","5f36e3d19ff99d12681ffca7","joke","calibrator_val_feedback","Valence","VC",1739295409648,"positive",1411,"negative","positive","negative;positive","B",7.25205395185281,5
"406","5f36e3d19ff99d12681ffca7","kitten","calibrator_val_feedback","Valence","VC",1739295413699,"positive",1283,"negative","positive","negative;positive","B",7.15695636461564,6
"407","5f36e3d19ff99d12681ffca7","free","calibrator_val_feedback","Valence","VC",1739295417711,"positive",1246,"negative","positive","negative;positive","B",7.1276936993474,7
"408","5f36e3d19ff99d12681ffca7","grin","calibrator_val_feedback","Valence","VC",1739295421663,"positive",1182,"negative","positive","negative;positive","B",7.07496319796604,8
"409","5f36e3d19ff99d12681ffca7","invader","calibrator_val_feedback","Valence","VC",1739295426254,"negative",1827,"negative","positive","negative;positive","B",7.51043055637801,9
"410","5f36e3d19ff99d12681ffca7","hat","calibrator_val_feedback","Valence","VC",1739295430461,"positive",1445,"negative","positive","negative;positive","B",7.27586460054653,10
"411","5f36e3d19ff99d12681ffca7","joke","calibrator_val_no_feedback","Valence","VC",1739295434191,"positive",967,"B","negative;positive","","",6.87419849545329,11
"412","5f36e3d19ff99d12681ffca7","invader","calibrator_val_no_feedback","Valence","VC",1739295436207,"negative",1260,"B","negative;positive","","",7.13886699994552,12
"413","5f36e3d19ff99d12681ffca7","insecure","calibrator_val_no_feedback","Valence","VC",1739295438121,"negative",1154,"B","negative;positive","","",7.05098944706805,13
"414","5f36e3d19ff99d12681ffca7","hat","calibrator_val_no_feedback","Valence","VC",1739295439916,"positive",1040,"B","negative;positive","","",6.94697599213542,14
"415","5f36e3d19ff99d12681ffca7","jail","calibrator_val_no_feedback","Valence","VC",1739295441747,"negative",1074,"B","negative;positive","","",6.97914527506881,15
"416","5f36e3d19ff99d12681ffca7","industry","calibrator_val_no_feedback","Valence","VC",1739295443507,"positive",1004,"B","negative;positive","","",6.91174730025167,16
"417","5f36e3d19ff99d12681ffca7","icebox","calibrator_val_no_feedback","Valence","VC",1739295445477,"positive",1212,"B","negative;positive","","",7.10002716662926,17
"418","5f36e3d19ff99d12681ffca7","grin","calibrator_val_no_feedback","Valence","VC",1739295446996,"positive",764,"B","negative;positive","","",6.63856778916652,18
"419","5f36e3d19ff99d12681ffca7","kitten","calibrator_val_no_feedback","Valence","VC",1739295448450,"positive",696,"B","negative;positive","","",6.54534966033442,19
"420","5f36e3d19ff99d12681ffca7","free","calibrator_val_no_feedback","Valence","VC",1739295450255,"positive",1047,"B","negative;positive","","",6.95368421087054,20
"421","5f36e3d19ff99d12681ffca7","kick","calibrator_conc_feedback","Concrete","VC",1739295663524,"abstract",1808,"abstract","concrete","abstract;concrete","B",7.49997654095212,21
"422","5f36e3d19ff99d12681ffca7","theory","calibrator_conc_feedback","Concrete","VC",1739295667469,"abstract",1181,"abstract","concrete","abstract;concrete","B",7.07411681619736,22
"423","5f36e3d19ff99d12681ffca7","whistle","calibrator_conc_feedback","Concrete","VC",1739295671214,"concrete",972,"abstract","concrete","abstract;concrete","B",6.87935580446044,23
"424","5f36e3d19ff99d12681ffca7","grasshopper","calibrator_conc_feedback","Concrete","VC",1739295674890,"concrete",916,"abstract","concrete","abstract;concrete","B",6.82001636467413,24
"425","5f36e3d19ff99d12681ffca7","shirt","calibrator_conc_feedback","Concrete","VC",1739295678971,"concrete",1320,"abstract","concrete","abstract;concrete","B",7.18538701558042,25
"426","5f36e3d19ff99d12681ffca7","polite","calibrator_conc_feedback","Concrete","VC",1739295683108,"abstract",1375,"abstract","concrete","abstract;concrete","B",7.22620901010067,26
"427","5f36e3d19ff99d12681ffca7","marriage","calibrator_conc_feedback","Concrete","VC",1739295686842,"abstract",968,"abstract","concrete","abstract;concrete","B",6.87523208727658,27
"428","5f36e3d19ff99d12681ffca7","sugar","calibrator_conc_feedback","Concrete","VC",1739295690850,"concrete",1238,"abstract","concrete","abstract;concrete","B",7.12125245324454,28
"429","5f36e3d19ff99d12681ffca7","gas","calibrator_conc_feedback","Concrete","VC",1739295694950,"concrete",1334,"abstract","concrete","abstract;concrete","B",7.19593722647557,29
"430","5f36e3d19ff99d12681ffca7","insecure","calibrator_conc_feedback","Concrete","VC",1739295698853,"abstract",1141,"abstract","concrete","abstract;concrete","B",7.03966034986208,30
"431","5f36e3d19ff99d12681ffca7","kick","calibrator_conc_no_feedback","Concrete","VC",1739295702814,"abstract",1191,"B","abstract;concrete","","",7.0825485693553,31
"432","5f36e3d19ff99d12681ffca7","whistle","calibrator_conc_no_feedback","Concrete","VC",1739295704571,"concrete",996,"B","abstract;concrete","","",6.9037472575846,32
"433","5f36e3d19ff99d12681ffca7","shirt","calibrator_conc_no_feedback","Concrete","VC",1739295706248,"concrete",921,"B","abstract;concrete","","",6.82546003625531,33
"434","5f36e3d19ff99d12681ffca7","polite","calibrator_conc_no_feedback","Concrete","VC",1739295707916,"abstract",906,"B","abstract;concrete","","",6.80903930604298,34
"435","5f36e3d19ff99d12681ffca7","theory","calibrator_conc_no_feedback","Concrete","VC",1739295709399,"abstract",723,"B","abstract;concrete","","",6.58340922215876,35
"436","5f36e3d19ff99d12681ffca7","sugar","calibrator_conc_no_feedback","Concrete","VC",1739295710897,"concrete",740,"B","abstract;concrete","","",6.60665018619822,36
"437","5f36e3d19ff99d12681ffca7","marriage","calibrator_conc_no_feedback","Concrete","VC",1739295713035,"concrete",1381,"B","abstract;concrete","","",7.23056315340929,37
"438","5f36e3d19ff99d12681ffca7","insecure","calibrator_conc_no_feedback","Concrete","VC",1739295714837,"abstract",1043,"B","abstract;concrete","","",6.94985645500077,38
"439","5f36e3d19ff99d12681ffca7","grasshopper","calibrator_conc_no_feedback","Concrete","VC",1739295716272,"concrete",677,"B","abstract;concrete","","",6.51767127291227,39
"440","5f36e3d19ff99d12681ffca7","gas","calibrator_conc_no_feedback","Concrete","VC",1739295717916,"concrete",883,"B","abstract;concrete","","",6.78332520060396,40
"441","62676456c3035c8461935d31","jail","calibrator_val_feedback","Valence","VC",1739290105843,"negative",2771,"positive","negative","positive;negative","A",7.92696354486298,1
"442","62676456c3035c8461935d31","hat","calibrator_val_feedback","Valence","VC",1739290109489,"positive",873,"positive","negative","positive;negative","A",6.7719355558396,2
"443","62676456c3035c8461935d31","grin","calibrator_val_feedback","Valence","VC",1739290113785,"positive",1530,"positive","negative","positive;negative","A",7.33302301438648,3
"444","62676456c3035c8461935d31","insecure","calibrator_val_feedback","Valence","VC",1739290117631,"negative",1082,"positive","negative","positive;negative","A",6.98656645940643,4
"445","62676456c3035c8461935d31","kitten","calibrator_val_feedback","Valence","VC",1739290121380,"positive",980,"positive","negative","positive;negative","A",6.88755257166462,5
"446","62676456c3035c8461935d31","industry","calibrator_val_feedback","Valence","VC",1739290125500,"positive",1357,"positive","negative","positive;negative","A",7.21303165983487,6
"447","62676456c3035c8461935d31","free","calibrator_val_feedback","Valence","VC",1739290129278,"positive",1017,"positive","negative","positive;negative","A",6.92461239604856,7
"448","62676456c3035c8461935d31","icebox","calibrator_val_feedback","Valence","VC",1739290133006,"positive",963,"positive","negative","positive;negative","A",6.87005341179813,8
"449","62676456c3035c8461935d31","invader","calibrator_val_feedback","Valence","VC",1739290136693,"negative",915,"positive","negative","positive;negative","A",6.81892406527552,9
"450","62676456c3035c8461935d31","joke","calibrator_val_feedback","Valence","VC",1739290140983,"positive",1513,"positive","negative","positive;negative","A",7.32184971378836,10
"451","62676456c3035c8461935d31","free","calibrator_val_no_feedback","Valence","VC",1739290144461,"positive",713,"A","positive;negative","","",6.5694814204143,11
"452","62676456c3035c8461935d31","invader","calibrator_val_no_feedback","Valence","VC",1739290146178,"negative",954,"A","positive;negative","","",6.86066367144829,12
"453","62676456c3035c8461935d31","insecure","calibrator_val_no_feedback","Valence","VC",1739290147677,"negative",738,"A","positive;negative","","",6.60394382460047,13
"454","62676456c3035c8461935d31","kitten","calibrator_val_no_feedback","Valence","VC",1739290149115,"positive",675,"A","positive;negative","","",6.51471269087253,14
"455","62676456c3035c8461935d31","industry","calibrator_val_no_feedback","Valence","VC",1739290150691,"negative",816,"A","positive;negative","","",6.70441435496411,15
"456","62676456c3035c8461935d31","joke","calibrator_val_no_feedback","Valence","VC",1739290152257,"positive",808,"A","positive;negative","","",6.69456205852109,16
"457","62676456c3035c8461935d31","icebox","calibrator_val_no_feedback","Valence","VC",1739290153701,"positive",683,"A","positive;negative","","",6.52649485957079,17
"458","62676456c3035c8461935d31","jail","calibrator_val_no_feedback","Valence","VC",1739290155177,"negative",717,"A","positive;negative","","",6.57507584059962,18
"459","62676456c3035c8461935d31","grin","calibrator_val_no_feedback","Valence","VC",1739290156623,"positive",686,"A","positive;negative","","",6.53087762772588,19
"460","62676456c3035c8461935d31","hat","calibrator_val_no_feedback","Valence","VC",1739290158049,"positive",665,"A","positive;negative","","",6.49978704065585,20
"461","62676456c3035c8461935d31","grasshopper","calibrator_conc_feedback","Concrete","VC",1739290428787,"concrete",1275,"concrete","abstract","concrete;abstract","A",7.15070145759253,21
"462","62676456c3035c8461935d31","shirt","calibrator_conc_feedback","Concrete","VC",1739290430959,"concrete",831,"concrete","abstract","concrete;abstract","A",6.72262979485545,22
"463","62676456c3035c8461935d31","whistle","calibrator_conc_feedback","Concrete","VC",1739290434585,"concrete",862,"concrete","abstract","concrete;abstract","A",6.75925527066369,23
"464","62676456c3035c8461935d31","kick","calibrator_conc_feedback","Concrete","VC",1739290440539,"abstract",3183,"concrete","abstract","concrete;abstract","A",8.06557942728209,24
"465","62676456c3035c8461935d31","marriage","calibrator_conc_feedback","Concrete","VC",1739290444270,"abstract",969,"concrete","abstract","concrete;abstract","A",6.87626461189077,25
"466","62676456c3035c8461935d31","insecure","calibrator_conc_feedback","Concrete","VC",1739290448145,"abstract",1117,"concrete","abstract","concrete;abstract","A",7.0184017990692,26
"467","62676456c3035c8461935d31","theory","calibrator_conc_feedback","Concrete","VC",1739290451747,"abstract",836,"concrete","abstract","concrete;abstract","A",6.7286286130847,27
"468","62676456c3035c8461935d31","polite","calibrator_conc_feedback","Concrete","VC",1739290455271,"abstract",754,"concrete","abstract","concrete;abstract","A",6.62539236800796,28
"469","62676456c3035c8461935d31","sugar","calibrator_conc_feedback","Concrete","VC",1739290458846,"concrete",807,"concrete","abstract","concrete;abstract","A",6.69332366826995,29
"470","62676456c3035c8461935d31","gas","calibrator_conc_feedback","Concrete","VC",1739290462838,"concrete",1229,"concrete","abstract","concrete;abstract","A",7.11395610956603,30
"471","62676456c3035c8461935d31","insecure","calibrator_conc_no_feedback","Concrete","VC",1739290466322,"abstract",716,"A","concrete;abstract","","",6.57368016696065,31
"472","62676456c3035c8461935d31","polite","calibrator_conc_no_feedback","Concrete","VC",1739290467971,"abstract",891,"A","concrete;abstract","","",6.79234442747081,32
"473","62676456c3035c8461935d31","whistle","calibrator_conc_no_feedback","Concrete","VC",1739290469357,"abstract",623,"A","concrete;abstract","","",6.43454651878745,33
"474","62676456c3035c8461935d31","shirt","calibrator_conc_no_feedback","Concrete","VC",1739290470781,"concrete",667,"A","concrete;abstract","","",6.50279004591562,34
"475","62676456c3035c8461935d31","kick","calibrator_conc_no_feedback","Concrete","VC",1739290472207,"abstract",665,"A","concrete;abstract","","",6.49978704065585,35
"476","62676456c3035c8461935d31","theory","calibrator_conc_no_feedback","Concrete","VC",1739290473841,"abstract",870,"A","concrete;abstract","","",6.76849321164863,36
"477","62676456c3035c8461935d31","grasshopper","calibrator_conc_no_feedback","Concrete","VC",1739290475292,"concrete",690,"A","concrete;abstract","","",6.5366915975913,37
"478","62676456c3035c8461935d31","gas","calibrator_conc_no_feedback","Concrete","VC",1739290476925,"concrete",869,"A","concrete;abstract","","",6.76734312526539,38
"479","62676456c3035c8461935d31","marriage","calibrator_conc_no_feedback","Concrete","VC",1739290478605,"abstract",921,"A","concrete;abstract","","",6.82546003625531,39
"480","62676456c3035c8461935d31","sugar","calibrator_conc_no_feedback","Concrete","VC",1739290480096,"concrete",732,"A","concrete;abstract","","",6.59578051396131,40
"481","5fe354a2e44df4fb4634bbc3","polite","calibrator_conc_feedback","Concrete","CV",1739279191422,"abstract",1317,"concrete","abstract","concrete;abstract","A",7.18311170174328,1
"482","5fe354a2e44df4fb4634bbc3","whistle","calibrator_conc_feedback","Concrete","CV",1739279195917,"concrete",1914,"concrete","abstract","concrete;abstract","A",7.5569505720129,2
"483","5fe354a2e44df4fb4634bbc3","shirt","calibrator_conc_feedback","Concrete","CV",1739279199822,"concrete",1734,"concrete","abstract","concrete;abstract","A",7.45818615734049,3
"484","5fe354a2e44df4fb4634bbc3","insecure","calibrator_conc_feedback","Concrete","CV",1739279203992,"abstract",1407,"concrete","abstract","concrete;abstract","A",7.24921505711439,4
"485","5fe354a2e44df4fb4634bbc3","sugar","calibrator_conc_feedback","Concrete","CV",1739279207575,"concrete",819,"concrete","abstract","concrete;abstract","A",6.70808408385307,5
"486","5fe354a2e44df4fb4634bbc3","kick","calibrator_conc_feedback","Concrete","CV",1739279212527,"concrete",2189,"concrete","abstract","concrete;abstract","A",7.69120009752286,6
"487","5fe354a2e44df4fb4634bbc3","marriage","calibrator_conc_feedback","Concrete","CV",1739279216837,"abstract",1548,"concrete","abstract","concrete;abstract","A",7.34471905414967,7
"488","5fe354a2e44df4fb4634bbc3","grasshopper","calibrator_conc_feedback","Concrete","CV",1739279220432,"concrete",827,"concrete","abstract","concrete;abstract","A",6.71780469502369,8
"489","5fe354a2e44df4fb4634bbc3","gas","calibrator_conc_feedback","Concrete","CV",1739279224862,"concrete",1667,"concrete","abstract","concrete;abstract","A",7.41878088275079,9
"490","5fe354a2e44df4fb4634bbc3","theory","calibrator_conc_feedback","Concrete","CV",1739279228247,"abstract",624,"concrete","abstract","concrete;abstract","A",6.43615036836943,10
"491","5fe354a2e44df4fb4634bbc3","insecure","calibrator_conc_no_feedback","Concrete","CV",1739279231729,"abstract",720,"A","concrete;abstract","","",6.5792512120101,11
"492","5fe354a2e44df4fb4634bbc3","gas","calibrator_conc_no_feedback","Concrete","CV",1739279233313,"concrete",824,"A","concrete;abstract","","",6.71417052990947,12
"493","5fe354a2e44df4fb4634bbc3","theory","calibrator_conc_no_feedback","Concrete","CV",1739279234652,"abstract",580,"A","concrete;abstract","","",6.36302810354046,13
"494","5fe354a2e44df4fb4634bbc3","marriage","calibrator_conc_no_feedback","Concrete","CV",1739279235967,"abstract",554,"A","concrete;abstract","","",6.31716468674728,14
"495","5fe354a2e44df4fb4634bbc3","kick","calibrator_conc_no_feedback","Concrete","CV",1739279237236,"concrete",510,"A","concrete;abstract","","",6.23441072571837,15
"496","5fe354a2e44df4fb4634bbc3","whistle","calibrator_conc_no_feedback","Concrete","CV",1739279238496,"concrete",502,"A","concrete;abstract","","",6.21860011969173,16
"497","5fe354a2e44df4fb4634bbc3","shirt","calibrator_conc_no_feedback","Concrete","CV",1739279240000,"concrete",746,"A","concrete;abstract","","",6.61472560020376,17
"498","5fe354a2e44df4fb4634bbc3","polite","calibrator_conc_no_feedback","Concrete","CV",1739279241593,"abstract",835,"A","concrete;abstract","","",6.72743172485086,18
"499","5fe354a2e44df4fb4634bbc3","sugar","calibrator_conc_no_feedback","Concrete","CV",1739279242886,"concrete",532,"A","concrete;abstract","","",6.27664348934164,19
"500","5fe354a2e44df4fb4634bbc3","grasshopper","calibrator_conc_no_feedback","Concrete","CV",1739279244157,"concrete",512,"A","concrete;abstract","","",6.23832462503951,20
"501","5fe354a2e44df4fb4634bbc3","kitten","calibrator_val_feedback","Valence","CV",1739279444178,"positive",1113,"positive","negative","positive;negative","A",7.01481435127554,21
"502","5fe354a2e44df4fb4634bbc3","hat","calibrator_val_feedback","Valence","CV",1739279447651,"positive",1079,"positive","negative","positive;negative","A",6.98378996525813,22
"503","5fe354a2e44df4fb4634bbc3","grin","calibrator_val_feedback","Valence","CV",1739279450458,"positive",1541,"positive","negative","positive;negative","A",7.34018683532012,23
"504","5fe354a2e44df4fb4634bbc3","insecure","calibrator_val_feedback","Valence","CV",1739279454320,"negative",1094,"positive","negative","positive;negative","A",6.99759598298193,24
"505","5fe354a2e44df4fb4634bbc3","icebox","calibrator_val_feedback","Valence","CV",1739279458728,"positive",1642,"positive","negative","positive;negative","A",7.40367029001237,25
"506","5fe354a2e44df4fb4634bbc3","industry","calibrator_val_feedback","Valence","CV",1739279463285,"positive",1796,"positive","negative","positive;negative","A",7.49331724886215,26
"507","5fe354a2e44df4fb4634bbc3","free","calibrator_val_feedback","Valence","CV",1739279467152,"positive",1107,"positive","negative","positive;negative","A",7.00940893270864,27
"508","5fe354a2e44df4fb4634bbc3","invader","calibrator_val_feedback","Valence","CV",1739279470849,"negative",938,"positive","negative","positive;negative","A",6.84374994900622,28
"509","5fe354a2e44df4fb4634bbc3","joke","calibrator_val_feedback","Valence","CV",1739279474733,"negative",1120,"positive","negative","positive;negative","A",7.02108396428914,29
"510","5fe354a2e44df4fb4634bbc3","jail","calibrator_val_feedback","Valence","CV",1739279478142,"negative",642,"positive","negative","positive;negative","A",6.46458830368996,30
"511","5fe354a2e44df4fb4634bbc3","insecure","calibrator_val_no_feedback","Valence","CV",1739279481744,"negative",842,"A","positive;negative","","",6.73578001424233,31
"512","5fe354a2e44df4fb4634bbc3","kitten","calibrator_val_no_feedback","Valence","CV",1739279483480,"positive",978,"A","positive;negative","","",6.88550967003482,32
"513","5fe354a2e44df4fb4634bbc3","invader","calibrator_val_no_feedback","Valence","CV",1739279484872,"negative",631,"A","positive;negative","","",6.44730586254121,33
"514","5fe354a2e44df4fb4634bbc3","free","calibrator_val_no_feedback","Valence","CV",1739279486345,"positive",713,"A","positive;negative","","",6.5694814204143,34
"515","5fe354a2e44df4fb4634bbc3","hat","calibrator_val_no_feedback","Valence","CV",1739279488073,"positive",967,"A","positive;negative","","",6.87419849545329,35
"516","5fe354a2e44df4fb4634bbc3","jail","calibrator_val_no_feedback","Valence","CV",1739279489718,"negative",886,"A","positive;negative","","",6.78671695060508,36
"517","5fe354a2e44df4fb4634bbc3","grin","calibrator_val_no_feedback","Valence","CV",1739279491156,"positive",677,"A","positive;negative","","",6.51767127291227,37
"518","5fe354a2e44df4fb4634bbc3","joke","calibrator_val_no_feedback","Valence","CV",1739279492970,"positive",1056,"A","positive;negative","","",6.96224346426621,38
"519","5fe354a2e44df4fb4634bbc3","industry","calibrator_val_no_feedback","Valence","CV",1739279494614,"negative",884,"A","positive;negative","","",6.78445706263764,39
"520","5fe354a2e44df4fb4634bbc3","icebox","calibrator_val_no_feedback","Valence","CV",1739279495933,"positive",557,"A","positive;negative","","",6.32256523992728,40
"521","666b5817eadabfbefc40fe1b","whistle","calibrator_conc_feedback","Concrete","CV",1739277519813,"concrete",1965,"concrete","abstract","concrete;abstract","A",7.58324752430336,1
"522","666b5817eadabfbefc40fe1b","theory","calibrator_conc_feedback","Concrete","CV",1739277523996,"abstract",1411,"concrete","abstract","concrete;abstract","A",7.25205395185281,2
"523","666b5817eadabfbefc40fe1b","marriage","calibrator_conc_feedback","Concrete","CV",1739277528673,"abstract",1890,"concrete","abstract","concrete;abstract","A",7.54433210805369,3
"524","666b5817eadabfbefc40fe1b","sugar","calibrator_conc_feedback","Concrete","CV",1739277533087,"concrete",1641,"concrete","abstract","concrete;abstract","A",7.40306109109009,4
"525","666b5817eadabfbefc40fe1b","polite","calibrator_conc_feedback","Concrete","CV",1739277537668,"abstract",1806,"concrete","abstract","concrete;abstract","A",7.49886973397693,5
"526","666b5817eadabfbefc40fe1b","gas","calibrator_conc_feedback","Concrete","CV",1739277542559,"abstract",2126,"concrete","abstract","concrete;abstract","A",7.66199755890189,6
"527","666b5817eadabfbefc40fe1b","kick","calibrator_conc_feedback","Concrete","CV",1739277546489,"concrete",1155,"concrete","abstract","concrete;abstract","A",7.05185562295589,7
"528","666b5817eadabfbefc40fe1b","insecure","calibrator_conc_feedback","Concrete","CV",1739277550107,"abstract",845,"concrete","abstract","concrete;abstract","A",6.73933662735717,8
"529","666b5817eadabfbefc40fe1b","shirt","calibrator_conc_feedback","Concrete","CV",1739277553772,"concrete",891,"concrete","abstract","concrete;abstract","A",6.79234442747081,9
"530","666b5817eadabfbefc40fe1b","grasshopper","calibrator_conc_feedback","Concrete","CV",1739277557471,"concrete",930,"concrete","abstract","concrete;abstract","A",6.8351845861473,10
"531","666b5817eadabfbefc40fe1b","insecure","calibrator_conc_no_feedback","Concrete","CV",1739277561288,"abstract",1051,"A","concrete;abstract","","",6.95749737087695,11
"532","666b5817eadabfbefc40fe1b","gas","calibrator_conc_no_feedback","Concrete","CV",1739277563268,"abstract",1216,"A","concrete;abstract","","",7.10332206252611,12
"533","666b5817eadabfbefc40fe1b","whistle","calibrator_conc_no_feedback","Concrete","CV",1739277565191,"concrete",1158,"A","concrete;abstract","","",7.05444965813294,13
"534","666b5817eadabfbefc40fe1b","sugar","calibrator_conc_no_feedback","Concrete","CV",1739277566724,"concrete",766,"A","concrete;abstract","","",6.64118216974059,14
"535","666b5817eadabfbefc40fe1b","shirt","calibrator_conc_no_feedback","Concrete","CV",1739277568378,"concrete",891,"A","concrete;abstract","","",6.79234442747081,15
"536","666b5817eadabfbefc40fe1b","grasshopper","calibrator_conc_no_feedback","Concrete","CV",1739277569887,"concrete",747,"A","concrete;abstract","","",6.61606518513282,16
"537","666b5817eadabfbefc40fe1b","theory","calibrator_conc_no_feedback","Concrete","CV",1739277571525,"abstract",868,"A","concrete;abstract","","",6.76619171466035,17
"538","666b5817eadabfbefc40fe1b","marriage","calibrator_conc_no_feedback","Concrete","CV",1739277573210,"abstract",917,"A","concrete;abstract","","",6.82110747225646,18
"539","666b5817eadabfbefc40fe1b","polite","calibrator_conc_no_feedback","Concrete","CV",1739277574744,"abstract",773,"A","concrete;abstract","","",6.65027904858742,19
"540","666b5817eadabfbefc40fe1b","kick","calibrator_conc_no_feedback","Concrete","CV",1739277576126,"concrete",617,"A","concrete;abstract","","",6.42486902390539,20
"541","666b5817eadabfbefc40fe1b","kitten","calibrator_val_feedback","Valence","CV",1739277796903,"positive",1183,"positive","negative","positive;negative","A",7.07580886397839,21
"542","666b5817eadabfbefc40fe1b","icebox","calibrator_val_feedback","Valence","CV",1739277801086,"positive",1420,"positive","negative","positive;negative","A",7.25841215059531,22
"543","666b5817eadabfbefc40fe1b","insecure","calibrator_val_feedback","Valence","CV",1739277805630,"negative",1779,"positive","negative","positive;negative","A",7.48380668766583,23
"544","666b5817eadabfbefc40fe1b","joke","calibrator_val_feedback","Valence","CV",1739277809559,"positive",1154,"positive","negative","positive;negative","A",7.05098944706805,24
"545","666b5817eadabfbefc40fe1b","jail","calibrator_val_feedback","Valence","CV",1739277813098,"negative",772,"positive","negative","positive;negative","A",6.64898455002478,25
"546","666b5817eadabfbefc40fe1b","invader","calibrator_val_feedback","Valence","CV",1739277817197,"negative",1323,"positive","negative","positive;negative","A",7.18765716411496,26
"547","666b5817eadabfbefc40fe1b","industry","calibrator_val_feedback","Valence","CV",1739277820943,"positive",977,"positive","negative","positive;negative","A",6.88448665204278,27
"548","666b5817eadabfbefc40fe1b","grin","calibrator_val_feedback","Valence","CV",1739277825558,"positive",1853,"positive","negative","positive;negative","A",7.52456122628536,28
"549","666b5817eadabfbefc40fe1b","hat","calibrator_val_feedback","Valence","CV",1739277829440,"positive",1111,"positive","negative","positive;negative","A",7.01301578963963,29
"550","666b5817eadabfbefc40fe1b","free","calibrator_val_feedback","Valence","CV",1739277833362,"positive",1149,"positive","negative","positive;negative","A",7.04664727784876,30
"551","666b5817eadabfbefc40fe1b","industry","calibrator_val_no_feedback","Valence","CV",1739277836902,"positive",770,"A","positive;negative","","",6.64639051484773,31
"552","666b5817eadabfbefc40fe1b","invader","calibrator_val_no_feedback","Valence","CV",1739277838452,"negative",780,"A","positive;negative","","",6.65929391968364,32
"553","666b5817eadabfbefc40fe1b","jail","calibrator_val_no_feedback","Valence","CV",1739277839923,"negative",703,"A","positive;negative","","",6.55535689181067,33
"554","666b5817eadabfbefc40fe1b","joke","calibrator_val_no_feedback","Valence","CV",1739277841583,"positive",885,"A","positive;negative","","",6.78558764500793,34
"555","666b5817eadabfbefc40fe1b","insecure","calibrator_val_no_feedback","Valence","CV",1739277843118,"negative",767,"A","positive;negative","","",6.64248680136726,35
"556","666b5817eadabfbefc40fe1b","free","calibrator_val_no_feedback","Valence","CV",1739277844619,"positive",731,"A","positive;negative","","",6.59441345974978,36
"557","666b5817eadabfbefc40fe1b","icebox","calibrator_val_no_feedback","Valence","CV",1739277846130,"positive",753,"A","positive;negative","","",6.62406522779989,37
"558","666b5817eadabfbefc40fe1b","kitten","calibrator_val_no_feedback","Valence","CV",1739277847576,"positive",684,"A","positive;negative","","",6.52795791762255,38
"559","666b5817eadabfbefc40fe1b","hat","calibrator_val_no_feedback","Valence","CV",1739277849230,"positive",889,"A","positive;negative","","",6.7900972355139,39
"560","666b5817eadabfbefc40fe1b","grin","calibrator_val_no_feedback","Valence","CV",1739277850749,"positive",751,"A","positive;negative","","",6.62140565176413,40
"561","5f744fb50bfbbd0a01cd5435","marriage","calibrator_conc_feedback","Concrete","CV",1739284215912,"concrete",1931,"abstract","concrete","abstract;concrete","B",7.56579328242851,1
"562","5f744fb50bfbbd0a01cd5435","polite","calibrator_conc_feedback","Concrete","CV",1739284220655,"abstract",1715,"abstract","concrete","abstract;concrete","B",7.44716835960004,2
"563","5f744fb50bfbbd0a01cd5435","kick","calibrator_conc_feedback","Concrete","CV",1739284225544,"concrete",3054,"abstract","concrete","abstract;concrete","B",8.02420748577858,3
"564","5f744fb50bfbbd0a01cd5435","theory","calibrator_conc_feedback","Concrete","CV",1739284231447,"abstract",3119,"abstract","concrete","abstract;concrete","B",8.0452677166078,4
"565","5f744fb50bfbbd0a01cd5435","sugar","calibrator_conc_feedback","Concrete","CV",1739284235535,"concrete",1300,"abstract","concrete","abstract;concrete","B",7.17011954344963,5
"566","5f744fb50bfbbd0a01cd5435","gas","calibrator_conc_feedback","Concrete","CV",1739284241120,"concrete",2806,"abstract","concrete","abstract;concrete","B",7.93951526066241,6
"567","5f744fb50bfbbd0a01cd5435","grasshopper","calibrator_conc_feedback","Concrete","CV",1739284245487,"concrete",1583,"abstract","concrete","abstract;concrete","B",7.36707705988101,7
"568","5f744fb50bfbbd0a01cd5435","whistle","calibrator_conc_feedback","Concrete","CV",1739284249936,"concrete",1678,"abstract","concrete","abstract;concrete","B",7.42535788702715,8
"569","5f744fb50bfbbd0a01cd5435","shirt","calibrator_conc_feedback","Concrete","CV",1739284254239,"concrete",1526,"abstract","concrete","abstract;concrete","B",7.3304052118444,9
"570","5f744fb50bfbbd0a01cd5435","insecure","calibrator_conc_feedback","Concrete","CV",1739284258935,"abstract",1917,"abstract","concrete","abstract;concrete","B",7.55851674304564,10
"571","5f744fb50bfbbd0a01cd5435","whistle","calibrator_conc_no_feedback","Concrete","CV",1739284263303,"concrete",1595,"B","abstract;concrete","","",7.37462901521894,11
"572","5f744fb50bfbbd0a01cd5435","polite","calibrator_conc_no_feedback","Concrete","CV",1739284266097,"abstract",2020,"B","abstract;concrete","","",7.61085279039525,12
"573","5f744fb50bfbbd0a01cd5435","insecure","calibrator_conc_no_feedback","Concrete","CV",1739284269855,"abstract",2992,"B","abstract;concrete","","",8.00369733909437,13
"574","5f744fb50bfbbd0a01cd5435","grasshopper","calibrator_conc_no_feedback","Concrete","CV",1739284271431,"concrete",804,"B","abstract;concrete","","",6.68959926917897,14
"575","5f744fb50bfbbd0a01cd5435","kick","calibrator_conc_no_feedback","Concrete","CV",1739284273623,"concrete",1424,"B","abstract;concrete","","",7.26122509197192,15
"576","5f744fb50bfbbd0a01cd5435","gas","calibrator_conc_no_feedback","Concrete","CV",1739284275247,"concrete",857,"B","abstract;concrete","","",6.75343791859778,16
"577","5f744fb50bfbbd0a01cd5435","marriage","calibrator_conc_no_feedback","Concrete","CV",1739284277238,"concrete",1213,"B","abstract;concrete","","",7.10085190894405,17
"578","5f744fb50bfbbd0a01cd5435","theory","calibrator_conc_no_feedback","Concrete","CV",1739284279584,"abstract",1579,"B","abstract;concrete","","",7.36454701425564,18
"579","5f744fb50bfbbd0a01cd5435","sugar","calibrator_conc_no_feedback","Concrete","CV",1739284281039,"concrete",683,"B","abstract;concrete","","",6.52649485957079,19
