"","ID.true","Word","Label","ConcValCombo","Task","BlockOrder","Group","Response","Accuracy","EventTime","Value","RT","ReactionTime","Key_value_F","Key_value_J","Comments","LogReactionTime","LogRT","TrialNumber"
"1","5d2a3561d3edf900018016a1","Regretful","test_conc","abstract-negative","Concrete","CV","concrete;abstract","abstract",1,1739280129704,"abstract",1579.66666666667,718,"abstract","A","",6.57646956904822,7.36496913329948,1
"2","5d2a3561d3edf900018016a1","Delicious","test_conc","concrete-positive","Concrete","CV","concrete;abstract","abstract",0,1739280131095,"abstract",1447.33333333333,638,"abstract","A","",6.45833828334479,7.27747806177013,2
"3","5d2a3561d3edf900018016a1","Kind","test_conc","abstract-positive","Concrete","CV","concrete;abstract","abstract",1,1739280132684,"abstract",1406.66666666667,831,"abstract","A","",6.72262979485545,7.24897811836195,3
"4","5d2a3561d3edf900018016a1","Rotten","test_conc","concrete-negative","Concrete","CV","concrete;abstract","abstract",0,1739280134211,"abstract",1524.33333333333,770,"abstract","A","",6.64639051484773,7.32931243498995,4
"5","5d2a3561d3edf900018016a1","Grateful","test_conc","abstract-positive","Concrete","CV","concrete;abstract","abstract",1,1739280135937,"abstract",1590.83333333333,969,"abstract","A","",6.87626461189077,7.37201326693179,5
"6","5d2a3561d3edf900018016a1","Smooth","test_conc","concrete-positive","Concrete","CV","concrete;abstract","concrete",1,1739280137640,"concrete",1626.5,947,"abstract","A","",6.85329909318608,7.39418574591341,6
"7","5d2a3561d3edf900018016a1","Sticky","test_conc","concrete-negative","Concrete","CV","concrete;abstract","concrete",1,1739280139049,"concrete",1553,657,"abstract","A","",6.48768401848461,7.34794382314869,7
"8","5d2a3561d3edf900018016a1","Harmonious","test_conc","abstract-positive","Concrete","CV","concrete;abstract","abstract",1,1739280140728,"abstract",1530.66666666667,926,"abstract","A","",6.83087423464618,7.33345864933129,8
"9","5d2a3561d3edf900018016a1","Fearful","test_conc","abstract-negative","Concrete","CV","concrete;abstract","concrete",0,1739280142959,"concrete",1819.83333333333,1474,"abstract","A","",7.29573507274928,7.50650020078601,9
"10","5d2a3561d3edf900018016a1","Generous","test_conc","abstract-positive","Concrete","CV","concrete;abstract","abstract",1,1739280145312,"abstract",1821.83333333333,1600,"abstract","A","",7.37775890822787,7.50759859906578,10
"11","5d2a3561d3edf900018016a1","Hopeful","test_conc","abstract-positive","Concrete","CV","concrete;abstract","abstract",1,1739280147426,"abstract",1634.66666666667,1354,"abstract","A","",7.21081845347222,7.39919418894794,11
"12","5d2a3561d3edf900018016a1","Warm","test_conc","concrete-positive","Concrete","CV","concrete;abstract","concrete",1,1739280149227,"concrete",1548.5,1042,"abstract","A","",6.94889722231331,7.34504199941326,12
"13","5d2a3561d3edf900018016a1","Colorful","test_conc","concrete-positive","Concrete","CV","concrete;abstract","abstract",0,1739280152106,"abstract",1799.16666666667,2122,"abstract","A","",7.66011431917393,7.49507887372085,13
"14","5d2a3561d3edf900018016a1","Rough","test_conc","concrete-negative","Concrete","CV","concrete;abstract","concrete",1,1739280155821,"concrete",1899,2955,"abstract","A","",7.9912539298402,7.54908271081229,14
"15","5d2a3561d3edf900018016a1","Ashamed","test_conc","abstract-negative","Concrete","CV","concrete;abstract","concrete",0,1739280157986,"concrete",1571.33333333333,1409,"abstract","A","",7.25063551189868,7.35967979482797,15
"16","5d2a3561d3edf900018016a1","Smelly","test_conc","concrete-negative","Concrete","CV","concrete;abstract","concrete",1,1739280160148,"concrete",1549.66666666667,1405,"abstract","A","",7.24779258176785,7.34579513302247,16
"17","5d2a3561d3edf900018016a1","Soft","test_conc","concrete-positive","Concrete","CV","concrete;abstract","concrete",1,1739280161893,"concrete",1710.5,988,"abstract","A","",6.89568269774787,7.44454100441766,17
"18","5d2a3561d3edf900018016a1","Resilient","test_conc","abstract-positive","Concrete","CV","concrete;abstract","abstract",1,1739280163370,"abstract",1558.66666666667,720,"abstract","A","",6.5792512120101,7.35158603392385,18
"19","5d2a3561d3edf900018016a1","Dirty","test_conc","concrete-negative","Concrete","CV","concrete;abstract","concrete",1,1739280164932,"concrete",1532.66666666667,805,"abstract","A","",6.69084227741856,7.33476441665502,19
"20","5d2a3561d3edf900018016a1","Fragrant","test_conc","concrete-positive","Concrete","CV","concrete;abstract","abstract",0,1739280166376,"abstract",1582.83333333333,685,"abstract","A","",6.52941883826223,7.3669717690149,20
"21","5d2a3561d3edf900018016a1","Clean","test_conc","concrete-positive","Concrete","CV","concrete;abstract","concrete",1,1739280168191,"concrete",1486,1057,"abstract","A","",6.96318998587024,7.3038432252777,21
"22","5d2a3561d3edf900018016a1","Peaceful","test_conc","abstract-positive","Concrete","CV","concrete;abstract","concrete",0,1739280169668,"concrete",1316.16666666667,718,"abstract","A","",6.57646956904822,7.18247875026953,22
"23","5d2a3561d3edf900018016a1","Lonely","test_conc","abstract-negative","Concrete","CV","concrete;abstract","concrete",0,1739280171211,"concrete",1323,790,"abstract","A","",6.67203294546107,7.18765716411496,23
"24","5d2a3561d3edf900018016a1","Cold","test_conc","concrete-negative","Concrete","CV","concrete;abstract","abstract",0,1739280172970,"abstract",1595.66666666667,1001,"abstract","A","",6.90875477931522,7.3750469007244,24
"25","5d2a3561d3edf900018016a1","Dark","test_conc","concrete-negative","Concrete","CV","concrete;abstract","abstract",0,1739280174830,"abstract",1543.33333333333,1101,"abstract","A","",7.00397413672268,7.34169985841217,25
"26","5d2a3561d3edf900018016a1","Anxious","test_conc","abstract-negative","Concrete","CV","concrete;abstract","abstract",1,1739280176438,"abstract",1447.5,849,"abstract","A","",6.74405918631135,7.27759320944715,26
"27","5d2a3561d3edf900018016a1","Inspiring","test_conc","abstract-positive","Concrete","CV","concrete;abstract","concrete",0,1739280177847,"concrete",1600.16666666667,654,"abstract","A","",6.4831073514572,7.37786306946957,27
"28","5d2a3561d3edf900018016a1","Joyful","test_conc","abstract-positive","Concrete","CV","concrete;abstract","concrete",0,1739280179343,"concrete",1439.66666666667,744,"abstract","A","",6.61204103483309,7.27216688429259,28
"29","5d2a3561d3edf900018016a1","Bitter","test_conc","concrete-negative","Concrete","CV","concrete;abstract","concrete",1,1739280181319,"concrete",1601.33333333333,1223,"abstract","A","",7.10906213568717,7.37859189453176,29
"30","5d2a3561d3edf900018016a1","Bitter","test_conc","abstract-negative","Concrete","CV","concrete;abstract","concrete",0,1739280181319,"concrete",1601.33333333333,1223,"abstract","A","",7.10906213568717,7.37859189453176,30
"31","5d2a3561d3edf900018016a1","Bitter","test_conc","concrete-negative","Concrete","CV","concrete;abstract","abstract",0,1739280183140,"abstract",1601.33333333333,1061,"abstract","A","",6.96696713861398,7.37859189453176,31
"32","5d2a3561d3edf900018016a1","Bitter","test_conc","abstract-negative","Concrete","CV","concrete;abstract","abstract",1,1739280183140,"abstract",1601.33333333333,1061,"abstract","A","",6.96696713861398,7.37859189453176,32
"33","5d2a3561d3edf900018016a1","Cool","test_conc","concrete-positive","Concrete","CV","concrete;abstract","abstract",0,1739280185182,"abstract",1624.66666666667,1285,"abstract","A","",7.15851399732932,7.39305794551704,33
"34","5d2a3561d3edf900018016a1","Helpless","test_conc","abstract-negative","Concrete","CV","concrete;abstract","concrete",0,1739280187032,"concrete",1435.66666666667,1092,"abstract","A","",6.99576615630485,7.269384596386,34
"35","5d2a3561d3edf900018016a1","Loving","test_conc","abstract-positive","Concrete","CV","concrete;abstract","concrete",0,1739280188457,"concrete",1494,662,"abstract","A","",6.49526555593701,7.30921236569276,35
"36","5d2a3561d3edf900018016a1","Hopeless","test_conc","abstract-negative","Concrete","CV","concrete;abstract","abstract",1,1739280189842,"abstract",1672,628,"abstract","A","",6.4425401664682,7.42177579364465,36
"37","5d2a3561d3edf900018016a1","Worthless","test_conc","abstract-negative","Concrete","CV","concrete;abstract","abstract",1,1739280191213,"abstract",1509.5,611,"abstract","A","",6.4150969591716,7.31953374914689,37
"38","5d2a3561d3edf900018016a1","Greasy","test_conc","concrete-negative","Concrete","CV","concrete;abstract","concrete",1,1739280193047,"concrete",1481.83333333333,1074,"abstract","A","",6.97914527506881,7.30103533889308,38
"39","5d2a3561d3edf900018016a1","Noisy","test_conc","concrete-negative","Concrete","CV","concrete;abstract","concrete",1,1739280194600,"concrete",1383,798,"abstract","A","",6.68210859744981,7.23201033166476,39
"40","5d2a3561d3edf900018016a1","Bright","test_conc","concrete-positive","Concrete","CV","concrete;abstract","concrete",1,1739280195978,"concrete",1483.83333333333,621,"abstract","A","",6.43133108193348,7.30238410834562,40
"41","5d2a3561d3edf900018016a1","Despairing","test_conc","abstract-negative","Concrete","CV","concrete;abstract","abstract",1,1739280197618,"abstract",1587.66666666667,882,"abstract","A","",6.78219205600679,7.37002071213275,41
"42","5d2a3561d3edf900018016a1","Fresh","test_conc","concrete-positive","Concrete","CV","concrete;abstract","concrete",1,1739280199027,"concrete",1394.66666666667,651,"abstract","A","",6.47850964220857,7.24041071707665,42
"43","5d2a3561d3edf900018016a1","Rotten","test_conc","concrete-negative","Concrete","CV","concrete;abstract","abstract",0,1739280200675,"abstract",1524.33333333333,893,"abstract","A","",6.7945865808765,7.32931243498995,43
"44","5d2a3561d3edf900018016a1","Greasy","test_conc","concrete-negative","Concrete","CV","concrete;abstract","abstract",0,1739280202369,"abstract",1481.83333333333,937,"abstract","A","",6.84268328223842,7.30103533889308,44
"45","5d2a3561d3edf900018016a1","Loving","test_conc","abstract-positive","Concrete","CV","concrete;abstract","concrete",0,1739280203726,"concrete",1494,603,"abstract","A","",6.40191719672719,7.30921236569276,45
"46","5d2a3561d3edf900018016a1","Soft","test_conc","concrete-positive","Concrete","CV","concrete;abstract","concrete",1,1739280205088,"concrete",1710.5,601,"abstract","A","",6.39859493453521,7.44454100441766,46
"47","5d2a3561d3edf900018016a1","Grateful","test_conc","abstract-positive","Concrete","CV","concrete;abstract","abstract",1,1739280207024,"abstract",1590.83333333333,1180,"abstract","A","",7.07326971745971,7.37201326693179,47
"48","5d2a3561d3edf900018016a1","Resilient","test_conc","abstract-positive","Concrete","CV","concrete;abstract","abstract",1,1739280208881,"abstract",1558.66666666667,1101,"abstract","A","",7.00397413672268,7.35158603392385,48
"49","5d2a3561d3edf900018016a1","Worthless","test_conc","abstract-negative","Concrete","CV","concrete;abstract","abstract",1,1739280211154,"abstract",1509.5,1517,"abstract","A","",7.32448997934853,7.31953374914689,49
"50","5d2a3561d3edf900018016a1","Despairing","test_conc","abstract-negative","Concrete","CV","concrete;abstract","abstract",1,1739280213130,"abstract",1587.66666666667,1223,"abstract","A","",7.10906213568717,7.37002071213275,50
"51","5d2a3561d3edf900018016a1","Joyful","test_conc","abstract-positive","Concrete","CV","concrete;abstract","concrete",0,1739280214396,"concrete",1439.66666666667,506,"abstract","A","",6.22653666928747,7.27216688429259,51
"52","5d2a3561d3edf900018016a1","Helpless","test_conc","abstract-negative","Concrete","CV","concrete;abstract","abstract",1,1739280215866,"abstract",1435.66666666667,717,"abstract","A","",6.57507584059962,7.269384596386,52
"53","5d2a3561d3edf900018016a1","Lonely","test_conc","abstract-negative","Concrete","CV","concrete;abstract","abstract",1,1739280216831,"abstract",1323,208,"abstract","A","",5.33753807970132,7.18765716411496,53
"54","5d2a3561d3edf900018016a1","Bitter","test_conc","concrete-negative","Concrete","CV","concrete;abstract","abstract",0,1739280218939,"abstract",1601.33333333333,1353,"abstract","A","",7.21007962817079,7.37859189453176,54
"55","5d2a3561d3edf900018016a1","Bitter","test_conc","abstract-negative","Concrete","CV","concrete;abstract","abstract",1,1739280218939,"abstract",1601.33333333333,1353,"abstract","A","",7.21007962817079,7.37859189453176,55
"56","5d2a3561d3edf900018016a1","Colorful","test_conc","concrete-positive","Concrete","CV","concrete;abstract","concrete",1,1739280220329,"concrete",1799.16666666667,634,"abstract","A","",6.45204895443723,7.49507887372085,56
"57","5d2a3561d3edf900018016a1","Ashamed","test_conc","abstract-negative","Concrete","CV","concrete;abstract","concrete",0,1739280221928,"concrete",1571.33333333333,844,"abstract","A","",6.73815249459596,7.35967979482797,57
"58","5d2a3561d3edf900018016a1","Fearful","test_conc","abstract-negative","Concrete","CV","concrete;abstract","concrete",0,1739280223697,"concrete",1819.83333333333,1011,"abstract","A","",6.91869521902047,7.50650020078601,58
"59","5d2a3561d3edf900018016a1","Bitter","test_conc","concrete-negative","Concrete","CV","concrete;abstract","concrete",1,1739280225806,"concrete",1601.33333333333,1354,"abstract","A","",7.21081845347222,7.37859189453176,59
"60","5d2a3561d3edf900018016a1","Bitter","test_conc","abstract-negative","Concrete","CV","concrete;abstract","concrete",0,1739280225806,"concrete",1601.33333333333,1354,"abstract","A","",7.21081845347222,7.37859189453176,60
"61","5d2a3561d3edf900018016a1","Smelly","test_conc","concrete-negative","Concrete","CV","concrete;abstract","abstract",0,1739280227529,"abstract",1549.66666666667,966,"abstract","A","",6.87316383421252,7.34579513302247,61
"62","5d2a3561d3edf900018016a1","Warm","test_conc","concrete-positive","Concrete","CV","concrete;abstract","concrete",1,1739280229034,"concrete",1548.5,750,"abstract","A","",6.62007320653036,7.34504199941326,62
"63","5d2a3561d3edf900018016a1","Hopeful","test_conc","abstract-positive","Concrete","CV","concrete;abstract","concrete",0,1739280230640,"concrete",1634.66666666667,847,"abstract","A","",6.74170069465205,7.39919418894794,63
"64","5d2a3561d3edf900018016a1","Rough","test_conc","concrete-negative","Concrete","CV","concrete;abstract","abstract",0,1739280232846,"abstract",1899,1455,"abstract","A","",7.28276117960559,7.54908271081229,64
"65","5d2a3561d3edf900018016a1","Generous","test_conc","abstract-positive","Concrete","CV","concrete;abstract","concrete",0,1739280235471,"concrete",1821.83333333333,1869,"abstract","A","",7.53315880745556,7.50759859906578,65
"66","5d2a3561d3edf900018016a1","Peaceful","test_conc","abstract-positive","Concrete","CV","concrete;abstract","abstract",1,1739280236603,"abstract",1316.16666666667,376,"abstract","A","",5.92958914338989,7.18247875026953,66
"67","5d2a3561d3edf900018016a1","Cold","test_conc","concrete-negative","Concrete","CV","concrete;abstract","abstract",0,1739280238574,"abstract",1595.66666666667,1218,"abstract","A","",7.10496544826984,7.3750469007244,67
"68","5d2a3561d3edf900018016a1","Dark","test_conc","concrete-negative","Concrete","CV","concrete;abstract","abstract",0,1739280240535,"abstract",1543.33333333333,1204,"abstract","A","",7.09340462586877,7.34169985841217,68
"69","5d2a3561d3edf900018016a1","Sticky","test_conc","concrete-negative","Concrete","CV","concrete;abstract","concrete",1,1739280241966,"concrete",1553,676,"abstract","A","",6.51619307604296,7.34794382314869,69
"70","5d2a3561d3edf900018016a1","Harmonious","test_conc","abstract-positive","Concrete","CV","concrete;abstract","concrete",0,1739280244099,"concrete",1530.66666666667,1377,"abstract","A","",7.22766249872865,7.33345864933129,70
"71","5d2a3561d3edf900018016a1","Cool","test_conc","concrete-positive","Concrete","CV","concrete;abstract","abstract",0,1739280246258,"abstract",1624.66666666667,1403,"abstract","A","",7.24636808010246,7.39305794551704,71
"72","5d2a3561d3edf900018016a1","Fresh","test_conc","concrete-positive","Concrete","CV","concrete;abstract","concrete",1,1739280247599,"concrete",1394.66666666667,580,"abstract","A","",6.36302810354046,7.24041071707665,72
"73","5d2a3561d3edf900018016a1","Regretful","test_conc","abstract-negative","Concrete","CV","concrete;abstract","concrete",0,1739280249332,"concrete",1579.66666666667,974,"abstract","A","",6.88141130364254,7.36496913329948,73
"74","5d2a3561d3edf900018016a1","Bright","test_conc","concrete-positive","Concrete","CV","concrete;abstract","concrete",1,1739280251192,"concrete",1483.83333333333,1103,"abstract","A","",7.0057890192535,7.30238410834562,74
"75","5d2a3561d3edf900018016a1","Inspiring","test_conc","abstract-positive","Concrete","CV","concrete;abstract","concrete",0,1739280253962,"concrete",1600.16666666667,2013,"abstract","A","",7.60738142563979,7.37786306946957,75
"76","5d2a3561d3edf900018016a1","Fragrant","test_conc","concrete-positive","Concrete","CV","concrete;abstract","concrete",1,1739280255772,"concrete",1582.83333333333,1053,"abstract","A","",6.95939851213398,7.3669717690149,76
"77","5d2a3561d3edf900018016a1","Kind","test_conc","abstract-positive","Concrete","CV","concrete;abstract","concrete",0,1739280257321,"concrete",1406.66666666667,796,"abstract","A","",6.67959918584438,7.24897811836195,77
"78","5d2a3561d3edf900018016a1","Hopeless","test_conc","abstract-negative","Concrete","CV","concrete;abstract","abstract",1,1739280258678,"abstract",1672,599,"abstract","A","",6.39526159811545,7.42177579364465,78
"79","5d2a3561d3edf900018016a1","Clean","test_conc","concrete-positive","Concrete","CV","concrete;abstract","concrete",1,1739280260075,"concrete",1486,644,"abstract","A","",6.46769872610435,7.3038432252777,79
"80","5d2a3561d3edf900018016a1","Noisy","test_conc","concrete-negative","Concrete","CV","concrete;abstract","concrete",1,1739280261547,"concrete",1383,714,"abstract","A","",6.57088296233958,7.23201033166476,80
"81","5d2a3561d3edf900018016a1","Dirty","test_conc","concrete-negative","Concrete","CV","concrete;abstract","concrete",1,1739280263280,"concrete",1532.66666666667,975,"abstract","A","",6.88243747099785,7.33476441665502,81
"82","5d2a3561d3edf900018016a1","Smooth","test_conc","concrete-positive","Concrete","CV","concrete;abstract","concrete",1,1739280264962,"concrete",1626.5,932,"abstract","A","",6.83733281468559,7.39418574591341,82
"83","5d2a3561d3edf900018016a1","Anxious","test_conc","abstract-negative","Concrete","CV","concrete;abstract","abstract",1,1739280266525,"abstract",1447.5,805,"abstract","A","",6.69084227741856,7.27759320944715,83
"84","5d2a3561d3edf900018016a1","Delicious","test_conc","concrete-positive","Concrete","CV","concrete;abstract","abstract",0,1739280268466,"abstract",1447.33333333333,1180,"abstract","A","",7.07326971745971,7.27747806177013,84
"85","5d2a3561d3edf900018016a1","Fearful","test_conc","abstract-negative","Concrete","CV","concrete;abstract","concrete",0,1739280271173,"concrete",1819.83333333333,1952,"abstract","A","",7.57660976697304,7.50650020078601,85
"86","5d2a3561d3edf900018016a1","Colorful","test_conc","concrete-positive","Concrete","CV","concrete;abstract","concrete",1,1739280273284,"concrete",1799.16666666667,1355,"abstract","A","",7.2115567333138,7.49507887372085,86
"87","5d2a3561d3edf900018016a1","Regretful","test_conc","abstract-negative","Concrete","CV","concrete;abstract","abstract",1,1739280275028,"abstract",1579.66666666667,989,"abstract","A","",6.89669433162271,7.36496913329948,87
"88","5d2a3561d3edf900018016a1","Cool","test_conc","concrete-positive","Concrete","CV","concrete;abstract","abstract",0,1739280276464,"abstract",1624.66666666667,680,"abstract","A","",6.52209279817015,7.39305794551704,88
"89","5d2a3561d3edf900018016a1","Generous","test_conc","abstract-positive","Concrete","CV","concrete;abstract","concrete",0,1739280278475,"concrete",1821.83333333333,1252,"abstract","A","",7.13249755166004,7.50759859906578,89
"90","5d2a3561d3edf900018016a1","Soft","test_conc","concrete-positive","Concrete","CV","concrete;abstract","concrete",1,1739280280634,"concrete",1710.5,1403,"abstract","A","",7.24636808010246,7.44454100441766,90
"91","5d2a3561d3edf900018016a1","Delicious","test_conc","concrete-positive","Concrete","CV","concrete;abstract","concrete",1,1739280282061,"concrete",1447.33333333333,671,"abstract","A","",6.50876913697168,7.27747806177013,91
"92","5d2a3561d3edf900018016a1","Hopeful","test_conc","abstract-positive","Concrete","CV","concrete;abstract","concrete",0,1739280284062,"concrete",1634.66666666667,1240,"abstract","A","",7.12286665859908,7.39919418894794,92
"93","5d2a3561d3edf900018016a1","Loving","test_conc","abstract-positive","Concrete","CV","concrete;abstract","concrete",0,1739280285438,"concrete",1494,621,"abstract","A","",6.43133108193348,7.30921236569276,93
"94","5d2a3561d3edf900018016a1","Sticky","test_conc","concrete-negative","Concrete","CV","concrete;abstract","concrete",1,1739280287465,"concrete",1553,1268,"abstract","A","",7.14519613499717,7.34794382314869,94
"95","5d2a3561d3edf900018016a1","Harmonious","test_conc","abstract-positive","Concrete","CV","concrete;abstract","concrete",0,1739280288872,"concrete",1530.66666666667,652,"abstract","A","",6.48004456192665,7.33345864933129,95
"96","5d2a3561d3edf900018016a1","Grateful","test_conc","abstract-positive","Concrete","CV","concrete;abstract","concrete",0,1739280290599,"concrete",1590.83333333333,967,"abstract","A","",6.87419849545329,7.37201326693179,96
"97","5d2a3561d3edf900018016a1","Hopeless","test_conc","abstract-negative","Concrete","CV","concrete;abstract","abstract",1,1739280291970,"abstract",1672,611,"abstract","A","",6.4150969591716,7.42177579364465,97
"98","5d2a3561d3edf900018016a1","Inspiring","test_conc","abstract-positive","Concrete","CV","concrete;abstract","concrete",0,1739280293465,"concrete",1600.16666666667,738,"abstract","A","",6.60394382460047,7.37786306946957,98
"99","5d2a3561d3edf900018016a1","Smelly","test_conc","concrete-negative","Concrete","CV","concrete;abstract","concrete",1,1739280294791,"concrete",1549.66666666667,572,"abstract","A","",6.3491389913798,7.34579513302247,99
"100","5d2a3561d3edf900018016a1","Bitter","test_conc","concrete-negative","Concrete","CV","concrete;abstract","abstract",0,1739280296403,"abstract",1601.33333333333,857,"abstract","A","",6.75343791859778,7.37859189453176,100
"101","5d2a3561d3edf900018016a1","Bitter","test_conc","abstract-negative","Concrete","CV","concrete;abstract","abstract",1,1739280296403,"abstract",1601.33333333333,857,"abstract","A","",6.75343791859778,7.37859189453176,101
"102","5d2a3561d3edf900018016a1","Despairing","test_conc","abstract-negative","Concrete","CV","concrete;abstract","abstract",1,1739280297790,"abstract",1587.66666666667,626,"abstract","A","",6.4393503711001,7.37002071213275,102
"103","5d2a3561d3edf900018016a1","Clean","test_conc","concrete-positive","Concrete","CV","concrete;abstract","concrete",1,1739280299239,"concrete",1486,692,"abstract","A","",6.53958595561767,7.3038432252777,103
"104","5d2a3561d3edf900018016a1","Anxious","test_conc","abstract-negative","Concrete","CV","concrete;abstract","abstract",1,1739280300659,"abstract",1447.5,660,"abstract","A","",6.49223983502047,7.27759320944715,104
"105","5d2a3561d3edf900018016a1","Greasy","test_conc","concrete-negative","Concrete","CV","concrete;abstract","abstract",0,1739280302051,"abstract",1481.83333333333,633,"abstract","A","",6.45047042214418,7.30103533889308,105
"106","5d2a3561d3edf900018016a1","Bright","test_conc","concrete-positive","Concrete","CV","concrete;abstract","concrete",1,1739280303506,"concrete",1483.83333333333,698,"abstract","A","",6.54821910276237,7.30238410834562,106
"107","5d2a3561d3edf900018016a1","Bitter","test_conc","concrete-negative","Concrete","CV","concrete;abstract","abstract",0,1739280304994,"abstract",1601.33333333333,729,"abstract","A","",6.59167373200866,7.37859189453176,107
"108","5d2a3561d3edf900018016a1","Bitter","test_conc","abstract-negative","Concrete","CV","concrete;abstract","abstract",1,1739280304994,"abstract",1601.33333333333,729,"abstract","A","",6.59167373200866,7.37859189453176,108
"109","5d2a3561d3edf900018016a1","Fresh","test_conc","concrete-positive","Concrete","CV","concrete;abstract","concrete",1,1739280306433,"concrete",1394.66666666667,680,"abstract","A","",6.52209279817015,7.24041071707665,109
"110","5d2a3561d3edf900018016a1","Fragrant","test_conc","concrete-positive","Concrete","CV","concrete;abstract","abstract",0,1739280307927,"abstract",1582.83333333333,737,"abstract","A","",6.60258789218934,7.3669717690149,110
"111","5d2a3561d3edf900018016a1","Warm","test_conc","concrete-positive","Concrete","CV","concrete;abstract","concrete",1,1739280310050,"concrete",1548.5,1366,"abstract","A","",7.21964204013074,7.34504199941326,111
"112","5d2a3561d3edf900018016a1","Smooth","test_conc","concrete-positive","Concrete","CV","concrete;abstract","concrete",1,1739280311665,"concrete",1626.5,860,"abstract","A","",6.75693238924755,7.39418574591341,112
"113","5d2a3561d3edf900018016a1","Kind","test_conc","abstract-positive","Concrete","CV","concrete;abstract","concrete",0,1739280313132,"concrete",1406.66666666667,710,"abstract","A","",6.56526497003536,7.24897811836195,113
"114","5d2a3561d3edf900018016a1","Lonely","test_conc","abstract-negative","Concrete","CV","concrete;abstract","concrete",0,1739280314497,"concrete",1323,611,"abstract","A","",6.4150969591716,7.18765716411496,114
"115","5d2a3561d3edf900018016a1","Rough","test_conc","concrete-negative","Concrete","CV","concrete;abstract","concrete",1,1739280315922,"concrete",1899,670,"abstract","A","",6.50727771238501,7.54908271081229,115
"116","5d2a3561d3edf900018016a1","Rotten","test_conc","concrete-negative","Concrete","CV","concrete;abstract","abstract",0,1739280317429,"abstract",1524.33333333333,756,"abstract","A","",6.62804137617953,7.32931243498995,116
"117","5d2a3561d3edf900018016a1","Noisy","test_conc","concrete-negative","Concrete","CV","concrete;abstract","concrete",1,1739280318738,"concrete",1383,552,"abstract","A","",6.31354804627709,7.23201033166476,117
"118","5d2a3561d3edf900018016a1","Dark","test_conc","concrete-negative","Concrete","CV","concrete;abstract","abstract",0,1739280320245,"abstract",1543.33333333333,755,"abstract","A","",6.62671774924902,7.34169985841217,118
"119","5d2a3561d3edf900018016a1","Joyful","test_conc","abstract-positive","Concrete","CV","concrete;abstract","concrete",0,1739280321766,"concrete",1439.66666666667,767,"abstract","A","",6.64248680136726,7.27216688429259,119
"120","5d2a3561d3edf900018016a1","Helpless","test_conc","abstract-negative","Concrete","CV","concrete;abstract","abstract",1,1739280323097,"abstract",1435.66666666667,574,"abstract","A","",6.35262939631957,7.269384596386,120
"121","5d2a3561d3edf900018016a1","Worthless","test_conc","abstract-negative","Concrete","CV","concrete;abstract","abstract",1,1739280324309,"abstract",1509.5,456,"abstract","A","",6.12249280951439,7.31953374914689,121
"122","5d2a3561d3edf900018016a1","Peaceful","test_conc","abstract-positive","Concrete","CV","concrete;abstract","concrete",0,1739280325696,"concrete",1316.16666666667,631,"abstract","A","",6.44730586254121,7.18247875026953,122
"123","5d2a3561d3edf900018016a1","Cold","test_conc","concrete-negative","Concrete","CV","concrete;abstract","abstract",0,1739280327014,"abstract",1595.66666666667,561,"abstract","A","",6.3297209055227,7.3750469007244,123
"124","5d2a3561d3edf900018016a1","Resilient","test_conc","abstract-positive","Concrete","CV","concrete;abstract","concrete",0,1739280328824,"concrete",1558.66666666667,1053,"abstract","A","",6.95939851213398,7.35158603392385,124
"125","5d2a3561d3edf900018016a1","Dirty","test_conc","concrete-negative","Concrete","CV","concrete;abstract","concrete",1,1739280330795,"concrete",1532.66666666667,1217,"abstract","A","",7.10414409298753,7.33476441665502,125
"126","5d2a3561d3edf900018016a1","Ashamed","test_conc","abstract-negative","Concrete","CV","concrete;abstract","abstract",1,1739280332329,"abstract",1571.33333333333,778,"abstract","A","",6.65672652417839,7.35967979482797,126
"127","5d2a3561d3edf900018016a1","Bright","test_val","concrete-positive","Valence","CV","positive;negative","positive",1,1739280661369,"positive",1483.83333333333,855,"negative","A","",6.75110146893676,7.30238410834562,127
"128","5d2a3561d3edf900018016a1","Bitter","test_val","concrete-negative","Valence","CV","positive;negative","negative",1,1739280662721,"negative",1601.33333333333,593,"negative","A","",6.38519439899773,7.37859189453176,128
"129","5d2a3561d3edf900018016a1","Bitter","test_val","abstract-negative","Valence","CV","positive;negative","negative",1,1739280662721,"negative",1601.33333333333,593,"negative","A","",6.38519439899773,7.37859189453176,129
"130","5d2a3561d3edf900018016a1","Soft","test_val","concrete-positive","Valence","CV","positive;negative","positive",1,1739280664066,"positive",1710.5,586,"negative","A","",6.37331978957701,7.44454100441766,130
"131","5d2a3561d3edf900018016a1","Dark","test_val","concrete-negative","Valence","CV","positive;negative","negative",1,1739280665429,"negative",1543.33333333333,610,"negative","A","",6.41345895716736,7.34169985841217,131
"132","5d2a3561d3edf900018016a1","Greasy","test_val","concrete-negative","Valence","CV","positive;negative","negative",1,1739280666719,"negative",1481.83333333333,531,"negative","A","",6.27476202124194,7.30103533889308,132
"133","5d2a3561d3edf900018016a1","Rough","test_val","concrete-negative","Valence","CV","positive;negative","negative",1,1739280667999,"negative",1899,523,"negative","A","",6.25958146406492,7.54908271081229,133
"134","5d2a3561d3edf900018016a1","Hopeful","test_val","abstract-positive","Valence","CV","positive;negative","positive",1,1739280669291,"positive",1634.66666666667,537,"negative","A","",6.28599809450886,7.39919418894794,134
"135","5d2a3561d3edf900018016a1","Noisy","test_val","concrete-negative","Valence","CV","positive;negative","negative",1,1739280670572,"negative",1383,523,"negative","A","",6.25958146406492,7.23201033166476,135
"136","5d2a3561d3edf900018016a1","Lonely","test_val","abstract-negative","Valence","CV","positive;negative","negative",1,1739280671915,"negative",1323,591,"negative","A","",6.3818160174061,7.18765716411496,136
"137","5d2a3561d3edf900018016a1","Kind","test_val","abstract-positive","Valence","CV","positive;negative","positive",1,1739280673123,"positive",1406.66666666667,446,"negative","A","",6.10031895202006,7.24897811836195,137
"138","5d2a3561d3edf900018016a1","Rotten","test_val","concrete-negative","Valence","CV","positive;negative","negative",1,1739280674474,"negative",1524.33333333333,595,"negative","A","",6.38856140554563,7.32931243498995,138
"139","5d2a3561d3edf900018016a1","Anxious","test_val","abstract-negative","Valence","CV","positive;negative","negative",1,1739280675884,"negative",1447.5,654,"negative","A","",6.4831073514572,7.27759320944715,139
"140","5d2a3561d3edf900018016a1","Cold","test_val","concrete-negative","Valence","CV","positive;negative","negative",1,1739280677259,"negative",1595.66666666667,620,"negative","A","",6.42971947803914,7.3750469007244,140
"141","5d2a3561d3edf900018016a1","Smelly","test_val","concrete-negative","Valence","CV","positive;negative","negative",1,1739280678669,"negative",1549.66666666667,656,"negative","A","",6.48616078894409,7.34579513302247,141
"142","5d2a3561d3edf900018016a1","Regretful","test_val","abstract-negative","Valence","CV","positive;negative","negative",1,1739280680125,"negative",1579.66666666667,697,"negative","A","",6.54678541076052,7.36496913329948,142
"143","5d2a3561d3edf900018016a1","Delicious","test_val","concrete-positive","Valence","CV","positive;negative","positive",1,1739280681440,"positive",1447.33333333333,562,"negative","A","",6.33150184989369,7.27747806177013,143
"144","5d2a3561d3edf900018016a1","Peaceful","test_val","abstract-positive","Valence","CV","positive;negative","positive",1,1739280682689,"positive",1316.16666666667,492,"negative","A","",6.19847871649231,7.18247875026953,144
"145","5d2a3561d3edf900018016a1","Cool","test_val","concrete-positive","Valence","CV","positive;negative","positive",1,1739280683957,"positive",1624.66666666667,513,"negative","A","",6.24027584517077,7.39305794551704,145
"146","5d2a3561d3edf900018016a1","Harmonious","test_val","abstract-positive","Valence","CV","positive;negative","positive",1,1739280685302,"positive",1530.66666666667,587,"negative","A","",6.3750248198281,7.33345864933129,146
"147","5d2a3561d3edf900018016a1","Bitter","test_val","concrete-negative","Valence","CV","positive;negative","negative",1,1739280686613,"negative",1601.33333333333,553,"negative","A","",6.31535800152233,7.37859189453176,147
"148","5d2a3561d3edf900018016a1","Bitter","test_val","abstract-negative","Valence","CV","positive;negative","negative",1,1739280686613,"negative",1601.33333333333,553,"negative","A","",6.31535800152233,7.37859189453176,148
"149","5d2a3561d3edf900018016a1","Inspiring","test_val","abstract-positive","Valence","CV","positive;negative","positive",1,1739280687946,"positive",1600.16666666667,576,"negative","A","",6.35610766069589,7.37786306946957,149
"150","5d2a3561d3edf900018016a1","Dirty","test_val","concrete-negative","Valence","CV","positive;negative","negative",1,1739280689217,"negative",1532.66666666667,516,"negative","A","",6.24610676548156,7.33476441665502,150
"151","5d2a3561d3edf900018016a1","Despairing","test_val","abstract-negative","Valence","CV","positive;negative","negative",1,1739280690812,"negative",1587.66666666667,833,"negative","A","",6.72503364216684,7.37002071213275,151
"152","5d2a3561d3edf900018016a1","Grateful","test_val","abstract-positive","Valence","CV","positive;negative","positive",1,1739280692076,"positive",1590.83333333333,506,"negative","A","",6.22653666928747,7.37201326693179,152
"153","5d2a3561d3edf900018016a1","Ashamed","test_val","abstract-negative","Valence","CV","positive;negative","negative",1,1739280693451,"negative",1571.33333333333,621,"negative","A","",6.43133108193348,7.35967979482797,153
"154","5d2a3561d3edf900018016a1","Clean","test_val","concrete-positive","Valence","CV","positive;negative","positive",1,1739280694807,"positive",1486,598,"negative","A","",6.39359075395063,7.3038432252777,154
"155","5d2a3561d3edf900018016a1","Sticky","test_val","concrete-negative","Valence","CV","positive;negative","negative",1,1739280696469,"negative",1553,907,"negative","A","",6.81014245011514,7.34794382314869,155
"156","5d2a3561d3edf900018016a1","Hopeless","test_val","abstract-negative","Valence","CV","positive;negative","positive",0,1739280697673,"positive",1672,447,"negative","A","",6.10255859461357,7.42177579364465,156
"157","5d2a3561d3edf900018016a1","Colorful","test_val","concrete-positive","Valence","CV","positive;negative","positive",1,1739280699443,"positive",1799.16666666667,1010,"negative","A","",6.9177056098353,7.49507887372085,157
"158","5d2a3561d3edf900018016a1","Resilient","test_val","abstract-positive","Valence","CV","positive;negative","positive",1,1739280700854,"positive",1558.66666666667,651,"negative","A","",6.47850964220857,7.35158603392385,158
"159","5d2a3561d3edf900018016a1","Fresh","test_val","concrete-positive","Valence","CV","positive;negative","positive",1,1739280702296,"positive",1394.66666666667,685,"negative","A","",6.52941883826223,7.24041071707665,159
"160","5d2a3561d3edf900018016a1","Helpless","test_val","abstract-negative","Valence","CV","positive;negative","negative",1,1739280703628,"negative",1435.66666666667,579,"negative","A","",6.361302477573,7.269384596386,160
"161","5d2a3561d3edf900018016a1","Fearful","test_val","abstract-negative","Valence","CV","positive;negative","negative",1,1739280704988,"negative",1819.83333333333,605,"negative","A","",6.40522845803084,7.50650020078601,161
"162","5d2a3561d3edf900018016a1","Generous","test_val","abstract-positive","Valence","CV","positive;negative","positive",1,1739280706378,"positive",1821.83333333333,631,"negative","A","",6.44730586254121,7.50759859906578,162
"163","5d2a3561d3edf900018016a1","Worthless","test_val","abstract-negative","Valence","CV","positive;negative","negative",1,1739280707827,"negative",1509.5,693,"negative","A","",6.5410299991899,7.31953374914689,163
"164","5d2a3561d3edf900018016a1","Smooth","test_val","concrete-positive","Valence","CV","positive;negative","positive",1,1739280709347,"positive",1626.5,768,"negative","A","",6.64378973314767,7.39418574591341,164
"165","5d2a3561d3edf900018016a1","Warm","test_val","concrete-positive","Valence","CV","positive;negative","positive",1,1739280710642,"positive",1548.5,537,"negative","A","",6.28599809450886,7.34504199941326,165
"166","5d2a3561d3edf900018016a1","Loving","test_val","abstract-positive","Valence","CV","positive;negative","positive",1,1739280712680,"positive",1494,1280,"negative","A","",7.15461535691366,7.30921236569276,166
"167","5d2a3561d3edf900018016a1","Joyful","test_val","abstract-positive","Valence","CV","positive;negative","positive",1,1739280714439,"positive",1439.66666666667,1005,"negative","A","",6.91274282049318,7.27216688429259,167
"168","5d2a3561d3edf900018016a1","Fragrant","test_val","concrete-positive","Valence","CV","positive;negative","positive",1,1739280716313,"positive",1582.83333333333,1118,"negative","A","",7.01929665371504,7.3669717690149,168
"169","5d2a3561d3edf900018016a1","Rough","test_val","concrete-negative","Valence","CV","positive;negative","negative",1,1739280717835,"negative",1899,764,"negative","A","",6.63856778916652,7.54908271081229,169
"170","5d2a3561d3edf900018016a1","Delicious","test_val","concrete-positive","Valence","CV","positive;negative","positive",1,1739280719144,"positive",1447.33333333333,549,"negative","A","",6.30809844150953,7.27747806177013,170
"171","5d2a3561d3edf900018016a1","Worthless","test_val","abstract-negative","Valence","CV","positive;negative","negative",1,1739280720509,"negative",1509.5,609,"negative","A","",6.4118182677099,7.31953374914689,171
"172","5d2a3561d3edf900018016a1","Warm","test_val","concrete-positive","Valence","CV","positive;negative","positive",1,1739280721865,"positive",1548.5,598,"negative","A","",6.39359075395063,7.34504199941326,172
"173","5d2a3561d3edf900018016a1","Joyful","test_val","abstract-positive","Valence","CV","positive;negative","positive",1,1739280723203,"positive",1439.66666666667,583,"negative","A","",6.36818718635049,7.27216688429259,173
"174","5d2a3561d3edf900018016a1","Fragrant","test_val","concrete-positive","Valence","CV","positive;negative","positive",1,1739280724732,"positive",1582.83333333333,773,"negative","A","",6.65027904858742,7.3669717690149,174
"175","5d2a3561d3edf900018016a1","Despairing","test_val","abstract-negative","Valence","CV","positive;negative","negative",1,1739280726182,"negative",1587.66666666667,697,"negative","A","",6.54678541076052,7.37002071213275,175
"176","5d2a3561d3edf900018016a1","Ashamed","test_val","abstract-negative","Valence","CV","positive;negative","negative",1,1739280727599,"negative",1571.33333333333,663,"negative","A","",6.49677499018586,7.35967979482797,176
"177","5d2a3561d3edf900018016a1","Hopeless","test_val","abstract-negative","Valence","CV","positive;negative","negative",1,1739280728972,"negative",1672,612,"negative","A","",6.41673228251233,7.42177579364465,177
"178","5d2a3561d3edf900018016a1","Anxious","test_val","abstract-negative","Valence","CV","positive;negative","negative",1,1739280730379,"negative",1447.5,655,"negative","A","",6.48463523563525,7.27759320944715,178
"179","5d2a3561d3edf900018016a1","Harmonious","test_val","abstract-positive","Valence","CV","positive;negative","positive",1,1739280731703,"positive",1530.66666666667,569,"negative","A","",6.34388043412633,7.33345864933129,179
"180","5d2a3561d3edf900018016a1","Kind","test_val","abstract-positive","Valence","CV","positive;negative","positive",1,1739280732981,"positive",1406.66666666667,520,"negative","A","",6.25382881157547,7.24897811836195,180
"181","5d2a3561d3edf900018016a1","Rotten","test_val","concrete-negative","Valence","CV","positive;negative","negative",1,1739280734361,"negative",1524.33333333333,625,"negative","A","",6.4377516497364,7.32931243498995,181
"182","5d2a3561d3edf900018016a1","Noisy","test_val","concrete-negative","Valence","CV","positive;negative","negative",1,1739280735601,"negative",1383,480,"negative","A","",6.17378610390194,7.23201033166476,182
"183","5d2a3561d3edf900018016a1","Resilient","test_val","abstract-positive","Valence","CV","positive;negative","positive",1,1739280737020,"positive",1558.66666666667,664,"negative","A","",6.49828214947643,7.35158603392385,183
"184","5d2a3561d3edf900018016a1","Fresh","test_val","concrete-positive","Valence","CV","positive;negative","positive",1,1739280738401,"positive",1394.66666666667,624,"negative","A","",6.43615036836943,7.24041071707665,184
"185","5d2a3561d3edf900018016a1","Cool","test_val","concrete-positive","Valence","CV","positive;negative","positive",1,1739280739649,"positive",1624.66666666667,494,"negative","A","",6.20253551718792,7.39305794551704,185
"186","5d2a3561d3edf900018016a1","Bitter","test_val","concrete-negative","Valence","CV","positive;negative","negative",1,1739280740907,"negative",1601.33333333333,506,"negative","A","",6.22653666928747,7.37859189453176,186
"187","5d2a3561d3edf900018016a1","Bitter","test_val","abstract-negative","Valence","CV","positive;negative","negative",1,1739280740907,"negative",1601.33333333333,506,"negative","A","",6.22653666928747,7.37859189453176,187
"188","5d2a3561d3edf900018016a1","Hopeful","test_val","abstract-positive","Valence","CV","positive;negative","positive",1,1739280742353,"positive",1634.66666666667,692,"negative","A","",6.53958595561767,7.39919418894794,188
"189","5d2a3561d3edf900018016a1","Bitter","test_val","concrete-negative","Valence","CV","positive;negative","negative",1,1739280743966,"negative",1601.33333333333,854,"negative","A","",6.74993119378857,7.37859189453176,189
"190","5d2a3561d3edf900018016a1","Bitter","test_val","abstract-negative","Valence","CV","positive;negative","negative",1,1739280743966,"negative",1601.33333333333,854,"negative","A","",6.74993119378857,7.37859189453176,190
"191","5d2a3561d3edf900018016a1","Peaceful","test_val","abstract-positive","Valence","CV","positive;negative","positive",1,1739280745296,"positive",1316.16666666667,572,"negative","A","",6.3491389913798,7.18247875026953,191
"192","5d2a3561d3edf900018016a1","Grateful","test_val","abstract-positive","Valence","CV","positive;negative","positive",1,1739280746484,"positive",1590.83333333333,434,"negative","A","",6.07304453410041,7.37201326693179,192
"193","5d2a3561d3edf900018016a1","Helpless","test_val","abstract-negative","Valence","CV","positive;negative","negative",1,1739280747795,"negative",1435.66666666667,555,"negative","A","",6.31896811374643,7.269384596386,193
"194","5d2a3561d3edf900018016a1","Soft","test_val","concrete-positive","Valence","CV","positive;negative","positive",1,1739280749158,"positive",1710.5,604,"negative","A","",6.40357419793482,7.44454100441766,194
"195","5d2a3561d3edf900018016a1","Inspiring","test_val","abstract-positive","Valence","CV","positive;negative","positive",1,1739280750477,"positive",1600.16666666667,557,"negative","A","",6.32256523992728,7.37786306946957,195
"196","5d2a3561d3edf900018016a1","Sticky","test_val","concrete-negative","Valence","CV","positive;negative","negative",1,1739280751778,"negative",1553,543,"negative","A","",6.29710931993394,7.34794382314869,196
"197","5d2a3561d3edf900018016a1","Clean","test_val","concrete-positive","Valence","CV","positive;negative","positive",1,1739280753121,"positive",1486,582,"negative","A","",6.36647044773144,7.3038432252777,197
"198","5d2a3561d3edf900018016a1","Generous","test_val","abstract-positive","Valence","CV","positive;negative","positive",1,1739280754381,"positive",1821.83333333333,503,"negative","A","",6.22059017009974,7.50759859906578,198
"199","5d2a3561d3edf900018016a1","Smelly","test_val","concrete-negative","Valence","CV","positive;negative","negative",1,1739280755771,"negative",1549.66666666667,631,"negative","A","",6.44730586254121,7.34579513302247,199
"200","5d2a3561d3edf900018016a1","Smooth","test_val","concrete-positive","Valence","CV","positive;negative","positive",1,1739280757783,"positive",1626.5,1258,"negative","A","",7.13727843726039,7.39418574591341,200
"201","5d2a3561d3edf900018016a1","Cold","test_val","concrete-negative","Valence","CV","positive;negative","positive",0,1739280759191,"positive",1595.66666666667,650,"negative","A","",6.47697236288968,7.3750469007244,201
"202","5d2a3561d3edf900018016a1","Loving","test_val","abstract-positive","Valence","CV","positive;negative","positive",1,1739280760434,"positive",1494,484,"negative","A","",6.18208490671663,7.30921236569276,202
"203","5d2a3561d3edf900018016a1","Lonely","test_val","abstract-negative","Valence","CV","positive;negative","negative",1,1739280761844,"negative",1323,655,"negative","A","",6.48463523563525,7.18765716411496,203
"204","5d2a3561d3edf900018016a1","Bright","test_val","concrete-positive","Valence","CV","positive;negative","positive",1,1739280763164,"positive",1483.83333333333,564,"negative","A","",6.33505425149806,7.30238410834562,204
"205","5d2a3561d3edf900018016a1","Regretful","test_val","abstract-negative","Valence","CV","positive;negative","negative",1,1739280764694,"negative",1579.66666666667,774,"negative","A","",6.65157187358973,7.36496913329948,205
"206","5d2a3561d3edf900018016a1","Colorful","test_val","concrete-positive","Valence","CV","positive;negative","positive",1,1739280766061,"positive",1799.16666666667,612,"negative","A","",6.41673228251233,7.49507887372085,206
"207","5d2a3561d3edf900018016a1","Dirty","test_val","concrete-negative","Valence","CV","positive;negative","negative",1,1739280767388,"negative",1532.66666666667,571,"negative","A","",6.34738920965601,7.33476441665502,207
"208","5d2a3561d3edf900018016a1","Greasy","test_val","concrete-negative","Valence","CV","positive;negative","negative",1,1739280768711,"negative",1481.83333333333,570,"negative","A","",6.3456363608286,7.30103533889308,208
"209","5d2a3561d3edf900018016a1","Fearful","test_val","abstract-negative","Valence","CV","positive;negative","negative",1,1739280770204,"negative",1819.83333333333,740,"negative","A","",6.60665018619822,7.50650020078601,209
"210","5d2a3561d3edf900018016a1","Dark","test_val","concrete-negative","Valence","CV","positive;negative","negative",1,1739280771514,"negative",1543.33333333333,555,"negative","A","",6.31896811374643,7.34169985841217,210
"211","5d2a3561d3edf900018016a1","Fresh","test_val","concrete-positive","Valence","CV","positive;negative","positive",1,1739280772880,"positive",1394.66666666667,610,"negative","A","",6.41345895716736,7.24041071707665,211
"212","5d2a3561d3edf900018016a1","Bitter","test_val","concrete-negative","Valence","CV","positive;negative","negative",1,1739280774189,"negative",1601.33333333333,552,"negative","A","",6.31354804627709,7.37859189453176,212
"213","5d2a3561d3edf900018016a1","Bitter","test_val","abstract-negative","Valence","CV","positive;negative","negative",1,1739280774189,"negative",1601.33333333333,552,"negative","A","",6.31354804627709,7.37859189453176,213
"214","5d2a3561d3edf900018016a1","Kind","test_val","abstract-positive","Valence","CV","positive;negative","positive",1,1739280775548,"positive",1406.66666666667,603,"negative","A","",6.40191719672719,7.24897811836195,214
"215","5d2a3561d3edf900018016a1","Anxious","test_val","abstract-negative","Valence","CV","positive;negative","negative",1,1739280776835,"negative",1447.5,531,"negative","A","",6.27476202124194,7.27759320944715,215
"216","5d2a3561d3edf900018016a1","Hopeful","test_val","abstract-positive","Valence","CV","positive;negative","positive",1,1739280778194,"positive",1634.66666666667,606,"negative","A","",6.40687998606931,7.39919418894794,216
"217","5d2a3561d3edf900018016a1","Smelly","test_val","concrete-negative","Valence","CV","positive;negative","negative",1,1739280779491,"negative",1549.66666666667,541,"negative","A","",6.29341927884648,7.34579513302247,217
"218","5d2a3561d3edf900018016a1","Lonely","test_val","abstract-negative","Valence","CV","positive;negative","negative",1,1739280780811,"negative",1323,567,"negative","A","",6.34035930372775,7.18765716411496,218
"219","5d2a3561d3edf900018016a1","Harmonious","test_val","abstract-positive","Valence","CV","positive;negative","positive",1,1739280782115,"positive",1530.66666666667,550,"negative","A","",6.30991827822652,7.33345864933129,219
"220","5d2a3561d3edf900018016a1","Resilient","test_val","abstract-positive","Valence","CV","positive;negative","positive",1,1739280783502,"positive",1558.66666666667,631,"negative","A","",6.44730586254121,7.35158603392385,220
"221","5d2a3561d3edf900018016a1","Warm","test_val","concrete-positive","Valence","CV","positive;negative","positive",1,1739280784724,"positive",1548.5,468,"negative","A","",6.14846829591765,7.34504199941326,221
"222","5d2a3561d3edf900018016a1","Joyful","test_val","abstract-positive","Valence","CV","positive;negative","positive",1,1739280785992,"positive",1439.66666666667,510,"negative","A","",6.23441072571837,7.27216688429259,222
"223","5d2a3561d3edf900018016a1","Smooth","test_val","concrete-positive","Valence","CV","positive;negative","positive",1,1739280787228,"positive",1626.5,482,"negative","A","",6.1779441140506,7.39418574591341,223
"224","5d2a3561d3edf900018016a1","Sticky","test_val","concrete-negative","Valence","CV","positive;negative","negative",1,1739280788728,"negative",1553,744,"negative","A","",6.61204103483309,7.34794382314869,224
"225","5d2a3561d3edf900018016a1","Hopeless","test_val","abstract-negative","Valence","CV","positive;negative","negative",1,1739280792081,"negative",1672,2598,"negative","A","",7.86249719723055,7.42177579364465,225
"226","5d2a3561d3edf900018016a1","Worthless","test_val","abstract-negative","Valence","CV","positive;negative","negative",1,1739280793479,"negative",1509.5,640,"negative","A","",6.46146817635372,7.31953374914689,226
"227","5d2a3561d3edf900018016a1","Dirty","test_val","concrete-negative","Valence","CV","positive;negative","negative",1,1739280794820,"negative",1532.66666666667,586,"negative","A","",6.37331978957701,7.33476441665502,227
"228","5d2a3561d3edf900018016a1","Dark","test_val","concrete-negative","Valence","CV","positive;negative","negative",1,1739280796089,"negative",1543.33333333333,510,"negative","A","",6.23441072571837,7.34169985841217,228
"229","5d2a3561d3edf900018016a1","Grateful","test_val","abstract-positive","Valence","CV","positive;negative","positive",1,1739280797802,"positive",1590.83333333333,952,"negative","A","",6.85856503479136,7.37201326693179,229
"230","5d2a3561d3edf900018016a1","Soft","test_val","concrete-positive","Valence","CV","positive;negative","positive",1,1739280800099,"positive",1710.5,1538,"negative","A","",7.33823815006559,7.44454100441766,230
"231","5d2a3561d3edf900018016a1","Helpless","test_val","abstract-negative","Valence","CV","positive;negative","negative",1,1739280801428,"negative",1435.66666666667,574,"negative","A","",6.35262939631957,7.269384596386,231
"232","5d2a3561d3edf900018016a1","Bitter","test_val","concrete-negative","Valence","CV","positive;negative","negative",1,1739280802706,"negative",1601.33333333333,522,"negative","A","",6.25766758788264,7.37859189453176,232
"233","5d2a3561d3edf900018016a1","Bitter","test_val","abstract-negative","Valence","CV","positive;negative","negative",1,1739280802706,"negative",1601.33333333333,522,"negative","A","",6.25766758788264,7.37859189453176,233
"234","5d2a3561d3edf900018016a1","Inspiring","test_val","abstract-positive","Valence","CV","positive;negative","positive",1,1739280803990,"positive",1600.16666666667,530,"negative","A","",6.27287700654617,7.37786306946957,234
"235","5d2a3561d3edf900018016a1","Noisy","test_val","concrete-negative","Valence","CV","positive;negative","negative",1,1739280805441,"negative",1383,699,"negative","A","",6.54965074223381,7.23201033166476,235
"236","5d2a3561d3edf900018016a1","Rough","test_val","concrete-negative","Valence","CV","positive;negative","negative",1,1739280806695,"negative",1899,500,"negative","A","",6.21460809842219,7.54908271081229,236
"237","5d2a3561d3edf900018016a1","Loving","test_val","abstract-positive","Valence","CV","positive;negative","negative",0,1739280808229,"negative",1494,779,"negative","A","",6.65801104587075,7.30921236569276,237
"238","5d2a3561d3edf900018016a1","Greasy","test_val","concrete-negative","Valence","CV","positive;negative","negative",1,1739280809597,"negative",1481.83333333333,612,"negative","A","",6.41673228251233,7.30103533889308,238
"239","5d2a3561d3edf900018016a1","Fragrant","test_val","concrete-positive","Valence","CV","positive;negative","positive",1,1739280810952,"positive",1582.83333333333,598,"negative","A","",6.39359075395063,7.3669717690149,239
"240","5d2a3561d3edf900018016a1","Rotten","test_val","concrete-negative","Valence","CV","positive;negative","negative",1,1739280812692,"negative",1524.33333333333,985,"negative","A","",6.89264164117209,7.32931243498995,240
"241","5d2a3561d3edf900018016a1","Delicious","test_val","concrete-positive","Valence","CV","positive;negative","positive",1,1739280814001,"positive",1447.33333333333,555,"negative","A","",6.31896811374643,7.27747806177013,241
"242","5d2a3561d3edf900018016a1","Cold","test_val","concrete-negative","Valence","CV","positive;negative","negative",1,1739280815755,"negative",1595.66666666667,997,"negative","A","",6.90475076996184,7.3750469007244,242
"243","5d2a3561d3edf900018016a1","Clean","test_val","concrete-positive","Valence","CV","positive;negative","positive",1,1739280817321,"positive",1486,812,"negative","A","",6.69950034016168,7.3038432252777,243
"244","5d2a3561d3edf900018016a1","Regretful","test_val","abstract-negative","Valence","CV","positive;negative","negative",1,1739280818869,"negative",1579.66666666667,789,"negative","A","",6.67076632084587,7.36496913329948,244
"245","5d2a3561d3edf900018016a1","Ashamed","test_val","abstract-negative","Valence","CV","positive;negative","negative",1,1739280820217,"negative",1571.33333333333,588,"negative","A","",6.37672694789863,7.35967979482797,245
"246","5d2a3561d3edf900018016a1","Peaceful","test_val","abstract-positive","Valence","CV","positive;negative","positive",1,1739280821548,"positive",1316.16666666667,574,"negative","A","",6.35262939631957,7.18247875026953,246
"247","5d2a3561d3edf900018016a1","Cool","test_val","concrete-positive","Valence","CV","positive;negative","positive",1,1739280823150,"positive",1624.66666666667,842,"negative","A","",6.73578001424233,7.39305794551704,247
"248","5d2a3561d3edf900018016a1","Generous","test_val","abstract-positive","Valence","CV","positive;negative","positive",1,1739280824450,"positive",1821.83333333333,543,"negative","A","",6.29710931993394,7.50759859906578,248
"249","5d2a3561d3edf900018016a1","Despairing","test_val","abstract-negative","Valence","CV","positive;negative","negative",1,1739280825937,"negative",1587.66666666667,733,"negative","A","",6.59714570188665,7.37002071213275,249
"250","5d2a3561d3edf900018016a1","Fearful","test_val","abstract-negative","Valence","CV","positive;negative","negative",1,1739280827306,"negative",1819.83333333333,614,"negative","A","",6.41999492814714,7.50650020078601,250
"251","5d2a3561d3edf900018016a1","Bright","test_val","concrete-positive","Valence","CV","positive;negative","positive",1,1739280828594,"positive",1483.83333333333,534,"negative","A","",6.2803958389602,7.30238410834562,251
"252","5d2a3561d3edf900018016a1","Colorful","test_val","concrete-positive","Valence","CV","positive;negative","positive",1,1739280829880,"positive",1799.16666666667,527,"negative","A","",6.26720054854136,7.49507887372085,252
"253","63bed6e176fba857a47fbaff","Noisy","test_val","concrete-negative","Valence","VC","negative;positive","positive",0,1739296213633,"positive",913.666666666667,588,"positive","B","",6.37672694789863,6.81746580763468,1
"254","63bed6e176fba857a47fbaff","Smelly","test_val","concrete-negative","Valence","VC","negative;positive","positive",0,1739296214421,"positive",791,32,"positive","B","",3.46573590279973,6.67329796776765,2
"255","63bed6e176fba857a47fbaff","Loving","test_val","abstract-positive","Valence","VC","negative;positive","negative",0,1739296215247,"negative",805.666666666667,64,"positive","B","",4.15888308335967,6.69167009203537,3
"256","63bed6e176fba857a47fbaff","Sticky","test_val","concrete-negative","Valence","VC","negative;positive","negative",1,1739296216054,"negative",837,48,"positive","B","",3.87120101090789,6.72982407048948,4
"257","63bed6e176fba857a47fbaff","Despairing","test_val","abstract-negative","Valence","VC","negative;positive","negative",1,1739296216830,"negative",793.833333333333,18,"positive","B","",2.89037175789616,6.67687353157281,5
"258","63bed6e176fba857a47fbaff","Rotten","test_val","concrete-negative","Valence","VC","negative;positive","negative",1,1739296217628,"negative",816.166666666667,38,"positive","B","",3.63758615972639,6.70461858247426,6
"259","63bed6e176fba857a47fbaff","Resilient","test_val","abstract-positive","Valence","VC","negative;positive","negative",0,1739296218470,"negative",851.5,81,"positive","B","",4.39444915467244,6.74699950010274,7
"260","63bed6e176fba857a47fbaff","Anxious","test_val","abstract-negative","Valence","VC","negative;positive","positive",0,1739296219364,"positive",817.833333333333,140,"positive","B","",4.9416424226093,6.70665856686185,8
"261","63bed6e176fba857a47fbaff","Grateful","test_val","abstract-positive","Valence","VC","negative;positive","negative",0,1739296220220,"negative",857.5,100,"positive","B","",4.60517018598809,6.75402117904009,9
"262","63bed6e176fba857a47fbaff","Bright","test_val","concrete-positive","Valence","VC","negative;positive","negative",0,1739296221031,"negative",802,54,"positive","B","",3.98898404656427,6.68710860786651,10
"263","63bed6e176fba857a47fbaff","Dirty","test_val","concrete-negative","Valence","VC","negative;positive","negative",1,1739296221796,"negative",807,8,"positive","B","",2.07944154167984,6.69332366826995,11
"264","63bed6e176fba857a47fbaff","Smooth","test_val","concrete-positive","Valence","VC","negative;positive","negative",0,1739296222652,"negative",831.833333333333,98,"positive","B","",4.58496747867057,6.72363210024155,12
"265","63bed6e176fba857a47fbaff","Hopeless","test_val","abstract-negative","Valence","VC","negative;positive","negative",1,1739296223446,"negative",808.166666666667,37,"positive","B","",3.61091791264422,6.6947683078773,13
"266","63bed6e176fba857a47fbaff","Warm","test_val","concrete-positive","Valence","VC","negative;positive","negative",0,1739296224293,"negative",820.166666666667,90,"positive","B","",4.49980967033027,6.70950757163792,14
"267","63bed6e176fba857a47fbaff","Bitter","test_val","concrete-negative","Valence","VC","negative;positive","negative",1,1739296225069,"negative",815.416666666667,18,"positive","B","",2.89037175789616,6.70369923004218,15
"268","63bed6e176fba857a47fbaff","Bitter","test_val","abstract-negative","Valence","VC","negative;positive","negative",1,1739296225069,"negative",815.416666666667,18,"positive","B","",2.89037175789616,6.70369923004218,16
"269","63bed6e176fba857a47fbaff","Harmonious","test_val","abstract-positive","Valence","VC","negative;positive","negative",0,1739296225933,"negative",802.166666666667,108,"positive","B","",4.68213122712422,6.68731640007505,17
"270","63bed6e176fba857a47fbaff","Generous","test_val","abstract-positive","Valence","VC","negative;positive","negative",0,1739296226699,"negative",815.333333333333,4,"positive","B","",1.38629436111989,6.70359702757901,18
"271","63bed6e176fba857a47fbaff","Delicious","test_val","concrete-positive","Valence","VC","negative;positive","positive",1,1739296227510,"positive",822,54,"positive","B","",3.98898404656427,6.71174039505618,19
"272","63bed6e176fba857a47fbaff","Regretful","test_val","abstract-negative","Valence","VC","negative;positive","positive",0,1739296228289,"positive",876.666666666667,24,"positive","B","",3.17805383034795,6.7761268365037,20
"273","63bed6e176fba857a47fbaff","Colorful","test_val","concrete-positive","Valence","VC","negative;positive","positive",1,1739296229148,"positive",829.333333333333,98,"positive","B","",4.58496747867057,6.72062216519096,21
"274","63bed6e176fba857a47fbaff","Bitter","test_val","concrete-negative","Valence","VC","negative;positive","positive",0,1739296229998,"positive",815.416666666667,96,"positive","B","",4.56434819146784,6.70369923004218,22
"275","63bed6e176fba857a47fbaff","Bitter","test_val","abstract-negative","Valence","VC","negative;positive","positive",0,1739296229998,"positive",815.416666666667,96,"positive","B","",4.56434819146784,6.70369923004218,23
"276","63bed6e176fba857a47fbaff","Helpless","test_val","abstract-negative","Valence","VC","negative;positive","positive",0,1739296230764,"positive",887.333333333333,10,"positive","B","",2.30258509299405,6.78822071028695,24
"277","63bed6e176fba857a47fbaff","Ashamed","test_val","abstract-negative","Valence","VC","negative;positive","positive",0,1739296231564,"positive",833.333333333333,43,"positive","B","",3.76120011569356,6.72543372218818,25
"278","63bed6e176fba857a47fbaff","Lonely","test_val","abstract-negative","Valence","VC","negative;positive","positive",0,1739296232393,"positive",808.5,75,"positive","B","",4.31748811353631,6.69518067901716,26
"279","63bed6e176fba857a47fbaff","Peaceful","test_val","abstract-positive","Valence","VC","negative;positive","positive",1,1739296233159,"positive",800.666666666667,9,"positive","B","",2.19722457733622,6.68544471397182,27
"280","63bed6e176fba857a47fbaff","Fragrant","test_val","concrete-positive","Valence","VC","negative;positive","negative",0,1739296233920,"negative",790.833333333333,5,"positive","B","",1.6094379124341,6.67308724181597,28
"281","63bed6e176fba857a47fbaff","Fearful","test_val","abstract-negative","Valence","VC","negative;positive","negative",1,1739296234707,"negative",822.166666666667,32,"positive","B","",3.46573590279973,6.71194313200568,29
"282","63bed6e176fba857a47fbaff","Hopeful","test_val","abstract-positive","Valence","VC","negative;positive","negative",0,1739296235516,"negative",822.666666666667,48,"positive","B","",3.87120101090789,6.71255109635717,30
"283","63bed6e176fba857a47fbaff","Clean","test_val","concrete-positive","Valence","VC","negative;positive","negative",0,1739296236340,"negative",821.333333333333,66,"positive","B","",4.18965474202643,6.7109290359853,31
"284","63bed6e176fba857a47fbaff","Joyful","test_val","abstract-positive","Valence","VC","negative;positive","positive",1,1739296237220,"positive",825.833333333333,122,"positive","B","",4.80402104473326,6.71639297753603,32
"285","63bed6e176fba857a47fbaff","Worthless","test_val","abstract-negative","Valence","VC","negative;positive","positive",0,1739296238053,"positive",811.166666666667,77,"positive","B","",4.34380542185368,6.6984735406054,33
"286","63bed6e176fba857a47fbaff","Greasy","test_val","concrete-negative","Valence","VC","negative;positive","positive",0,1739296238871,"positive",846.5,60,"positive","B","",4.0943445622221,6.74111020157319,34
"287","63bed6e176fba857a47fbaff","Kind","test_val","abstract-positive","Valence","VC","negative;positive","positive",1,1739296239667,"positive",820.833333333333,39,"positive","B","",3.66356164612965,6.71032008437813,35
"288","63bed6e176fba857a47fbaff","Cool","test_val","concrete-positive","Valence","VC","negative;positive","positive",1,1739296240505,"positive",817.833333333333,80,"positive","B","",4.38202663467388,6.70665856686185,36
"289","63bed6e176fba857a47fbaff","Fresh","test_val","concrete-positive","Valence","VC","negative;positive","negative",0,1739296241269,"negative",767.833333333333,9,"positive","B","",2.19722457733622,6.64357269570786,37
"290","63bed6e176fba857a47fbaff","Rough","test_val","concrete-negative","Valence","VC","negative;positive","negative",1,1739296242079,"negative",823,52,"positive","B","",3.95124371858143,6.71295620067707,38
"291","63bed6e176fba857a47fbaff","Dark","test_val","concrete-negative","Valence","VC","negative;positive","negative",1,1739296242895,"negative",840.5,61,"positive","B","",4.11087386417331,6.73399695284867,39
"292","63bed6e176fba857a47fbaff","Soft","test_val","concrete-positive","Valence","VC","negative;positive","positive",1,1739296243800,"positive",851.333333333333,152,"positive","B","",5.02388052084628,6.74680374792437,40
"293","63bed6e176fba857a47fbaff","Cold","test_val","concrete-negative","Valence","VC","negative;positive","negative",1,1739296244700,"negative",854,142,"positive","B","",4.95582705760126,6.74993119378857,41
"294","63bed6e176fba857a47fbaff","Inspiring","test_val","abstract-positive","Valence","VC","negative;positive","positive",1,1739296245563,"positive",800.333333333333,106,"positive","B","",4.66343909411207,6.68502830755314,42
"295","63bed6e176fba857a47fbaff","Harmonious","test_val","abstract-positive","Valence","VC","negative;positive","positive",1,1739296246356,"positive",802.166666666667,37,"positive","B","",3.61091791264422,6.68731640007505,43
"296","63bed6e176fba857a47fbaff","Fearful","test_val","abstract-negative","Valence","VC","negative;positive","positive",0,1739296247183,"positive",822.166666666667,70,"positive","B","",4.24849524204936,6.71194313200568,44
"297","63bed6e176fba857a47fbaff","Hopeless","test_val","abstract-negative","Valence","VC","negative;positive","positive",0,1739296247973,"positive",808.166666666667,36,"positive","B","",3.58351893845611,6.6947683078773,45
"298","63bed6e176fba857a47fbaff","Bright","test_val","concrete-positive","Valence","VC","negative;positive","positive",1,1739296248791,"positive",802,59,"positive","B","",4.07753744390572,6.68710860786651,46
"299","63bed6e176fba857a47fbaff","Smelly","test_val","concrete-negative","Valence","VC","negative;positive","positive",0,1739296249564,"positive",791,13,"positive","B","",2.56494935746154,6.67329796776765,47
"300","63bed6e176fba857a47fbaff","Bitter","test_val","concrete-negative","Valence","VC","negative;positive","positive",0,1739296250356,"positive",815.416666666667,36,"positive","B","",3.58351893845611,6.70369923004218,48
"301","63bed6e176fba857a47fbaff","Bitter","test_val","abstract-negative","Valence","VC","negative;positive","positive",0,1739296250356,"positive",815.416666666667,36,"positive","B","",3.58351893845611,6.70369923004218,49
"302","63bed6e176fba857a47fbaff","Rotten","test_val","concrete-negative","Valence","VC","negative;positive","positive",0,1739296251166,"positive",816.166666666667,54,"positive","B","",3.98898404656427,6.70461858247426,50
"303","63bed6e176fba857a47fbaff","Regretful","test_val","abstract-negative","Valence","VC","negative;positive","positive",0,1739296252007,"positive",876.666666666667,84,"positive","B","",4.43081679884331,6.7761268365037,51
"304","63bed6e176fba857a47fbaff","Colorful","test_val","concrete-positive","Valence","VC","negative;positive","positive",1,1739296252804,"positive",829.333333333333,42,"positive","B","",3.73766961828337,6.72062216519096,52
"305","63bed6e176fba857a47fbaff","Anxious","test_val","abstract-negative","Valence","VC","negative;positive","positive",0,1739296253580,"positive",817.833333333333,19,"positive","B","",2.94443897916644,6.70665856686185,53
"306","63bed6e176fba857a47fbaff","Despairing","test_val","abstract-negative","Valence","VC","negative;positive","positive",0,1739296254356,"positive",793.833333333333,19,"positive","B","",2.94443897916644,6.67687353157281,54
"307","63bed6e176fba857a47fbaff","Kind","test_val","abstract-positive","Valence","VC","negative;positive","positive",1,1739296255140,"positive",820.833333333333,25,"positive","B","",3.2188758248682,6.71032008437813,55
"308","63bed6e176fba857a47fbaff","Fresh","test_val","concrete-positive","Valence","VC","negative;positive","negative",0,1739296255912,"negative",767.833333333333,16,"positive","B","",2.77258872223978,6.64357269570786,56
"309","63bed6e176fba857a47fbaff","Dark","test_val","concrete-negative","Valence","VC","negative;positive","negative",1,1739296256724,"negative",840.5,54,"positive","B","",3.98898404656427,6.73399695284867,57
"310","63bed6e176fba857a47fbaff","Smooth","test_val","concrete-positive","Valence","VC","negative;positive","negative",0,1739296257556,"negative",831.833333333333,69,"positive","B","",4.23410650459726,6.72363210024155,58
"311","63bed6e176fba857a47fbaff","Worthless","test_val","abstract-negative","Valence","VC","negative;positive","negative",1,1739296258356,"negative",811.166666666667,45,"positive","B","",3.80666248977032,6.6984735406054,59
"312","63bed6e176fba857a47fbaff","Grateful","test_val","abstract-positive","Valence","VC","negative;positive","negative",0,1739296259214,"negative",857.5,105,"positive","B","",4.65396035015752,6.75402117904009,60
"313","63bed6e176fba857a47fbaff","Inspiring","test_val","abstract-positive","Valence","VC","negative;positive","positive",1,1739296260020,"positive",800.333333333333,49,"positive","B","",3.89182029811063,6.68502830755314,61
"314","63bed6e176fba857a47fbaff","Resilient","test_val","abstract-positive","Valence","VC","negative;positive","negative",0,1739296260933,"negative",851.5,159,"positive","B","",5.06890420222023,6.74699950010274,62
"315","63bed6e176fba857a47fbaff","Bitter","test_val","concrete-negative","Valence","VC","negative;positive","negative",1,1739296261718,"negative",815.416666666667,25,"positive","B","",3.2188758248682,6.70369923004218,63
"316","63bed6e176fba857a47fbaff","Bitter","test_val","abstract-negative","Valence","VC","negative;positive","negative",1,1739296261718,"negative",815.416666666667,25,"positive","B","",3.2188758248682,6.70369923004218,64
"317","63bed6e176fba857a47fbaff","Soft","test_val","concrete-positive","Valence","VC","negative;positive","negative",0,1739296262583,"negative",851.333333333333,107,"positive","B","",4.67282883446191,6.74680374792437,65
"318","63bed6e176fba857a47fbaff","Helpless","test_val","abstract-negative","Valence","VC","negative;positive","negative",1,1739296263382,"negative",887.333333333333,43,"positive","B","",3.76120011569356,6.78822071028695,66
"319","63bed6e176fba857a47fbaff","Rough","test_val","concrete-negative","Valence","VC","negative;positive","negative",1,1739296264260,"negative",823,122,"positive","B","",4.80402104473326,6.71295620067707,67
"320","63bed6e176fba857a47fbaff","Joyful","test_val","abstract-positive","Valence","VC","negative;positive","negative",0,1739296265086,"negative",825.833333333333,66,"positive","B","",4.18965474202643,6.71639297753603,68
"321","63bed6e176fba857a47fbaff","Greasy","test_val","concrete-negative","Valence","VC","negative;positive","negative",1,1739296265915,"negative",846.5,70,"positive","B","",4.24849524204936,6.74111020157319,69
"322","63bed6e176fba857a47fbaff","Cool","test_val","concrete-positive","Valence","VC","negative;positive","positive",1,1739296266751,"positive",817.833333333333,79,"positive","B","",4.36944785246702,6.70665856686185,70
"323","63bed6e176fba857a47fbaff","Fragrant","test_val","concrete-positive","Valence","VC","negative;positive","negative",0,1739296267540,"negative",790.833333333333,28,"positive","B","",3.3322045101752,6.67308724181597,71
"324","63bed6e176fba857a47fbaff","Peaceful","test_val","abstract-positive","Valence","VC","negative;positive","positive",1,1739296268346,"positive",800.666666666667,47,"positive","B","",3.85014760171006,6.68544471397182,72
"325","63bed6e176fba857a47fbaff","Noisy","test_val","concrete-negative","Valence","VC","negative;positive","negative",1,1739296269173,"negative",913.666666666667,73,"positive","B","",4.29045944114839,6.81746580763468,73
"326","63bed6e176fba857a47fbaff","Delicious","test_val","concrete-positive","Valence","VC","negative;positive","positive",1,1739296269999,"positive",822,68,"positive","B","",4.21950770517611,6.71174039505618,74
"327","63bed6e176fba857a47fbaff","Lonely","test_val","abstract-negative","Valence","VC","negative;positive","positive",0,1739296270831,"positive",808.5,75,"positive","B","",4.31748811353631,6.69518067901716,75
"328","63bed6e176fba857a47fbaff","Clean","test_val","concrete-positive","Valence","VC","negative;positive","positive",1,1739296271630,"positive",821.333333333333,39,"positive","B","",3.66356164612965,6.7109290359853,76
"329","63bed6e176fba857a47fbaff","Dirty","test_val","concrete-negative","Valence","VC","negative;positive","negative",1,1739296272418,"negative",807,33,"positive","B","",3.49650756146648,6.69332366826995,77
"330","63bed6e176fba857a47fbaff","Hopeful","test_val","abstract-positive","Valence","VC","negative;positive","negative",0,1739296273206,"negative",822.666666666667,29,"positive","B","",3.36729582998647,6.71255109635717,78
"331","63bed6e176fba857a47fbaff","Cold","test_val","concrete-negative","Valence","VC","negative;positive","negative",1,1739296274102,"negative",854,137,"positive","B","",4.91998092582813,6.74993119378857,79
"332","63bed6e176fba857a47fbaff","Loving","test_val","abstract-positive","Valence","VC","negative;positive","negative",0,1739296274914,"negative",805.666666666667,57,"positive","B","",4.04305126783455,6.69167009203537,80
"333","63bed6e176fba857a47fbaff","Sticky","test_val","concrete-negative","Valence","VC","negative;positive","negative",1,1739296275733,"negative",837,63,"positive","B","",4.14313472639153,6.72982407048948,81
"334","63bed6e176fba857a47fbaff","Generous","test_val","abstract-positive","Valence","VC","negative;positive","negative",0,1739296276572,"negative",815.333333333333,84,"positive","B","",4.43081679884331,6.70359702757901,82
"335","63bed6e176fba857a47fbaff","Warm","test_val","concrete-positive","Valence","VC","negative;positive","negative",0,1739296277372,"negative",820.166666666667,44,"positive","B","",3.78418963391826,6.70950757163792,83
"336","63bed6e176fba857a47fbaff","Ashamed","test_val","abstract-negative","Valence","VC","negative;positive","negative",1,1739296278195,"negative",833.333333333333,64,"positive","B","",4.15888308335967,6.72543372218818,84
"337","63bed6e176fba857a47fbaff","Greasy","test_val","concrete-negative","Valence","VC","negative;positive","negative",1,1739296279076,"negative",846.5,124,"positive","B","",4.82028156560504,6.74111020157319,85
"338","63bed6e176fba857a47fbaff","Sticky","test_val","concrete-negative","Valence","VC","negative;positive","negative",1,1739296279892,"negative",837,60,"positive","B","",4.0943445622221,6.72982407048948,86
"339","63bed6e176fba857a47fbaff","Cold","test_val","concrete-negative","Valence","VC","negative;positive","negative",1,1739296280710,"negative",854,57,"positive","B","",4.04305126783455,6.74993119378857,87
"340","63bed6e176fba857a47fbaff","Colorful","test_val","concrete-positive","Valence","VC","negative;positive","negative",0,1739296281556,"negative",829.333333333333,88,"positive","B","",4.47733681447821,6.72062216519096,88
"341","63bed6e176fba857a47fbaff","Bright","test_val","concrete-positive","Valence","VC","negative;positive","negative",0,1739296282390,"negative",802,79,"positive","B","",4.36944785246702,6.68710860786651,89
"342","63bed6e176fba857a47fbaff","Smelly","test_val","concrete-negative","Valence","VC","negative;positive","negative",1,1739296283188,"negative",791,42,"positive","B","",3.73766961828337,6.67329796776765,90
"343","63bed6e176fba857a47fbaff","Hopeful","test_val","abstract-positive","Valence","VC","negative;positive","negative",0,1739296284070,"negative",822.666666666667,124,"positive","B","",4.82028156560504,6.71255109635717,91
"344","63bed6e176fba857a47fbaff","Harmonious","test_val","abstract-positive","Valence","VC","negative;positive","negative",0,1739296284831,"negative",802.166666666667,4,"positive","B","",1.38629436111989,6.68731640007505,92
"345","63bed6e176fba857a47fbaff","Hopeless","test_val","abstract-negative","Valence","VC","negative;positive","negative",1,1739296285695,"negative",808.166666666667,105,"positive","B","",4.65396035015752,6.6947683078773,93
"346","63bed6e176fba857a47fbaff","Anxious","test_val","abstract-negative","Valence","VC","negative;positive","positive",0,1739296286524,"positive",817.833333333333,73,"positive","B","",4.29045944114839,6.70665856686185,94
"347","63bed6e176fba857a47fbaff","Cool","test_val","concrete-positive","Valence","VC","negative;positive","positive",1,1739296287315,"positive",817.833333333333,31,"positive","B","",3.43398720448515,6.70665856686185,95
"348","63bed6e176fba857a47fbaff","Smooth","test_val","concrete-positive","Valence","VC","negative;positive","positive",1,1739296288140,"positive",831.833333333333,66,"positive","B","",4.18965474202643,6.72363210024155,96
"349","63bed6e176fba857a47fbaff","Dirty","test_val","concrete-negative","Valence","VC","negative;positive","positive",0,1739296288921,"positive",807,22,"positive","B","",3.09104245335832,6.69332366826995,97
"350","63bed6e176fba857a47fbaff","Joyful","test_val","abstract-positive","Valence","VC","negative;positive","positive",1,1739296289697,"positive",825.833333333333,21,"positive","B","",3.04452243772342,6.71639297753603,98
"351","63bed6e176fba857a47fbaff","Fresh","test_val","concrete-positive","Valence","VC","negative;positive","negative",0,1739296290468,"negative",767.833333333333,16,"positive","B","",2.77258872223978,6.64357269570786,99
"352","63bed6e176fba857a47fbaff","Warm","test_val","concrete-positive","Valence","VC","negative;positive","negative",0,1739296291287,"negative",820.166666666667,63,"positive","B","",4.14313472639153,6.70950757163792,100
"353","63bed6e176fba857a47fbaff","Worthless","test_val","abstract-negative","Valence","VC","negative;positive","negative",1,1739296292095,"negative",811.166666666667,53,"positive","B","",3.97029191355212,6.6984735406054,101
"354","63bed6e176fba857a47fbaff","Rotten","test_val","concrete-negative","Valence","VC","negative;positive","positive",0,1739296292940,"positive",816.166666666667,87,"positive","B","",4.46590811865458,6.70461858247426,102
"355","63bed6e176fba857a47fbaff","Despairing","test_val","abstract-negative","Valence","VC","negative;positive","negative",1,1739296293712,"negative",793.833333333333,13,"positive","B","",2.56494935746154,6.67687353157281,103
"356","63bed6e176fba857a47fbaff","Rough","test_val","concrete-negative","Valence","VC","negative;positive","negative",1,1739296294544,"negative",823,78,"positive","B","",4.35670882668959,6.71295620067707,104
"357","63bed6e176fba857a47fbaff","Lonely","test_val","abstract-negative","Valence","VC","negative;positive","negative",1,1739296295356,"negative",808.5,57,"positive","B","",4.04305126783455,6.69518067901716,105
"358","63bed6e176fba857a47fbaff","Loving","test_val","abstract-positive","Valence","VC","negative;positive","positive",1,1739296296136,"positive",805.666666666667,23,"positive","B","",3.13549421592915,6.69167009203537,106
"359","63bed6e176fba857a47fbaff","Fearful","test_val","abstract-negative","Valence","VC","negative;positive","negative",1,1739296296910,"negative",822.166666666667,14,"positive","B","",2.63905732961526,6.71194313200568,107
"360","63bed6e176fba857a47fbaff","Delicious","test_val","concrete-positive","Valence","VC","negative;positive","negative",0,1739296297771,"negative",822,106,"positive","B","",4.66343909411207,6.71174039505618,108
"361","63bed6e176fba857a47fbaff","Dark","test_val","concrete-negative","Valence","VC","negative;positive","negative",1,1739296298595,"negative",840.5,70,"positive","B","",4.24849524204936,6.73399695284867,109
"362","63bed6e176fba857a47fbaff","Noisy","test_val","concrete-negative","Valence","VC","negative;positive","negative",1,1739296299476,"negative",913.666666666667,124,"positive","B","",4.82028156560504,6.81746580763468,110
"363","63bed6e176fba857a47fbaff","Bitter","test_val","concrete-negative","Valence","VC","negative;positive","negative",1,1739296300309,"negative",815.416666666667,75,"positive","B","",4.31748811353631,6.70369923004218,111
"364","63bed6e176fba857a47fbaff","Bitter","test_val","abstract-negative","Valence","VC","negative;positive","negative",1,1739296300309,"negative",815.416666666667,75,"positive","B","",4.31748811353631,6.70369923004218,112
"365","63bed6e176fba857a47fbaff","Resilient","test_val","abstract-positive","Valence","VC","negative;positive","negative",0,1739296301147,"negative",851.5,82,"positive","B","",4.40671924726425,6.74699950010274,113
"366","63bed6e176fba857a47fbaff","Helpless","test_val","abstract-negative","Valence","VC","negative;positive","positive",0,1739296302270,"positive",887.333333333333,368,"positive","B","",5.90808293816893,6.78822071028695,114
"367","63bed6e176fba857a47fbaff","Regretful","test_val","abstract-negative","Valence","VC","negative;positive","positive",0,1739296303099,"positive",876.666666666667,73,"positive","B","",4.29045944114839,6.7761268365037,115
"368","63bed6e176fba857a47fbaff","Fragrant","test_val","concrete-positive","Valence","VC","negative;positive","negative",0,1739296303878,"negative",790.833333333333,25,"positive","B","",3.2188758248682,6.67308724181597,116
"369","63bed6e176fba857a47fbaff","Grateful","test_val","abstract-positive","Valence","VC","negative;positive","negative",0,1739296304716,"negative",857.5,80,"positive","B","",4.38202663467388,6.75402117904009,117
"370","63bed6e176fba857a47fbaff","Peaceful","test_val","abstract-positive","Valence","VC","negative;positive","negative",0,1739296305524,"negative",800.666666666667,50,"positive","B","",3.91202300542815,6.68544471397182,118
"371","63bed6e176fba857a47fbaff","Bitter","test_val","concrete-negative","Valence","VC","negative;positive","negative",1,1739296306376,"negative",815.416666666667,96,"positive","B","",4.56434819146784,6.70369923004218,119
"372","63bed6e176fba857a47fbaff","Bitter","test_val","abstract-negative","Valence","VC","negative;positive","negative",1,1739296306376,"negative",815.416666666667,96,"positive","B","",4.56434819146784,6.70369923004218,120
"373","63bed6e176fba857a47fbaff","Soft","test_val","concrete-positive","Valence","VC","negative;positive","negative",0,1739296307210,"negative",851.333333333333,75,"positive","B","",4.31748811353631,6.74680374792437,121
"374","63bed6e176fba857a47fbaff","Clean","test_val","concrete-positive","Valence","VC","negative;positive","negative",0,1739296308052,"negative",821.333333333333,84,"positive","B","",4.43081679884331,6.7109290359853,122
"375","63bed6e176fba857a47fbaff","Ashamed","test_val","abstract-negative","Valence","VC","negative;positive","negative",1,1739296308936,"negative",833.333333333333,128,"positive","B","",4.85203026391962,6.72543372218818,123
"376","63bed6e176fba857a47fbaff","Inspiring","test_val","abstract-positive","Valence","VC","negative;positive","negative",0,1739296309723,"negative",800.333333333333,32,"positive","B","",3.46573590279973,6.68502830755314,124
"377","63bed6e176fba857a47fbaff","Generous","test_val","abstract-positive","Valence","VC","negative;positive","negative",0,1739296310563,"negative",815.333333333333,86,"positive","B","",4.45434729625351,6.70359702757901,125
"378","63bed6e176fba857a47fbaff","Kind","test_val","abstract-positive","Valence","VC","negative;positive","negative",0,1739296311388,"negative",820.833333333333,69,"positive","B","",4.23410650459726,6.71032008437813,126
"379","63bed6e176fba857a47fbaff","Lonely","test_conc","abstract-negative","Concrete","VC","abstract;concrete","concrete",0,1739296371380,"concrete",808.5,30,"concrete","B","",3.40119738166216,6.69518067901716,127
"380","63bed6e176fba857a47fbaff","Colorful","test_conc","concrete-positive","Concrete","VC","abstract;concrete","abstract",0,1739296372253,"abstract",829.333333333333,120,"concrete","B","",4.78749174278205,6.72062216519096,128
"381","63bed6e176fba857a47fbaff","Fresh","test_conc","concrete-positive","Concrete","VC","abstract;concrete","concrete",1,1739296373017,"concrete",767.833333333333,6,"concrete","B","",1.79175946922805,6.64357269570786,129
"382","63bed6e176fba857a47fbaff","Peaceful","test_conc","abstract-positive","Concrete","VC","abstract;concrete","abstract",1,1739296373796,"abstract",800.666666666667,22,"concrete","B","",3.09104245335832,6.68544471397182,130
"383","63bed6e176fba857a47fbaff","Regretful","test_conc","abstract-negative","Concrete","VC","abstract;concrete","abstract",1,1739296374683,"abstract",876.666666666667,128,"concrete","B","",4.85203026391962,6.7761268365037,131
"384","63bed6e176fba857a47fbaff","Delicious","test_conc","concrete-positive","Concrete","VC","abstract;concrete","abstract",0,1739296375534,"abstract",822,91,"concrete","B","",4.51085950651685,6.71174039505618,132
"385","63bed6e176fba857a47fbaff","Fragrant","test_conc","concrete-positive","Concrete","VC","abstract;concrete","concrete",1,1739296376337,"concrete",790.833333333333,46,"concrete","B","",3.8286413964891,6.67308724181597,133
"386","63bed6e176fba857a47fbaff","Helpless","test_conc","abstract-negative","Concrete","VC","abstract;concrete","concrete",0,1739296377234,"concrete",887.333333333333,139,"concrete","B","",4.93447393313069,6.78822071028695,134
"387","63bed6e176fba857a47fbaff","Grateful","test_conc","abstract-positive","Concrete","VC","abstract;concrete","abstract",1,1739296378155,"abstract",857.5,161,"concrete","B","",5.08140436498446,6.75402117904009,135
"388","63bed6e176fba857a47fbaff","Sticky","test_conc","concrete-negative","Concrete","VC","abstract;concrete","abstract",0,1739296379050,"abstract",837,136,"concrete","B","",4.91265488573605,6.72982407048948,136
"389","63bed6e176fba857a47fbaff","Cold","test_conc","concrete-negative","Concrete","VC","abstract;concrete","concrete",1,1739296379879,"concrete",854,72,"concrete","B","",4.27666611901606,6.74993119378857,137
"390","63bed6e176fba857a47fbaff","Smooth","test_conc","concrete-positive","Concrete","VC","abstract;concrete","abstract",0,1739296380750,"abstract",831.833333333333,117,"concrete","B","",4.76217393479776,6.72363210024155,138
"391","63bed6e176fba857a47fbaff","Hopeful","test_conc","abstract-positive","Concrete","VC","abstract;concrete","abstract",1,1739296381604,"abstract",822.666666666667,97,"concrete","B","",4.57471097850338,6.71255109635717,139
"392","63bed6e176fba857a47fbaff","Soft","test_conc","concrete-positive","Concrete","VC","abstract;concrete","concrete",1,1739296382459,"concrete",851.333333333333,100,"concrete","B","",4.60517018598809,6.74680374792437,140
"393","63bed6e176fba857a47fbaff","Dark","test_conc","concrete-negative","Concrete","VC","abstract;concrete","concrete",1,1739296383284,"concrete",840.5,66,"concrete","B","",4.18965474202643,6.73399695284867,141
"394","63bed6e176fba857a47fbaff","Bright","test_conc","concrete-positive","Concrete","VC","abstract;concrete","abstract",0,1739296384053,"abstract",802,10,"concrete","B","",2.30258509299405,6.68710860786651,142
"395","63bed6e176fba857a47fbaff","Despairing","test_conc","abstract-negative","Concrete","VC","abstract;concrete","abstract",1,1739296384849,"abstract",793.833333333333,41,"concrete","B","",3.71357206670431,6.67687353157281,143
"396","63bed6e176fba857a47fbaff","Fearful","test_conc","abstract-negative","Concrete","VC","abstract;concrete","abstract",1,1739296385678,"abstract",822.166666666667,71,"concrete","B","",4.26267987704132,6.71194313200568,144
"397","63bed6e176fba857a47fbaff","Dirty","test_conc","concrete-negative","Concrete","VC","abstract;concrete","abstract",0,1739296386483,"abstract",807,44,"concrete","B","",3.78418963391826,6.69332366826995,145
"398","63bed6e176fba857a47fbaff","Kind","test_conc","abstract-positive","Concrete","VC","abstract;concrete","abstract",1,1739296387339,"abstract",820.833333333333,100,"concrete","B","",4.60517018598809,6.71032008437813,146
"399","63bed6e176fba857a47fbaff","Smelly","test_conc","concrete-negative","Concrete","VC","abstract;concrete","abstract",0,1739296388101,"abstract",791,6,"concrete","B","",1.79175946922805,6.67329796776765,147
"400","63bed6e176fba857a47fbaff","Rotten","test_conc","concrete-negative","Concrete","VC","abstract;concrete","abstract",0,1739296388936,"abstract",816.166666666667,80,"concrete","B","",4.38202663467388,6.70461858247426,148
"401","63bed6e176fba857a47fbaff","Loving","test_conc","abstract-positive","Concrete","VC","abstract;concrete","concrete",0,1739296389798,"concrete",805.666666666667,105,"concrete","B","",4.65396035015752,6.69167009203537,149
"402","63bed6e176fba857a47fbaff","Joyful","test_conc","abstract-positive","Concrete","VC","abstract;concrete","concrete",0,1739296390603,"concrete",825.833333333333,48,"concrete","B","",3.87120101090789,6.71639297753603,150
"403","63bed6e176fba857a47fbaff","Warm","test_conc","concrete-positive","Concrete","VC","abstract;concrete","concrete",1,1739296391431,"concrete",820.166666666667,73,"concrete","B","",4.29045944114839,6.70950757163792,151
"404","63bed6e176fba857a47fbaff","Generous","test_conc","abstract-positive","Concrete","VC","abstract;concrete","concrete",0,1739296392235,"concrete",815.333333333333,46,"concrete","B","",3.8286413964891,6.70359702757901,152
"405","63bed6e176fba857a47fbaff","Bitter","test_conc","concrete-negative","Concrete","VC","abstract;concrete","concrete",1,1739296393049,"concrete",815.416666666667,58,"concrete","B","",4.06044301054642,6.70369923004218,153
"406","63bed6e176fba857a47fbaff","Bitter","test_conc","abstract-negative","Concrete","VC","abstract;concrete","concrete",0,1739296393049,"concrete",815.416666666667,58,"concrete","B","",4.06044301054642,6.70369923004218,154
"407","63bed6e176fba857a47fbaff","Harmonious","test_conc","abstract-positive","Concrete","VC","abstract;concrete","concrete",0,1739296393878,"concrete",802.166666666667,70,"concrete","B","",4.24849524204936,6.68731640007505,155
"408","63bed6e176fba857a47fbaff","Rough","test_conc","concrete-negative","Concrete","VC","abstract;concrete","concrete",1,1739296394670,"concrete",823,38,"concrete","B","",3.63758615972639,6.71295620067707,156
"409","63bed6e176fba857a47fbaff","Inspiring","test_conc","abstract-positive","Concrete","VC","abstract;concrete","concrete",0,1739296395435,"concrete",800.333333333333,9,"concrete","B","",2.19722457733622,6.68502830755314,157
"410","63bed6e176fba857a47fbaff","Ashamed","test_conc","abstract-negative","Concrete","VC","abstract;concrete","abstract",1,1739296396377,"abstract",833.333333333333,188,"concrete","B","",5.23644196282995,6.72543372218818,158
"411","63bed6e176fba857a47fbaff","Resilient","test_conc","abstract-positive","Concrete","VC","abstract;concrete","abstract",1,1739296397178,"abstract",851.5,46,"concrete","B","",3.8286413964891,6.74699950010274,159
"412","63bed6e176fba857a47fbaff","Greasy","test_conc","concrete-negative","Concrete","VC","abstract;concrete","abstract",0,1739296397981,"abstract",846.5,47,"concrete","B","",3.85014760171006,6.74111020157319,160
"413","63bed6e176fba857a47fbaff","Worthless","test_conc","abstract-negative","Concrete","VC","abstract;concrete","abstract",1,1739296398827,"abstract",811.166666666667,89,"concrete","B","",4.48863636973214,6.6984735406054,161
"414","63bed6e176fba857a47fbaff","Noisy","test_conc","concrete-negative","Concrete","VC","abstract;concrete","abstract",0,1739296399616,"abstract",913.666666666667,31,"concrete","B","",3.43398720448515,6.81746580763468,162
"415","63bed6e176fba857a47fbaff","Cool","test_conc","concrete-positive","Concrete","VC","abstract;concrete","abstract",0,1739296400413,"abstract",817.833333333333,41,"concrete","B","",3.71357206670431,6.70665856686185,163
"416","63bed6e176fba857a47fbaff","Clean","test_conc","concrete-positive","Concrete","VC","abstract;concrete","abstract",0,1739296401301,"abstract",821.333333333333,128,"concrete","B","",4.85203026391962,6.7109290359853,164
"417","63bed6e176fba857a47fbaff","Anxious","test_conc","abstract-negative","Concrete","VC","abstract;concrete","abstract",1,1739296402099,"abstract",817.833333333333,43,"concrete","B","",3.76120011569356,6.70665856686185,165
"418","63bed6e176fba857a47fbaff","Hopeless","test_conc","abstract-negative","Concrete","VC","abstract;concrete","abstract",1,1739296402914,"abstract",808.166666666667,55,"concrete","B","",4.00733318523247,6.6947683078773,166
"419","63bed6e176fba857a47fbaff","Bitter","test_conc","concrete-negative","Concrete","VC","abstract;concrete","abstract",0,1739296403716,"abstract",815.416666666667,46,"concrete","B","",3.8286413964891,6.70369923004218,167
"420","63bed6e176fba857a47fbaff","Bitter","test_conc","abstract-negative","Concrete","VC","abstract;concrete","abstract",1,1739296403716,"abstract",815.416666666667,46,"concrete","B","",3.8286413964891,6.70369923004218,168
"421","63bed6e176fba857a47fbaff","Rough","test_conc","concrete-negative","Concrete","VC","abstract;concrete","abstract",0,1739296404518,"abstract",823,42,"concrete","B","",3.73766961828337,6.71295620067707,169
"422","63bed6e176fba857a47fbaff","Worthless","test_conc","abstract-negative","Concrete","VC","abstract;concrete","abstract",1,1739296405334,"abstract",811.166666666667,53,"concrete","B","",3.97029191355212,6.6984735406054,170
"423","63bed6e176fba857a47fbaff","Greasy","test_conc","concrete-negative","Concrete","VC","abstract;concrete","concrete",1,1739296406235,"concrete",846.5,147,"concrete","B","",4.99043258677874,6.74111020157319,171
"424","63bed6e176fba857a47fbaff","Smelly","test_conc","concrete-negative","Concrete","VC","abstract;concrete","concrete",1,1739296407042,"concrete",791,47,"concrete","B","",3.85014760171006,6.67329796776765,172
"425","63bed6e176fba857a47fbaff","Noisy","test_conc","concrete-negative","Concrete","VC","abstract;concrete","concrete",1,1739296407853,"concrete",913.666666666667,56,"concrete","B","",4.02535169073515,6.81746580763468,173
"426","63bed6e176fba857a47fbaff","Clean","test_conc","concrete-positive","Concrete","VC","abstract;concrete","concrete",1,1739296408620,"concrete",821.333333333333,13,"concrete","B","",2.56494935746154,6.7109290359853,174
"427","63bed6e176fba857a47fbaff","Resilient","test_conc","abstract-positive","Concrete","VC","abstract;concrete","concrete",0,1739296409445,"concrete",851.5,68,"concrete","B","",4.21950770517611,6.74699950010274,175
"428","63bed6e176fba857a47fbaff","Despairing","test_conc","abstract-negative","Concrete","VC","abstract;concrete","concrete",0,1739296410215,"concrete",793.833333333333,10,"concrete","B","",2.30258509299405,6.67687353157281,176
"429","63bed6e176fba857a47fbaff","Hopeful","test_conc","abstract-positive","Concrete","VC","abstract;concrete","concrete",0,1739296411012,"concrete",822.666666666667,40,"concrete","B","",3.68887945411394,6.71255109635717,177
"430","63bed6e176fba857a47fbaff","Bitter","test_conc","concrete-negative","Concrete","VC","abstract;concrete","concrete",1,1739296411818,"concrete",815.416666666667,51,"concrete","B","",3.93182563272433,6.70369923004218,178
"431","63bed6e176fba857a47fbaff","Bitter","test_conc","abstract-negative","Concrete","VC","abstract;concrete","concrete",0,1739296411818,"concrete",815.416666666667,51,"concrete","B","",3.93182563272433,6.70369923004218,179
"432","63bed6e176fba857a47fbaff","Harmonious","test_conc","abstract-positive","Concrete","VC","abstract;concrete","concrete",0,1739296412580,"concrete",802.166666666667,10,"concrete","B","",2.30258509299405,6.68731640007505,180
"433","63bed6e176fba857a47fbaff","Delicious","test_conc","concrete-positive","Concrete","VC","abstract;concrete","abstract",0,1739296413344,"abstract",822,6,"concrete","B","",1.79175946922805,6.71174039505618,181
"434","63bed6e176fba857a47fbaff","Generous","test_conc","abstract-positive","Concrete","VC","abstract;concrete","concrete",0,1739296414157,"concrete",815.333333333333,58,"concrete","B","",4.06044301054642,6.70359702757901,182
"435","63bed6e176fba857a47fbaff","Dirty","test_conc","concrete-negative","Concrete","VC","abstract;concrete","concrete",1,1739296414975,"concrete",807,64,"concrete","B","",4.15888308335967,6.69332366826995,183
"436","63bed6e176fba857a47fbaff","Rotten","test_conc","concrete-negative","Concrete","VC","abstract;concrete","concrete",1,1739296415756,"concrete",816.166666666667,25,"concrete","B","",3.2188758248682,6.70461858247426,184
"437","63bed6e176fba857a47fbaff","Hopeless","test_conc","abstract-negative","Concrete","VC","abstract;concrete","abstract",1,1739296416530,"abstract",808.166666666667,17,"concrete","B","",2.83321334405622,6.6947683078773,185
"438","63bed6e176fba857a47fbaff","Bitter","test_conc","concrete-negative","Concrete","VC","abstract;concrete","abstract",0,1739296417315,"abstract",815.416666666667,29,"concrete","B","",3.36729582998647,6.70369923004218,186
"439","63bed6e176fba857a47fbaff","Bitter","test_conc","abstract-negative","Concrete","VC","abstract;concrete","abstract",1,1739296417315,"abstract",815.416666666667,29,"concrete","B","",3.36729582998647,6.70369923004218,187
"440","63bed6e176fba857a47fbaff","Inspiring","test_conc","abstract-positive","Concrete","VC","abstract;concrete","abstract",1,1739296418099,"abstract",800.333333333333,27,"concrete","B","",3.29583686600433,6.68502830755314,188
"441","63bed6e176fba857a47fbaff","Kind","test_conc","abstract-positive","Concrete","VC","abstract;concrete","abstract",1,1739296418917,"abstract",820.833333333333,57,"concrete","B","",4.04305126783455,6.71032008437813,189
"442","63bed6e176fba857a47fbaff","Fresh","test_conc","concrete-positive","Concrete","VC","abstract;concrete","abstract",0,1739296419691,"abstract",767.833333333333,20,"concrete","B","",2.99573227355399,6.64357269570786,190
"443","63bed6e176fba857a47fbaff","Warm","test_conc","concrete-positive","Concrete","VC","abstract;concrete","abstract",0,1739296420518,"abstract",820.166666666667,68,"concrete","B","",4.21950770517611,6.70950757163792,191
"444","63bed6e176fba857a47fbaff","Grateful","test_conc","abstract-positive","Concrete","VC","abstract;concrete","abstract",1,1739296421362,"abstract",857.5,86,"concrete","B","",4.45434729625351,6.75402117904009,192
"445","63bed6e176fba857a47fbaff","Joyful","test_conc","abstract-positive","Concrete","VC","abstract;concrete","abstract",1,1739296422219,"abstract",825.833333333333,104,"concrete","B","",4.64439089914137,6.71639297753603,193
"446","63bed6e176fba857a47fbaff","Loving","test_conc","abstract-positive","Concrete","VC","abstract;concrete","abstract",1,1739296423019,"abstract",805.666666666667,43,"concrete","B","",3.76120011569356,6.69167009203537,194
"447","63bed6e176fba857a47fbaff","Regretful","test_conc","abstract-negative","Concrete","VC","abstract;concrete","concrete",0,1739296423879,"concrete",876.666666666667,105,"concrete","B","",4.65396035015752,6.7761268365037,195
"448","63bed6e176fba857a47fbaff","Anxious","test_conc","abstract-negative","Concrete","VC","abstract;concrete","concrete",0,1739296424671,"concrete",817.833333333333,35,"concrete","B","",3.55534806148941,6.70665856686185,196
"449","63bed6e176fba857a47fbaff","Ashamed","test_conc","abstract-negative","Concrete","VC","abstract;concrete","abstract",1,1739296425435,"abstract",833.333333333333,6,"concrete","B","",1.79175946922805,6.72543372218818,197
"450","63bed6e176fba857a47fbaff","Lonely","test_conc","abstract-negative","Concrete","VC","abstract;concrete","abstract",1,1739296426234,"abstract",808.5,41,"concrete","B","",3.71357206670431,6.69518067901716,198
"451","63bed6e176fba857a47fbaff","Dark","test_conc","concrete-negative","Concrete","VC","abstract;concrete","abstract",0,1739296427053,"abstract",840.5,62,"concrete","B","",4.12713438504509,6.73399695284867,199
"452","63bed6e176fba857a47fbaff","Cold","test_conc","concrete-negative","Concrete","VC","abstract;concrete","abstract",0,1739296427884,"abstract",854,73,"concrete","B","",4.29045944114839,6.74993119378857,200
"453","63bed6e176fba857a47fbaff","Fearful","test_conc","abstract-negative","Concrete","VC","abstract;concrete","abstract",1,1739296428698,"abstract",822.166666666667,61,"concrete","B","",4.11087386417331,6.71194313200568,201
