"","ID.true","Word","Label","Task","BlockOrder","EventTime","Value","ReactionTime","Key_value_F","Key_value_J","Comments","Group","LogReactionTime","TrialNumber"
"1","58472149000f1000010ebc53","hat","calibrator_val_feedback","Valence","VC",1732224795466,"positive",1509,"positive","negative","positive;negative","B",7.31920245876785,1
"2","58472149000f1000010ebc53","industry","calibrator_val_feedback","Valence","VC",1732224801783,"positive",1555,"positive","negative","positive;negative","B",7.34923082461333,2
"3","58472149000f1000010ebc53","invader","calibrator_val_feedback","Valence","VC",1732224804157,"negative",1601,"positive","negative","positive;negative","B",7.37838371299671,3
"4","58472149000f1000010ebc53","grin","calibrator_val_feedback","Valence","VC",1732224809625,"positive",2704,"positive","negative","positive;negative","B",7.90248743716286,4
"5","58472149000f1000010ebc53","joke","calibrator_val_feedback","Valence","VC",1732224814916,"positive",2531,"positive","negative","positive;negative","B",7.83636976054512,5
"6","58472149000f1000010ebc53","icebox","calibrator_val_feedback","Valence","VC",1732224819567,"positive",1887,"positive","negative","positive;negative","B",7.54274354536855,6
"7","58472149000f1000010ebc53","jail","calibrator_val_feedback","Valence","VC",1732224823687,"negative",1358,"positive","negative","positive;negative","B",7.21376830811864,7
"8","58472149000f1000010ebc53","kitten","calibrator_val_feedback","Valence","VC",1732224829065,"positive",2616,"positive","negative","positive;negative","B",7.86940171257709,8
"9","58472149000f1000010ebc53","free","calibrator_val_feedback","Valence","VC",1732224833832,"positive",2002,"positive","negative","positive;negative","B",7.60190195987517,9
"10","58472149000f1000010ebc53","insecure","calibrator_val_feedback","Valence","VC",1732224838087,"negative",1492,"positive","negative","positive;negative","B",7.30787278076371,10
"11","58472149000f1000010ebc53","free","calibrator_val_no_feedback","Valence","VC",1732224843103,"positive",2252,"B","positive;negative","","B",7.71957398925958,11
"12","58472149000f1000010ebc53","hat","calibrator_val_no_feedback","Valence","VC",1732224844944,"positive",1079,"B","positive;negative","","B",6.98378996525813,12
"13","58472149000f1000010ebc53","invader","calibrator_val_no_feedback","Valence","VC",1732224846679,"negative",974,"B","positive;negative","","B",6.88141130364254,13
"14","58472149000f1000010ebc53","kitten","calibrator_val_no_feedback","Valence","VC",1732224848596,"positive",1154,"B","positive;negative","","B",7.05098944706805,14
"15","58472149000f1000010ebc53","jail","calibrator_val_no_feedback","Valence","VC",1732224850978,"negative",1625,"B","positive;negative","","B",7.39326309476384,15
"16","58472149000f1000010ebc53","joke","calibrator_val_no_feedback","Valence","VC",1732224852736,"positive",999,"B","positive;negative","","B",6.90675477864855,16
"17","58472149000f1000010ebc53","icebox","calibrator_val_no_feedback","Valence","VC",1732224854993,"positive",1498,"B","positive;negative","","B",7.31188616407716,17
"18","58472149000f1000010ebc53","industry","calibrator_val_no_feedback","Valence","VC",1732224856664,"positive",912,"B","positive;negative","","B",6.81563999007433,18
"19","58472149000f1000010ebc53","insecure","calibrator_val_no_feedback","Valence","VC",1732224858500,"negative",1075,"B","positive;negative","","B",6.98007594056176,19
"20","58472149000f1000010ebc53","grin","calibrator_val_no_feedback","Valence","VC",1732224860264,"positive",1009,"B","positive;negative","","B",6.91671502035361,20
"21","58472149000f1000010ebc53","sugar","calibrator_conc_feedback","Concrete","VC",1732225170284,"concrete",1675,"concrete","abstract","concrete;abstract","B",7.42356844425917,21
"22","58472149000f1000010ebc53","gas","calibrator_conc_feedback","Concrete","VC",1732225174946,"concrete",1897,"concrete","abstract","concrete;abstract","B",7.54802896993501,22
"23","58472149000f1000010ebc53","kick","calibrator_conc_feedback","Concrete","VC",1732225178718,"concrete",1009,"concrete","abstract","concrete;abstract","B",6.91671502035361,23
"24","58472149000f1000010ebc53","theory","calibrator_conc_feedback","Concrete","VC",1732225182438,"abstract",958,"concrete","abstract","concrete;abstract","B",6.86484777797086,24
"25","58472149000f1000010ebc53","marriage","calibrator_conc_feedback","Concrete","VC",1732225186814,"abstract",1615,"concrete","abstract","concrete;abstract","B",7.38709023565676,25
"26","58472149000f1000010ebc53","shirt","calibrator_conc_feedback","Concrete","VC",1732225190807,"concrete",1229,"concrete","abstract","concrete;abstract","B",7.11395610956603,26
"27","58472149000f1000010ebc53","polite","calibrator_conc_feedback","Concrete","VC",1732225194791,"abstract",1222,"concrete","abstract","concrete;abstract","B",7.10824413973154,27
"28","58472149000f1000010ebc53","grasshopper","calibrator_conc_feedback","Concrete","VC",1732225198873,"concrete",1320,"concrete","abstract","concrete;abstract","B",7.18538701558042,28
"29","58472149000f1000010ebc53","insecure","calibrator_conc_feedback","Concrete","VC",1732225203175,"abstract",1537,"concrete","abstract","concrete;abstract","B",7.3375877435386,29
"30","58472149000f1000010ebc53","whistle","calibrator_conc_feedback","Concrete","VC",1732225208396,"concrete",2458,"concrete","abstract","concrete;abstract","B",7.80710329012598,30
"31","58472149000f1000010ebc53","shirt","calibrator_conc_no_feedback","Concrete","VC",1732225212215,"concrete",1058,"B","concrete;abstract","","B",6.96413561241824,31
"32","58472149000f1000010ebc53","gas","calibrator_conc_no_feedback","Concrete","VC",1732225214291,"concrete",1319,"B","concrete;abstract","","B",7.18462915271731,32
"33","58472149000f1000010ebc53","insecure","calibrator_conc_no_feedback","Concrete","VC",1732225216638,"abstract",1586,"B","concrete;abstract","","B",7.36897040219479,33
"34","58472149000f1000010ebc53","marriage","calibrator_conc_no_feedback","Concrete","VC",1732225218795,"abstract",1400,"B","concrete;abstract","","B",7.24422751560335,34
"35","58472149000f1000010ebc53","theory","calibrator_conc_no_feedback","Concrete","VC",1732225220560,"abstract",1007,"B","concrete;abstract","","B",6.91473089271856,35
"36","58472149000f1000010ebc53","grasshopper","calibrator_conc_no_feedback","Concrete","VC",1732225222251,"concrete",930,"B","concrete;abstract","","B",6.8351845861473,36
"37","58472149000f1000010ebc53","sugar","calibrator_conc_no_feedback","Concrete","VC",1732225223884,"concrete",869,"B","concrete;abstract","","B",6.76734312526539,37
"38","58472149000f1000010ebc53","polite","calibrator_conc_no_feedback","Concrete","VC",1732225225634,"abstract",992,"B","concrete;abstract","","B",6.89972310728487,38
"39","58472149000f1000010ebc53","kick","calibrator_conc_no_feedback","Concrete","VC",1732225228519,"concrete",2125,"B","concrete;abstract","","B",7.66152708135852,39
"40","58472149000f1000010ebc53","whistle","calibrator_conc_no_feedback","Concrete","VC",1732225230480,"concrete",1200,"B","concrete;abstract","","B",7.09007683577609,40
"41","5e531b2205acdb33c0f5f24c","grasshopper","calibrator_conc_feedback","Concrete","CV",1732206481490,"abstract",1355,"abstract","concrete","abstract;concrete","A",7.2115567333138,1
"42","5e531b2205acdb33c0f5f24c","polite","calibrator_conc_feedback","Concrete","CV",1732206485720,"concrete",1461,"abstract","concrete","abstract;concrete","A",7.2868764117507,2
"43","5e531b2205acdb33c0f5f24c","theory","calibrator_conc_feedback","Concrete","CV",1732206490413,"abstract",1932,"abstract","concrete","abstract;concrete","A",7.56631101477246,3
"44","5e531b2205acdb33c0f5f24c","marriage","calibrator_conc_feedback","Concrete","CV",1732206496020,"concrete",2843,"abstract","concrete","abstract;concrete","A",7.952615111651,4
"45","5e531b2205acdb33c0f5f24c","gas","calibrator_conc_feedback","Concrete","CV",1732206499820,"abstract",1040,"abstract","concrete","abstract;concrete","A",6.94697599213542,5
"46","5e531b2205acdb33c0f5f24c","shirt","calibrator_conc_feedback","Concrete","CV",1732206505228,"concrete",2648,"abstract","concrete","abstract;concrete","A",7.8815599170569,6
"47","5e531b2205acdb33c0f5f24c","kick","calibrator_conc_feedback","Concrete","CV",1732206510416,"concrete",2423,"abstract","concrete","abstract;concrete","A",7.79276172081653,7
"48","5e531b2205acdb33c0f5f24c","insecure","calibrator_conc_feedback","Concrete","CV",1732206514697,"abstract",1517,"abstract","concrete","abstract;concrete","A",7.32448997934853,8
"49","5e531b2205acdb33c0f5f24c","whistle","calibrator_conc_feedback","Concrete","CV",1732206518522,"concrete",1061,"abstract","concrete","abstract;concrete","A",6.96696713861398,9
"50","5e531b2205acdb33c0f5f24c","sugar","calibrator_conc_feedback","Concrete","CV",1732206522874,"concrete",1590,"abstract","concrete","abstract;concrete","A",7.37148929521428,10
"51","5e531b2205acdb33c0f5f24c","theory","calibrator_conc_no_feedback","Concrete","CV",1732206526356,"abstract",717,"A","abstract;concrete","","A",6.57507584059962,11
"52","5e531b2205acdb33c0f5f24c","kick","calibrator_conc_no_feedback","Concrete","CV",1732206528512,"concrete",1398,"A","abstract;concrete","","A",7.24279792279376,12
"53","5e531b2205acdb33c0f5f24c","sugar","calibrator_conc_no_feedback","Concrete","CV",1732206532218,"concrete",2950,"A","abstract;concrete","","A",7.98956044933387,13
"54","5e531b2205acdb33c0f5f24c","grasshopper","calibrator_conc_no_feedback","Concrete","CV",1732206533946,"concrete",970,"A","abstract;concrete","","A",6.87729607149743,14
"55","5e531b2205acdb33c0f5f24c","polite","calibrator_conc_no_feedback","Concrete","CV",1732206536120,"abstract",1414,"A","abstract;concrete","","A",7.25417784645652,15
"56","5e531b2205acdb33c0f5f24c","shirt","calibrator_conc_no_feedback","Concrete","CV",1732206537972,"concrete",1093,"A","abstract;concrete","","A",6.99668148817654,16
"57","5e531b2205acdb33c0f5f24c","marriage","calibrator_conc_no_feedback","Concrete","CV",1732206540026,"abstract",1296,"A","abstract;concrete","","A",7.16703787691222,17
"58","5e531b2205acdb33c0f5f24c","whistle","calibrator_conc_no_feedback","Concrete","CV",1732206542452,"concrete",1667,"A","abstract;concrete","","A",7.41878088275079,18
"59","5e531b2205acdb33c0f5f24c","gas","calibrator_conc_no_feedback","Concrete","CV",1732206544092,"concrete",883,"A","abstract;concrete","","A",6.78332520060396,19
"60","5e531b2205acdb33c0f5f24c","insecure","calibrator_conc_no_feedback","Concrete","CV",1732206546494,"abstract",1643,"A","abstract;concrete","","A",7.40427911803727,20
"61","5e531b2205acdb33c0f5f24c","invader","calibrator_val_feedback","Valence","CV",1732206817994,"negative",1358,"negative","positive","negative;positive","A",7.21376830811864,21
"62","5e531b2205acdb33c0f5f24c","hat","calibrator_val_feedback","Valence","CV",1732206821740,"positive",987,"negative","positive","negative;positive","A",6.89467003943348,22
"63","5e531b2205acdb33c0f5f24c","kitten","calibrator_val_feedback","Valence","CV",1732206825648,"positive",1142,"negative","positive","negative;positive","A",7.04053639021596,23
"64","5e531b2205acdb33c0f5f24c","insecure","calibrator_val_feedback","Valence","CV",1732206829152,"negative",745,"negative","positive","negative;positive","A",6.61338421837956,24
"65","5e531b2205acdb33c0f5f24c","industry","calibrator_val_feedback","Valence","CV",1732206832858,"positive",946,"negative","positive","negative;positive","A",6.85224256905188,25
"66","5e531b2205acdb33c0f5f24c","joke","calibrator_val_feedback","Valence","CV",1732206836586,"positive",968,"negative","positive","negative;positive","A",6.87523208727658,26
"67","5e531b2205acdb33c0f5f24c","jail","calibrator_val_feedback","Valence","CV",1732206840290,"negative",942,"negative","positive","negative;positive","A",6.84800527457636,27
"68","5e531b2205acdb33c0f5f24c","grin","calibrator_val_feedback","Valence","CV",1732206844239,"positive",1183,"negative","positive","negative;positive","A",7.07580886397839,28
"69","5e531b2205acdb33c0f5f24c","icebox","calibrator_val_feedback","Valence","CV",1732206847824,"positive",823,"negative","positive","negative;positive","A",6.71295620067707,29
"70","5e531b2205acdb33c0f5f24c","free","calibrator_val_feedback","Valence","CV",1732206851288,"positive",704,"negative","positive","negative;positive","A",6.55677835615804,30
"71","5e531b2205acdb33c0f5f24c","industry","calibrator_val_no_feedback","Valence","CV",1732206855236,"negative",1179,"A","negative;positive","","A",7.07242190053737,31
"72","5e531b2205acdb33c0f5f24c","jail","calibrator_val_no_feedback","Valence","CV",1732206857009,"negative",1014,"A","negative;positive","","A",6.92165818415113,32
"73","5e531b2205acdb33c0f5f24c","insecure","calibrator_val_no_feedback","Valence","CV",1732206858782,"negative",1014,"A","negative;positive","","A",6.92165818415113,33
"74","5e531b2205acdb33c0f5f24c","joke","calibrator_val_no_feedback","Valence","CV",1732206860312,"positive",769,"A","negative;positive","","A",6.64509096950564,34
"75","5e531b2205acdb33c0f5f24c","kitten","calibrator_val_no_feedback","Valence","CV",1732206861662,"positive",593,"A","negative;positive","","A",6.38519439899773,35
"76","5e531b2205acdb33c0f5f24c","hat","calibrator_val_no_feedback","Valence","CV",1732206862970,"positive",549,"A","negative;positive","","A",6.30809844150953,36
"77","5e531b2205acdb33c0f5f24c","icebox","calibrator_val_no_feedback","Valence","CV",1732206864240,"positive",512,"A","negative;positive","","A",6.23832462503951,37
"78","5e531b2205acdb33c0f5f24c","invader","calibrator_val_no_feedback","Valence","CV",1732206865609,"negative",611,"A","negative;positive","","A",6.4150969591716,38
"79","5e531b2205acdb33c0f5f24c","grin","calibrator_val_no_feedback","Valence","CV",1732206867040,"positive",674,"A","negative;positive","","A",6.51323011091231,39
"80","5e531b2205acdb33c0f5f24c","free","calibrator_val_no_feedback","Valence","CV",1732206868429,"positive",630,"A","negative;positive","","A",6.44571981938558,40
"81","62fbc9730a4b70bcc1c942b3","invader","calibrator_val_feedback","Valence","VC",1732222760807,"negative",1387,"positive","negative","positive;negative","B",7.23489842031483,1
"82","62fbc9730a4b70bcc1c942b3","jail","calibrator_val_feedback","Valence","VC",1732222764417,"negative",844,"positive","negative","positive;negative","B",6.73815249459596,2
"83","62fbc9730a4b70bcc1c942b3","joke","calibrator_val_feedback","Valence","VC",1732222768111,"positive",935,"positive","negative","positive;negative","B",6.84054652928869,3
"84","62fbc9730a4b70bcc1c942b3","free","calibrator_val_feedback","Valence","VC",1732222771622,"positive",753,"positive","negative","positive;negative","B",6.62406522779989,4
"85","62fbc9730a4b70bcc1c942b3","kitten","calibrator_val_feedback","Valence","VC",1732222774991,"positive",606,"positive","negative","positive;negative","B",6.40687998606931,5
"86","62fbc9730a4b70bcc1c942b3","industry","calibrator_val_feedback","Valence","VC",1732222780283,"positive",2531,"positive","negative","positive;negative","B",7.83636976054512,6
"87","62fbc9730a4b70bcc1c942b3","grin","calibrator_val_feedback","Valence","VC",1732222783681,"positive",639,"positive","negative","positive;negative","B",6.45990445437753,7
"88","62fbc9730a4b70bcc1c942b3","icebox","calibrator_val_feedback","Valence","VC",1732222787625,"positive",1180,"positive","negative","positive;negative","B",7.07326971745971,8
"89","62fbc9730a4b70bcc1c942b3","insecure","calibrator_val_feedback","Valence","VC",1732222791227,"negative",840,"positive","negative","positive;negative","B",6.73340189183736,9
"90","62fbc9730a4b70bcc1c942b3","hat","calibrator_val_feedback","Valence","VC",1732222795442,"positive",1454,"positive","negative","positive;negative","B",7.28207365809346,10
"91","62fbc9730a4b70bcc1c942b3","jail","calibrator_val_no_feedback","Valence","VC",1732222798762,"negative",563,"B","positive;negative","","B",6.33327962813969,11
"92","62fbc9730a4b70bcc1c942b3","joke","calibrator_val_no_feedback","Valence","VC",1732222800349,"positive",827,"B","positive;negative","","B",6.71780469502369,12
"93","62fbc9730a4b70bcc1c942b3","kitten","calibrator_val_no_feedback","Valence","VC",1732222801663,"positive",557,"B","positive;negative","","B",6.32256523992728,13
"94","62fbc9730a4b70bcc1c942b3","invader","calibrator_val_no_feedback","Valence","VC",1732222803053,"negative",629,"B","positive;negative","","B",6.44413125670044,14
"95","62fbc9730a4b70bcc1c942b3","free","calibrator_val_no_feedback","Valence","VC",1732222804431,"positive",623,"B","positive;negative","","B",6.43454651878745,15
"96","62fbc9730a4b70bcc1c942b3","insecure","calibrator_val_no_feedback","Valence","VC",1732222805917,"negative",729,"B","positive;negative","","B",6.59167373200866,16
"97","62fbc9730a4b70bcc1c942b3","industry","calibrator_val_no_feedback","Valence","VC",1732222807236,"positive",565,"B","positive;negative","","B",6.33682573114644,17
"98","62fbc9730a4b70bcc1c942b3","icebox","calibrator_val_no_feedback","Valence","VC",1732222808577,"negative",586,"B","positive;negative","","B",6.37331978957701,18
"99","62fbc9730a4b70bcc1c942b3","hat","calibrator_val_no_feedback","Valence","VC",1732222809850,"positive",516,"B","positive;negative","","B",6.24610676548156,19
"100","62fbc9730a4b70bcc1c942b3","grin","calibrator_val_no_feedback","Valence","VC",1732222811137,"positive",529,"B","positive;negative","","B",6.2709884318583,20
"101","62fbc9730a4b70bcc1c942b3","polite","calibrator_conc_feedback","Concrete","VC",1732223064604,"abstract",1791,"concrete","abstract","concrete;abstract","B",7.49052940206071,21
"102","62fbc9730a4b70bcc1c942b3","grasshopper","calibrator_conc_feedback","Concrete","VC",1732223068164,"concrete",799,"concrete","abstract","concrete;abstract","B",6.68336094576627,22
"103","62fbc9730a4b70bcc1c942b3","kick","calibrator_conc_feedback","Concrete","VC",1732223071652,"concrete",727,"concrete","abstract","concrete;abstract","B",6.58892647753352,23
"104","62fbc9730a4b70bcc1c942b3","sugar","calibrator_conc_feedback","Concrete","VC",1732223075222,"concrete",810,"concrete","abstract","concrete;abstract","B",6.69703424766648,24
"105","62fbc9730a4b70bcc1c942b3","whistle","calibrator_conc_feedback","Concrete","VC",1732223081270,"abstract",3289,"concrete","abstract","concrete;abstract","B",8.09833884618906,25
"106","62fbc9730a4b70bcc1c942b3","insecure","calibrator_conc_feedback","Concrete","VC",1732223085033,"abstract",1003,"concrete","abstract","concrete;abstract","B",6.91075078796194,26
"107","62fbc9730a4b70bcc1c942b3","gas","calibrator_conc_feedback","Concrete","VC",1732223089060,"concrete",1267,"concrete","abstract","concrete;abstract","B",7.14440718032114,27
"108","62fbc9730a4b70bcc1c942b3","theory","calibrator_conc_feedback","Concrete","VC",1732223092503,"abstract",678,"concrete","abstract","concrete;abstract","B",6.5191472879404,28
"109","62fbc9730a4b70bcc1c942b3","shirt","calibrator_conc_feedback","Concrete","VC",1732223096650,"concrete",1385,"concrete","abstract","concrete;abstract","B",7.23345541862144,29
"110","62fbc9730a4b70bcc1c942b3","marriage","calibrator_conc_feedback","Concrete","VC",1732223100160,"concrete",753,"concrete","abstract","concrete;abstract","B",6.62406522779989,30
"111","62fbc9730a4b70bcc1c942b3","whistle","calibrator_conc_no_feedback","Concrete","VC",1732223106123,"concrete",3204,"B","concrete;abstract","","B",8.07215530818825,31
"112","62fbc9730a4b70bcc1c942b3","shirt","calibrator_conc_no_feedback","Concrete","VC",1732223107721,"concrete",841,"B","concrete;abstract","","B",6.73459165997295,32
"113","62fbc9730a4b70bcc1c942b3","insecure","calibrator_conc_no_feedback","Concrete","VC",1732223109491,"abstract",1013,"B","concrete;abstract","","B",6.92067150424868,33
"114","62fbc9730a4b70bcc1c942b3","kick","calibrator_conc_no_feedback","Concrete","VC",1732223110969,"concrete",719,"B","concrete;abstract","","B",6.57786135772105,34
"115","62fbc9730a4b70bcc1c942b3","polite","calibrator_conc_no_feedback","Concrete","VC",1732223112709,"abstract",984,"B","concrete;abstract","","B",6.89162589705225,35
"116","62fbc9730a4b70bcc1c942b3","grasshopper","calibrator_conc_no_feedback","Concrete","VC",1732223114638,"concrete",1172,"B","concrete;abstract","","B",7.06646697013696,36
"117","62fbc9730a4b70bcc1c942b3","marriage","calibrator_conc_no_feedback","Concrete","VC",1732223116122,"abstract",731,"B","concrete;abstract","","B",6.59441345974978,37
"118","62fbc9730a4b70bcc1c942b3","theory","calibrator_conc_no_feedback","Concrete","VC",1732223117739,"abstract",859,"B","concrete;abstract","","B",6.75576892198425,38
"119","62fbc9730a4b70bcc1c942b3","sugar","calibrator_conc_no_feedback","Concrete","VC",1732223119031,"concrete",536,"B","concrete;abstract","","B",6.2841341610708,39
"120","62fbc9730a4b70bcc1c942b3","gas","calibrator_conc_no_feedback","Concrete","VC",1732223120463,"concrete",677,"B","concrete;abstract","","B",6.51767127291227,40
"121","5c10724111fe9a00013cd815","marriage","calibrator_conc_feedback","Concrete","CV",1732206758586,"abstract",2651,"abstract","concrete","abstract;concrete","A",7.88269220628903,1
"122","5c10724111fe9a00013cd815","grasshopper","calibrator_conc_feedback","Concrete","CV",1732206762801,"concrete",2856,"abstract","concrete","abstract;concrete","A",7.95717732345947,2
"123","5c10724111fe9a00013cd815","polite","calibrator_conc_feedback","Concrete","CV",1732206768895,"abstract",3321,"abstract","concrete","abstract;concrete","A",8.10802122137675,3
"124","5c10724111fe9a00013cd815","sugar","calibrator_conc_feedback","Concrete","CV",1732206773414,"concrete",1746,"abstract","concrete","abstract;concrete","A",7.46508273639955,4
"125","5c10724111fe9a00013cd815","gas","calibrator_conc_feedback","Concrete","CV",1732206778751,"concrete",2560,"abstract","concrete","abstract;concrete","A",7.84776253747361,5
"126","5c10724111fe9a00013cd815","insecure","calibrator_conc_feedback","Concrete","CV",1732206782929,"abstract",1402,"abstract","concrete","abstract;concrete","A",7.24565506759454,6
"127","5c10724111fe9a00013cd815","whistle","calibrator_conc_feedback","Concrete","CV",1732206787303,"concrete",1598,"abstract","concrete","abstract;concrete","A",7.37650812632622,7
"128","5c10724111fe9a00013cd815","kick","calibrator_conc_feedback","Concrete","CV",1732206792762,"concrete",2682,"abstract","concrete","abstract;concrete","A",7.89431806384162,8
"129","5c10724111fe9a00013cd815","theory","calibrator_conc_feedback","Concrete","CV",1732206797912,"abstract",2374,"abstract","concrete","abstract;concrete","A",7.77233157516961,9
"130","5c10724111fe9a00013cd815","shirt","calibrator_conc_feedback","Concrete","CV",1732206801787,"concrete",1104,"abstract","concrete","abstract;concrete","A",7.00669522683704,10
"131","5c10724111fe9a00013cd815","grasshopper","calibrator_conc_no_feedback","Concrete","CV",1732206806322,"concrete",1759,"A","abstract;concrete","","A",7.47250074473756,11
"132","5c10724111fe9a00013cd815","marriage","calibrator_conc_no_feedback","Concrete","CV",1732206809007,"abstract",1913,"A","abstract;concrete","","A",7.55642796944025,12
"133","5c10724111fe9a00013cd815","sugar","calibrator_conc_no_feedback","Concrete","CV",1732206811541,"concrete",1768,"A","abstract;concrete","","A",7.47760424319759,13
"134","5c10724111fe9a00013cd815","insecure","calibrator_conc_no_feedback","Concrete","CV",1732206813347,"abstract",1040,"A","abstract;concrete","","A",6.94697599213542,14
"135","5c10724111fe9a00013cd815","polite","calibrator_conc_no_feedback","Concrete","CV",1732206815517,"abstract",1399,"A","abstract;concrete","","A",7.24351297466548,15
"136","5c10724111fe9a00013cd815","gas","calibrator_conc_no_feedback","Concrete","CV",1732206817179,"concrete",900,"A","abstract;concrete","","A",6.80239476332431,16
"137","5c10724111fe9a00013cd815","kick","calibrator_conc_no_feedback","Concrete","CV",1732206819342,"concrete",1391,"A","abstract;concrete","","A",7.23777819192344,17
"138","5c10724111fe9a00013cd815","theory","calibrator_conc_no_feedback","Concrete","CV",1732206820966,"abstract",856,"A","abstract;concrete","","A",6.75227037614174,18
"139","5c10724111fe9a00013cd815","shirt","calibrator_conc_no_feedback","Concrete","CV",1732206823292,"concrete",1565,"A","abstract;concrete","","A",7.35564110297425,19
"140","5c10724111fe9a00013cd815","whistle","calibrator_conc_no_feedback","Concrete","CV",1732206825237,"concrete",1177,"A","abstract;concrete","","A",7.07072410726028,20
"141","5c10724111fe9a00013cd815","kitten","calibrator_val_feedback","Valence","CV",1732207129326,"positive",1336,"negative","positive","negative;positive","A",7.19743535409659,21
"142","5c10724111fe9a00013cd815","joke","calibrator_val_feedback","Valence","CV",1732207133856,"positive",2274,"negative","positive","negative;positive","A",7.72929567431048,22
"143","5c10724111fe9a00013cd815","hat","calibrator_val_feedback","Valence","CV",1732207137624,"positive",1498,"negative","positive","negative;positive","A",7.31188616407716,23
"144","5c10724111fe9a00013cd815","jail","calibrator_val_feedback","Valence","CV",1732207141846,"positive",2110,"negative","positive","negative;positive","A",7.65444322647011,24
"145","5c10724111fe9a00013cd815","free","calibrator_val_feedback","Valence","CV",1732207145858,"positive",1242,"negative","positive","negative;positive","A",7.12447826249342,25
"146","5c10724111fe9a00013cd815","insecure","calibrator_val_feedback","Valence","CV",1732207150223,"negative",1591,"negative","positive","negative;positive","A",7.37211802833779,26
"147","5c10724111fe9a00013cd815","grin","calibrator_val_feedback","Valence","CV",1732207154326,"positive",1325,"negative","positive","negative;positive","A",7.18916773842032,27
"148","5c10724111fe9a00013cd815","invader","calibrator_val_feedback","Valence","CV",1732207159718,"negative",2620,"negative","positive","negative;positive","A",7.87092959675514,28
"149","5c10724111fe9a00013cd815","icebox","calibrator_val_feedback","Valence","CV",1732207164987,"positive",2497,"negative","positive","negative;positive","A",7.82284529027977,29
"150","5c10724111fe9a00013cd815","industry","calibrator_val_feedback","Valence","CV",1732207170267,"positive",2504,"negative","positive","negative;positive","A",7.82564473221999,30
"151","5c10724111fe9a00013cd815","joke","calibrator_val_no_feedback","Valence","CV",1732207174848,"positive",1802,"A","negative;positive","","A",7.49665243816828,31
"152","5c10724111fe9a00013cd815","grin","calibrator_val_no_feedback","Valence","CV",1732207177067,"positive",1459,"A","negative;positive","","A",7.28550654852279,32
"153","5c10724111fe9a00013cd815","hat","calibrator_val_no_feedback","Valence","CV",1732207178863,"negative",1024,"A","negative;positive","","A",6.93147180559945,33
"154","5c10724111fe9a00013cd815","jail","calibrator_val_no_feedback","Valence","CV",1732207180734,"negative",1103,"A","negative;positive","","A",7.0057890192535,34
"155","5c10724111fe9a00013cd815","kitten","calibrator_val_no_feedback","Valence","CV",1732207182490,"positive",989,"A","negative;positive","","A",6.89669433162271,35
"156","5c10724111fe9a00013cd815","insecure","calibrator_val_no_feedback","Valence","CV",1732207184516,"negative",1256,"A","negative;positive","","A",7.13568734702814,36
"157","5c10724111fe9a00013cd815","icebox","calibrator_val_no_feedback","Valence","CV",1732207186292,"positive",1005,"A","negative;positive","","A",6.91274282049318,37
"158","5c10724111fe9a00013cd815","free","calibrator_val_no_feedback","Valence","CV",1732207188009,"positive",951,"A","negative;positive","","A",6.85751406254539,38
"159","5c10724111fe9a00013cd815","invader","calibrator_val_no_feedback","Valence","CV",1732207190044,"negative",1271,"A","negative;positive","","A",7.14755927118945,39
"160","5c10724111fe9a00013cd815","industry","calibrator_val_no_feedback","Valence","CV",1732207192257,"positive",1445,"A","negative;positive","","A",7.27586460054653,40
"161","5748814f7fd0ec000fb6e5bf","shirt","calibrator_conc_feedback","Concrete","CV",1732215451180,"concrete",1623,"concrete","abstract","concrete;abstract","B",7.39203156751459,1
"162","5748814f7fd0ec000fb6e5bf","insecure","calibrator_conc_feedback","Concrete","CV",1732215454397,"concrete",2290,"concrete","abstract","concrete;abstract","B",7.73630709654828,2
"163","5748814f7fd0ec000fb6e5bf","gas","calibrator_conc_feedback","Concrete","CV",1732215458684,"abstract",1522,"concrete","abstract","concrete;abstract","B",7.32778053842163,3
"164","5748814f7fd0ec000fb6e5bf","sugar","calibrator_conc_feedback","Concrete","CV",1732215464445,"concrete",3000,"concrete","abstract","concrete;abstract","B",8.00636756765025,4
"165","5748814f7fd0ec000fb6e5bf","kick","calibrator_conc_feedback","Concrete","CV",1732215468308,"abstract",1100,"concrete","abstract","concrete;abstract","B",7.00306545878646,5
"166","5748814f7fd0ec000fb6e5bf","whistle","calibrator_conc_feedback","Concrete","CV",1732215472158,"abstract",1083,"concrete","abstract","concrete;abstract","B",6.98749024700099,6
"167","5748814f7fd0ec000fb6e5bf","polite","calibrator_conc_feedback","Concrete","CV",1732215478948,"abstract",4024,"concrete","abstract","concrete;abstract","B",8.30003171177957,7
"168","5748814f7fd0ec000fb6e5bf","grasshopper","calibrator_conc_feedback","Concrete","CV",1732215482809,"concrete",1098,"concrete","abstract","concrete;abstract","B",7.00124562206948,8
"169","5748814f7fd0ec000fb6e5bf","marriage","calibrator_conc_feedback","Concrete","CV",1732215487322,"concrete",1749,"concrete","abstract","concrete;abstract","B",7.4667994750186,9
"170","5748814f7fd0ec000fb6e5bf","theory","calibrator_conc_feedback","Concrete","CV",1732215491133,"abstract",1044,"concrete","abstract","concrete;abstract","B",6.95081476844258,10
"171","5748814f7fd0ec000fb6e5bf","insecure","calibrator_conc_no_feedback","Concrete","CV",1732215494728,"abstract",832,"B","concrete;abstract","","B",6.72383244082121,11
"172","5748814f7fd0ec000fb6e5bf","grasshopper","calibrator_conc_no_feedback","Concrete","CV",1732215496156,"concrete",670,"B","concrete;abstract","","B",6.50727771238501,12
"173","5748814f7fd0ec000fb6e5bf","kick","calibrator_conc_no_feedback","Concrete","CV",1732215498471,"abstract",1553,"B","concrete;abstract","","B",7.34794382314869,13
"174","5748814f7fd0ec000fb6e5bf","polite","calibrator_conc_no_feedback","Concrete","CV",1732215501065,"abstract",1831,"B","concrete;abstract","","B",7.51261754467451,14
"175","5748814f7fd0ec000fb6e5bf","shirt","calibrator_conc_no_feedback","Concrete","CV",1732215502625,"concrete",799,"B","concrete;abstract","","B",6.68336094576627,15
"176","5748814f7fd0ec000fb6e5bf","theory","calibrator_conc_no_feedback","Concrete","CV",1732215505321,"abstract",1934,"B","concrete;abstract","","B",7.56734567601324,16
"177","5748814f7fd0ec000fb6e5bf","marriage","calibrator_conc_no_feedback","Concrete","CV",1732215506981,"concrete",903,"B","concrete;abstract","","B",6.80572255341699,17
"178","5748814f7fd0ec000fb6e5bf","whistle","calibrator_conc_no_feedback","Concrete","CV",1732215508711,"abstract",969,"B","concrete;abstract","","B",6.87626461189077,18
"179","5748814f7fd0ec000fb6e5bf","sugar","calibrator_conc_no_feedback","Concrete","CV",1732215510230,"concrete",756,"B","concrete;abstract","","B",6.62804137617953,19
"180","5748814f7fd0ec000fb6e5bf","gas","calibrator_conc_no_feedback","Concrete","CV",1732215512939,"concrete",1949,"B","concrete;abstract","","B",7.57507169950756,20
"181","5748814f7fd0ec000fb6e5bf","free","calibrator_val_feedback","Valence","CV",1732216418475,"positive",895,"positive","negative","positive;negative","B",6.79682371827486,21
"182","5748814f7fd0ec000fb6e5bf","hat","calibrator_val_feedback","Valence","CV",1732216423392,"positive",2153,"positive","negative","positive;negative","B",7.67461749736436,22
"183","5748814f7fd0ec000fb6e5bf","grin","calibrator_val_feedback","Valence","CV",1732216426920,"positive",764,"positive","negative","positive;negative","B",6.63856778916652,23
"184","5748814f7fd0ec000fb6e5bf","kitten","calibrator_val_feedback","Valence","CV",1732216430397,"positive",715,"positive","negative","positive;negative","B",6.57228254269401,24
"185","5748814f7fd0ec000fb6e5bf","jail","calibrator_val_feedback","Valence","CV",1732216434450,"negative",1293,"positive","negative","positive;negative","B",7.16472037877186,25
"186","5748814f7fd0ec000fb6e5bf","icebox","calibrator_val_feedback","Valence","CV",1732216439129,"positive",1915,"positive","negative","positive;negative","B",7.55747290161475,26
"187","5748814f7fd0ec000fb6e5bf","invader","calibrator_val_feedback","Valence","CV",1732216443142,"negative",1249,"positive","negative","positive;negative","B",7.13009851012558,27
"188","5748814f7fd0ec000fb6e5bf","joke","calibrator_val_feedback","Valence","CV",1732216447200,"positive",1300,"positive","negative","positive;negative","B",7.17011954344963,28
"189","5748814f7fd0ec000fb6e5bf","insecure","calibrator_val_feedback","Valence","CV",1732216451052,"negative",1085,"positive","negative","positive;negative","B",6.98933526597456,29
"190","5748814f7fd0ec000fb6e5bf","industry","calibrator_val_feedback","Valence","CV",1732216455398,"positive",1583,"positive","negative","positive;negative","B",7.36707705988101,30
"191","5748814f7fd0ec000fb6e5bf","free","calibrator_val_no_feedback","Valence","CV",1732216459069,"positive",907,"B","positive;negative","","B",6.81014245011514,31
"192","5748814f7fd0ec000fb6e5bf","icebox","calibrator_val_no_feedback","Valence","CV",1732216460775,"positive",946,"B","positive;negative","","B",6.85224256905188,32
"193","5748814f7fd0ec000fb6e5bf","jail","calibrator_val_no_feedback","Valence","CV",1732216462826,"negative",1290,"B","positive;negative","","B",7.16239749735572,33
"194","5748814f7fd0ec000fb6e5bf","hat","calibrator_val_no_feedback","Valence","CV",1732216464294,"positive",708,"B","positive;negative","","B",6.56244409369372,34
"195","5748814f7fd0ec000fb6e5bf","insecure","calibrator_val_no_feedback","Valence","CV",1732216465658,"negative",607,"B","positive;negative","","B",6.4085287910595,35
"196","5748814f7fd0ec000fb6e5bf","invader","calibrator_val_no_feedback","Valence","CV",1732216467020,"negative",602,"B","positive;negative","","B",6.40025744530882,36
"197","5748814f7fd0ec000fb6e5bf","grin","calibrator_val_no_feedback","Valence","CV",1732216468580,"positive",803,"B","positive;negative","","B",6.68835471394676,37
"198","5748814f7fd0ec000fb6e5bf","kitten","calibrator_val_no_feedback","Valence","CV",1732216469976,"positive",639,"B","positive;negative","","B",6.45990445437753,38
"199","5748814f7fd0ec000fb6e5bf","joke","calibrator_val_no_feedback","Valence","CV",1732216471561,"positive",824,"B","positive;negative","","B",6.71417052990947,39
"200","5748814f7fd0ec000fb6e5bf","industry","calibrator_val_no_feedback","Valence","CV",1732216473233,"positive",911,"B","positive;negative","","B",6.81454289725996,40
"201","60fc5d49ff20168d794fe083","marriage","calibrator_conc_feedback","Concrete","CV",1732205369797,"concrete",1629,"abstract","concrete","abstract;concrete","A",7.39572160860205,1
"202","60fc5d49ff20168d794fe083","theory","calibrator_conc_feedback","Concrete","CV",1732205372467,"abstract",1511,"abstract","concrete","abstract;concrete","A",7.32052696227274,2
"203","60fc5d49ff20168d794fe083","polite","calibrator_conc_feedback","Concrete","CV",1732205377745,"abstract",2520,"abstract","concrete","abstract;concrete","A",7.83201418050547,3
"204","60fc5d49ff20168d794fe083","gas","calibrator_conc_feedback","Concrete","CV",1732205381781,"concrete",1275,"abstract","concrete","abstract;concrete","A",7.15070145759253,4
"205","60fc5d49ff20168d794fe083","shirt","calibrator_conc_feedback","Concrete","CV",1732205385571,"concrete",1030,"abstract","concrete","abstract;concrete","A",6.93731408122368,5
"206","60fc5d49ff20168d794fe083","grasshopper","calibrator_conc_feedback","Concrete","CV",1732205389558,"concrete",1221,"abstract","concrete","abstract;concrete","A",7.1074254741107,6
"207","60fc5d49ff20168d794fe083","sugar","calibrator_conc_feedback","Concrete","CV",1732205393393,"concrete",1070,"abstract","concrete","abstract;concrete","A",6.97541392745595,7
"208","60fc5d49ff20168d794fe083","insecure","calibrator_conc_feedback","Concrete","CV",1732205397310,"abstract",1156,"abstract","concrete","abstract;concrete","A",7.05272104923232,8
"209","60fc5d49ff20168d794fe083","kick","calibrator_conc_feedback","Concrete","CV",1732205400950,"concrete",881,"abstract","concrete","abstract;concrete","A",6.78105762593618,9
"210","60fc5d49ff20168d794fe083","whistle","calibrator_conc_feedback","Concrete","CV",1732205404672,"concrete",962,"abstract","concrete","abstract;concrete","A",6.86901445066571,10
"211","60fc5d49ff20168d794fe083","kick","calibrator_conc_no_feedback","Concrete","CV",1732205408333,"concrete",905,"A","abstract;concrete","","A",6.80793494369993,11
"212","60fc5d49ff20168d794fe083","sugar","calibrator_conc_no_feedback","Concrete","CV",1732205409784,"concrete",695,"A","abstract;concrete","","A",6.54391184556479,12
"213","60fc5d49ff20168d794fe083","grasshopper","calibrator_conc_no_feedback","Concrete","CV",1732205411128,"concrete",589,"A","abstract;concrete","","A",6.37842618365159,13
"214","60fc5d49ff20168d794fe083","marriage","calibrator_conc_no_feedback","Concrete","CV",1732205412472,"concrete",588,"A","abstract;concrete","","A",6.37672694789863,14
"215","60fc5d49ff20168d794fe083","shirt","calibrator_conc_no_feedback","Concrete","CV",1732205413789,"concrete",559,"A","abstract;concrete","","A",6.3261494731551,15
"216","60fc5d49ff20168d794fe083","insecure","calibrator_conc_no_feedback","Concrete","CV",1732205415347,"abstract",804,"A","abstract;concrete","","A",6.68959926917897,16
"217","60fc5d49ff20168d794fe083","polite","calibrator_conc_no_feedback","Concrete","CV",1732205416834,"abstract",730,"A","abstract;concrete","","A",6.59304453414244,17
"218","60fc5d49ff20168d794fe083","gas","calibrator_conc_no_feedback","Concrete","CV",1732205418458,"concrete",867,"A","abstract;concrete","","A",6.76503897678054,18
"219","60fc5d49ff20168d794fe083","whistle","calibrator_conc_no_feedback","Concrete","CV",1732205419841,"concrete",630,"A","abstract;concrete","","A",6.44571981938558,19
"220","60fc5d49ff20168d794fe083","theory","calibrator_conc_no_feedback","Concrete","CV",1732205421458,"abstract",861,"A","abstract;concrete","","A",6.75809450442773,20
"221","60fc5d49ff20168d794fe083","hat","calibrator_val_feedback","Valence","CV",1732206083012,"positive",1046,"negative","positive","negative;positive","A",6.95272864462487,21
"222","60fc5d49ff20168d794fe083","kitten","calibrator_val_feedback","Valence","CV",1732206086987,"positive",1222,"negative","positive","negative;positive","A",7.10824413973154,22
"223","60fc5d49ff20168d794fe083","invader","calibrator_val_feedback","Valence","CV",1732206090477,"negative",736,"negative","positive","negative;positive","A",6.60123011872888,23
"224","60fc5d49ff20168d794fe083","free","calibrator_val_feedback","Valence","CV",1732206093885,"positive",653,"negative","positive","negative;positive","A",6.48157712927643,24
"225","60fc5d49ff20168d794fe083","icebox","calibrator_val_feedback","Valence","CV",1732206097759,"positive",1121,"negative","positive","negative;positive","A",7.02197642307216,25
"226","60fc5d49ff20168d794fe083","joke","calibrator_val_feedback","Valence","CV",1732206101795,"positive",1278,"negative","positive","negative;positive","A",7.15305163493748,26
"227","60fc5d49ff20168d794fe083","industry","calibrator_val_feedback","Valence","CV",1732206112121,"positive",7570,"negative","positive","negative;positive","A",8.9319483464315,27
"228","60fc5d49ff20168d794fe083","grin","calibrator_val_feedback","Valence","CV",1732206116033,"positive",1151,"negative","positive","negative;positive","A",7.04838640872188,28
"229","60fc5d49ff20168d794fe083","insecure","calibrator_val_feedback","Valence","CV",1732206120024,"negative",1233,"negative","positive","negative;positive","A",7.11720550316434,29
"230","60fc5d49ff20168d794fe083","jail","calibrator_val_feedback","Valence","CV",1732206123874,"negative",1089,"negative","positive","negative;positive","A",6.99301512293296,30
"231","60fc5d49ff20168d794fe083","free","calibrator_val_no_feedback","Valence","CV",1732206127576,"positive",947,"A","negative;positive","","A",6.85329909318608,31
"232","60fc5d49ff20168d794fe083","insecure","calibrator_val_no_feedback","Valence","CV",1732206131919,"negative",3588,"A","negative;positive","","A",8.18535022317869,32
"233","60fc5d49ff20168d794fe083","industry","calibrator_val_no_feedback","Valence","CV",1732206133821,"positive",1149,"A","negative;positive","","A",7.04664727784876,33
"234","60fc5d49ff20168d794fe083","invader","calibrator_val_no_feedback","Valence","CV",1732206135221,"negative",642,"A","negative;positive","","A",6.46458830368996,34
"235","60fc5d49ff20168d794fe083","jail","calibrator_val_no_feedback","Valence","CV",1732206136499,"negative",521,"A","negative;positive","","A",6.25575004175337,35
"236","60fc5d49ff20168d794fe083","grin","calibrator_val_no_feedback","Valence","CV",1732206138170,"positive",913,"A","negative;positive","","A",6.81673588059497,36
"237","60fc5d49ff20168d794fe083","joke","calibrator_val_no_feedback","Valence","CV",1732206140315,"positive",1389,"A","negative;positive","","A",7.23633934275434,37
"238","60fc5d49ff20168d794fe083","hat","calibrator_val_no_feedback","Valence","CV",1732206145348,"positive",4271,"A","negative;positive","","A",8.35960327084147,38
"239","60fc5d49ff20168d794fe083","kitten","calibrator_val_no_feedback","Valence","CV",1732206146694,"positive",589,"A","negative;positive","","A",6.37842618365159,39
"240","60fc5d49ff20168d794fe083","icebox","calibrator_val_no_feedback","Valence","CV",1732206148191,"positive",740,"A","negative;positive","","A",6.60665018619822,40
"241","5ca4b562613eb10015b6e5f8","grasshopper","calibrator_conc_feedback","Concrete","CV",1732203446320,"abstract",1327,"abstract","concrete","abstract;concrete","A",7.19067603433221,1
"242","5ca4b562613eb10015b6e5f8","whistle","calibrator_conc_feedback","Concrete","CV",1732203451842,"concrete",2748,"abstract","concrete","abstract;concrete","A",7.91862865334224,2
"243","5ca4b562613eb10015b6e5f8","gas","calibrator_conc_feedback","Concrete","CV",1732203456368,"concrete",1755,"abstract","concrete","abstract;concrete","A",7.47022413589997,3
"244","5ca4b562613eb10015b6e5f8","shirt","calibrator_conc_feedback","Concrete","CV",1732203460162,"concrete",1030,"abstract","concrete","abstract;concrete","A",6.93731408122368,4
"245","5ca4b562613eb10015b6e5f8","theory","calibrator_conc_feedback","Concrete","CV",1732203464286,"abstract",1345,"abstract","concrete","abstract;concrete","A",7.20414929203594,5
"246","5ca4b562613eb10015b6e5f8","insecure","calibrator_conc_feedback","Concrete","CV",1732203468209,"abstract",1152,"abstract","concrete","abstract;concrete","A",7.04925484125584,6
"247","5ca4b562613eb10015b6e5f8","polite","calibrator_conc_feedback","Concrete","CV",1732203472814,"abstract",1826,"abstract","concrete","abstract;concrete","A",7.50988306115491,7
"248","5ca4b562613eb10015b6e5f8","marriage","calibrator_conc_feedback","Concrete","CV",1732203477507,"concrete",1925,"abstract","concrete","abstract;concrete","A",7.56268124672188,8
"249","5ca4b562613eb10015b6e5f8","kick","calibrator_conc_feedback","Concrete","CV",1732203481967,"concrete",1689,"abstract","concrete","abstract;concrete","A",7.4318919168078,9
"250","5ca4b562613eb10015b6e5f8","sugar","calibrator_conc_feedback","Concrete","CV",1732203486337,"concrete",1589,"abstract","concrete","abstract;concrete","A",7.37086016653672,10
"251","5ca4b562613eb10015b6e5f8","shirt","calibrator_conc_no_feedback","Concrete","CV",1732203490194,"concrete",1083,"A","abstract;concrete","","A",6.98749024700099,11
"252","5ca4b562613eb10015b6e5f8","insecure","calibrator_conc_no_feedback","Concrete","CV",1732203493842,"abstract",2872,"A","abstract;concrete","","A",7.96276393016811,12
"253","5ca4b562613eb10015b6e5f8","sugar","calibrator_conc_no_feedback","Concrete","CV",1732203495360,"concrete",755,"A","abstract;concrete","","A",6.62671774924902,13
"254","5ca4b562613eb10015b6e5f8","polite","calibrator_conc_no_feedback","Concrete","CV",1732203497037,"abstract",916,"A","abstract;concrete","","A",6.82001636467413,14
"255","5ca4b562613eb10015b6e5f8","gas","calibrator_conc_no_feedback","Concrete","CV",1732203498910,"concrete",1100,"A","abstract;concrete","","A",7.00306545878646,15
"256","5ca4b562613eb10015b6e5f8","marriage","calibrator_conc_no_feedback","Concrete","CV",1732203501259,"concrete",1582,"A","abstract;concrete","","A",7.3664451483276,16
"257","5ca4b562613eb10015b6e5f8","kick","calibrator_conc_no_feedback","Concrete","CV",1732203502877,"concrete",853,"A","abstract;concrete","","A",6.74875954749168,17
"258","5ca4b562613eb10015b6e5f8","grasshopper","calibrator_conc_no_feedback","Concrete","CV",1732203504424,"concrete",781,"A","abstract;concrete","","A",6.66057514983969,18
"259","5ca4b562613eb10015b6e5f8","whistle","calibrator_conc_no_feedback","Concrete","CV",1732203506217,"concrete",1030,"A","abstract;concrete","","A",6.93731408122368,19
"260","5ca4b562613eb10015b6e5f8","theory","calibrator_conc_no_feedback","Concrete","CV",1732203508369,"abstract",1384,"A","abstract;concrete","","A",7.23273313617761,20
"261","5ca4b562613eb10015b6e5f8","insecure","calibrator_val_feedback","Valence","CV",1732203916376,"negative",1524,"negative","positive","negative;positive","A",7.32909373624659,21
"262","5ca4b562613eb10015b6e5f8","joke","calibrator_val_feedback","Valence","CV",1732203920498,"positive",1356,"negative","positive","negative;positive","A",7.21229446850034,22
"263","5ca4b562613eb10015b6e5f8","icebox","calibrator_val_feedback","Valence","CV",1732203925391,"positive",2116,"negative","positive","negative;positive","A",7.65728279297819,23
"264","5ca4b562613eb10015b6e5f8","hat","calibrator_val_feedback","Valence","CV",1732203928930,"positive",770,"negative","positive","negative;positive","A",6.64639051484773,24
"265","5ca4b562613eb10015b6e5f8","free","calibrator_val_feedback","Valence","CV",1732203932683,"positive",983,"negative","positive","negative;positive","A",6.89060912014717,25
"266","5ca4b562613eb10015b6e5f8","jail","calibrator_val_feedback","Valence","CV",1732203936530,"negative",1076,"negative","positive","negative;positive","A",6.98100574072173,26
"267","5ca4b562613eb10015b6e5f8","kitten","calibrator_val_feedback","Valence","CV",1732203939987,"positive",682,"negative","positive","negative;positive","A",6.52502965784346,27
"268","5ca4b562613eb10015b6e5f8","industry","calibrator_val_feedback","Valence","CV",1732203943803,"positive",1039,"negative","positive","negative;positive","A",6.94601399109923,28
"269","5ca4b562613eb10015b6e5f8","invader","calibrator_val_feedback","Valence","CV",1732203947615,"negative",1040,"negative","positive","negative;positive","A",6.94697599213542,29
"270","5ca4b562613eb10015b6e5f8","grin","calibrator_val_feedback","Valence","CV",1732203951350,"positive",965,"negative","positive","negative;positive","A",6.87212810133899,30
"271","5ca4b562613eb10015b6e5f8","insecure","calibrator_val_no_feedback","Valence","CV",1732203956184,"negative",2054,"A","negative;positive","","A",7.6275443904885,31
"272","5ca4b562613eb10015b6e5f8","free","calibrator_val_no_feedback","Valence","CV",1732203959127,"positive",2174,"A","negative;positive","","A",7.68432406768116,32
"273","5ca4b562613eb10015b6e5f8","hat","calibrator_val_no_feedback","Valence","CV",1732203960979,"positive",1084,"A","negative;positive","","A",6.98841318199959,33
"274","5ca4b562613eb10015b6e5f8","invader","calibrator_val_no_feedback","Valence","CV",1732203962435,"negative",691,"A","negative;positive","","A",6.53813982376767,34
"275","5ca4b562613eb10015b6e5f8","kitten","calibrator_val_no_feedback","Valence","CV",1732203963847,"positive",644,"A","negative;positive","","A",6.46769872610435,35
"276","5ca4b562613eb10015b6e5f8","jail","calibrator_val_no_feedback","Valence","CV",1732203965843,"negative",1232,"A","negative;positive","","A",7.11639414409346,36
"277","5ca4b562613eb10015b6e5f8","grin","calibrator_val_no_feedback","Valence","CV",1732203967491,"positive",890,"A","negative;positive","","A",6.79122146272619,37
"278","5ca4b562613eb10015b6e5f8","industry","calibrator_val_no_feedback","Valence","CV",1732203969420,"positive",1159,"A","negative;positive","","A",7.05531284333975,38
"279","5ca4b562613eb10015b6e5f8","joke","calibrator_val_no_feedback","Valence","CV",1732203970833,"positive",654,"A","negative;positive","","A",6.4831073514572,39
"280","5ca4b562613eb10015b6e5f8","icebox","calibrator_val_no_feedback","Valence","CV",1732203972241,"positive",649,"A","negative;positive","","A",6.47543271670409,40
"281","5edb6d2469290d00092100f8","grasshopper","calibrator_conc_feedback","Concrete","CV",1732203100445,"concrete",1536,"abstract","concrete","abstract;concrete","A",7.33693691370762,1
"282","5edb6d2469290d00092100f8","sugar","calibrator_conc_feedback","Concrete","CV",1732203104204,"concrete",1000,"abstract","concrete","abstract;concrete","A",6.90775527898214,2
"283","5edb6d2469290d00092100f8","theory","calibrator_conc_feedback","Concrete","CV",1732203107876,"abstract",914,"abstract","concrete","abstract;concrete","A",6.81783057145415,3
"284","5edb6d2469290d00092100f8","gas","calibrator_conc_feedback","Concrete","CV",1732203112508,"concrete",1872,"abstract","concrete","abstract;concrete","A",7.53476265703754,4
"285","5edb6d2469290d00092100f8","insecure","calibrator_conc_feedback","Concrete","CV",1732203116204,"abstract",936,"abstract","concrete","abstract;concrete","A",6.84161547647759,5
"286","5edb6d2469290d00092100f8","polite","calibrator_conc_feedback","Concrete","CV",1732203120292,"abstract",1331,"abstract","concrete","abstract;concrete","A",7.19368581839511,6
"287","5edb6d2469290d00092100f8","kick","calibrator_conc_feedback","Concrete","CV",1732203124324,"concrete",1278,"abstract","concrete","abstract;concrete","A",7.15305163493748,7
"288","5edb6d2469290d00092100f8","marriage","calibrator_conc_feedback","Concrete","CV",1732203127964,"concrete",884,"abstract","concrete","abstract;concrete","A",6.78445706263764,8
"289","5edb6d2469290d00092100f8","shirt","calibrator_conc_feedback","Concrete","CV",1732203131700,"concrete",978,"abstract","concrete","abstract;concrete","A",6.88550967003482,9
"290","5edb6d2469290d00092100f8","whistle","calibrator_conc_feedback","Concrete","CV",1732203135925,"concrete",1465,"abstract","concrete","abstract;concrete","A",7.28961052145117,10
"291","5edb6d2469290d00092100f8","sugar","calibrator_conc_no_feedback","Concrete","CV",1732203140381,"concrete",1694,"A","abstract;concrete","","A",7.434847875212,11
"292","5edb6d2469290d00092100f8","whistle","calibrator_conc_no_feedback","Concrete","CV",1732203143132,"concrete",2000,"A","abstract;concrete","","A",7.60090245954208,12
"293","5edb6d2469290d00092100f8","marriage","calibrator_conc_no_feedback","Concrete","CV",1732203145308,"concrete",1420,"A","abstract;concrete","","A",7.25841215059531,13
"294","5edb6d2469290d00092100f8","kick","calibrator_conc_no_feedback","Concrete","CV",1732203147341,"concrete",1276,"A","abstract;concrete","","A",7.15148546390474,14
"295","5edb6d2469290d00092100f8","grasshopper","calibrator_conc_no_feedback","Concrete","CV",1732203149476,"concrete",1378,"A","abstract;concrete","","A",7.2283884515736,15
"296","5edb6d2469290d00092100f8","theory","calibrator_conc_no_feedback","Concrete","CV",1732203151284,"abstract",1049,"A","abstract;concrete","","A",6.9555926083963,16
"297","5edb6d2469290d00092100f8","shirt","calibrator_conc_no_feedback","Concrete","CV",1732203153132,"concrete",1091,"A","abstract;concrete","","A",6.99484998583307,17
"298","5edb6d2469290d00092100f8","insecure","calibrator_conc_no_feedback","Concrete","CV",1732203154892,"abstract",1003,"A","abstract;concrete","","A",6.91075078796194,18
"299","5edb6d2469290d00092100f8","polite","calibrator_conc_no_feedback","Concrete","CV",1732203156596,"abstract",948,"A","abstract;concrete","","A",6.85435450225502,19
"300","5edb6d2469290d00092100f8","gas","calibrator_conc_no_feedback","Concrete","CV",1732203158085,"concrete",730,"A","abstract;concrete","","A",6.59304453414244,20
"301","5edb6d2469290d00092100f8","jail","calibrator_val_feedback","Valence","CV",1732203465989,"negative",1173,"negative","positive","negative;positive","A",7.06731984865348,21
"302","5edb6d2469290d00092100f8","free","calibrator_val_feedback","Valence","CV",1732203469917,"positive",1170,"negative","positive","negative;positive","A",7.0647590277918,22
"303","5edb6d2469290d00092100f8","joke","calibrator_val_feedback","Valence","CV",1732203474125,"positive",1451,"negative","positive","negative;positive","A",7.28000825288419,23
"304","5edb6d2469290d00092100f8","insecure","calibrator_val_feedback","Valence","CV",1732203478125,"negative",1242,"negative","positive","negative;positive","A",7.12447826249342,24
"305","5edb6d2469290d00092100f8","industry","calibrator_val_feedback","Valence","CV",1732203482869,"positive",1989,"negative","positive","negative;positive","A",7.59538727885397,25
"306","5edb6d2469290d00092100f8","icebox","calibrator_val_feedback","Valence","CV",1732203487437,"positive",1814,"negative","positive","negative;positive","A",7.50328963067508,26
"307","5edb6d2469290d00092100f8","invader","calibrator_val_feedback","Valence","CV",1732203491157,"negative",963,"negative","positive","negative;positive","A",6.87005341179813,27
"308","5edb6d2469290d00092100f8","grin","calibrator_val_feedback","Valence","CV",1732203494901,"positive",984,"negative","positive","negative;positive","A",6.89162589705225,28
"309","5edb6d2469290d00092100f8","hat","calibrator_val_feedback","Valence","CV",1732203499901,"positive",2240,"negative","positive","negative;positive","A",7.71423114484909,29
"310","5edb6d2469290d00092100f8","kitten","calibrator_val_feedback","Valence","CV",1732203503853,"positive",1192,"negative","positive","negative;positive","A",7.0833878476253,30
"311","5edb6d2469290d00092100f8","free","calibrator_val_no_feedback","Valence","CV",1732203508077,"positive",1465,"A","negative;positive","","A",7.28961052145117,31
"312","5edb6d2469290d00092100f8","grin","calibrator_val_no_feedback","Valence","CV",1732203510509,"positive",1674,"A","negative;positive","","A",7.42297125104942,32
"313","5edb6d2469290d00092100f8","kitten","calibrator_val_no_feedback","Valence","CV",1732203512221,"positive",958,"A","negative;positive","","A",6.86484777797086,33
"314","5edb6d2469290d00092100f8","industry","calibrator_val_no_feedback","Valence","CV",1732203514157,"positive",1184,"A","negative;positive","","A",7.07665381544395,34
"315","5edb6d2469290d00092100f8","insecure","calibrator_val_no_feedback","Valence","CV",1732203517501,"negative",2590,"A","negative;positive","","A",7.85941315469358,35
"316","5edb6d2469290d00092100f8","invader","calibrator_val_no_feedback","Valence","CV",1732203519101,"negative",844,"A","negative;positive","","A",6.73815249459596,36
"317","5edb6d2469290d00092100f8","joke","calibrator_val_no_feedback","Valence","CV",1732203521893,"positive",2037,"A","negative;positive","","A",7.61923341622681,37
"318","5edb6d2469290d00092100f8","hat","calibrator_val_no_feedback","Valence","CV",1732203524069,"positive",1422,"A","negative;positive","","A",7.25981961036319,38
"319","5edb6d2469290d00092100f8","jail","calibrator_val_no_feedback","Valence","CV",1732203526013,"negative",1185,"A","negative;positive","","A",7.07749805356923,39
"320","5edb6d2469290d00092100f8","icebox","calibrator_val_no_feedback","Valence","CV",1732203527845,"positive",1076,"A","negative;positive","","A",6.98100574072173,40
"321","63f7df76fda679592c5132bf","grasshopper","calibrator_conc_feedback","Concrete","CV",1732211345728,"concrete",1053,"concrete","abstract","concrete;abstract","B",6.95939851213398,1
"322","63f7df76fda679592c5132bf","sugar","calibrator_conc_feedback","Concrete","CV",1732211350458,"concrete",1965,"concrete","abstract","concrete;abstract","B",7.58324752430336,2
"323","63f7df76fda679592c5132bf","insecure","calibrator_conc_feedback","Concrete","CV",1732211354371,"abstract",1150,"concrete","abstract","concrete;abstract","B",7.0475172213573,3
"324","63f7df76fda679592c5132bf","polite","calibrator_conc_feedback","Concrete","CV",1732211357971,"abstract",834,"concrete","abstract","concrete;abstract","B",6.72623340235875,4
"325","63f7df76fda679592c5132bf","shirt","calibrator_conc_feedback","Concrete","CV",1732211361440,"concrete",709,"concrete","abstract","concrete;abstract","B",6.56385552653213,5
"326","63f7df76fda679592c5132bf","gas","calibrator_conc_feedback","Concrete","CV",1732211366346,"concrete",2145,"concrete","abstract","concrete;abstract","B",7.67089483136212,6
"327","63f7df76fda679592c5132bf","marriage","calibrator_conc_feedback","Concrete","CV",1732211370481,"concrete",1370,"concrete","abstract","concrete;abstract","B",7.22256601882217,7
"328","63f7df76fda679592c5132bf","whistle","calibrator_conc_feedback","Concrete","CV",1732211374715,"concrete",1469,"concrete","abstract","concrete;abstract","B",7.29233717617388,8
"329","63f7df76fda679592c5132bf","kick","calibrator_conc_feedback","Concrete","CV",1732211378203,"concrete",729,"concrete","abstract","concrete;abstract","B",6.59167373200866,9
"330","63f7df76fda679592c5132bf","theory","calibrator_conc_feedback","Concrete","CV",1732211382276,"concrete",1313,"concrete","abstract","concrete;abstract","B",7.1800698743028,10
"331","63f7df76fda679592c5132bf","theory","calibrator_conc_no_feedback","Concrete","CV",1732211385626,"abstract",587,"B","concrete;abstract","","B",6.3750248198281,11
"332","63f7df76fda679592c5132bf","whistle","calibrator_conc_no_feedback","Concrete","CV",1732211387390,"concrete",1009,"B","concrete;abstract","","B",6.91671502035361,12
"333","63f7df76fda679592c5132bf","marriage","calibrator_conc_no_feedback","Concrete","CV",1732211388814,"concrete",660,"B","concrete;abstract","","B",6.49223983502047,13
"334","63f7df76fda679592c5132bf","polite","calibrator_conc_no_feedback","Concrete","CV",1732211390175,"abstract",598,"B","concrete;abstract","","B",6.39359075395063,14
"335","63f7df76fda679592c5132bf","shirt","calibrator_conc_no_feedback","Concrete","CV",1732211391506,"concrete",574,"B","concrete;abstract","","B",6.35262939631957,15
"336","63f7df76fda679592c5132bf","grasshopper","calibrator_conc_no_feedback","Concrete","CV",1732211392832,"concrete",570,"B","concrete;abstract","","B",6.3456363608286,16
"337","63f7df76fda679592c5132bf","gas","calibrator_conc_no_feedback","Concrete","CV",1732211394586,"concrete",992,"B","concrete;abstract","","B",6.89972310728487,17
"338","63f7df76fda679592c5132bf","sugar","calibrator_conc_no_feedback","Concrete","CV",1732211396012,"concrete",668,"B","concrete;abstract","","B",6.50428817353665,18
"339","63f7df76fda679592c5132bf","kick","calibrator_conc_no_feedback","Concrete","CV",1732211397603,"concrete",829,"B","concrete;abstract","","B",6.7202201551353,19
"340","63f7df76fda679592c5132bf","insecure","calibrator_conc_no_feedback","Concrete","CV",1732211399136,"abstract",771,"B","concrete;abstract","","B",6.64768837356333,20
"341","63f7df76fda679592c5132bf","joke","calibrator_val_feedback","Valence","CV",1732211730673,"positive",2140,"positive","negative","positive;negative","B",7.6685611080159,21
"342","63f7df76fda679592c5132bf","invader","calibrator_val_feedback","Valence","CV",1732211734072,"negative",641,"positive","negative","positive;negative","B",6.46302945692067,22
"343","63f7df76fda679592c5132bf","icebox","calibrator_val_feedback","Valence","CV",1732211738376,"positive",1545,"positive","negative","positive;negative","B",7.34277918933185,23
"344","63f7df76fda679592c5132bf","insecure","calibrator_val_feedback","Valence","CV",1732211741975,"negative",834,"positive","negative","positive;negative","B",6.72623340235875,24
"345","63f7df76fda679592c5132bf","jail","calibrator_val_feedback","Valence","CV",1732211745485,"negative",744,"positive","negative","positive;negative","B",6.61204103483309,25
"346","63f7df76fda679592c5132bf","kitten","calibrator_val_feedback","Valence","CV",1732211748989,"positive",733,"positive","negative","positive;negative","B",6.59714570188665,26
"347","63f7df76fda679592c5132bf","industry","calibrator_val_feedback","Valence","CV",1732211753848,"negative",2101,"positive","negative","positive;negative","B",7.650168700845,27
"348","63f7df76fda679592c5132bf","grin","calibrator_val_feedback","Valence","CV",1732211757339,"positive",724,"positive","negative","positive;negative","B",6.58479139238572,28
"349","63f7df76fda679592c5132bf","hat","calibrator_val_feedback","Valence","CV",1732211761072,"positive",974,"positive","negative","positive;negative","B",6.88141130364254,29
"350","63f7df76fda679592c5132bf","free","calibrator_val_feedback","Valence","CV",1732211764879,"positive",1039,"positive","negative","positive;negative","B",6.94601399109923,30
"351","63f7df76fda679592c5132bf","kitten","calibrator_val_no_feedback","Valence","CV",1732211768294,"positive",643,"B","positive;negative","","B",6.46614472423762,31
"352","63f7df76fda679592c5132bf","grin","calibrator_val_no_feedback","Valence","CV",1732211769626,"positive",574,"B","positive;negative","","B",6.35262939631957,32
"353","63f7df76fda679592c5132bf","hat","calibrator_val_no_feedback","Valence","CV",1732211771091,"positive",708,"B","positive;negative","","B",6.56244409369372,33
"354","63f7df76fda679592c5132bf","free","calibrator_val_no_feedback","Valence","CV",1732211772489,"positive",638,"B","positive;negative","","B",6.45833828334479,34
"355","63f7df76fda679592c5132bf","insecure","calibrator_val_no_feedback","Valence","CV",1732211773954,"negative",699,"B","positive;negative","","B",6.54965074223381,35
"356","63f7df76fda679592c5132bf","icebox","calibrator_val_no_feedback","Valence","CV",1732211775349,"positive",640,"B","positive;negative","","B",6.46146817635372,36
"357","63f7df76fda679592c5132bf","joke","calibrator_val_no_feedback","Valence","CV",1732211776736,"positive",626,"B","positive;negative","","B",6.4393503711001,37
"358","63f7df76fda679592c5132bf","jail","calibrator_val_no_feedback","Valence","CV",1732211778246,"negative",753,"B","positive;negative","","B",6.62406522779989,38
"359","63f7df76fda679592c5132bf","industry","calibrator_val_no_feedback","Valence","CV",1732211779487,"positive",482,"B","positive;negative","","B",6.1779441140506,39
"360","63f7df76fda679592c5132bf","invader","calibrator_val_no_feedback","Valence","CV",1732211780855,"negative",610,"B","positive;negative","","B",6.41345895716736,40
"361","5f0527d40807f31c712153eb","theory","calibrator_conc_feedback","Concrete","CV",1732209797860,"abstract",2336,"concrete","abstract","concrete;abstract","B",7.75619534394812,1
"362","5f0527d40807f31c712153eb","marriage","calibrator_conc_feedback","Concrete","CV",1732209802829,"concrete",2208,"concrete","abstract","concrete;abstract","B",7.69984240739699,2
"363","5f0527d40807f31c712153eb","gas","calibrator_conc_feedback","Concrete","CV",1732209806812,"concrete",1216,"concrete","abstract","concrete;abstract","B",7.10332206252611,3
"364","5f0527d40807f31c712153eb","whistle","calibrator_conc_feedback","Concrete","CV",1732209810836,"concrete",1267,"concrete","abstract","concrete;abstract","B",7.14440718032114,4
"365","5f0527d40807f31c712153eb","kick","calibrator_conc_feedback","Concrete","CV",1732209814525,"concrete",926,"concrete","abstract","concrete;abstract","B",6.83087423464618,5
"366","5f0527d40807f31c712153eb","sugar","calibrator_conc_feedback","Concrete","CV",1732209818171,"concrete",889,"concrete","abstract","concrete;abstract","B",6.7900972355139,6
"367","5f0527d40807f31c712153eb","grasshopper","calibrator_conc_feedback","Concrete","CV",1732209822380,"concrete",1445,"concrete","abstract","concrete;abstract","B",7.27586460054653,7
"368","5f0527d40807f31c712153eb","shirt","calibrator_conc_feedback","Concrete","CV",1732209826036,"concrete",891,"concrete","abstract","concrete;abstract","B",6.79234442747081,8
"369","5f0527d40807f31c712153eb","insecure","calibrator_conc_feedback","Concrete","CV",1732209830348,"abstract",1551,"concrete","abstract","concrete;abstract","B",7.34665516317654,9
"370","5f0527d40807f31c712153eb","polite","calibrator_conc_feedback","Concrete","CV",1732209834276,"abstract",1169,"concrete","abstract","concrete;abstract","B",7.06390396147207,10
"371","5f0527d40807f31c712153eb","theory","calibrator_conc_no_feedback","Concrete","CV",1732209838605,"abstract",1563,"B","concrete;abstract","","B",7.35436233042148,11
"372","5f0527d40807f31c712153eb","polite","calibrator_conc_no_feedback","Concrete","CV",1732209841140,"abstract",1775,"B","concrete;abstract","","B",7.48155570190952,12
"373","5f0527d40807f31c712153eb","marriage","calibrator_conc_no_feedback","Concrete","CV",1732209843212,"concrete",1316,"B","concrete;abstract","","B",7.18235211188526,13
"374","5f0527d40807f31c712153eb","sugar","calibrator_conc_no_feedback","Concrete","CV",1732209844707,"concrete",741,"B","concrete;abstract","","B",6.60800062529609,14
"375","5f0527d40807f31c712153eb","shirt","calibrator_conc_no_feedback","Concrete","CV",1732209846715,"concrete",1251,"B","concrete;abstract","","B",7.13169851046691,15
"376","5f0527d40807f31c712153eb","insecure","calibrator_conc_no_feedback","Concrete","CV",1732209848350,"abstract",878,"B","concrete;abstract","","B",6.77764659363512,16
"377","5f0527d40807f31c712153eb","whistle","calibrator_conc_no_feedback","Concrete","CV",1732209849933,"concrete",821,"B","concrete;abstract","","B",6.71052310945243,17
"378","5f0527d40807f31c712153eb","grasshopper","calibrator_conc_no_feedback","Concrete","CV",1732209851435,"concrete",738,"B","concrete;abstract","","B",6.60394382460047,18
"379","5f0527d40807f31c712153eb","kick","calibrator_conc_no_feedback","Concrete","CV",1732209853324,"concrete",1135,"B","concrete;abstract","","B",7.0343879299155,19
"380","5f0527d40807f31c712153eb","gas","calibrator_conc_no_feedback","Concrete","CV",1732209854757,"concrete",674,"B","concrete;abstract","","B",6.51323011091231,20
"381","5f0527d40807f31c712153eb","invader","calibrator_val_feedback","Valence","CV",1732211567780,"negative",2314,"positive","negative","positive;negative","B",7.74673290775362,21
"382","5f0527d40807f31c712153eb","kitten","calibrator_val_feedback","Valence","CV",1732211571572,"positive",1027,"positive","negative","positive;negative","B",6.93439720992856,22
"383","5f0527d40807f31c712153eb","insecure","calibrator_val_feedback","Valence","CV",1732211575932,"negative",1601,"positive","negative","positive;negative","B",7.37838371299671,23
"384","5f0527d40807f31c712153eb","hat","calibrator_val_feedback","Valence","CV",1732211579596,"positive",896,"positive","negative","positive;negative","B",6.79794041297493,24
"385","5f0527d40807f31c712153eb","free","calibrator_val_feedback","Valence","CV",1732211583548,"positive",1191,"positive","negative","positive;negative","B",7.0825485693553,25
"386","5f0527d40807f31c712153eb","jail","calibrator_val_feedback","Valence","CV",1732211586988,"negative",678,"positive","negative","positive;negative","B",6.5191472879404,26
"387","5f0527d40807f31c712153eb","grin","calibrator_val_feedback","Valence","CV",1732211590979,"positive",1228,"positive","negative","positive;negative","B",7.11314210870709,27
"388","5f0527d40807f31c712153eb","icebox","calibrator_val_feedback","Valence","CV",1732211594900,"negative",1156,"positive","negative","positive;negative","B",7.05272104923232,28
"389","5f0527d40807f31c712153eb","joke","calibrator_val_feedback","Valence","CV",1732211598596,"positive",936,"positive","negative","positive;negative","B",6.84161547647759,29
"390","5f0527d40807f31c712153eb","industry","calibrator_val_feedback","Valence","CV",1732211602651,"positive",1292,"positive","negative","positive;negative","B",7.16394668434255,30
"391","5f0527d40807f31c712153eb","grin","calibrator_val_no_feedback","Valence","CV",1732211605996,"positive",586,"B","positive;negative","","B",6.37331978957701,31
"392","5f0527d40807f31c712153eb","icebox","calibrator_val_no_feedback","Valence","CV",1732211609108,"negative",2352,"B","positive;negative","","B",7.76302130901852,32
"393","5f0527d40807f31c712153eb","industry","calibrator_val_no_feedback","Valence","CV",1732211611236,"positive",1369,"B","positive;negative","","B",7.22183582528845,33
"394","5f0527d40807f31c712153eb","jail","calibrator_val_no_feedback","Valence","CV",1732211612669,"negative",673,"B","positive;negative","","B",6.51174532964473,34
"395","5f0527d40807f31c712153eb","hat","calibrator_val_no_feedback","Valence","CV",1732211615331,"positive",1903,"B","positive;negative","","B",7.55118686729615,35
"396","5f0527d40807f31c712153eb","invader","calibrator_val_no_feedback","Valence","CV",1732211616787,"negative",697,"B","positive;negative","","B",6.54678541076052,36
"397","5f0527d40807f31c712153eb","free","calibrator_val_no_feedback","Valence","CV",1732211618387,"positive",842,"B","positive;negative","","B",6.73578001424233,37
"398","5f0527d40807f31c712153eb","insecure","calibrator_val_no_feedback","Valence","CV",1732211620027,"negative",884,"B","positive;negative","","B",6.78445706263764,38
"399","5f0527d40807f31c712153eb","joke","calibrator_val_no_feedback","Valence","CV",1732211621356,"positive",571,"B","positive;negative","","B",6.34738920965601,39
"400","5f0527d40807f31c712153eb","kitten","calibrator_val_no_feedback","Valence","CV",1732211622859,"positive",744,"B","positive;negative","","B",6.61204103483309,40
"401","63ed3c71811f2a4a5e54bd75","kitten","calibrator_val_feedback","Valence","VC",1732221462847,"positive",1608,"negative","positive","negative;positive","A",7.38274644973891,1
"402","63ed3c71811f2a4a5e54bd75","insecure","calibrator_val_feedback","Valence","VC",1732221467215,"negative",1601,"negative","positive","negative;positive","A",7.37838371299671,2
"403","63ed3c71811f2a4a5e54bd75","icebox","calibrator_val_feedback","Valence","VC",1732221471607,"positive",1631,"negative","positive","negative;positive","A",7.39694860262101,3
"404","63ed3c71811f2a4a5e54bd75","industry","calibrator_val_feedback","Valence","VC",1732221475734,"positive",1366,"negative","positive","negative;positive","A",7.21964204013074,4
"405","63ed3c71811f2a4a5e54bd75","jail","calibrator_val_feedback","Valence","VC",1732221479598,"negative",1096,"negative","positive","negative;positive","A",6.99942246750796,5
"406","63ed3c71811f2a4a5e54bd75","free","calibrator_val_feedback","Valence","VC",1732221483551,"positive",1189,"negative","positive","negative;positive","A",7.08086789669078,6
"407","63ed3c71811f2a4a5e54bd75","grin","calibrator_val_feedback","Valence","VC",1732221487951,"positive",1631,"negative","positive","negative;positive","A",7.39694860262101,7
"408","63ed3c71811f2a4a5e54bd75","hat","calibrator_val_feedback","Valence","VC",1732221492342,"positive",1634,"negative","positive","negative;positive","A",7.39878627541995,8
"409","63ed3c71811f2a4a5e54bd75","joke","calibrator_val_feedback","Valence","VC",1732221496270,"positive",1167,"negative","positive","negative;positive","A",7.06219163228656,9
"410","63ed3c71811f2a4a5e54bd75","invader","calibrator_val_feedback","Valence","VC",1732221500174,"negative",1143,"negative","positive","negative;positive","A",7.04141166379481,10
"411","63ed3c71811f2a4a5e54bd75","invader","calibrator_val_no_feedback","Valence","VC",1732221504246,"negative",1315,"A","negative;positive","","A",7.18159194461187,11
"412","63ed3c71811f2a4a5e54bd75","free","calibrator_val_no_feedback","Valence","VC",1732221506054,"positive",1047,"A","negative;positive","","A",6.95368421087054,12
"413","63ed3c71811f2a4a5e54bd75","insecure","calibrator_val_no_feedback","Valence","VC",1732221508150,"negative",1340,"A","negative;positive","","A",7.20042489294496,13
"414","63ed3c71811f2a4a5e54bd75","hat","calibrator_val_no_feedback","Valence","VC",1732221509710,"positive",804,"A","negative;positive","","A",6.68959926917897,14
"415","63ed3c71811f2a4a5e54bd75","industry","calibrator_val_no_feedback","Valence","VC",1732221512398,"positive",1933,"A","negative;positive","","A",7.56682847920833,15
"416","63ed3c71811f2a4a5e54bd75","joke","calibrator_val_no_feedback","Valence","VC",1732221514182,"positive",1027,"A","negative;positive","","A",6.93439720992856,16
"417","63ed3c71811f2a4a5e54bd75","jail","calibrator_val_no_feedback","Valence","VC",1732221516870,"negative",1933,"A","negative;positive","","A",7.56682847920833,17
"418","63ed3c71811f2a4a5e54bd75","kitten","calibrator_val_no_feedback","Valence","VC",1732221518670,"positive",1041,"A","negative;positive","","A",6.94793706861497,18
"419","63ed3c71811f2a4a5e54bd75","icebox","calibrator_val_no_feedback","Valence","VC",1732221520454,"positive",1030,"A","negative;positive","","A",6.93731408122368,19
"420","63ed3c71811f2a4a5e54bd75","grin","calibrator_val_no_feedback","Valence","VC",1732221522478,"positive",1266,"A","negative;positive","","A",7.14361760270412,20
"421","63ed3c71811f2a4a5e54bd75","kick","calibrator_conc_feedback","Concrete","VC",1732221941022,"concrete",1619,"abstract","concrete","abstract;concrete","A",7.38956395367764,21
"422","63ed3c71811f2a4a5e54bd75","whistle","calibrator_conc_feedback","Concrete","VC",1732221945311,"concrete",1529,"abstract","concrete","abstract;concrete","A",7.33236920592906,22
"423","63ed3c71811f2a4a5e54bd75","grasshopper","calibrator_conc_feedback","Concrete","VC",1732221948870,"concrete",799,"abstract","concrete","abstract;concrete","A",6.68336094576627,23
"424","63ed3c71811f2a4a5e54bd75","insecure","calibrator_conc_feedback","Concrete","VC",1732221953029,"abstract",1400,"abstract","concrete","abstract;concrete","A",7.24422751560335,24
"425","63ed3c71811f2a4a5e54bd75","gas","calibrator_conc_feedback","Concrete","VC",1732221956830,"concrete",1040,"abstract","concrete","abstract;concrete","A",6.94697599213542,25
"426","63ed3c71811f2a4a5e54bd75","marriage","calibrator_conc_feedback","Concrete","VC",1732221961581,"abstract",1990,"abstract","concrete","abstract;concrete","A",7.59588991771854,26
"427","63ed3c71811f2a4a5e54bd75","theory","calibrator_conc_feedback","Concrete","VC",1732221965589,"abstract",1249,"abstract","concrete","abstract;concrete","A",7.13009851012558,27
"428","63ed3c71811f2a4a5e54bd75","shirt","calibrator_conc_feedback","Concrete","VC",1732221969365,"concrete",1019,"abstract","concrete","abstract;concrete","A",6.92657703322272,28
"429","63ed3c71811f2a4a5e54bd75","sugar","calibrator_conc_feedback","Concrete","VC",1732221973237,"concrete",1109,"abstract","concrete","abstract;concrete","A",7.01121398735037,29
"430","63ed3c71811f2a4a5e54bd75","polite","calibrator_conc_feedback","Concrete","VC",1732221979071,"abstract",3074,"abstract","concrete","abstract;concrete","A",8.03073492409854,30
"431","63ed3c71811f2a4a5e54bd75","kick","calibrator_conc_no_feedback","Concrete","VC",1732221982750,"concrete",915,"A","abstract;concrete","","A",6.81892406527552,31
"432","63ed3c71811f2a4a5e54bd75","sugar","calibrator_conc_no_feedback","Concrete","VC",1732221984325,"concrete",813,"A","abstract;concrete","","A",6.70073110954781,32
"433","63ed3c71811f2a4a5e54bd75","polite","calibrator_conc_no_feedback","Concrete","VC",1732221985789,"abstract",707,"A","abstract;concrete","","A",6.56103066589657,33
"434","63ed3c71811f2a4a5e54bd75","marriage","calibrator_conc_no_feedback","Concrete","VC",1732221987605,"abstract",1056,"A","abstract;concrete","","A",6.96224346426621,34
"435","63ed3c71811f2a4a5e54bd75","theory","calibrator_conc_no_feedback","Concrete","VC",1732221989093,"abstract",729,"A","abstract;concrete","","A",6.59167373200866,35
"436","63ed3c71811f2a4a5e54bd75","shirt","calibrator_conc_no_feedback","Concrete","VC",1732221990469,"concrete",617,"A","abstract;concrete","","A",6.42486902390539,36
"437","63ed3c71811f2a4a5e54bd75","gas","calibrator_conc_no_feedback","Concrete","VC",1732221992293,"concrete",1063,"A","abstract;concrete","","A",6.96885037834195,37
"438","63ed3c71811f2a4a5e54bd75","grasshopper","calibrator_conc_no_feedback","Concrete","VC",1732221993869,"concrete",819,"A","abstract;concrete","","A",6.70808408385307,38
"439","63ed3c71811f2a4a5e54bd75","insecure","calibrator_conc_no_feedback","Concrete","VC",1732221995373,"abstract",747,"A","abstract;concrete","","A",6.61606518513282,39
"440","63ed3c71811f2a4a5e54bd75","whistle","calibrator_conc_no_feedback","Concrete","VC",1732221997085,"concrete",955,"A","abstract;concrete","","A",6.86171134048073,40
"441","60ce5270f1695ea416c25fc3","kitten","calibrator_val_feedback","Valence","VC",1732221625035,"positive",852,"positive","negative","positive;negative","B",6.74758652682932,1
"442","60ce5270f1695ea416c25fc3","grin","calibrator_val_feedback","Valence","VC",1732221629200,"positive",1406,"positive","negative","positive;negative","B",7.24850407237061,2
"443","60ce5270f1695ea416c25fc3","icebox","calibrator_val_feedback","Valence","VC",1732221633427,"positive",1474,"positive","negative","positive;negative","B",7.29573507274928,3
"444","60ce5270f1695ea416c25fc3","joke","calibrator_val_feedback","Valence","VC",1732221637255,"positive",1067,"positive","negative","positive;negative","B",6.97260625130175,4
"445","60ce5270f1695ea416c25fc3","insecure","calibrator_val_feedback","Valence","VC",1732221640937,"negative",922,"positive","negative","positive;negative","B",6.82654522355659,5
"446","60ce5270f1695ea416c25fc3","hat","calibrator_val_feedback","Valence","VC",1732221644503,"positive",806,"positive","negative","positive;negative","B",6.69208374250663,6
"447","60ce5270f1695ea416c25fc3","free","calibrator_val_feedback","Valence","VC",1732221648000,"positive",738,"positive","negative","positive;negative","B",6.60394382460047,7
"448","60ce5270f1695ea416c25fc3","jail","calibrator_val_feedback","Valence","VC",1732221651568,"negative",808,"positive","negative","positive;negative","B",6.69456205852109,8
"449","60ce5270f1695ea416c25fc3","industry","calibrator_val_feedback","Valence","VC",1732221655680,"negative",1356,"positive","negative","positive;negative","B",7.21229446850034,9
"450","60ce5270f1695ea416c25fc3","invader","calibrator_val_feedback","Valence","VC",1732221659426,"negative",985,"positive","negative","positive;negative","B",6.89264164117209,10
"451","60ce5270f1695ea416c25fc3","invader","calibrator_val_no_feedback","Valence","VC",1732221663046,"negative",859,"B","positive;negative","","B",6.75576892198425,11
"452","60ce5270f1695ea416c25fc3","free","calibrator_val_no_feedback","Valence","VC",1732221664668,"positive",866,"B","positive;negative","","B",6.76388490856244,12
"453","60ce5270f1695ea416c25fc3","icebox","calibrator_val_no_feedback","Valence","VC",1732221666201,"positive",777,"B","positive;negative","","B",6.65544035036765,13
"454","60ce5270f1695ea416c25fc3","joke","calibrator_val_no_feedback","Valence","VC",1732221667580,"positive",627,"B","positive;negative","","B",6.44094654063292,14
"455","60ce5270f1695ea416c25fc3","jail","calibrator_val_no_feedback","Valence","VC",1732221669089,"negative",751,"B","positive;negative","","B",6.62140565176413,15
"456","60ce5270f1695ea416c25fc3","insecure","calibrator_val_no_feedback","Valence","VC",1732221670475,"negative",630,"B","positive;negative","","B",6.44571981938558,16
"457","60ce5270f1695ea416c25fc3","hat","calibrator_val_no_feedback","Valence","VC",1732221671927,"positive",693,"B","positive;negative","","B",6.5410299991899,17
"458","60ce5270f1695ea416c25fc3","industry","calibrator_val_no_feedback","Valence","VC",1732221673364,"negative",680,"B","positive;negative","","B",6.52209279817015,18
"459","60ce5270f1695ea416c25fc3","kitten","calibrator_val_no_feedback","Valence","VC",1732221674734,"positive",616,"B","positive;negative","","B",6.42324696353352,19
"460","60ce5270f1695ea416c25fc3","grin","calibrator_val_no_feedback","Valence","VC",1732221676202,"positive",715,"B","positive;negative","","B",6.57228254269401,20
"461","60ce5270f1695ea416c25fc3","insecure","calibrator_conc_feedback","Concrete","VC",1732221891623,"abstract",1126,"concrete","abstract","concrete;abstract","B",7.02642680869964,21
"462","60ce5270f1695ea416c25fc3","shirt","calibrator_conc_feedback","Concrete","VC",1732221893579,"concrete",1084,"concrete","abstract","concrete;abstract","B",6.98841318199959,22
"463","60ce5270f1695ea416c25fc3","kick","calibrator_conc_feedback","Concrete","VC",1732221897962,"concrete",1627,"concrete","abstract","concrete;abstract","B",7.39449310721904,23
"464","60ce5270f1695ea416c25fc3","whistle","calibrator_conc_feedback","Concrete","VC",1732221901682,"concrete",958,"concrete","abstract","concrete;abstract","B",6.86484777797086,24
"465","60ce5270f1695ea416c25fc3","sugar","calibrator_conc_feedback","Concrete","VC",1732221905238,"concrete",796,"concrete","abstract","concrete;abstract","B",6.67959918584438,25
"466","60ce5270f1695ea416c25fc3","gas","calibrator_conc_feedback","Concrete","VC",1732221909907,"concrete",1919,"concrete","abstract","concrete;abstract","B",7.5595594960077,26
"467","60ce5270f1695ea416c25fc3","marriage","calibrator_conc_feedback","Concrete","VC",1732221913497,"concrete",832,"concrete","abstract","concrete;abstract","B",6.72383244082121,27
"468","60ce5270f1695ea416c25fc3","grasshopper","calibrator_conc_feedback","Concrete","VC",1732221917256,"concrete",998,"concrete","abstract","concrete;abstract","B",6.90575327631146,28
"469","60ce5270f1695ea416c25fc3","theory","calibrator_conc_feedback","Concrete","VC",1732221920979,"abstract",958,"concrete","abstract","concrete;abstract","B",6.86484777797086,29
"470","60ce5270f1695ea416c25fc3","polite","calibrator_conc_feedback","Concrete","VC",1732221924724,"abstract",985,"concrete","abstract","concrete;abstract","B",6.89264164117209,30
"471","60ce5270f1695ea416c25fc3","insecure","calibrator_conc_no_feedback","Concrete","VC",1732221928920,"abstract",1439,"B","concrete;abstract","","B",7.27170370688737,31
"472","60ce5270f1695ea416c25fc3","gas","calibrator_conc_no_feedback","Concrete","VC",1732221930586,"concrete",909,"B","concrete;abstract","","B",6.81234509417748,32
"473","60ce5270f1695ea416c25fc3","sugar","calibrator_conc_no_feedback","Concrete","VC",1732221932072,"concrete",730,"B","concrete;abstract","","B",6.59304453414244,33
"474","60ce5270f1695ea416c25fc3","theory","calibrator_conc_no_feedback","Concrete","VC",1732221933553,"abstract",730,"B","concrete;abstract","","B",6.59304453414244,34
"475","60ce5270f1695ea416c25fc3","polite","calibrator_conc_no_feedback","Concrete","VC",1732221935090,"abstract",779,"B","concrete;abstract","","B",6.65801104587075,35
"476","60ce5270f1695ea416c25fc3","marriage","calibrator_conc_no_feedback","Concrete","VC",1732221936847,"concrete",1003,"B","concrete;abstract","","B",6.91075078796194,36
"477","60ce5270f1695ea416c25fc3","kick","calibrator_conc_no_feedback","Concrete","VC",1732221938429,"concrete",826,"B","concrete;abstract","","B",6.71659477352098,37
"478","60ce5270f1695ea416c25fc3","shirt","calibrator_conc_no_feedback","Concrete","VC",1732221939950,"concrete",765,"B","concrete;abstract","","B",6.63987583382654,38
"479","60ce5270f1695ea416c25fc3","grasshopper","calibrator_conc_no_feedback","Concrete","VC",1732221941286,"concrete",582,"B","concrete;abstract","","B",6.36647044773144,39
"480","60ce5270f1695ea416c25fc3","whistle","calibrator_conc_no_feedback","Concrete","VC",1732221942767,"concrete",722,"B","concrete;abstract","","B",6.58202513889283,40
"481","5d510396f6725b001a4fc025","marriage","calibrator_conc_feedback","Concrete","CV",1732212903014,"abstract",3280,"concrete","abstract","concrete;abstract","B",8.09559870137819,1
"482","5d510396f6725b001a4fc025","kick","calibrator_conc_feedback","Concrete","CV",1732212906557,"concrete",1886,"concrete","abstract","concrete;abstract","B",7.5422134631934,2
"483","5d510396f6725b001a4fc025","gas","calibrator_conc_feedback","Concrete","CV",1732212911784,"concrete",2466,"concrete","abstract","concrete;abstract","B",7.81035268372429,3
"484","5d510396f6725b001a4fc025","insecure","calibrator_conc_feedback","Concrete","CV",1732212919081,"abstract",4536,"concrete","abstract","concrete;abstract","B",8.41980084540759,4
"485","5d510396f6725b001a4fc025","shirt","calibrator_conc_feedback","Concrete","CV",1732212925339,"concrete",3500,"concrete","abstract","concrete;abstract","B",8.1605182474775,5
"486","5d510396f6725b001a4fc025","whistle","calibrator_conc_feedback","Concrete","CV",1732212931052,"abstract",2954,"concrete","abstract","concrete;abstract","B",7.99091546309133,6
"487","5d510396f6725b001a4fc025","grasshopper","calibrator_conc_feedback","Concrete","CV",1732212936361,"concrete",2546,"concrete","abstract","concrete;abstract","B",7.84227877911735,7
"488","5d510396f6725b001a4fc025","polite","calibrator_conc_feedback","Concrete","CV",1732212941168,"abstract",2049,"concrete","abstract","concrete;abstract","B",7.6251071482389,8
"489","5d510396f6725b001a4fc025","sugar","calibrator_conc_feedback","Concrete","CV",1732212946634,"concrete",2706,"concrete","abstract","concrete;abstract","B",7.90322680873073,9
"490","5d510396f6725b001a4fc025","theory","calibrator_conc_feedback","Concrete","CV",1732212952562,"abstract",3168,"concrete","abstract","concrete;abstract","B",8.06085575293432,10
"491","5d510396f6725b001a4fc025","whistle","calibrator_conc_no_feedback","Concrete","CV",1732212957718,"abstract",2396,"B","concrete;abstract","","B",7.78155595923534,11
"492","5d510396f6725b001a4fc025","insecure","calibrator_conc_no_feedback","Concrete","CV",1732212961181,"abstract",2704,"B","concrete;abstract","","B",7.90248743716286,12
"493","5d510396f6725b001a4fc025","sugar","calibrator_conc_no_feedback","Concrete","CV",1732212963665,"concrete",1728,"B","concrete;abstract","","B",7.454719949364,13
"494","5d510396f6725b001a4fc025","marriage","calibrator_conc_no_feedback","Concrete","CV",1732212965576,"abstract",1152,"B","concrete;abstract","","B",7.04925484125584,14
"495","5d510396f6725b001a4fc025","shirt","calibrator_conc_no_feedback","Concrete","CV",1732212967674,"concrete",1342,"B","concrete;abstract","","B",7.20191631753163,15
"496","5d510396f6725b001a4fc025","kick","calibrator_conc_no_feedback","Concrete","CV",1732212969891,"concrete",1460,"B","concrete;abstract","","B",7.28619171470238,16
"497","5d510396f6725b001a4fc025","grasshopper","calibrator_conc_no_feedback","Concrete","CV",1732212971658,"concrete",1008,"B","concrete;abstract","","B",6.91572344863131,17
"498","5d510396f6725b001a4fc025","theory","calibrator_conc_no_feedback","Concrete","CV",1732212973215,"abstract",798,"B","concrete;abstract","","B",6.68210859744981,18
"499","5d510396f6725b001a4fc025","gas","calibrator_conc_no_feedback","Concrete","CV",1732212974893,"concrete",924,"B","concrete;abstract","","B",6.82871207164168,19
"500","5d510396f6725b001a4fc025","polite","calibrator_conc_no_feedback","Concrete","CV",1732212976543,"abstract",894,"B","concrete;abstract","","B",6.79570577517351,20
"501","5d510396f6725b001a4fc025","free","calibrator_val_feedback","Valence","CV",1732213247522,"positive",1454,"positive","negative","positive;negative","B",7.28207365809346,21
"502","5d510396f6725b001a4fc025","kitten","calibrator_val_feedback","Valence","CV",1732213249387,"positive",1088,"positive","negative","positive;negative","B",6.99209642741589,22
"503","5d510396f6725b001a4fc025","jail","calibrator_val_feedback","Valence","CV",1732213253284,"negative",1133,"positive","negative","positive;negative","B",7.03262426102801,23
"504","5d510396f6725b001a4fc025","joke","calibrator_val_feedback","Valence","CV",1732213257720,"positive",1678,"positive","negative","positive;negative","B",7.42535788702715,24
"505","5d510396f6725b001a4fc025","insecure","calibrator_val_feedback","Valence","CV",1732213261837,"negative",1354,"positive","negative","positive;negative","B",7.21081845347222,25
"506","5d510396f6725b001a4fc025","industry","calibrator_val_feedback","Valence","CV",1732213267400,"negative",2802,"positive","negative","positive;negative","B",7.93808872689695,26
"507","5d510396f6725b001a4fc025","icebox","calibrator_val_feedback","Valence","CV",1732213272046,"negative",1885,"positive","negative","positive;negative","B",7.54168309988211,27
"508","5d510396f6725b001a4fc025","invader","calibrator_val_feedback","Valence","CV",1732213276374,"negative",1567,"positive","negative","positive;negative","B",7.35691824235602,28
"509","5d510396f6725b001a4fc025","hat","calibrator_val_feedback","Valence","CV",1732213283798,"negative",4661,"positive","negative","positive;negative","B",8.44698529637274,29
"510","5d510396f6725b001a4fc025","grin","calibrator_val_feedback","Valence","CV",1732213288355,"positive",1790,"positive","negative","positive;negative","B",7.4899708988348,30
"511","5d510396f6725b001a4fc025","jail","calibrator_val_no_feedback","Valence","CV",1732213294849,"negative",3733,"B","positive;negative","","B",8.22496747891458,31
"512","5d510396f6725b001a4fc025","free","calibrator_val_no_feedback","Valence","CV",1732213296710,"positive",1106,"B","positive;negative","","B",7.00850518208228,32
"513","5d510396f6725b001a4fc025","insecure","calibrator_val_no_feedback","Valence","CV",1732213298583,"negative",1113,"B","positive;negative","","B",7.01481435127554,33
"514","5d510396f6725b001a4fc025","icebox","calibrator_val_no_feedback","Valence","CV",1732213300715,"negative",1375,"B","positive;negative","","B",7.22620901010067,34
"515","5d510396f6725b001a4fc025","industry","calibrator_val_no_feedback","Valence","CV",1732213302274,"negative",800,"B","positive;negative","","B",6.68461172766793,35
"516","5d510396f6725b001a4fc025","hat","calibrator_val_no_feedback","Valence","CV",1732213303839,"positive",807,"B","positive;negative","","B",6.69332366826995,36
"517","5d510396f6725b001a4fc025","grin","calibrator_val_no_feedback","Valence","CV",1732213305440,"positive",847,"B","positive;negative","","B",6.74170069465205,37
"518","5d510396f6725b001a4fc025","joke","calibrator_val_no_feedback","Valence","CV",1732213307170,"positive",969,"B","positive;negative","","B",6.87626461189077,38
"519","5d510396f6725b001a4fc025","invader","calibrator_val_no_feedback","Valence","CV",1732213309047,"negative",1118,"B","positive;negative","","B",7.01929665371504,39
"520","5d510396f6725b001a4fc025","kitten","calibrator_val_no_feedback","Valence","CV",1732213310670,"positive",865,"B","positive;negative","","B",6.76272950693188,40
"521","65055af809999c0ee7cee26d","grin","calibrator_val_feedback","Valence","VC",1732217688773,"positive",1427,"negative","positive","negative;positive","A",7.26332961747684,1
"522","65055af809999c0ee7cee26d","free","calibrator_val_feedback","Valence","VC",1732217691907,"positive",365,"negative","positive","negative;positive","A",5.89989735358249,2
"523","65055af809999c0ee7cee26d","icebox","calibrator_val_feedback","Valence","VC",1732217694810,"positive",133,"negative","positive","negative;positive","A",4.89034912822175,3
"524","65055af809999c0ee7cee26d","invader","calibrator_val_feedback","Valence","VC",1732217697986,"positive",404,"negative","positive","negative;positive","A",6.00141487796115,4
"525","65055af809999c0ee7cee26d","jail","calibrator_val_feedback","Valence","VC",1732217701716,"negative",964,"negative","positive","negative;positive","A",6.87109129461055,5
"526","65055af809999c0ee7cee26d","hat","calibrator_val_feedback","Valence","VC",1732217706289,"negative",1797,"negative","positive","negative;positive","A",7.49387388678356,6
"527","65055af809999c0ee7cee26d","joke","calibrator_val_feedback","Valence","VC",1732217710065,"positive",1021,"negative","positive","negative;positive","A",6.92853781816467,7
"528","65055af809999c0ee7cee26d","kitten","calibrator_val_feedback","Valence","VC",1732217713627,"positive",789,"negative","positive","negative;positive","A",6.67076632084587,8
"529","65055af809999c0ee7cee26d","industry","calibrator_val_feedback","Valence","VC",1732217719009,"negative",2620,"negative","positive","negative;positive","A",7.87092959675514,9
"530","65055af809999c0ee7cee26d","insecure","calibrator_val_feedback","Valence","VC",1732217722675,"negative",902,"negative","positive","negative;positive","A",6.80461452006262,10
"531","65055af809999c0ee7cee26d","kitten","calibrator_val_no_feedback","Valence","VC",1732217726107,"positive",671,"A","negative;positive","","A",6.50876913697168,11
"532","65055af809999c0ee7cee26d","invader","calibrator_val_no_feedback","Valence","VC",1732217728142,"negative",1277,"A","negative;positive","","A",7.15226885603254,12
"533","65055af809999c0ee7cee26d","grin","calibrator_val_no_feedback","Valence","VC",1732217729779,"positive",876,"A","negative;positive","","A",6.77536609093639,13
"534","65055af809999c0ee7cee26d","insecure","calibrator_val_no_feedback","Valence","VC",1732217731363,"negative",822,"A","negative;positive","","A",6.71174039505618,14
"535","65055af809999c0ee7cee26d","free","calibrator_val_no_feedback","Valence","VC",1732217733153,"positive",1031,"A","negative;positive","","A",6.93828448401696,15
"536","65055af809999c0ee7cee26d","industry","calibrator_val_no_feedback","Valence","VC",1732217737111,"positive",3198,"A","negative;positive","","A",8.0702808933939,16
"537","65055af809999c0ee7cee26d","icebox","calibrator_val_no_feedback","Valence","VC",1732217738828,"negative",955,"A","negative;positive","","A",6.86171134048073,17
"538","65055af809999c0ee7cee26d","hat","calibrator_val_no_feedback","Valence","VC",1732217740868,"negative",1280,"A","negative;positive","","A",7.15461535691366,18
"539","65055af809999c0ee7cee26d","joke","calibrator_val_no_feedback","Valence","VC",1732217743099,"positive",1467,"A","negative;positive","","A",7.29097477814298,19
"540","65055af809999c0ee7cee26d","jail","calibrator_val_no_feedback","Valence","VC",1732217744658,"negative",797,"A","negative;positive","","A",6.68085467879022,20
"541","65055af809999c0ee7cee26d","marriage","calibrator_conc_feedback","Concrete","VC",1732217958086,"concrete",1471,"abstract","concrete","abstract;concrete","A",7.29369772060144,21
"542","65055af809999c0ee7cee26d","polite","calibrator_conc_feedback","Concrete","VC",1732217963493,"abstract",2646,"abstract","concrete","abstract;concrete","A",7.8808043446749,22
"543","65055af809999c0ee7cee26d","theory","calibrator_conc_feedback","Concrete","VC",1732217966950,"abstract",694,"abstract","concrete","abstract;concrete","A",6.5424719605068,23
"544","65055af809999c0ee7cee26d","insecure","calibrator_conc_feedback","Concrete","VC",1732217971018,"abstract",1301,"abstract","concrete","abstract;concrete","A",7.1708884785125,24
"545","65055af809999c0ee7cee26d","kick","calibrator_conc_feedback","Concrete","VC",1732217974443,"concrete",668,"abstract","concrete","abstract;concrete","A",6.50428817353665,25
"546","65055af809999c0ee7cee26d","sugar","calibrator_conc_feedback","Concrete","VC",1732217977897,"concrete",696,"abstract","concrete","abstract;concrete","A",6.54534966033442,26
"547","65055af809999c0ee7cee26d","gas","calibrator_conc_feedback","Concrete","VC",1732217982280,"concrete",1622,"abstract","concrete","abstract;concrete","A",7.39141523467536,27
"548","65055af809999c0ee7cee26d","shirt","calibrator_conc_feedback","Concrete","VC",1732217985649,"concrete",604,"abstract","concrete","abstract;concrete","A",6.40357419793482,28
"549","65055af809999c0ee7cee26d","grasshopper","calibrator_conc_feedback","Concrete","VC",1732217989292,"concrete",880,"abstract","concrete","abstract;concrete","A",6.77992190747225,29
"550","65055af809999c0ee7cee26d","whistle","calibrator_conc_feedback","Concrete","VC",1732217992958,"concrete",898,"abstract","concrete","abstract;concrete","A",6.8001700683022,30
"551","65055af809999c0ee7cee26d","sugar","calibrator_conc_no_feedback","Concrete","VC",1732217996362,"concrete",638,"A","abstract;concrete","","A",6.45833828334479,31
"552","65055af809999c0ee7cee26d","marriage","calibrator_conc_no_feedback","Concrete","VC",1732217997924,"abstract",799,"A","abstract;concrete","","A",6.68336094576627,32
"553","65055af809999c0ee7cee26d","grasshopper","calibrator_conc_no_feedback","Concrete","VC",1732217999835,"concrete",1146,"A","abstract;concrete","","A",7.04403289727469,33
"554","65055af809999c0ee7cee26d","shirt","calibrator_conc_no_feedback","Concrete","VC",1732218001131,"concrete",534,"A","abstract;concrete","","A",6.2803958389602,34
"555","65055af809999c0ee7cee26d","theory","calibrator_conc_no_feedback","Concrete","VC",1732218002492,"abstract",596,"A","abstract;concrete","","A",6.39024066706535,35
"556","65055af809999c0ee7cee26d","whistle","calibrator_conc_no_feedback","Concrete","VC",1732218003933,"concrete",681,"A","abstract;concrete","","A",6.52356230614951,36
"557","65055af809999c0ee7cee26d","kick","calibrator_conc_no_feedback","Concrete","VC",1732218005732,"concrete",1040,"A","abstract;concrete","","A",6.94697599213542,37
"558","65055af809999c0ee7cee26d","polite","calibrator_conc_no_feedback","Concrete","VC",1732218007243,"abstract",749,"A","abstract;concrete","","A",6.61873898351722,38
"559","65055af809999c0ee7cee26d","gas","calibrator_conc_no_feedback","Concrete","VC",1732218008762,"concrete",758,"A","abstract;concrete","","A",6.63068338564237,39
"560","65055af809999c0ee7cee26d","insecure","calibrator_conc_no_feedback","Concrete","VC",1732218010322,"abstract",800,"A","abstract;concrete","","A",6.68461172766793,40
"561","63b7231214a665c3e234df23","hat","calibrator_val_feedback","Valence","VC",1732224526968,"positive",1169,"positive","negative","positive;negative","B",7.06390396147207,1
"562","63b7231214a665c3e234df23","industry","calibrator_val_feedback","Valence","VC",1732224533716,"positive",2048,"positive","negative","positive;negative","B",7.6246189861594,2
"563","63b7231214a665c3e234df23","kitten","calibrator_val_feedback","Valence","VC",1732224537435,"positive",1035,"positive","negative","positive;negative","B",6.94215670569947,3
"564","63b7231214a665c3e234df23","jail","calibrator_val_feedback","Valence","VC",1732224541874,"negative",2390,"positive","negative","positive;negative","B",7.77904864492556,4
"565","63b7231214a665c3e234df23","free","calibrator_val_feedback","Valence","VC",1732224545131,"positive",1648,"positive","negative","positive;negative","B",7.40731771046942,5
"566","63b7231214a665c3e234df23","icebox","calibrator_val_feedback","Valence","VC",1732224549209,"positive",1319,"positive","negative","positive;negative","B",7.18462915271731,6
"567","63b7231214a665c3e234df23","joke","calibrator_val_feedback","Valence","VC",1732224553982,"positive",2009,"positive","negative","positive;negative","B",7.60539236481493,7
"568","63b7231214a665c3e234df23","invader","calibrator_val_feedback","Valence","VC",1732224558199,"negative",1458,"positive","negative","positive;negative","B",7.2848209125686,8
"569","63b7231214a665c3e234df23","insecure","calibrator_val_feedback","Valence","VC",1732224564671,"negative",3713,"positive","negative","positive;negative","B",8.21959545417708,9
"570","63b7231214a665c3e234df23","grin","calibrator_val_feedback","Valence","VC",1732224569027,"positive",1603,"positive","negative","positive;negative","B",7.37963215260955,10
"571","63b7231214a665c3e234df23","invader","calibrator_val_no_feedback","Valence","VC",1732224573496,"negative",1709,"B","positive;negative","","B",7.44366368311559,11
"572","63b7231214a665c3e234df23","hat","calibrator_val_no_feedback","Valence","VC",1732224576325,"positive",2076,"B","positive;negative","","B",7.63819824428578,12
"573","63b7231214a665c3e234df23","industry","calibrator_val_no_feedback","Valence","VC",1732224578545,"positive",1463,"B","positive;negative","","B",7.28824440102012,13
"574","63b7231214a665c3e234df23","insecure","calibrator_val_no_feedback","Valence","VC",1732224580484,"negative",1187,"B","positive;negative","","B",7.07918439460967,14
"575","63b7231214a665c3e234df23","jail","calibrator_val_no_feedback","Valence","VC",1732224583027,"negative",1788,"B","positive;negative","","B",7.48885295573346,15
"576","63b7231214a665c3e234df23","free","calibrator_val_no_feedback","Valence","VC",1732224586012,"positive",2229,"B","positive;negative","","B",7.70930833338587,16
"577","63b7231214a665c3e234df23","grin","calibrator_val_no_feedback","Valence","VC",1732224587504,"positive",732,"B","positive;negative","","B",6.59578051396131,17
