"","ID.true","Word","Label","ConcValCombo","Task","BlockOrder","Group","Response","Accuracy","EventTime","Value","RT","ReactionTime","Key_value_F","Key_value_J","Comments","LogReactionTime","LogRT","TrialNumber"
"1","58472149000f1000010ebc53","loathe","test_val","abstract-negative","Valence","VC","B","negative",1,1732224870439,"negative",1767.33333333333,1164,"negative","B","",7.05961762829138,7.47722709818086,1
"2","58472149000f1000010ebc53","scratch","test_val","concrete-negative","Valence","VC","B","positive",0,1732224872281,"positive",1899.66666666667,1083,"negative","B","",6.98749024700099,7.54943371116689,2
"3","58472149000f1000010ebc53","running","test_val","concrete-positive","Valence","VC","B","positive",1,1732224874222,"positive",9012,1184,"negative","B","",7.07665381544395,9.10631230155214,3
"4","58472149000f1000010ebc53","annoy","test_val","abstract-negative","Valence","VC","B","negative",1,1732224876642,"negative",1923.33333333333,1660,"negative","B","",7.41457288135059,7.56181507083404,4
"5","58472149000f1000010ebc53","build","test_val","concrete-positive","Valence","VC","B","positive",1,1732224878562,"positive",2737.33333333333,1157,"negative","B","",7.05358572719368,7.91473948947071,5
"6","58472149000f1000010ebc53","scorn","test_val","abstract-negative","Valence","VC","B","negative",1,1732224880589,"negative",1984.16666666667,1264,"negative","B","",7.1420365747068,7.59295428969291,6
"7","58472149000f1000010ebc53","befall","test_val","abstract-negative","Valence","VC","B","negative",1,1732224882626,"negative",2149.75,1278,"negative","B","",7.15305163493748,7.67310683529101,7
"8","58472149000f1000010ebc53","murder","test_val","concrete-negative","Valence","VC","B","negative",1,1732224884308,"negative",1903.5,919,"negative","B","",6.82328612235569,7.55144957582255,8
"9","58472149000f1000010ebc53","spit","test_val","concrete-negative","Valence","VC","B","negative",1,1732224886686,"negative",1896.33333333333,1623,"negative","B","",7.39203156751459,7.54767747608254,9
"10","58472149000f1000010ebc53","justify","test_val","abstract-positive","Valence","VC","B","positive",1,1732224888588,"positive",1758.75,1144,"negative","B","",7.04228617193974,7.4723586084286,10
"11","58472149000f1000010ebc53","vomit","test_val","concrete-negative","Valence","VC","B","negative",1,1732224890304,"negative",1769,957,"negative","B","",6.86380339145295,7.47816969415979,11
"12","58472149000f1000010ebc53","smack","test_val","concrete-negative","Valence","VC","B","negative",1,1732224892211,"negative",1855.5,1146,"negative","B","",7.04403289727469,7.52590948050065,12
"13","58472149000f1000010ebc53","smile","test_val","concrete-positive","Valence","VC","B","positive",1,1732224894198,"positive",2222.83333333333,1225,"negative","B","",7.11069612297883,7.70653793739434,13
"14","58472149000f1000010ebc53","respect","test_val","abstract-positive","Valence","VC","B","positive",1,1732224895903,"positive",2457.83333333333,948,"negative","B","",6.85435450225502,7.80703548202289,14
"15","58472149000f1000010ebc53","cuddle","test_val","concrete-positive","Valence","VC","B","positive",1,1732224897814,"positive",2024,1154,"negative","B","",7.05098944706805,7.61283103040736,15
"16","58472149000f1000010ebc53","admired","test_val","abstract-positive","Valence","VC","B","positive",1,1732224899597,"positive",1880.66666666667,1026,"negative","B","",6.93342302573071,7.53938160289383,16
"17","58472149000f1000010ebc53","fulfill","test_val","abstract-positive","Valence","VC","B","positive",1,1732224901380,"positive",1856.5,1024,"negative","B","",6.93147180559945,7.52644827361713,17
"18","58472149000f1000010ebc53","slap","test_val","concrete-negative","Valence","VC","B","negative",1,1732224903106,"negative",1870,967,"negative","B","",6.87419849545329,7.53369370984863,18
"19","58472149000f1000010ebc53","bleed","test_val","concrete-negative","Valence","VC","B","negative",1,1732224905129,"negative",1824,1263,"negative","B","",7.14124512235049,7.50878717063428,19
"20","58472149000f1000010ebc53","resent","test_val","abstract-negative","Valence","VC","B","negative",1,1732224906827,"negative",1847.5,942,"negative","B","",6.84800527457636,7.52158865282236,20
"21","58472149000f1000010ebc53","kiss","test_val","concrete-positive","Valence","VC","B","positive",1,1732224908508,"positive",1606.83333333333,921,"negative","B","",6.82546003625531,7.38202064743633,21
"22","58472149000f1000010ebc53","worry","test_val","abstract-negative","Valence","VC","B","negative",1,1732224910301,"negative",1703,1030,"negative","B","",6.93731408122368,7.44014668066269,22
"23","58472149000f1000010ebc53","stab","test_val","concrete-negative","Valence","VC","B","negative",1,1732224912001,"negative",1679.5,945,"negative","B","",6.85118492749374,7.42625140905235,23
"24","58472149000f1000010ebc53","sail","test_val","concrete-positive","Valence","VC","B","positive",1,1732224913914,"positive",1990,1154,"negative","B","",7.05098944706805,7.59588991771854,24
"25","58472149000f1000010ebc53","criticize","test_val","abstract-negative","Valence","VC","B","negative",1,1732224915495,"negative",1876.83333333333,825,"negative","B","",6.71538338633468,7.53734123846897,25
"26","58472149000f1000010ebc53","cook","test_val","concrete-positive","Valence","VC","B","positive",1,1732224917083,"positive",2059.33333333333,831,"negative","B","",6.72262979485545,7.63013758481042,26
"27","58472149000f1000010ebc53","believe","test_val","abstract-positive","Valence","VC","B","positive",1,1732224919298,"positive",2055.5,1454,"negative","B","",7.28207365809346,7.62827440633793,27
"28","58472149000f1000010ebc53","hope","test_val","abstract-positive","Valence","VC","B","positive",1,1732224921148,"positive",1932.16666666667,1091,"negative","B","",6.99484998583307,7.56639727744235,28
"29","58472149000f1000010ebc53","eat","test_val","concrete-positive","Valence","VC","B","positive",1,1732224922820,"positive",1780.66666666667,912,"negative","B","",6.81563999007433,7.4847431050018,29
"30","58472149000f1000010ebc53","obsess","test_val","abstract-negative","Valence","VC","B","negative",1,1732224924334,"negative",1744.33333333333,756,"negative","B","",6.62804137617953,7.4641277177041,30
"31","58472149000f1000010ebc53","puke","test_val","concrete-negative","Valence","VC","B","negative",1,1732224925891,"negative",1969.83333333333,800,"negative","B","",6.68461172766793,7.58570421578419,31
"32","58472149000f1000010ebc53","swing","test_val","concrete-positive","Valence","VC","B","positive",1,1732224927761,"positive",2813,1110,"negative","B","",7.01211529430638,7.94200680848986,32
"33","58472149000f1000010ebc53","kill","test_val","concrete-negative","Valence","VC","B","negative",1,1732224929618,"negative",2137.5,1098,"negative","B","",7.00124562206948,7.66739220081091,33
"34","58472149000f1000010ebc53","cherish","test_val","abstract-positive","Valence","VC","B","positive",1,1732224931546,"positive",2014,1167,"negative","B","",7.06219163228656,7.60787807327851,34
"35","58472149000f1000010ebc53","violate","test_val","abstract-negative","Valence","VC","B","negative",1,1732224933301,"negative",2903.66666666667,994,"negative","B","",6.90173720665657,7.97372958515078,35
"36","58472149000f1000010ebc53","enlighten","test_val","abstract-positive","Valence","VC","B","positive",1,1732224935371,"positive",2096.83333333333,1309,"negative","B","",7.1770187659099,7.64818354912308,36
"37","58472149000f1000010ebc53","esteem","test_val","abstract-positive","Valence","VC","B","positive",1,1732224937104,"positive",2256,975,"negative","B","",6.88243747099785,7.72134861261795,37
"38","58472149000f1000010ebc53","exploit","test_val","abstract-negative","Valence","VC","B","negative",1,1732224939264,"negative",2340.16666666667,1402,"negative","B","",7.24565506759454,7.75797743088659,38
"39","58472149000f1000010ebc53","hug","test_val","concrete-positive","Valence","VC","B","positive",1,1732224941012,"positive",1732,990,"negative","B","",6.89770494312864,7.45703208912238,39
"40","58472149000f1000010ebc53","imagine","test_val","abstract-positive","Valence","VC","B","positive",1,1732224942855,"positive",2003.5,1087,"negative","B","",6.99117688712121,7.6026509300762,40
"41","58472149000f1000010ebc53","puke","test_val","concrete-negative","Valence","VC","B","negative",1,1732224944612,"negative",1969.83333333333,995,"negative","B","",6.90274273715859,7.58570421578419,41
"42","58472149000f1000010ebc53","stab","test_val","concrete-negative","Valence","VC","B","negative",1,1732224946377,"negative",1679.5,1005,"negative","B","",6.91274282049318,7.42625140905235,42
"43","58472149000f1000010ebc53","cherish","test_val","abstract-positive","Valence","VC","B","positive",1,1732224948067,"positive",2014,932,"negative","B","",6.83733281468559,7.60787807327851,43
"44","58472149000f1000010ebc53","swing","test_val","concrete-positive","Valence","VC","B","positive",1,1732224950446,"positive",2813,1622,"negative","B","",7.39141523467536,7.94200680848986,44
"45","58472149000f1000010ebc53","annoy","test_val","abstract-negative","Valence","VC","B","negative",1,1732224952293,"negative",1923.33333333333,1088,"negative","B","",6.99209642741589,7.56181507083404,45
"46","58472149000f1000010ebc53","admired","test_val","abstract-positive","Valence","VC","B","positive",1,1732224954345,"positive",1880.66666666667,1294,"negative","B","",7.16549347506085,7.53938160289383,46
"47","58472149000f1000010ebc53","exploit","test_val","abstract-negative","Valence","VC","B","negative",1,1732224956936,"negative",2340.16666666667,1832,"negative","B","",7.51316354523408,7.75797743088659,47
"48","58472149000f1000010ebc53","kiss","test_val","concrete-positive","Valence","VC","B","positive",1,1732224958917,"positive",1606.83333333333,1223,"negative","B","",7.10906213568717,7.38202064743633,48
"49","58472149000f1000010ebc53","vomit","test_val","concrete-negative","Valence","VC","B","negative",1,1732224960765,"negative",1769,1092,"negative","B","",6.99576615630485,7.47816969415979,49
"50","58472149000f1000010ebc53","hope","test_val","abstract-positive","Valence","VC","B","positive",1,1732224962562,"positive",1932.16666666667,1038,"negative","B","",6.94505106372583,7.56639727744235,50
"51","58472149000f1000010ebc53","build","test_val","concrete-positive","Valence","VC","B","positive",1,1732224964708,"positive",2737.33333333333,1386,"negative","B","",7.23417717974985,7.91473948947071,51
"52","58472149000f1000010ebc53","enlighten","test_val","abstract-positive","Valence","VC","B","positive",1,1732224966753,"positive",2096.83333333333,1286,"negative","B","",7.15929190479756,7.64818354912308,52
"53","58472149000f1000010ebc53","obsess","test_val","abstract-negative","Valence","VC","B","negative",1,1732224968451,"negative",1744.33333333333,943,"negative","B","",6.84906628263346,7.4641277177041,53
"54","58472149000f1000010ebc53","smack","test_val","concrete-negative","Valence","VC","B","negative",1,1732224970462,"negative",1855.5,1251,"negative","B","",7.13169851046691,7.52590948050065,54
"55","58472149000f1000010ebc53","believe","test_val","abstract-positive","Valence","VC","B","positive",1,1732224972186,"positive",2055.5,965,"negative","B","",6.87212810133899,7.62827440633793,55
"56","58472149000f1000010ebc53","imagine","test_val","abstract-positive","Valence","VC","B","positive",1,1732224973855,"positive",2003.5,911,"negative","B","",6.81454289725996,7.6026509300762,56
"57","58472149000f1000010ebc53","resent","test_val","abstract-negative","Valence","VC","B","negative",1,1732224975547,"negative",1847.5,932,"negative","B","",6.83733281468559,7.52158865282236,57
"58","58472149000f1000010ebc53","criticize","test_val","abstract-negative","Valence","VC","B","negative",1,1732224977136,"negative",1876.83333333333,831,"negative","B","",6.72262979485545,7.53734123846897,58
"59","58472149000f1000010ebc53","esteem","test_val","abstract-positive","Valence","VC","B","positive",1,1732224978904,"positive",2256,1008,"negative","B","",6.91572344863131,7.72134861261795,59
"60","58472149000f1000010ebc53","murder","test_val","concrete-negative","Valence","VC","B","negative",1,1732224980597,"negative",1903.5,936,"negative","B","",6.84161547647759,7.55144957582255,60
"61","58472149000f1000010ebc53","running","test_val","concrete-positive","Valence","VC","B","positive",1,1732224982715,"positive",9012,1357,"negative","B","",7.21303165983487,9.10631230155214,61
"62","58472149000f1000010ebc53","fulfill","test_val","abstract-positive","Valence","VC","B","positive",1,1732224984304,"positive",1856.5,828,"negative","B","",6.71901315438526,7.52644827361713,62
"63","58472149000f1000010ebc53","scratch","test_val","concrete-negative","Valence","VC","B","negative",1,1732224986022,"negative",1899.66666666667,958,"negative","B","",6.86484777797086,7.54943371116689,63
"64","58472149000f1000010ebc53","violate","test_val","abstract-negative","Valence","VC","B","negative",1,1732224987864,"negative",2903.66666666667,1084,"negative","B","",6.98841318199959,7.97372958515078,64
"65","58472149000f1000010ebc53","befall","test_val","abstract-negative","Valence","VC","B","negative",1,1732224990138,"negative",2149.75,1516,"negative","B","",7.32383056620232,7.67310683529101,65
"66","58472149000f1000010ebc53","bleed","test_val","concrete-negative","Valence","VC","B","negative",1,1732224991737,"negative",1824,842,"negative","B","",6.73578001424233,7.50878717063428,66
"67","58472149000f1000010ebc53","worry","test_val","abstract-negative","Valence","VC","B","negative",1,1732224993344,"negative",1703,846,"negative","B","",6.74051935960622,7.44014668066269,67
"68","58472149000f1000010ebc53","smile","test_val","concrete-positive","Valence","VC","B","positive",1,1732224995059,"positive",2222.83333333333,954,"negative","B","",6.86066367144829,7.70653793739434,68
"69","58472149000f1000010ebc53","kill","test_val","concrete-negative","Valence","VC","B","negative",1,1732224996635,"negative",2137.5,819,"negative","B","",6.70808408385307,7.66739220081091,69
"70","58472149000f1000010ebc53","spit","test_val","concrete-negative","Valence","VC","B","negative",1,1732224998297,"negative",1896.33333333333,904,"negative","B","",6.80682936039218,7.54767747608254,70
"71","58472149000f1000010ebc53","cook","test_val","concrete-positive","Valence","VC","B","positive",1,1732225000202,"positive",2059.33333333333,1147,"negative","B","",7.04490511712937,7.63013758481042,71
"72","58472149000f1000010ebc53","hug","test_val","concrete-positive","Valence","VC","B","positive",1,1732225002181,"positive",1732,1222,"negative","B","",7.10824413973154,7.45703208912238,72
"73","58472149000f1000010ebc53","slap","test_val","concrete-negative","Valence","VC","B","negative",1,1732225004242,"negative",1870,1306,"negative","B","",7.17472430983638,7.53369370984863,73
"74","58472149000f1000010ebc53","sail","test_val","concrete-positive","Valence","VC","B","positive",1,1732225006019,"positive",1990,1017,"negative","B","",6.92461239604856,7.59588991771854,74
"75","58472149000f1000010ebc53","eat","test_val","concrete-positive","Valence","VC","B","positive",1,1732225007678,"positive",1780.66666666667,901,"negative","B","",6.80350525760834,7.4847431050018,75
"76","58472149000f1000010ebc53","cuddle","test_val","concrete-positive","Valence","VC","B","positive",1,1732225009360,"positive",2024,921,"negative","B","",6.82546003625531,7.61283103040736,76
"77","58472149000f1000010ebc53","respect","test_val","abstract-positive","Valence","VC","B","positive",1,1732225011001,"positive",2457.83333333333,882,"negative","B","",6.78219205600679,7.80703548202289,77
"78","58472149000f1000010ebc53","justify","test_val","abstract-positive","Valence","VC","B","positive",1,1732225012530,"positive",1758.75,772,"negative","B","",6.64898455002478,7.4723586084286,78
"79","58472149000f1000010ebc53","loathe","test_val","abstract-negative","Valence","VC","B","negative",1,1732225014045,"negative",1767.33333333333,759,"negative","B","",6.63200177739563,7.47722709818086,79
"80","58472149000f1000010ebc53","scorn","test_val","abstract-negative","Valence","VC","B","negative",1,1732225015644,"negative",1984.16666666667,839,"negative","B","",6.73221070646721,7.59295428969291,80
"81","58472149000f1000010ebc53","violate","test_val","abstract-negative","Valence","VC","B","negative",1,1732225017148,"negative",2903.66666666667,743,"negative","B","",6.61069604471776,7.97372958515078,81
"82","58472149000f1000010ebc53","swing","test_val","concrete-positive","Valence","VC","B","positive",1,1732225018958,"positive",2813,1055,"negative","B","",6.96129604591017,7.94200680848986,82
"83","58472149000f1000010ebc53","admired","test_val","abstract-positive","Valence","VC","B","positive",1,1732225020663,"positive",1880.66666666667,948,"negative","B","",6.85435450225502,7.53938160289383,83
"84","58472149000f1000010ebc53","vomit","test_val","concrete-negative","Valence","VC","B","negative",1,1732225022194,"negative",1769,775,"negative","B","",6.65286302935335,7.47816969415979,84
"85","58472149000f1000010ebc53","spit","test_val","concrete-negative","Valence","VC","B","negative",1,1732225023778,"negative",1896.33333333333,820,"negative","B","",6.7093043402583,7.54767747608254,85
"86","58472149000f1000010ebc53","smile","test_val","concrete-positive","Valence","VC","B","positive",1,1732225025373,"positive",2222.83333333333,835,"negative","B","",6.72743172485086,7.70653793739434,86
"87","58472149000f1000010ebc53","loathe","test_val","abstract-negative","Valence","VC","B","negative",1,1732225027022,"negative",1767.33333333333,894,"negative","B","",6.79570577517351,7.47722709818086,87
"88","58472149000f1000010ebc53","fulfill","test_val","abstract-positive","Valence","VC","B","positive",1,1732225028747,"positive",1856.5,967,"negative","B","",6.87419849545329,7.52644827361713,88
"89","58472149000f1000010ebc53","puke","test_val","concrete-negative","Valence","VC","B","negative",1,1732225030421,"negative",1969.83333333333,916,"negative","B","",6.82001636467413,7.58570421578419,89
"90","58472149000f1000010ebc53","justify","test_val","abstract-positive","Valence","VC","B","positive",1,1732225032119,"positive",1758.75,939,"negative","B","",6.84481547920826,7.4723586084286,90
"91","58472149000f1000010ebc53","bleed","test_val","concrete-negative","Valence","VC","B","negative",1,1732225033821,"negative",1824,947,"negative","B","",6.85329909318608,7.50878717063428,91
"92","58472149000f1000010ebc53","worry","test_val","abstract-negative","Valence","VC","B","negative",1,1732225035523,"negative",1703,944,"negative","B","",6.8501261661455,7.44014668066269,92
"93","58472149000f1000010ebc53","esteem","test_val","abstract-positive","Valence","VC","B","positive",1,1732225037785,"positive",2256,1500,"negative","B","",7.3132203870903,7.72134861261795,93
"94","58472149000f1000010ebc53","scorn","test_val","abstract-negative","Valence","VC","B","negative",1,1732225039475,"negative",1984.16666666667,929,"negative","B","",6.83410873881384,7.59295428969291,94
"95","58472149000f1000010ebc53","murder","test_val","concrete-negative","Valence","VC","B","negative",1,1732225041097,"negative",1903.5,865,"negative","B","",6.76272950693188,7.55144957582255,95
"96","58472149000f1000010ebc53","criticize","test_val","abstract-negative","Valence","VC","B","negative",1,1732225042798,"negative",1876.83333333333,943,"negative","B","",6.84906628263346,7.53734123846897,96
"97","58472149000f1000010ebc53","build","test_val","concrete-positive","Valence","VC","B","positive",1,1732225044407,"positive",2737.33333333333,847,"negative","B","",6.74170069465205,7.91473948947071,97
"98","58472149000f1000010ebc53","believe","test_val","abstract-positive","Valence","VC","B","positive",1,1732225046070,"positive",2055.5,908,"negative","B","",6.81124437860129,7.62827440633793,98
"99","58472149000f1000010ebc53","annoy","test_val","abstract-negative","Valence","VC","B","negative",1,1732225047613,"negative",1923.33333333333,783,"negative","B","",6.6631326959908,7.56181507083404,99
"100","58472149000f1000010ebc53","kill","test_val","concrete-negative","Valence","VC","B","negative",1,1732225049257,"negative",2137.5,886,"negative","B","",6.78671695060508,7.66739220081091,100
"101","58472149000f1000010ebc53","slap","test_val","concrete-negative","Valence","VC","B","negative",1,1732225050959,"negative",1870,941,"negative","B","",6.84694313958538,7.53369370984863,101
"102","58472149000f1000010ebc53","eat","test_val","concrete-positive","Valence","VC","B","positive",1,1732225052573,"positive",1780.66666666667,853,"negative","B","",6.74875954749168,7.4847431050018,102
"103","58472149000f1000010ebc53","resent","test_val","abstract-negative","Valence","VC","B","negative",1,1732225054205,"negative",1847.5,871,"negative","B","",6.7696419768525,7.52158865282236,103
"104","58472149000f1000010ebc53","kiss","test_val","concrete-positive","Valence","VC","B","positive",1,1732225055855,"positive",1606.83333333333,895,"negative","B","",6.79682371827486,7.38202064743633,104
"105","58472149000f1000010ebc53","enlighten","test_val","abstract-positive","Valence","VC","B","positive",1,1732225057687,"positive",2096.83333333333,1075,"negative","B","",6.98007594056176,7.64818354912308,105
"106","58472149000f1000010ebc53","hug","test_val","concrete-positive","Valence","VC","B","positive",1,1732225059300,"positive",1732,853,"negative","B","",6.74875954749168,7.45703208912238,106
"107","58472149000f1000010ebc53","cook","test_val","concrete-positive","Valence","VC","B","positive",1,1732225060993,"positive",2059.33333333333,935,"negative","B","",6.84054652928869,7.63013758481042,107
"108","58472149000f1000010ebc53","scratch","test_val","concrete-negative","Valence","VC","B","negative",1,1732225062859,"negative",1899.66666666667,1109,"negative","B","",7.01121398735037,7.54943371116689,108
"109","58472149000f1000010ebc53","obsess","test_val","abstract-negative","Valence","VC","B","negative",1,1732225064785,"negative",1744.33333333333,1164,"negative","B","",7.05961762829138,7.4641277177041,109
"110","58472149000f1000010ebc53","cuddle","test_val","concrete-positive","Valence","VC","B","positive",1,1732225066458,"positive",2024,913,"negative","B","",6.81673588059497,7.61283103040736,110
"111","58472149000f1000010ebc53","running","test_val","concrete-positive","Valence","VC","B","positive",1,1732225068437,"positive",9012,1221,"negative","B","",7.1074254741107,9.10631230155214,111
"112","58472149000f1000010ebc53","exploit","test_val","abstract-negative","Valence","VC","B","negative",1,1732225070314,"negative",2340.16666666667,1118,"negative","B","",7.01929665371504,7.75797743088659,112
"113","58472149000f1000010ebc53","befall","test_val","abstract-negative","Valence","VC","B","negative",1,1732225072741,"negative",2149.75,1668,"negative","B","",7.41938058291869,7.67310683529101,113
"114","58472149000f1000010ebc53","sail","test_val","concrete-positive","Valence","VC","B","positive",1,1732225074449,"positive",1990,951,"negative","B","",6.85751406254539,7.59588991771854,114
"115","58472149000f1000010ebc53","hope","test_val","abstract-positive","Valence","VC","B","positive",1,1732225076710,"positive",1932.16666666667,1501,"negative","B","",7.31388683163346,7.56639727744235,115
"116","58472149000f1000010ebc53","stab","test_val","concrete-negative","Valence","VC","B","negative",1,1732225078316,"negative",1679.5,849,"negative","B","",6.74405918631135,7.42625140905235,116
"117","58472149000f1000010ebc53","cherish","test_val","abstract-positive","Valence","VC","B","positive",1,1732225079955,"positive",2014,876,"negative","B","",6.77536609093639,7.60787807327851,117
"118","58472149000f1000010ebc53","imagine","test_val","abstract-positive","Valence","VC","B","positive",1,1732225081679,"positive",2003.5,966,"negative","B","",6.87316383421252,7.6026509300762,118
"119","58472149000f1000010ebc53","respect","test_val","abstract-positive","Valence","VC","B","positive",1,1732225083385,"positive",2457.83333333333,949,"negative","B","",6.85540879860993,7.80703548202289,119
"120","58472149000f1000010ebc53","smack","test_val","concrete-negative","Valence","VC","B","negative",1,1732225084967,"negative",1855.5,821,"negative","B","",6.71052310945243,7.52590948050065,120
"121","58472149000f1000010ebc53","resent","test_conc","abstract-negative","Concrete","VC","B","abstract",1,1732225251965,"abstract",1847.5,1511,"abstract","B","",7.32052696227274,7.52158865282236,121
"122","58472149000f1000010ebc53","loathe","test_conc","abstract-negative","Concrete","VC","B","abstract",1,1732225253942,"abstract",1767.33333333333,1217,"abstract","B","",7.10414409298753,7.47722709818086,122
"123","58472149000f1000010ebc53","worry","test_conc","abstract-negative","Concrete","VC","B","abstract",1,1732225255581,"abstract",1703,882,"abstract","B","",6.78219205600679,7.44014668066269,123
"124","58472149000f1000010ebc53","swing","test_conc","concrete-positive","Concrete","VC","B","abstract",0,1732225257904,"abstract",2813,1564,"abstract","B","",7.35500192110526,7.94200680848986,124
"125","58472149000f1000010ebc53","smile","test_conc","concrete-positive","Concrete","VC","B","concrete",1,1732225261520,"concrete",2222.83333333333,2854,"abstract","B","",7.95647679803678,7.70653793739434,125
"126","58472149000f1000010ebc53","cuddle","test_conc","concrete-positive","Concrete","VC","B","concrete",1,1732225264480,"concrete",2024,2202,"abstract","B","",7.69712131728263,7.61283103040736,126
"127","58472149000f1000010ebc53","exploit","test_conc","abstract-negative","Concrete","VC","B","abstract",1,1732225266672,"abstract",2340.16666666667,1432,"abstract","B","",7.26682734752059,7.75797743088659,127
"128","58472149000f1000010ebc53","cherish","test_conc","abstract-positive","Concrete","VC","B","abstract",1,1732225269454,"abstract",2014,2024,"abstract","B","",7.61283103040736,7.60787807327851,128
"129","58472149000f1000010ebc53","criticize","test_conc","abstract-negative","Concrete","VC","B","abstract",1,1732225271235,"abstract",1876.83333333333,1023,"abstract","B","",6.93049476595163,7.53734123846897,129
"130","58472149000f1000010ebc53","kiss","test_conc","concrete-positive","Concrete","VC","B","concrete",1,1732225273070,"concrete",1606.83333333333,1077,"abstract","B","",6.98193467715639,7.38202064743633,130
"131","58472149000f1000010ebc53","fulfill","test_conc","abstract-positive","Concrete","VC","B","abstract",1,1732225275197,"abstract",1856.5,1369,"abstract","B","",7.22183582528845,7.52644827361713,131
"132","58472149000f1000010ebc53","puke","test_conc","concrete-negative","Concrete","VC","B","concrete",1,1732225277410,"concrete",1969.83333333333,1454,"abstract","B","",7.28207365809346,7.58570421578419,132
"133","58472149000f1000010ebc53","violate","test_conc","abstract-negative","Concrete","VC","B","abstract",1,1732225281997,"abstract",2903.66666666667,3827,"abstract","B","",8.2498364854257,7.97372958515078,133
"134","58472149000f1000010ebc53","esteem","test_conc","abstract-positive","Concrete","VC","B","abstract",1,1732225284757,"abstract",2256,2001,"abstract","B","",7.60140233458373,7.72134861261795,134
"135","58472149000f1000010ebc53","kill","test_conc","concrete-negative","Concrete","VC","B","concrete",1,1732225288541,"concrete",2137.5,3024,"abstract","B","",8.01433573729942,7.66739220081091,135
"136","58472149000f1000010ebc53","respect","test_conc","abstract-positive","Concrete","VC","B","concrete",0,1732225292344,"concrete",2457.83333333333,3048,"abstract","B","",8.02224091680654,7.80703548202289,136
"137","58472149000f1000010ebc53","admired","test_conc","abstract-positive","Concrete","VC","B","abstract",1,1732225294538,"abstract",1880.66666666667,1437,"abstract","B","",7.27031288607902,7.53938160289383,137
"138","58472149000f1000010ebc53","running","test_conc","concrete-positive","Concrete","VC","B","concrete",1,1732225296962,"concrete",9012,1666,"abstract","B","",7.41818082272679,9.10631230155214,138
"139","58472149000f1000010ebc53","cook","test_conc","concrete-positive","Concrete","VC","B","concrete",1,1732225298637,"concrete",2059.33333333333,915,"abstract","B","",6.81892406527552,7.63013758481042,139
"140","58472149000f1000010ebc53","annoy","test_conc","abstract-negative","Concrete","VC","B","abstract",1,1732225300613,"abstract",1923.33333333333,1217,"abstract","B","",7.10414409298753,7.56181507083404,140
"141","58472149000f1000010ebc53","obsess","test_conc","abstract-negative","Concrete","VC","B","abstract",1,1732225302581,"abstract",1744.33333333333,1210,"abstract","B","",7.09837563859079,7.4641277177041,141
"142","58472149000f1000010ebc53","scorn","test_conc","abstract-negative","Concrete","VC","B","abstract",1,1732225304568,"abstract",1984.16666666667,1228,"abstract","B","",7.11314210870709,7.59295428969291,142
"143","58472149000f1000010ebc53","sail","test_conc","concrete-positive","Concrete","VC","B","concrete",1,1732225306938,"concrete",1990,1613,"abstract","B","",7.38585107812521,7.59588991771854,143
"144","58472149000f1000010ebc53","enlighten","test_conc","abstract-positive","Concrete","VC","B","abstract",1,1732225309345,"abstract",2096.83333333333,1648,"abstract","B","",7.40731771046942,7.64818354912308,144
"145","58472149000f1000010ebc53","smack","test_conc","concrete-negative","Concrete","VC","B","concrete",1,1732225311188,"concrete",1855.5,1084,"abstract","B","",6.98841318199959,7.52590948050065,145
"146","58472149000f1000010ebc53","believe","test_conc","abstract-positive","Concrete","VC","B","abstract",1,1732225313844,"abstract",2055.5,1900,"abstract","B","",7.54960916515453,7.62827440633793,146
"147","58472149000f1000010ebc53","vomit","test_conc","concrete-negative","Concrete","VC","B","concrete",1,1732225315847,"concrete",1769,1241,"abstract","B","",7.12367278520461,7.47816969415979,147
"148","58472149000f1000010ebc53","befall","test_conc","abstract-negative","Concrete","VC","B","abstract",1,1732225318138,"abstract",2149.75,1533,"abstract","B","",7.33498187887181,7.67310683529101,148
"149","58472149000f1000010ebc53","slap","test_conc","concrete-negative","Concrete","VC","B","concrete",1,1732225320406,"concrete",1870,1507,"abstract","B","",7.3178761986265,7.53369370984863,149
"150","58472149000f1000010ebc53","bleed","test_conc","concrete-negative","Concrete","VC","B","concrete",1,1732225322349,"concrete",1824,1185,"abstract","B","",7.07749805356923,7.50878717063428,150
"151","58472149000f1000010ebc53","scratch","test_conc","concrete-negative","Concrete","VC","B","concrete",1,1732225324554,"concrete",1899.66666666667,1444,"abstract","B","",7.27517231945277,7.54943371116689,151
"152","58472149000f1000010ebc53","stab","test_conc","concrete-negative","Concrete","VC","B","concrete",1,1732225326270,"concrete",1679.5,956,"abstract","B","",6.8627579130514,7.42625140905235,152
"153","58472149000f1000010ebc53","eat","test_conc","concrete-positive","Concrete","VC","B","concrete",1,1732225327974,"concrete",1780.66666666667,947,"abstract","B","",6.85329909318608,7.4847431050018,153
"154","58472149000f1000010ebc53","hope","test_conc","abstract-positive","Concrete","VC","B","abstract",1,1732225329683,"abstract",1932.16666666667,953,"abstract","B","",6.8596149036542,7.56639727744235,154
"155","58472149000f1000010ebc53","hug","test_conc","concrete-positive","Concrete","VC","B","concrete",1,1732225331405,"concrete",1732,962,"abstract","B","",6.86901445066571,7.45703208912238,155
"156","58472149000f1000010ebc53","murder","test_conc","concrete-negative","Concrete","VC","B","concrete",1,1732225333399,"concrete",1903.5,1230,"abstract","B","",7.11476944836646,7.55144957582255,156
"157","58472149000f1000010ebc53","imagine","test_conc","abstract-positive","Concrete","VC","B","abstract",1,1732225336401,"abstract",2003.5,2244,"abstract","B","",7.71601526664259,7.6026509300762,157
"158","58472149000f1000010ebc53","justify","test_conc","abstract-positive","Concrete","VC","B","abstract",1,1732225338456,"abstract",1758.75,1293,"abstract","B","",7.16472037877186,7.4723586084286,158
"159","58472149000f1000010ebc53","spit","test_conc","concrete-negative","Concrete","VC","B","concrete",1,1732225340610,"concrete",1896.33333333333,1394,"abstract","B","",7.23993259132047,7.54767747608254,159
"160","58472149000f1000010ebc53","build","test_conc","concrete-positive","Concrete","VC","B","abstract",0,1732225345530,"abstract",2737.33333333333,4164,"abstract","B","",8.33423142973486,7.91473948947071,160
"161","58472149000f1000010ebc53","murder","test_conc","concrete-negative","Concrete","VC","B","concrete",1,1732225347927,"concrete",1903.5,1641,"abstract","B","",7.40306109109009,7.55144957582255,161
"162","58472149000f1000010ebc53","justify","test_conc","abstract-positive","Concrete","VC","B","abstract",1,1732225349686,"abstract",1758.75,1001,"abstract","B","",6.90875477931522,7.4723586084286,162
"163","58472149000f1000010ebc53","exploit","test_conc","abstract-negative","Concrete","VC","B","abstract",1,1732225352612,"abstract",2340.16666666667,2170,"abstract","B","",7.68248244653451,7.75797743088659,163
"164","58472149000f1000010ebc53","scratch","test_conc","concrete-negative","Concrete","VC","B","concrete",1,1732225354530,"concrete",1899.66666666667,1161,"abstract","B","",7.05703698169789,7.54943371116689,164
"165","58472149000f1000010ebc53","spit","test_conc","concrete-negative","Concrete","VC","B","concrete",1,1732225356338,"concrete",1896.33333333333,1051,"abstract","B","",6.95749737087695,7.54767747608254,165
"166","58472149000f1000010ebc53","cherish","test_conc","abstract-positive","Concrete","VC","B","abstract",1,1732225358591,"abstract",2014,1492,"abstract","B","",7.30787278076371,7.60787807327851,166
"167","58472149000f1000010ebc53","violate","test_conc","abstract-negative","Concrete","VC","B","abstract",1,1732225363540,"abstract",2903.66666666667,4191,"abstract","B","",8.34069464792507,7.97372958515078,167
"168","58472149000f1000010ebc53","bleed","test_conc","concrete-negative","Concrete","VC","B","concrete",1,1732225365314,"concrete",1824,1015,"abstract","B","",6.92264389147589,7.50878717063428,168
"169","58472149000f1000010ebc53","loathe","test_conc","abstract-negative","Concrete","VC","B","abstract",1,1732225367315,"abstract",1767.33333333333,1244,"abstract","B","",7.12608727329912,7.47722709818086,169
"170","58472149000f1000010ebc53","respect","test_conc","abstract-positive","Concrete","VC","B","abstract",1,1732225369510,"abstract",2457.83333333333,1439,"abstract","B","",7.27170370688737,7.80703548202289,170
"171","58472149000f1000010ebc53","smile","test_conc","concrete-positive","Concrete","VC","B","concrete",1,1732225371445,"concrete",2222.83333333333,1177,"abstract","B","",7.07072410726028,7.70653793739434,171
"172","58472149000f1000010ebc53","obsess","test_conc","abstract-negative","Concrete","VC","B","abstract",1,1732225373160,"abstract",1744.33333333333,955,"abstract","B","",6.86171134048073,7.4641277177041,172
"173","58472149000f1000010ebc53","enlighten","test_conc","abstract-positive","Concrete","VC","B","concrete",0,1732225374882,"concrete",2096.83333333333,965,"abstract","B","",6.87212810133899,7.64818354912308,173
"174","58472149000f1000010ebc53","believe","test_conc","abstract-positive","Concrete","VC","B","abstract",1,1732225377071,"abstract",2055.5,1434,"abstract","B","",7.26822302115957,7.62827440633793,174
"175","58472149000f1000010ebc53","imagine","test_conc","abstract-positive","Concrete","VC","B","abstract",1,1732225378940,"abstract",2003.5,1111,"abstract","B","",7.01301578963963,7.6026509300762,175
"176","58472149000f1000010ebc53","kill","test_conc","concrete-negative","Concrete","VC","B","concrete",1,1732225380924,"concrete",2137.5,1223,"abstract","B","",7.10906213568717,7.66739220081091,176
"177","58472149000f1000010ebc53","slap","test_conc","concrete-negative","Concrete","VC","B","concrete",1,1732225382608,"concrete",1870,921,"abstract","B","",6.82546003625531,7.53369370984863,177
"178","58472149000f1000010ebc53","kiss","test_conc","concrete-positive","Concrete","VC","B","concrete",1,1732225384323,"concrete",1606.83333333333,959,"abstract","B","",6.86589107488344,7.38202064743633,178
"179","58472149000f1000010ebc53","hope","test_conc","abstract-positive","Concrete","VC","B","abstract",1,1732225386189,"abstract",1932.16666666667,1107,"abstract","B","",7.00940893270864,7.56639727744235,179
"180","58472149000f1000010ebc53","hug","test_conc","concrete-positive","Concrete","VC","B","concrete",1,1732225387864,"concrete",1732,916,"abstract","B","",6.82001636467413,7.45703208912238,180
"181","58472149000f1000010ebc53","puke","test_conc","concrete-negative","Concrete","VC","B","concrete",1,1732225389918,"concrete",1969.83333333333,1295,"abstract","B","",7.16626597413364,7.58570421578419,181
"182","58472149000f1000010ebc53","vomit","test_conc","concrete-negative","Concrete","VC","B","concrete",1,1732225391770,"concrete",1769,1090,"abstract","B","",6.99393297522319,7.47816969415979,182
"183","58472149000f1000010ebc53","worry","test_conc","abstract-negative","Concrete","VC","B","abstract",1,1732225393658,"abstract",1703,1132,"abstract","B","",7.03174125876313,7.44014668066269,183
"184","58472149000f1000010ebc53","sail","test_conc","concrete-positive","Concrete","VC","B","concrete",1,1732225395592,"concrete",1990,1179,"abstract","B","",7.07242190053737,7.59588991771854,184
"185","58472149000f1000010ebc53","smack","test_conc","concrete-negative","Concrete","VC","B","concrete",1,1732225397504,"concrete",1855.5,1155,"abstract","B","",7.05185562295589,7.52590948050065,185
"186","58472149000f1000010ebc53","swing","test_conc","concrete-positive","Concrete","VC","B","abstract",0,1732225401474,"abstract",2813,3208,"abstract","B","",8.07340296898641,7.94200680848986,186
"187","58472149000f1000010ebc53","cook","test_conc","concrete-positive","Concrete","VC","B","concrete",1,1732225405367,"concrete",2059.33333333333,3138,"abstract","B","",8.05134093329298,7.63013758481042,187
"188","58472149000f1000010ebc53","cuddle","test_conc","concrete-positive","Concrete","VC","B","concrete",1,1732225407414,"concrete",2024,1286,"abstract","B","",7.15929190479756,7.61283103040736,188
"189","58472149000f1000010ebc53","scorn","test_conc","abstract-negative","Concrete","VC","B","abstract",1,1732225409632,"abstract",1984.16666666667,1461,"abstract","B","",7.2868764117507,7.59295428969291,189
"190","58472149000f1000010ebc53","running","test_conc","concrete-positive","Concrete","VC","B","concrete",1,1732225413613,"concrete",9012,3220,"abstract","B","",8.07713663853845,9.10631230155214,190
"191","58472149000f1000010ebc53","befall","test_conc","abstract-negative","Concrete","VC","B","abstract",1,1732225415362,"abstract",2149.75,988,"abstract","B","",6.89568269774787,7.67310683529101,191
"192","58472149000f1000010ebc53","admired","test_conc","abstract-positive","Concrete","VC","B","abstract",1,1732225417257,"abstract",1880.66666666667,1138,"abstract","B","",7.03702761468628,7.53938160289383,192
"193","58472149000f1000010ebc53","resent","test_conc","abstract-negative","Concrete","VC","B","abstract",1,1732225419138,"abstract",1847.5,1118,"abstract","B","",7.01929665371504,7.52158865282236,193
"194","58472149000f1000010ebc53","annoy","test_conc","abstract-negative","Concrete","VC","B","abstract",1,1732225420772,"abstract",1923.33333333333,875,"abstract","B","",6.77422388635761,7.56181507083404,194
"195","58472149000f1000010ebc53","stab","test_conc","concrete-negative","Concrete","VC","B","concrete",1,1732225422485,"concrete",1679.5,953,"abstract","B","",6.8596149036542,7.42625140905235,195
"196","58472149000f1000010ebc53","fulfill","test_conc","abstract-positive","Concrete","VC","B","abstract",1,1732225424544,"abstract",1856.5,1297,"abstract","B","",7.16780918431644,7.52644827361713,196
"197","58472149000f1000010ebc53","build","test_conc","concrete-positive","Concrete","VC","B","concrete",1,1732225426336,"concrete",2737.33333333333,1031,"abstract","B","",6.93828448401696,7.91473948947071,197
"198","58472149000f1000010ebc53","eat","test_conc","concrete-positive","Concrete","VC","B","concrete",1,1732225428398,"concrete",1780.66666666667,1306,"abstract","B","",7.17472430983638,7.4847431050018,198
"199","58472149000f1000010ebc53","criticize","test_conc","abstract-negative","Concrete","VC","B","abstract",1,1732225430392,"abstract",1876.83333333333,1235,"abstract","B","",7.11882624906208,7.53734123846897,199
"200","58472149000f1000010ebc53","esteem","test_conc","abstract-positive","Concrete","VC","B","abstract",1,1732225433059,"abstract",2256,1910,"abstract","B","",7.55485852104068,7.72134861261795,200
"201","58472149000f1000010ebc53","slap","test_conc","concrete-negative","Concrete","VC","B","concrete",1,1732225434861,"concrete",1870,1039,"abstract","B","",6.94601399109923,7.53369370984863,201
"202","58472149000f1000010ebc53","violate","test_conc","abstract-negative","Concrete","VC","B","abstract",1,1732225437664,"abstract",2903.66666666667,2048,"abstract","B","",7.6246189861594,7.97372958515078,202
"203","58472149000f1000010ebc53","murder","test_conc","concrete-negative","Concrete","VC","B","concrete",1,1732225439718,"concrete",1903.5,1295,"abstract","B","",7.16626597413364,7.55144957582255,203
"204","58472149000f1000010ebc53","imagine","test_conc","abstract-positive","Concrete","VC","B","abstract",1,1732225441652,"abstract",2003.5,1173,"abstract","B","",7.06731984865348,7.6026509300762,204
"205","58472149000f1000010ebc53","believe","test_conc","abstract-positive","Concrete","VC","B","abstract",1,1732225443554,"abstract",2055.5,1141,"abstract","B","",7.03966034986208,7.62827440633793,205
"206","58472149000f1000010ebc53","stab","test_conc","concrete-negative","Concrete","VC","B","concrete",1,1732225445153,"concrete",1679.5,839,"abstract","B","",6.73221070646721,7.42625140905235,206
"207","58472149000f1000010ebc53","resent","test_conc","abstract-negative","Concrete","VC","B","abstract",1,1732225447085,"abstract",1847.5,1172,"abstract","B","",7.06646697013696,7.52158865282236,207
"208","58472149000f1000010ebc53","cuddle","test_conc","concrete-positive","Concrete","VC","B","concrete",1,1732225448977,"concrete",2024,1134,"abstract","B","",7.0335064842877,7.61283103040736,208
"209","58472149000f1000010ebc53","puke","test_conc","concrete-negative","Concrete","VC","B","concrete",1,1732225451560,"concrete",1969.83333333333,1823,"abstract","B","",7.50823877467866,7.58570421578419,209
"210","58472149000f1000010ebc53","smack","test_conc","concrete-negative","Concrete","VC","B","concrete",1,1732225453462,"concrete",1855.5,1139,"abstract","B","",7.03790596344718,7.52590948050065,210
"211","58472149000f1000010ebc53","scratch","test_conc","concrete-negative","Concrete","VC","B","concrete",1,1732225455330,"concrete",1899.66666666667,1107,"abstract","B","",7.00940893270864,7.54943371116689,211
"212","58472149000f1000010ebc53","fulfill","test_conc","abstract-positive","Concrete","VC","B","abstract",1,1732225457206,"abstract",1856.5,1116,"abstract","B","",7.01750614294126,7.52644827361713,212
"213","58472149000f1000010ebc53","spit","test_conc","concrete-negative","Concrete","VC","B","concrete",1,1732225459017,"concrete",1896.33333333333,1056,"abstract","B","",6.96224346426621,7.54767747608254,213
"214","58472149000f1000010ebc53","justify","test_conc","abstract-positive","Concrete","VC","B","abstract",1,1732225460648,"abstract",1758.75,873,"abstract","B","",6.7719355558396,7.4723586084286,214
"215","58472149000f1000010ebc53","enlighten","test_conc","abstract-positive","Concrete","VC","B","abstract",1,1732225463174,"abstract",2096.83333333333,1769,"abstract","B","",7.47816969415979,7.64818354912308,215
"216","58472149000f1000010ebc53","scorn","test_conc","abstract-negative","Concrete","VC","B","abstract",1,1732225465578,"abstract",1984.16666666667,1646,"abstract","B","",7.40610338123702,7.59295428969291,216
"217","58472149000f1000010ebc53","worry","test_conc","abstract-negative","Concrete","VC","B","abstract",1,1732225467185,"abstract",1703,850,"abstract","B","",6.74523634948436,7.44014668066269,217
"218","58472149000f1000010ebc53","smile","test_conc","concrete-positive","Concrete","VC","B","concrete",1,1732225469695,"concrete",2222.83333333333,1749,"abstract","B","",7.4667994750186,7.70653793739434,218
"219","58472149000f1000010ebc53","obsess","test_conc","abstract-negative","Concrete","VC","B","abstract",1,1732225471361,"abstract",1744.33333333333,906,"abstract","B","",6.80903930604298,7.4641277177041,219
"220","58472149000f1000010ebc53","sail","test_conc","concrete-positive","Concrete","VC","B","concrete",1,1732225473617,"concrete",1990,1498,"abstract","B","",7.31188616407716,7.59588991771854,220
"221","58472149000f1000010ebc53","esteem","test_conc","abstract-positive","Concrete","VC","B","abstract",1,1732225475981,"abstract",2256,1605,"abstract","B","",7.38087903556412,7.72134861261795,221
"222","58472149000f1000010ebc53","build","test_conc","concrete-positive","Concrete","VC","B","concrete",1,1732225480036,"concrete",2737.33333333333,3295,"abstract","B","",8.10016144693661,7.91473948947071,222
"223","58472149000f1000010ebc53","vomit","test_conc","concrete-negative","Concrete","VC","B","concrete",1,1732225481718,"concrete",1769,923,"abstract","B","",6.82762923450285,7.47816969415979,223
"224","58472149000f1000010ebc53","hug","test_conc","concrete-positive","Concrete","VC","B","concrete",1,1732225483395,"concrete",1732,917,"abstract","B","",6.82110747225646,7.45703208912238,224
"225","58472149000f1000010ebc53","kill","test_conc","concrete-negative","Concrete","VC","B","concrete",1,1732225485397,"concrete",2137.5,1241,"abstract","B","",7.12367278520461,7.66739220081091,225
"226","58472149000f1000010ebc53","eat","test_conc","concrete-positive","Concrete","VC","B","concrete",1,1732225487393,"concrete",1780.66666666667,1238,"abstract","B","",7.12125245324454,7.4847431050018,226
"227","58472149000f1000010ebc53","admired","test_conc","abstract-positive","Concrete","VC","B","abstract",1,1732225489067,"abstract",1880.66666666667,913,"abstract","B","",6.81673588059497,7.53938160289383,227
"228","58472149000f1000010ebc53","swing","test_conc","concrete-positive","Concrete","VC","B","abstract",0,1732225493610,"abstract",2813,3786,"abstract","B","",8.23906533176927,7.94200680848986,228
"229","58472149000f1000010ebc53","cook","test_conc","concrete-positive","Concrete","VC","B","concrete",1,1732225495230,"concrete",2059.33333333333,863,"abstract","B","",6.76041469108343,7.63013758481042,229
"230","58472149000f1000010ebc53","exploit","test_conc","abstract-negative","Concrete","VC","B","abstract",1,1732225497544,"abstract",2340.16666666667,1558,"abstract","B","",7.35115822643069,7.75797743088659,230
"231","58472149000f1000010ebc53","bleed","test_conc","concrete-negative","Concrete","VC","B","concrete",1,1732225499463,"concrete",1824,1162,"abstract","B","",7.05789793741186,7.50878717063428,231
"232","58472149000f1000010ebc53","hope","test_conc","abstract-positive","Concrete","VC","B","abstract",1,1732225501590,"abstract",1932.16666666667,1365,"abstract","B","",7.21890970761906,7.56639727744235,232
"233","58472149000f1000010ebc53","cherish","test_conc","abstract-positive","Concrete","VC","B","abstract",1,1732225503401,"abstract",2014,1056,"abstract","B","",6.96224346426621,7.60787807327851,233
"234","58472149000f1000010ebc53","loathe","test_conc","abstract-negative","Concrete","VC","B","abstract",1,1732225504959,"abstract",1767.33333333333,794,"abstract","B","",6.67708346124714,7.47722709818086,234
"235","58472149000f1000010ebc53","running","test_conc","concrete-positive","Concrete","VC","B","concrete",1,1732225546608,"concrete",9012,40893,"abstract","B","",10.618714178239,9.10631230155214,235
"236","58472149000f1000010ebc53","kiss","test_conc","concrete-positive","Concrete","VC","B","concrete",1,1732225547407,"concrete",1606.83333333333,39,"abstract","B","",3.66356164612965,7.38202064743633,236
"237","58472149000f1000010ebc53","respect","test_conc","abstract-positive","Concrete","VC","B","abstract",1,1732225551120,"abstract",2457.83333333333,2955,"abstract","B","",7.9912539298402,7.80703548202289,237
"238","58472149000f1000010ebc53","annoy","test_conc","abstract-negative","Concrete","VC","B","abstract",1,1732225553259,"abstract",1923.33333333333,1378,"abstract","B","",7.2283884515736,7.56181507083404,238
"239","58472149000f1000010ebc53","criticize","test_conc","abstract-negative","Concrete","VC","B","abstract",1,1732225555893,"abstract",1876.83333333333,1874,"abstract","B","",7.53583046279837,7.53734123846897,239
"240","58472149000f1000010ebc53","befall","test_conc","abstract-negative","Concrete","VC","B","abstract",1,1732225558034,"abstract",2149.75,1387,"abstract","B","",7.23489842031483,7.67310683529101,240
"241","5e531b2205acdb33c0f5f24c","vomit","test_conc","concrete-negative","Concrete","CV","A","concrete",1,1732206552011,"concrete",1608.33333333333,2016,"concrete","A","",7.60887062919126,7.38295372510498,1
"242","5e531b2205acdb33c0f5f24c","bleed","test_conc","concrete-negative","Concrete","CV","A","concrete",1,1732206554005,"concrete",1500.5,1234,"concrete","A","",7.11801620446533,7.31355366488042,2
"243","5e531b2205acdb33c0f5f24c","swing","test_conc","concrete-positive","Concrete","CV","A","concrete",1,1732206556017,"concrete",1624.5,1253,"concrete","A","",7.13329595489607,7.39295535510916,3
"244","5e531b2205acdb33c0f5f24c","worry","test_conc","abstract-negative","Concrete","CV","A","abstract",1,1732206557808,"abstract",1480.16666666667,1031,"concrete","A","",6.93828448401696,7.29990997303045,4
"245","5e531b2205acdb33c0f5f24c","obsess","test_conc","abstract-negative","Concrete","CV","A","abstract",1,1732206559216,"abstract",1406.58333333333,650,"concrete","A","",6.47697236288968,7.24891887490093,5
"246","5e531b2205acdb33c0f5f24c","smile","test_conc","concrete-positive","Concrete","CV","A","concrete",1,1732206560847,"concrete",1790.33333333333,874,"concrete","A","",6.77308037565554,7.49015710123735,6
"247","5e531b2205acdb33c0f5f24c","murder","test_conc","concrete-negative","Concrete","CV","A","concrete",1,1732206562639,"concrete",1623.66666666667,1034,"concrete","A","",6.94119005506837,7.39244224513843,7
"248","5e531b2205acdb33c0f5f24c","slap","test_conc","concrete-negative","Concrete","CV","A","abstract",0,1732206564332,"abstract",1474.33333333333,935,"concrete","A","",6.84054652928869,7.29596118920022,8
"249","5e531b2205acdb33c0f5f24c","justify","test_conc","abstract-positive","Concrete","CV","A","abstract",1,1732206566467,"abstract",1631.5,1375,"concrete","A","",7.22620901010067,7.39725511603338,9
"250","5e531b2205acdb33c0f5f24c","stab","test_conc","concrete-negative","Concrete","CV","A","concrete",1,1732206568322,"concrete",1567.33333333333,1096,"concrete","A","",6.99942246750796,7.35713094043191,10
"251","5e531b2205acdb33c0f5f24c","esteem","test_conc","abstract-positive","Concrete","CV","A","abstract",1,1732206570253,"abstract",1674.83333333333,1172,"concrete","A","",7.06646697013696,7.4234689368209,11
"252","5e531b2205acdb33c0f5f24c","exploit","test_conc","abstract-negative","Concrete","CV","A","abstract",1,1732206571746,"abstract",1523.83333333333,728,"concrete","A","",6.59030104819669,7.32898436893637,12
"253","5e531b2205acdb33c0f5f24c","puke","test_conc","concrete-negative","Concrete","CV","A","concrete",1,1732206573600,"concrete",1504.33333333333,1096,"concrete","A","",6.99942246750796,7.31610511115889,13
"254","5e531b2205acdb33c0f5f24c","admired","test_conc","abstract-positive","Concrete","CV","A","abstract",1,1732206576437,"abstract",1839.33333333333,2079,"concrete","A","",7.63964228785801,7.51715846610912,14
"255","5e531b2205acdb33c0f5f24c","kill","test_conc","concrete-negative","Concrete","CV","A","concrete",1,1732206578169,"concrete",1531.33333333333,975,"concrete","A","",6.88243747099785,7.33389409458093,15
"256","5e531b2205acdb33c0f5f24c","cherish","test_conc","abstract-positive","Concrete","CV","A","concrete",0,1732206579782,"concrete",1454.5,856,"concrete","A","",6.75227037614174,7.28241747793526,16
"257","5e531b2205acdb33c0f5f24c","eat","test_conc","concrete-positive","Concrete","CV","A","concrete",1,1732206581775,"concrete",1527.5,1237,"concrete","A","",7.12044437239249,7.33138769104575,17
"258","5e531b2205acdb33c0f5f24c","enlighten","test_conc","abstract-positive","Concrete","CV","A","abstract",1,1732206583265,"abstract",1507,731,"concrete","A","",6.59441345974978,7.3178761986265,18
"259","5e531b2205acdb33c0f5f24c","befall","test_conc","abstract-negative","Concrete","CV","A","abstract",1,1732206584775,"abstract",1477,752,"concrete","A","",6.62273632394984,7.29776828253138,19
"260","5e531b2205acdb33c0f5f24c","spit","test_conc","concrete-negative","Concrete","CV","A","concrete",1,1732206586328,"concrete",1471.33333333333,795,"concrete","A","",6.67834211465433,7.29392429814857,20
"261","5e531b2205acdb33c0f5f24c","scratch","test_conc","concrete-negative","Concrete","CV","A","concrete",1,1732206588362,"concrete",1513.5,1276,"concrete","A","",7.15148546390474,7.32218012846177,21
"262","5e531b2205acdb33c0f5f24c","cuddle","test_conc","concrete-positive","Concrete","CV","A","abstract",0,1732206590053,"abstract",1483,932,"concrete","A","",6.83733281468559,7.30182234213793,22
"263","5e531b2205acdb33c0f5f24c","sail","test_conc","concrete-positive","Concrete","CV","A","abstract",0,1732206593135,"abstract",2131.5,2324,"concrete","A","",7.7510451179718,7.66458123620527,23
"264","5e531b2205acdb33c0f5f24c","hope","test_conc","abstract-positive","Concrete","CV","A","abstract",1,1732206594928,"abstract",1389.83333333333,1034,"concrete","A","",6.94119005506837,7.23693911485893,24
"265","5e531b2205acdb33c0f5f24c","fulfill","test_conc","abstract-positive","Concrete","CV","A","abstract",1,1732206596681,"abstract",1702.83333333333,996,"concrete","A","",6.9037472575846,7.44004880936337,25
"266","5e531b2205acdb33c0f5f24c","criticize","test_conc","abstract-negative","Concrete","CV","A","abstract",1,1732206598633,"abstract",1702.33333333333,1191,"concrete","A","",7.0825485693553,7.43975513797953,26
"267","5e531b2205acdb33c0f5f24c","violate","test_conc","abstract-negative","Concrete","CV","A","abstract",1,1732206600225,"abstract",1415.16666666667,835,"concrete","A","",6.72743172485086,7.25500258877131,27
"268","5e531b2205acdb33c0f5f24c","imagine","test_conc","abstract-positive","Concrete","CV","A","abstract",1,1732206601575,"abstract",1437.5,594,"concrete","A","",6.38687931936265,7.27066077267151,28
"269","5e531b2205acdb33c0f5f24c","running","test_conc","concrete-positive","Concrete","CV","A","concrete",1,1732206603307,"concrete",1733,973,"concrete","A","",6.880384082186,7.45760928971561,29
"270","5e531b2205acdb33c0f5f24c","respect","test_conc","abstract-positive","Concrete","CV","A","abstract",1,1732206605079,"abstract",1823.66666666667,1012,"concrete","A","",6.91968384984741,7.50860440539572,30
"271","5e531b2205acdb33c0f5f24c","smack","test_conc","concrete-negative","Concrete","CV","A","concrete",1,1732206606851,"concrete",1584.66666666667,1012,"concrete","A","",6.91968384984741,7.36812935925203,31
"272","5e531b2205acdb33c0f5f24c","resent","test_conc","abstract-negative","Concrete","CV","A","abstract",1,1732206608623,"abstract",1685.16666666667,1013,"concrete","A","",6.92067150424868,7.42961974986334,32
"273","5e531b2205acdb33c0f5f24c","hug","test_conc","concrete-positive","Concrete","CV","A","concrete",1,1732206610335,"concrete",1460.5,955,"concrete","A","",6.86171134048073,7.2865341218278,33
"274","5e531b2205acdb33c0f5f24c","scorn","test_conc","abstract-negative","Concrete","CV","A","abstract",1,1732206612451,"abstract",1608.66666666667,1357,"concrete","A","",7.21303165983487,7.38316095751687,34
"275","5e531b2205acdb33c0f5f24c","believe","test_conc","abstract-positive","Concrete","CV","A","abstract",1,1732206614061,"abstract",1453.83333333333,850,"concrete","A","",6.74523634948436,7.28195902520516,35
"276","5e531b2205acdb33c0f5f24c","annoy","test_conc","abstract-negative","Concrete","CV","A","abstract",1,1732206616459,"abstract",1558.25,1640,"concrete","A","",7.40245152081824,7.35131867568896,36
"277","5e531b2205acdb33c0f5f24c","cook","test_conc","concrete-positive","Concrete","CV","A","concrete",1,1732206618051,"concrete",1446.83333333333,832,"concrete","A","",6.72383244082121,7.27713253916375,37
"278","5e531b2205acdb33c0f5f24c","loathe","test_conc","abstract-negative","Concrete","CV","A","abstract",1,1732206619903,"abstract",1585.16666666667,1093,"concrete","A","",6.99668148817654,7.36844483325433,38
"279","5e531b2205acdb33c0f5f24c","kiss","test_conc","concrete-positive","Concrete","CV","A","concrete",1,1732206621516,"concrete",1440.33333333333,855,"concrete","A","",6.75110146893676,7.27262984726382,39
"280","5e531b2205acdb33c0f5f24c","build","test_conc","concrete-positive","Concrete","CV","A","concrete",1,1732206623227,"concrete",1521,955,"concrete","A","",6.86171134048073,7.32712329225929,40
"281","5e531b2205acdb33c0f5f24c","criticize","test_conc","abstract-negative","Concrete","CV","A","abstract",1,1732206624979,"abstract",1702.33333333333,993,"concrete","A","",6.90073066404517,7.43975513797953,41
"282","5e531b2205acdb33c0f5f24c","slap","test_conc","concrete-negative","Concrete","CV","A","concrete",1,1732206626530,"concrete",1474.33333333333,791,"concrete","A","",6.67329796776765,7.29596118920022,42
"283","5e531b2205acdb33c0f5f24c","esteem","test_conc","abstract-positive","Concrete","CV","A","abstract",1,1732206629289,"abstract",1674.83333333333,1997,"concrete","A","",7.59940133341582,7.4234689368209,43
"284","5e531b2205acdb33c0f5f24c","smack","test_conc","concrete-negative","Concrete","CV","A","concrete",1,1732206630861,"concrete",1584.66666666667,816,"concrete","A","",6.70441435496411,7.36812935925203,44
"285","5e531b2205acdb33c0f5f24c","admired","test_conc","abstract-positive","Concrete","CV","A","abstract",1,1732206633399,"abstract",1839.33333333333,1777,"concrete","A","",7.48268182815465,7.51715846610912,45
"286","5e531b2205acdb33c0f5f24c","fulfill","test_conc","abstract-positive","Concrete","CV","A","abstract",1,1732206635674,"abstract",1702.83333333333,1516,"concrete","A","",7.32383056620232,7.44004880936337,46
"287","5e531b2205acdb33c0f5f24c","befall","test_conc","abstract-negative","Concrete","CV","A","abstract",1,1732206637185,"abstract",1477,751,"concrete","A","",6.62140565176413,7.29776828253138,47
"288","5e531b2205acdb33c0f5f24c","cook","test_conc","concrete-positive","Concrete","CV","A","concrete",1,1732206638937,"concrete",1446.83333333333,995,"concrete","A","",6.90274273715859,7.27713253916375,48
"289","5e531b2205acdb33c0f5f24c","swing","test_conc","concrete-positive","Concrete","CV","A","abstract",0,1732206640970,"abstract",1624.5,1274,"concrete","A","",7.14991683613211,7.39295535510916,49
"290","5e531b2205acdb33c0f5f24c","loathe","test_conc","abstract-negative","Concrete","CV","A","abstract",1,1732206642702,"abstract",1585.16666666667,976,"concrete","A","",6.88346258641309,7.36844483325433,50
"291","5e531b2205acdb33c0f5f24c","smile","test_conc","concrete-positive","Concrete","CV","A","concrete",1,1732206644334,"concrete",1790.33333333333,876,"concrete","A","",6.77536609093639,7.49015710123735,51
"292","5e531b2205acdb33c0f5f24c","worry","test_conc","abstract-negative","Concrete","CV","A","abstract",1,1732206645785,"abstract",1480.16666666667,689,"concrete","A","",6.53524127101366,7.29990997303045,52
"293","5e531b2205acdb33c0f5f24c","running","test_conc","concrete-positive","Concrete","CV","A","concrete",1,1732206647600,"concrete",1733,1056,"concrete","A","",6.96224346426621,7.45760928971561,53
"294","5e531b2205acdb33c0f5f24c","murder","test_conc","concrete-negative","Concrete","CV","A","concrete",1,1732206650176,"concrete",1623.66666666667,1818,"concrete","A","",7.50549227473742,7.39244224513843,54
"295","5e531b2205acdb33c0f5f24c","build","test_conc","concrete-positive","Concrete","CV","A","concrete",1,1732206652109,"concrete",1521,1173,"concrete","A","",7.06731984865348,7.32712329225929,55
"296","5e531b2205acdb33c0f5f24c","hug","test_conc","concrete-positive","Concrete","CV","A","concrete",1,1732206653620,"concrete",1460.5,752,"concrete","A","",6.62273632394984,7.2865341218278,56
"297","5e531b2205acdb33c0f5f24c","scorn","test_conc","abstract-negative","Concrete","CV","A","abstract",1,1732206655412,"abstract",1608.66666666667,1036,"concrete","A","",6.94312242281943,7.38316095751687,57
"298","5e531b2205acdb33c0f5f24c","spit","test_conc","concrete-negative","Concrete","CV","A","concrete",1,1732206657326,"concrete",1471.33333333333,1156,"concrete","A","",7.05272104923232,7.29392429814857,58
"299","5e531b2205acdb33c0f5f24c","scratch","test_conc","concrete-negative","Concrete","CV","A","concrete",1,1732206658916,"concrete",1513.5,832,"concrete","A","",6.72383244082121,7.32218012846177,59
"300","5e531b2205acdb33c0f5f24c","resent","test_conc","abstract-negative","Concrete","CV","A","abstract",1,1732206661334,"abstract",1685.16666666667,1661,"concrete","A","",7.41517510961329,7.42961974986334,60
"301","5e531b2205acdb33c0f5f24c","puke","test_conc","concrete-negative","Concrete","CV","A","concrete",1,1732206662864,"concrete",1504.33333333333,770,"concrete","A","",6.64639051484773,7.31610511115889,61
"302","5e531b2205acdb33c0f5f24c","eat","test_conc","concrete-positive","Concrete","CV","A","concrete",1,1732206664679,"concrete",1527.5,1055,"concrete","A","",6.96129604591017,7.33138769104575,62
"303","5e531b2205acdb33c0f5f24c","stab","test_conc","concrete-negative","Concrete","CV","A","concrete",1,1732206666188,"concrete",1567.33333333333,752,"concrete","A","",6.62273632394984,7.35713094043191,63
"304","5e531b2205acdb33c0f5f24c","cherish","test_conc","abstract-positive","Concrete","CV","A","abstract",1,1732206667900,"abstract",1454.5,953,"concrete","A","",6.8596149036542,7.28241747793526,64
"305","5e531b2205acdb33c0f5f24c","cuddle","test_conc","concrete-positive","Concrete","CV","A","abstract",0,1732206669370,"abstract",1483,715,"concrete","A","",6.57228254269401,7.30182234213793,65
"306","5e531b2205acdb33c0f5f24c","vomit","test_conc","concrete-negative","Concrete","CV","A","concrete",1,1732206670963,"concrete",1608.33333333333,834,"concrete","A","",6.72623340235875,7.38295372510498,66
"307","5e531b2205acdb33c0f5f24c","justify","test_conc","abstract-positive","Concrete","CV","A","abstract",1,1732206672774,"abstract",1631.5,1052,"concrete","A","",6.95844839329766,7.39725511603338,67
"308","5e531b2205acdb33c0f5f24c","kill","test_conc","concrete-negative","Concrete","CV","A","concrete",1,1732206674466,"concrete",1531.33333333333,933,"concrete","A","",6.83840520084734,7.33389409458093,68
"309","5e531b2205acdb33c0f5f24c","bleed","test_conc","concrete-negative","Concrete","CV","A","concrete",1,1732206676038,"concrete",1500.5,813,"concrete","A","",6.70073110954781,7.31355366488042,69
"310","5e531b2205acdb33c0f5f24c","respect","test_conc","abstract-positive","Concrete","CV","A","abstract",1,1732206679280,"abstract",1823.66666666667,2482,"concrete","A","",7.81681996576455,7.50860440539572,70
"311","5e531b2205acdb33c0f5f24c","enlighten","test_conc","abstract-positive","Concrete","CV","A","abstract",1,1732206680670,"abstract",1507,633,"concrete","A","",6.45047042214418,7.3178761986265,71
"312","5e531b2205acdb33c0f5f24c","believe","test_conc","abstract-positive","Concrete","CV","A","abstract",1,1732206682081,"abstract",1453.83333333333,649,"concrete","A","",6.47543271670409,7.28195902520516,72
"313","5e531b2205acdb33c0f5f24c","obsess","test_conc","abstract-negative","Concrete","CV","A","abstract",1,1732206683409,"abstract",1406.58333333333,569,"concrete","A","",6.34388043412633,7.24891887490093,73
"314","5e531b2205acdb33c0f5f24c","kiss","test_conc","concrete-positive","Concrete","CV","A","concrete",1,1732206684718,"concrete",1440.33333333333,552,"concrete","A","",6.31354804627709,7.27262984726382,74
"315","5e531b2205acdb33c0f5f24c","imagine","test_conc","abstract-positive","Concrete","CV","A","abstract",1,1732206686168,"abstract",1437.5,695,"concrete","A","",6.54391184556479,7.27066077267151,75
"316","5e531b2205acdb33c0f5f24c","exploit","test_conc","abstract-negative","Concrete","CV","A","abstract",1,1732206687760,"abstract",1523.83333333333,836,"concrete","A","",6.7286286130847,7.32898436893637,76
"317","5e531b2205acdb33c0f5f24c","annoy","test_conc","abstract-negative","Concrete","CV","A","abstract",1,1732206689149,"abstract",1558.25,629,"concrete","A","",6.44413125670044,7.35131867568896,77
"318","5e531b2205acdb33c0f5f24c","hope","test_conc","abstract-positive","Concrete","CV","A","abstract",1,1732206690498,"abstract",1389.83333333333,593,"concrete","A","",6.38519439899773,7.23693911485893,78
"319","5e531b2205acdb33c0f5f24c","violate","test_conc","abstract-negative","Concrete","CV","A","abstract",1,1732206692050,"abstract",1415.16666666667,795,"concrete","A","",6.67834211465433,7.25500258877131,79
"320","5e531b2205acdb33c0f5f24c","sail","test_conc","concrete-positive","Concrete","CV","A","abstract",0,1732206694970,"abstract",2131.5,2165,"concrete","A","",7.68017564043659,7.66458123620527,80
"321","5e531b2205acdb33c0f5f24c","fulfill","test_conc","abstract-positive","Concrete","CV","A","abstract",1,1732206696824,"abstract",1702.83333333333,1096,"concrete","A","",6.99942246750796,7.44004880936337,81
"322","5e531b2205acdb33c0f5f24c","smack","test_conc","concrete-negative","Concrete","CV","A","concrete",1,1732206698333,"concrete",1584.66666666667,750,"concrete","A","",6.62007320653036,7.36812935925203,82
"323","5e531b2205acdb33c0f5f24c","violate","test_conc","abstract-negative","Concrete","CV","A","concrete",0,1732206699684,"concrete",1415.16666666667,592,"concrete","A","",6.38350663488401,7.25500258877131,83
"324","5e531b2205acdb33c0f5f24c","build","test_conc","concrete-positive","Concrete","CV","A","concrete",1,1732206701173,"concrete",1521,735,"concrete","A","",6.59987049921284,7.32712329225929,84
"325","5e531b2205acdb33c0f5f24c","respect","test_conc","abstract-positive","Concrete","CV","A","abstract",1,1732206702604,"abstract",1823.66666666667,670,"concrete","A","",6.50727771238501,7.50860440539572,85
"326","5e531b2205acdb33c0f5f24c","annoy","test_conc","abstract-negative","Concrete","CV","A","abstract",1,1732206704015,"abstract",1558.25,648,"concrete","A","",6.47389069635227,7.35131867568896,86
"327","5e531b2205acdb33c0f5f24c","vomit","test_conc","concrete-negative","Concrete","CV","A","concrete",1,1732206705444,"concrete",1608.33333333333,669,"concrete","A","",6.50578406012823,7.38295372510498,87
"328","5e531b2205acdb33c0f5f24c","imagine","test_conc","abstract-positive","Concrete","CV","A","abstract",1,1732206707136,"abstract",1437.5,932,"concrete","A","",6.83733281468559,7.27066077267151,88
"329","5e531b2205acdb33c0f5f24c","resent","test_conc","abstract-negative","Concrete","CV","A","abstract",1,1732206708586,"abstract",1685.16666666667,692,"concrete","A","",6.53958595561767,7.42961974986334,89
"330","5e531b2205acdb33c0f5f24c","loathe","test_conc","abstract-negative","Concrete","CV","A","abstract",1,1732206710158,"abstract",1585.16666666667,811,"concrete","A","",6.69826805411541,7.36844483325433,90
"331","5e531b2205acdb33c0f5f24c","running","test_conc","concrete-positive","Concrete","CV","A","concrete",1,1732206712232,"concrete",1733,1315,"concrete","A","",7.18159194461187,7.45760928971561,91
"332","5e531b2205acdb33c0f5f24c","scorn","test_conc","abstract-negative","Concrete","CV","A","abstract",1,1732206713742,"abstract",1608.66666666667,752,"concrete","A","",6.62273632394984,7.38316095751687,92
"333","5e531b2205acdb33c0f5f24c","enlighten","test_conc","abstract-positive","Concrete","CV","A","abstract",1,1732206715776,"abstract",1507,1278,"concrete","A","",7.15305163493748,7.3178761986265,93
"334","5e531b2205acdb33c0f5f24c","hug","test_conc","concrete-positive","Concrete","CV","A","concrete",1,1732206717228,"concrete",1460.5,692,"concrete","A","",6.53958595561767,7.2865341218278,94
"335","5e531b2205acdb33c0f5f24c","scratch","test_conc","concrete-negative","Concrete","CV","A","concrete",1,1732206718636,"concrete",1513.5,652,"concrete","A","",6.48004456192665,7.32218012846177,95
"336","5e531b2205acdb33c0f5f24c","sail","test_conc","concrete-positive","Concrete","CV","A","abstract",0,1732206720570,"abstract",2131.5,1175,"concrete","A","",7.06902342657826,7.66458123620527,96
"337","5e531b2205acdb33c0f5f24c","exploit","test_conc","abstract-negative","Concrete","CV","A","abstract",1,1732206722644,"abstract",1523.83333333333,1317,"concrete","A","",7.18311170174328,7.32898436893637,97
"338","5e531b2205acdb33c0f5f24c","believe","test_conc","abstract-positive","Concrete","CV","A","abstract",1,1732206724336,"abstract",1453.83333333333,936,"concrete","A","",6.84161547647759,7.28195902520516,98
"339","5e531b2205acdb33c0f5f24c","admired","test_conc","abstract-positive","Concrete","CV","A","abstract",1,1732206725665,"abstract",1839.33333333333,572,"concrete","A","",6.3491389913798,7.51715846610912,99
"340","5e531b2205acdb33c0f5f24c","kill","test_conc","concrete-negative","Concrete","CV","A","concrete",1,1732206727499,"concrete",1531.33333333333,1078,"concrete","A","",6.98286275146894,7.33389409458093,100
"341","5e531b2205acdb33c0f5f24c","stab","test_conc","concrete-negative","Concrete","CV","A","concrete",1,1732206728970,"concrete",1567.33333333333,712,"concrete","A","",6.56807791141198,7.35713094043191,101
"342","5e531b2205acdb33c0f5f24c","kiss","test_conc","concrete-positive","Concrete","CV","A","concrete",1,1732206730299,"concrete",1440.33333333333,573,"concrete","A","",6.35088571671474,7.27262984726382,102
"343","5e531b2205acdb33c0f5f24c","bleed","test_conc","concrete-negative","Concrete","CV","A","concrete",1,1732206731648,"concrete",1500.5,591,"concrete","A","",6.3818160174061,7.31355366488042,103
"344","5e531b2205acdb33c0f5f24c","befall","test_conc","abstract-negative","Concrete","CV","A","abstract",1,1732206733057,"abstract",1477,649,"concrete","A","",6.47543271670409,7.29776828253138,104
"345","5e531b2205acdb33c0f5f24c","eat","test_conc","concrete-positive","Concrete","CV","A","concrete",1,1732206734387,"concrete",1527.5,569,"concrete","A","",6.34388043412633,7.33138769104575,105
"346","5e531b2205acdb33c0f5f24c","swing","test_conc","concrete-positive","Concrete","CV","A","concrete",1,1732206735878,"concrete",1624.5,730,"concrete","A","",6.59304453414244,7.39295535510916,106
"347","5e531b2205acdb33c0f5f24c","slap","test_conc","concrete-negative","Concrete","CV","A","concrete",1,1732206737387,"concrete",1474.33333333333,752,"concrete","A","",6.62273632394984,7.29596118920022,107
"348","5e531b2205acdb33c0f5f24c","criticize","test_conc","abstract-negative","Concrete","CV","A","abstract",1,1732206738899,"abstract",1702.33333333333,756,"concrete","A","",6.62804137617953,7.43975513797953,108
"349","5e531b2205acdb33c0f5f24c","spit","test_conc","concrete-negative","Concrete","CV","A","concrete",1,1732206740349,"concrete",1471.33333333333,690,"concrete","A","",6.5366915975913,7.29392429814857,109
"350","5e531b2205acdb33c0f5f24c","esteem","test_conc","abstract-positive","Concrete","CV","A","abstract",1,1732206741860,"abstract",1674.83333333333,753,"concrete","A","",6.62406522779989,7.4234689368209,110
"351","5e531b2205acdb33c0f5f24c","puke","test_conc","concrete-negative","Concrete","CV","A","concrete",1,1732206743310,"concrete",1504.33333333333,689,"concrete","A","",6.53524127101366,7.31610511115889,111
"352","5e531b2205acdb33c0f5f24c","smile","test_conc","concrete-positive","Concrete","CV","A","concrete",1,1732206745064,"concrete",1790.33333333333,996,"concrete","A","",6.9037472575846,7.49015710123735,112
"353","5e531b2205acdb33c0f5f24c","murder","test_conc","concrete-negative","Concrete","CV","A","concrete",1,1732206746351,"concrete",1623.66666666667,527,"concrete","A","",6.26720054854136,7.39244224513843,113
"354","5e531b2205acdb33c0f5f24c","hope","test_conc","abstract-positive","Concrete","CV","A","concrete",0,1732206747761,"concrete",1389.83333333333,654,"concrete","A","",6.4831073514572,7.23693911485893,114
"355","5e531b2205acdb33c0f5f24c","worry","test_conc","abstract-negative","Concrete","CV","A","abstract",1,1732206749311,"abstract",1480.16666666667,791,"concrete","A","",6.67329796776765,7.29990997303045,115
"356","5e531b2205acdb33c0f5f24c","justify","test_conc","abstract-positive","Concrete","CV","A","abstract",1,1732206751024,"abstract",1631.5,955,"concrete","A","",6.86171134048073,7.39725511603338,116
"357","5e531b2205acdb33c0f5f24c","cook","test_conc","concrete-positive","Concrete","CV","A","concrete",1,1732206752333,"concrete",1446.83333333333,550,"concrete","A","",6.30991827822652,7.27713253916375,117
"358","5e531b2205acdb33c0f5f24c","cuddle","test_conc","concrete-positive","Concrete","CV","A","abstract",0,1732206753823,"abstract",1483,736,"concrete","A","",6.60123011872888,7.30182234213793,118
"359","5e531b2205acdb33c0f5f24c","obsess","test_conc","abstract-negative","Concrete","CV","A","abstract",1,1732206755253,"abstract",1406.58333333333,671,"concrete","A","",6.50876913697168,7.24891887490093,119
"360","5e531b2205acdb33c0f5f24c","cherish","test_conc","abstract-positive","Concrete","CV","A","abstract",1,1732206756765,"abstract",1454.5,752,"concrete","A","",6.62273632394984,7.28241747793526,120
"361","5e531b2205acdb33c0f5f24c","running","test_val","concrete-positive","Valence","CV","A","positive",1,1732206872538,"positive",1733,1257,"positive","A","",7.13648320859025,7.45760928971561,121
"362","5e531b2205acdb33c0f5f24c","stab","test_val","concrete-negative","Valence","CV","A","negative",1,1732206874249,"negative",1567.33333333333,952,"positive","A","",6.85856503479136,7.35713094043191,122
"363","5e531b2205acdb33c0f5f24c","imagine","test_val","abstract-positive","Valence","CV","A","positive",1,1732206875720,"positive",1437.5,715,"positive","A","",6.57228254269401,7.27066077267151,123
"364","5e531b2205acdb33c0f5f24c","spit","test_val","concrete-negative","Valence","CV","A","negative",1,1732206877090,"negative",1471.33333333333,612,"positive","A","",6.41673228251233,7.29392429814857,124
"365","5e531b2205acdb33c0f5f24c","murder","test_val","concrete-negative","Valence","CV","A","negative",1,1732206878580,"negative",1623.66666666667,730,"positive","A","",6.59304453414244,7.39244224513843,125
"366","5e531b2205acdb33c0f5f24c","loathe","test_val","abstract-negative","Valence","CV","A","negative",1,1732206880152,"negative",1585.16666666667,811,"positive","A","",6.69826805411541,7.36844483325433,126
"367","5e531b2205acdb33c0f5f24c","bleed","test_val","concrete-negative","Valence","CV","A","negative",1,1732206881420,"negative",1500.5,508,"positive","A","",6.23048144757848,7.31355366488042,127
"368","5e531b2205acdb33c0f5f24c","obsess","test_val","abstract-negative","Valence","CV","A","positive",0,1732206882890,"positive",1406.58333333333,714,"positive","A","",6.57088296233958,7.24891887490093,128
"369","5e531b2205acdb33c0f5f24c","kiss","test_val","concrete-positive","Valence","CV","A","positive",1,1732206884664,"positive",1440.33333333333,1013,"positive","A","",6.92067150424868,7.27262984726382,129
"370","5e531b2205acdb33c0f5f24c","smile","test_val","concrete-positive","Valence","CV","A","positive",1,1732206886012,"positive",1790.33333333333,588,"positive","A","",6.37672694789863,7.49015710123735,130
"371","5e531b2205acdb33c0f5f24c","violate","test_val","abstract-negative","Valence","CV","A","negative",1,1732206887402,"negative",1415.16666666667,634,"positive","A","",6.45204895443723,7.25500258877131,131
"372","5e531b2205acdb33c0f5f24c","believe","test_val","abstract-positive","Valence","CV","A","positive",1,1732206888752,"positive",1453.83333333333,590,"positive","A","",6.38012253689976,7.28195902520516,132
"373","5e531b2205acdb33c0f5f24c","respect","test_val","abstract-positive","Valence","CV","A","positive",1,1732206890142,"positive",1823.66666666667,628,"positive","A","",6.4425401664682,7.50860440539572,133
"374","5e531b2205acdb33c0f5f24c","hope","test_val","abstract-positive","Valence","CV","A","positive",1,1732206891370,"positive",1389.83333333333,469,"positive","A","",6.15060276844628,7.23693911485893,134
"375","5e531b2205acdb33c0f5f24c","kill","test_val","concrete-negative","Valence","CV","A","positive",0,1732206892620,"positive",1531.33333333333,491,"positive","A","",6.19644412779452,7.33389409458093,135
"376","5e531b2205acdb33c0f5f24c","cuddle","test_val","concrete-positive","Valence","CV","A","positive",1,1732206894008,"positive",1483,629,"positive","A","",6.44413125670044,7.30182234213793,136
"377","5e531b2205acdb33c0f5f24c","hug","test_val","concrete-positive","Valence","CV","A","positive",1,1732206895398,"positive",1460.5,630,"positive","A","",6.44571981938558,7.2865341218278,137
"378","5e531b2205acdb33c0f5f24c","enlighten","test_val","abstract-positive","Valence","CV","A","positive",1,1732206896768,"positive",1507,608,"positive","A","",6.41017488196617,7.3178761986265,138
"379","5e531b2205acdb33c0f5f24c","exploit","test_val","abstract-negative","Valence","CV","A","positive",0,1732206897997,"positive",1523.83333333333,473,"positive","A","",6.15909538849193,7.32898436893637,139
"380","5e531b2205acdb33c0f5f24c","scorn","test_val","abstract-negative","Valence","CV","A","negative",1,1732206899429,"negative",1608.66666666667,673,"positive","A","",6.51174532964473,7.38316095751687,140
"381","5e531b2205acdb33c0f5f24c","eat","test_val","concrete-positive","Valence","CV","A","positive",1,1732206900715,"positive",1527.5,527,"positive","A","",6.26720054854136,7.33138769104575,141
"382","5e531b2205acdb33c0f5f24c","criticize","test_val","abstract-negative","Valence","CV","A","negative",1,1732206902730,"negative",1702.33333333333,1255,"positive","A","",7.13489085156588,7.43975513797953,142
"383","5e531b2205acdb33c0f5f24c","befall","test_val","abstract-negative","Valence","CV","A","negative",1,1732206904401,"negative",1477,914,"positive","A","",6.81783057145415,7.29776828253138,143
"384","5e531b2205acdb33c0f5f24c","sail","test_val","concrete-positive","Valence","CV","A","positive",1,1732206906435,"positive",2131.5,1278,"positive","A","",7.15305163493748,7.66458123620527,144
"385","5e531b2205acdb33c0f5f24c","smack","test_val","concrete-negative","Valence","CV","A","negative",1,1732206908207,"negative",1584.66666666667,1014,"positive","A","",6.92165818415113,7.36812935925203,145
"386","5e531b2205acdb33c0f5f24c","worry","test_val","abstract-negative","Valence","CV","A","negative",1,1732206909779,"negative",1480.16666666667,812,"positive","A","",6.69950034016168,7.29990997303045,146
"387","5e531b2205acdb33c0f5f24c","cook","test_val","concrete-positive","Valence","CV","A","positive",1,1732206911289,"positive",1446.83333333333,753,"positive","A","",6.62406522779989,7.27713253916375,147
"388","5e531b2205acdb33c0f5f24c","annoy","test_val","abstract-negative","Valence","CV","A","negative",1,1732206912741,"negative",1558.25,692,"positive","A","",6.53958595561767,7.35131867568896,148
"389","5e531b2205acdb33c0f5f24c","slap","test_val","concrete-negative","Valence","CV","A","negative",1,1732206914191,"negative",1474.33333333333,692,"positive","A","",6.53958595561767,7.29596118920022,149
"390","5e531b2205acdb33c0f5f24c","scratch","test_val","concrete-negative","Valence","CV","A","negative",1,1732206915579,"negative",1513.5,627,"positive","A","",6.44094654063292,7.32218012846177,150
"391","5e531b2205acdb33c0f5f24c","puke","test_val","concrete-negative","Valence","CV","A","negative",1,1732206916909,"negative",1504.33333333333,570,"positive","A","",6.3456363608286,7.31610511115889,151
"392","5e531b2205acdb33c0f5f24c","justify","test_val","abstract-positive","Valence","CV","A","positive",1,1732206918441,"positive",1631.5,774,"positive","A","",6.65157187358973,7.39725511603338,152
"393","5e531b2205acdb33c0f5f24c","resent","test_val","abstract-negative","Valence","CV","A","negative",1,1732206919971,"negative",1685.16666666667,774,"positive","A","",6.65157187358973,7.42961974986334,153
"394","5e531b2205acdb33c0f5f24c","vomit","test_val","concrete-negative","Valence","CV","A","negative",1,1732206921180,"negative",1608.33333333333,452,"positive","A","",6.11368217983223,7.38295372510498,154
"395","5e531b2205acdb33c0f5f24c","fulfill","test_val","abstract-positive","Valence","CV","A","positive",1,1732206922589,"positive",1702.83333333333,653,"positive","A","",6.48157712927643,7.44004880936337,155
"396","5e531b2205acdb33c0f5f24c","admired","test_val","abstract-positive","Valence","CV","A","positive",1,1732206923919,"positive",1839.33333333333,573,"positive","A","",6.35088571671474,7.51715846610912,156
"397","5e531b2205acdb33c0f5f24c","cherish","test_val","abstract-positive","Valence","CV","A","positive",1,1732206925187,"positive",1454.5,511,"positive","A","",6.2363695902037,7.28241747793526,157
"398","5e531b2205acdb33c0f5f24c","build","test_val","concrete-positive","Valence","CV","A","positive",1,1732206926497,"positive",1521,550,"positive","A","",6.30991827822652,7.32712329225929,158
"399","5e531b2205acdb33c0f5f24c","swing","test_val","concrete-positive","Valence","CV","A","positive",1,1732206927726,"positive",1624.5,470,"positive","A","",6.1527326947041,7.39295535510916,159
"400","5e531b2205acdb33c0f5f24c","esteem","test_val","abstract-positive","Valence","CV","A","positive",1,1732206929135,"positive",1674.83333333333,648,"positive","A","",6.47389069635227,7.4234689368209,160
"401","5e531b2205acdb33c0f5f24c","running","test_val","concrete-positive","Valence","CV","A","positive",1,1732206930585,"positive",1733,692,"positive","A","",6.53958595561767,7.45760928971561,161
"402","5e531b2205acdb33c0f5f24c","swing","test_val","concrete-positive","Valence","CV","A","positive",1,1732206931893,"positive",1624.5,553,"positive","A","",6.31535800152233,7.39295535510916,162
"403","5e531b2205acdb33c0f5f24c","imagine","test_val","abstract-positive","Valence","CV","A","positive",1,1732206933224,"positive",1437.5,569,"positive","A","",6.34388043412633,7.27066077267151,163
"404","5e531b2205acdb33c0f5f24c","justify","test_val","abstract-positive","Valence","CV","A","positive",1,1732206934530,"positive",1631.5,550,"positive","A","",6.30991827822652,7.39725511603338,164
"405","5e531b2205acdb33c0f5f24c","slap","test_val","concrete-negative","Valence","CV","A","negative",1,1732206935901,"negative",1474.33333333333,613,"positive","A","",6.41836493593621,7.29596118920022,165
"406","5e531b2205acdb33c0f5f24c","worry","test_val","abstract-negative","Valence","CV","A","negative",1,1732206937131,"negative",1480.16666666667,471,"positive","A","",6.15485809401642,7.29990997303045,166
"407","5e531b2205acdb33c0f5f24c","sail","test_val","concrete-positive","Valence","CV","A","positive",1,1732206938479,"positive",2131.5,589,"positive","A","",6.37842618365159,7.66458123620527,167
"408","5e531b2205acdb33c0f5f24c","annoy","test_val","abstract-negative","Valence","CV","A","negative",1,1732206939991,"negative",1558.25,752,"positive","A","",6.62273632394984,7.35131867568896,168
"409","5e531b2205acdb33c0f5f24c","puke","test_val","concrete-negative","Valence","CV","A","negative",1,1732206941481,"negative",1504.33333333333,730,"positive","A","",6.59304453414244,7.31610511115889,169
"410","5e531b2205acdb33c0f5f24c","vomit","test_val","concrete-negative","Valence","CV","A","negative",1,1732206942791,"negative",1608.33333333333,554,"positive","A","",6.31716468674728,7.38295372510498,170
"411","5e531b2205acdb33c0f5f24c","hope","test_val","abstract-positive","Valence","CV","A","positive",1,1732206944139,"positive",1389.83333333333,592,"positive","A","",6.38350663488401,7.23693911485893,171
"412","5e531b2205acdb33c0f5f24c","eat","test_val","concrete-positive","Valence","CV","A","positive",1,1732206945509,"positive",1527.5,611,"positive","A","",6.4150969591716,7.33138769104575,172
"413","5e531b2205acdb33c0f5f24c","obsess","test_val","abstract-negative","Valence","CV","A","negative",1,1732206947020,"negative",1406.58333333333,751,"positive","A","",6.62140565176413,7.24891887490093,173
"414","5e531b2205acdb33c0f5f24c","violate","test_val","abstract-negative","Valence","CV","A","negative",1,1732206948431,"negative",1415.16666666667,654,"positive","A","",6.4831073514572,7.25500258877131,174
"415","5e531b2205acdb33c0f5f24c","stab","test_val","concrete-negative","Valence","CV","A","negative",1,1732206949779,"negative",1567.33333333333,591,"positive","A","",6.3818160174061,7.35713094043191,175
"416","5e531b2205acdb33c0f5f24c","smack","test_val","concrete-negative","Valence","CV","A","negative",1,1732206951129,"negative",1584.66666666667,592,"positive","A","",6.38350663488401,7.36812935925203,176
"417","5e531b2205acdb33c0f5f24c","scratch","test_val","concrete-negative","Valence","CV","A","negative",1,1732206952418,"negative",1513.5,528,"positive","A","",6.26909628370626,7.32218012846177,177
"418","5e531b2205acdb33c0f5f24c","resent","test_val","abstract-negative","Valence","CV","A","negative",1,1732206953807,"negative",1685.16666666667,629,"positive","A","",6.44413125670044,7.42961974986334,178
"419","5e531b2205acdb33c0f5f24c","build","test_val","concrete-positive","Valence","CV","A","negative",0,1732206955078,"negative",1521,513,"positive","A","",6.24027584517077,7.32712329225929,179
"420","5e531b2205acdb33c0f5f24c","enlighten","test_val","abstract-positive","Valence","CV","A","positive",1,1732206956365,"positive",1507,530,"positive","A","",6.27287700654617,7.3178761986265,180
"421","5e531b2205acdb33c0f5f24c","spit","test_val","concrete-negative","Valence","CV","A","positive",0,1732206957535,"positive",1471.33333333333,410,"positive","A","",6.01615715969835,7.29392429814857,181
"422","5e531b2205acdb33c0f5f24c","hug","test_val","concrete-positive","Valence","CV","A","positive",1,1732206958883,"positive",1460.5,590,"positive","A","",6.38012253689976,7.2865341218278,182
"423","5e531b2205acdb33c0f5f24c","criticize","test_val","abstract-negative","Valence","CV","A","positive",0,1732206960173,"positive",1702.33333333333,531,"positive","A","",6.27476202124194,7.43975513797953,183
"424","5e531b2205acdb33c0f5f24c","admired","test_val","abstract-positive","Valence","CV","A","positive",1,1732206961865,"positive",1839.33333333333,933,"positive","A","",6.83840520084734,7.51715846610912,184
"425","5e531b2205acdb33c0f5f24c","cherish","test_val","abstract-positive","Valence","CV","A","positive",1,1732206963235,"positive",1454.5,608,"positive","A","",6.41017488196617,7.28241747793526,185
"426","5e531b2205acdb33c0f5f24c","kill","test_val","concrete-negative","Valence","CV","A","negative",1,1732206964603,"negative",1531.33333333333,610,"positive","A","",6.41345895716736,7.33389409458093,186
"427","5e531b2205acdb33c0f5f24c","smile","test_val","concrete-positive","Valence","CV","A","positive",1,1732206967769,"positive",1790.33333333333,2408,"positive","A","",7.78655180642871,7.49015710123735,187
"428","5e531b2205acdb33c0f5f24c","kiss","test_val","concrete-positive","Valence","CV","A","positive",1,1732206969055,"positive",1440.33333333333,528,"positive","A","",6.26909628370626,7.27262984726382,188
"429","5e531b2205acdb33c0f5f24c","respect","test_val","abstract-positive","Valence","CV","A","positive",1,1732206970787,"positive",1823.66666666667,974,"positive","A","",6.88141130364254,7.50860440539572,189
"430","5e531b2205acdb33c0f5f24c","scorn","test_val","abstract-negative","Valence","CV","A","negative",1,1732206972237,"negative",1608.66666666667,691,"positive","A","",6.53813982376767,7.38316095751687,190
"431","5e531b2205acdb33c0f5f24c","loathe","test_val","abstract-negative","Valence","CV","A","negative",1,1732206973528,"negative",1585.16666666667,531,"positive","A","",6.27476202124194,7.36844483325433,191
"432","5e531b2205acdb33c0f5f24c","cuddle","test_val","concrete-positive","Valence","CV","A","positive",1,1732206974916,"positive",1483,631,"positive","A","",6.44730586254121,7.30182234213793,192
"433","5e531b2205acdb33c0f5f24c","bleed","test_val","concrete-negative","Valence","CV","A","negative",1,1732206976285,"negative",1500.5,613,"positive","A","",6.41836493593621,7.31355366488042,193
"434","5e531b2205acdb33c0f5f24c","fulfill","test_val","abstract-positive","Valence","CV","A","positive",1,1732206977675,"positive",1702.83333333333,637,"positive","A","",6.45676965557216,7.44004880936337,194
"435","5e531b2205acdb33c0f5f24c","esteem","test_val","abstract-positive","Valence","CV","A","positive",1,1732206978925,"positive",1674.83333333333,493,"positive","A","",6.20050917404269,7.4234689368209,195
"436","5e531b2205acdb33c0f5f24c","cook","test_val","concrete-positive","Valence","CV","A","positive",1,1732206980212,"positive",1446.83333333333,529,"positive","A","",6.2709884318583,7.27713253916375,196
"437","5e531b2205acdb33c0f5f24c","exploit","test_val","abstract-negative","Valence","CV","A","negative",1,1732206981618,"negative",1523.83333333333,646,"positive","A","",6.4707995037826,7.32898436893637,197
"438","5e531b2205acdb33c0f5f24c","murder","test_val","concrete-negative","Valence","CV","A","negative",1,1732206982823,"negative",1623.66666666667,447,"positive","A","",6.10255859461357,7.39244224513843,198
"439","5e531b2205acdb33c0f5f24c","befall","test_val","abstract-negative","Valence","CV","A","negative",1,1732206984093,"negative",1477,510,"positive","A","",6.23441072571837,7.29776828253138,199
"440","5e531b2205acdb33c0f5f24c","believe","test_val","abstract-positive","Valence","CV","A","negative",0,1732206985381,"negative",1453.83333333333,529,"positive","A","",6.2709884318583,7.28195902520516,200
"441","5e531b2205acdb33c0f5f24c","fulfill","test_val","abstract-positive","Valence","CV","A","positive",1,1732206986933,"positive",1702.83333333333,791,"positive","A","",6.67329796776765,7.44004880936337,201
"442","5e531b2205acdb33c0f5f24c","sail","test_val","concrete-positive","Valence","CV","A","positive",1,1732206988422,"positive",2131.5,733,"positive","A","",6.59714570188665,7.66458123620527,202
"443","5e531b2205acdb33c0f5f24c","respect","test_val","abstract-positive","Valence","CV","A","positive",1,1732206989814,"positive",1823.66666666667,634,"positive","A","",6.45204895443723,7.50860440539572,203
"444","5e531b2205acdb33c0f5f24c","hug","test_val","concrete-positive","Valence","CV","A","positive",1,1732206991182,"positive",1460.5,614,"positive","A","",6.41999492814714,7.2865341218278,204
"445","5e531b2205acdb33c0f5f24c","exploit","test_val","abstract-negative","Valence","CV","A","negative",1,1732206992549,"negative",1523.83333333333,606,"positive","A","",6.40687998606931,7.32898436893637,205
"446","5e531b2205acdb33c0f5f24c","eat","test_val","concrete-positive","Valence","CV","A","positive",1,1732206993938,"positive",1527.5,630,"positive","A","",6.44571981938558,7.33138769104575,206
"447","5e531b2205acdb33c0f5f24c","build","test_val","concrete-positive","Valence","CV","A","negative",0,1732206995368,"negative",1521,673,"positive","A","",6.51174532964473,7.32712329225929,207
"448","5e531b2205acdb33c0f5f24c","resent","test_val","abstract-negative","Valence","CV","A","positive",0,1732206996940,"positive",1685.16666666667,816,"positive","A","",6.70441435496411,7.42961974986334,208
"449","5e531b2205acdb33c0f5f24c","stab","test_val","concrete-negative","Valence","CV","A","negative",1,1732206998470,"negative",1567.33333333333,775,"positive","A","",6.65286302935335,7.35713094043191,209
"450","5e531b2205acdb33c0f5f24c","scratch","test_val","concrete-negative","Valence","CV","A","negative",1,1732206999862,"negative",1513.5,634,"positive","A","",6.45204895443723,7.32218012846177,210
"451","5e531b2205acdb33c0f5f24c","vomit","test_val","concrete-negative","Valence","CV","A","negative",1,1732207001211,"negative",1608.33333333333,590,"positive","A","",6.38012253689976,7.38295372510498,211
"452","5e531b2205acdb33c0f5f24c","admired","test_val","abstract-positive","Valence","CV","A","positive",1,1732207002540,"positive",1839.33333333333,574,"positive","A","",6.35262939631957,7.51715846610912,212
"453","5e531b2205acdb33c0f5f24c","cook","test_val","concrete-positive","Valence","CV","A","positive",1,1732207003789,"positive",1446.83333333333,488,"positive","A","",6.19031540585315,7.27713253916375,213
"454","5e531b2205acdb33c0f5f24c","loathe","test_val","abstract-negative","Valence","CV","A","negative",1,1732207005298,"negative",1585.16666666667,752,"positive","A","",6.62273632394984,7.36844483325433,214
"455","5e531b2205acdb33c0f5f24c","slap","test_val","concrete-negative","Valence","CV","A","negative",1,1732207006588,"negative",1474.33333333333,533,"positive","A","",6.27852142416584,7.29596118920022,215
"456","5e531b2205acdb33c0f5f24c","esteem","test_val","abstract-positive","Valence","CV","A","negative",0,1732207007796,"negative",1674.83333333333,454,"positive","A","",6.11809719804135,7.4234689368209,216
"457","5e531b2205acdb33c0f5f24c","bleed","test_val","concrete-negative","Valence","CV","A","negative",1,1732207009266,"negative",1500.5,713,"positive","A","",6.5694814204143,7.31355366488042,217
"458","5e531b2205acdb33c0f5f24c","justify","test_val","abstract-positive","Valence","CV","A","negative",0,1732207010577,"negative",1631.5,552,"positive","A","",6.31354804627709,7.39725511603338,218
"459","5e531b2205acdb33c0f5f24c","swing","test_val","concrete-positive","Valence","CV","A","negative",0,1732207012268,"negative",1624.5,935,"positive","A","",6.84054652928869,7.39295535510916,219
"460","5e531b2205acdb33c0f5f24c","smack","test_val","concrete-negative","Valence","CV","A","negative",1,1732207013818,"negative",1584.66666666667,792,"positive","A","",6.67456139181443,7.36812935925203,220
"461","5e531b2205acdb33c0f5f24c","spit","test_val","concrete-negative","Valence","CV","A","negative",1,1732207015208,"negative",1471.33333333333,634,"positive","A","",6.45204895443723,7.29392429814857,221
"462","5e531b2205acdb33c0f5f24c","running","test_val","concrete-positive","Valence","CV","A","positive",1,1732207016539,"positive",1733,571,"positive","A","",6.34738920965601,7.45760928971561,222
"463","5e531b2205acdb33c0f5f24c","annoy","test_val","abstract-negative","Valence","CV","A","positive",0,1732207017746,"positive",1558.25,449,"positive","A","",6.10702288774225,7.35131867568896,223
"464","5e531b2205acdb33c0f5f24c","imagine","test_val","abstract-positive","Valence","CV","A","positive",1,1732207019096,"positive",1437.5,592,"positive","A","",6.38350663488401,7.27066077267151,224
"465","5e531b2205acdb33c0f5f24c","hope","test_val","abstract-positive","Valence","CV","A","positive",1,1732207020324,"positive",1389.83333333333,472,"positive","A","",6.15697898558556,7.23693911485893,225
"466","5e531b2205acdb33c0f5f24c","obsess","test_val","abstract-negative","Valence","CV","A","negative",1,1732207021634,"negative",1406.58333333333,550,"positive","A","",6.30991827822652,7.24891887490093,226
"467","5e531b2205acdb33c0f5f24c","kiss","test_val","concrete-positive","Valence","CV","A","positive",1,1732207022982,"positive",1440.33333333333,589,"positive","A","",6.37842618365159,7.27262984726382,227
"468","5e531b2205acdb33c0f5f24c","cherish","test_val","abstract-positive","Valence","CV","A","positive",1,1732207024252,"positive",1454.5,511,"positive","A","",6.2363695902037,7.28241747793526,228
"469","5e531b2205acdb33c0f5f24c","worry","test_val","abstract-negative","Valence","CV","A","negative",1,1732207025560,"negative",1480.16666666667,550,"positive","A","",6.30991827822652,7.29990997303045,229
"470","5e531b2205acdb33c0f5f24c","puke","test_val","concrete-negative","Valence","CV","A","negative",1,1732207026951,"negative",1504.33333333333,630,"positive","A","",6.44571981938558,7.31610511115889,230
"471","5e531b2205acdb33c0f5f24c","believe","test_val","abstract-positive","Valence","CV","A","positive",1,1732207028341,"positive",1453.83333333333,632,"positive","A","",6.44888939414686,7.28195902520516,231
"472","5e531b2205acdb33c0f5f24c","smile","test_val","concrete-positive","Valence","CV","A","positive",1,1732207029568,"positive",1790.33333333333,468,"positive","A","",6.14846829591765,7.49015710123735,232
"473","5e531b2205acdb33c0f5f24c","kill","test_val","concrete-negative","Valence","CV","A","negative",1,1732207030898,"negative",1531.33333333333,569,"positive","A","",6.34388043412633,7.33389409458093,233
"474","5e531b2205acdb33c0f5f24c","violate","test_val","abstract-negative","Valence","CV","A","negative",1,1732207032110,"negative",1415.16666666667,452,"positive","A","",6.11368217983223,7.25500258877131,234
"475","5e531b2205acdb33c0f5f24c","enlighten","test_val","abstract-positive","Valence","CV","A","positive",1,1732207033598,"positive",1507,727,"positive","A","",6.58892647753352,7.3178761986265,235
"476","5e531b2205acdb33c0f5f24c","scorn","test_val","abstract-negative","Valence","CV","A","negative",1,1732207034968,"negative",1608.66666666667,608,"positive","A","",6.41017488196617,7.38316095751687,236
"477","5e531b2205acdb33c0f5f24c","cuddle","test_val","concrete-positive","Valence","CV","A","positive",1,1732207036456,"positive",1483,730,"positive","A","",6.59304453414244,7.30182234213793,237
"478","5e531b2205acdb33c0f5f24c","criticize","test_val","abstract-negative","Valence","CV","A","negative",1,1732207038168,"negative",1702.33333333333,951,"positive","A","",6.85751406254539,7.43975513797953,238
"479","5e531b2205acdb33c0f5f24c","befall","test_val","abstract-negative","Valence","CV","A","negative",1,1732207039678,"negative",1477,751,"positive","A","",6.62140565176413,7.29776828253138,239
"480","5e531b2205acdb33c0f5f24c","murder","test_val","concrete-negative","Valence","CV","A","negative",1,1732207041088,"negative",1623.66666666667,651,"positive","A","",6.47850964220857,7.39244224513843,240
"481","62fbc9730a4b70bcc1c942b3","scorn","test_val","abstract-negative","Valence","VC","B","negative",1,1732222816189,"negative",1431.83333333333,714,"negative","B","",6.57088296233958,7.26671095341,1
"482","62fbc9730a4b70bcc1c942b3","smile","test_val","concrete-positive","Valence","VC","B","positive",1,1732222817472,"positive",1287.83333333333,527,"negative","B","",6.26720054854136,7.16071649870553,2
"483","62fbc9730a4b70bcc1c942b3","smack","test_val","concrete-negative","Valence","VC","B","negative",1,1732222818952,"negative",1425.16666666667,724,"negative","B","",6.58479139238572,7.2620440449279,3
"484","62fbc9730a4b70bcc1c942b3","annoy","test_val","abstract-negative","Valence","VC","B","negative",1,1732222820348,"negative",1439.66666666667,638,"negative","B","",6.45833828334479,7.27216688429259,4
"485","62fbc9730a4b70bcc1c942b3","bleed","test_val","concrete-negative","Valence","VC","B","negative",1,1732222821845,"negative",1453.16666666667,737,"negative","B","",6.60258789218934,7.28150036219976,5
"486","62fbc9730a4b70bcc1c942b3","believe","test_val","abstract-positive","Valence","VC","B","positive",1,1732222823163,"positive",1432,560,"negative","B","",6.32793678372919,7.26682734752059,6
"487","62fbc9730a4b70bcc1c942b3","worry","test_val","abstract-negative","Valence","VC","B","negative",1,1732222824646,"negative",1348.66666666667,722,"negative","B","",6.58202513889283,7.20687172905958,7
"488","62fbc9730a4b70bcc1c942b3","cuddle","test_val","concrete-positive","Valence","VC","B","positive",1,1732222825955,"positive",1291.83333333333,552,"negative","B","",6.31354804627709,7.16381767705346,8
"489","62fbc9730a4b70bcc1c942b3","befall","test_val","abstract-negative","Valence","VC","B","negative",1,1732222827543,"negative",1613.33333333333,827,"negative","B","",6.71780469502369,7.38605771104257,9
"490","62fbc9730a4b70bcc1c942b3","obsess","test_val","abstract-negative","Valence","VC","B","negative",1,1732222829359,"negative",1522.5,1059,"negative","B","",6.96508034560141,7.32810899958405,10
"491","62fbc9730a4b70bcc1c942b3","enlighten","test_val","abstract-positive","Valence","VC","B","positive",1,1732222830741,"positive",1374.83333333333,626,"negative","B","",6.4393503711001,7.22608779063268,11
"492","62fbc9730a4b70bcc1c942b3","respect","test_val","abstract-positive","Valence","VC","B","positive",1,1732222831942,"positive",1550.16666666667,445,"negative","B","",6.09807428216624,7.34611773101441,12
"493","62fbc9730a4b70bcc1c942b3","exploit","test_val","abstract-negative","Valence","VC","B","negative",1,1732222833349,"negative",1529.5,649,"negative","B","",6.47543271670409,7.33269616359096,13
