#
# Results on Thu, 21 Nov 2024 17:40:24 GMT
# USER AGENT: Mozilla/5.0 (Windows NT 10.0; Win64; x64) AppleWebKit/537.36 (KHTML, like Gecko) Chrome/131.0.0.0 Safari/537.36
# Design number was non-random = 0
#
# Columns below this comment are as follows:
# 1. Results reception time.
# 2. MD5 hash of participant's IP address.
# 3. Controller name.
# 4. Order number of item.
# 5. Inner element number.
# 6. Label.
# 7. Latin Square Group.
# 8. PennElementType.
# 9. PennElementName.
# 10. Parameter.
# 11. Value.
# 12. EventTime.
# 13. Comments.
1732210824,cdf3b871d7045a44247ef4b914a0c606,PennController,1,0,welcome,NULL,PennController,0,_Trial_,Start,1732210079564,NULL
1732210824,cdf3b871d7045a44247ef4b914a0c606,PennController,1,0,welcome,NULL,PennController,0,_Header_,Start,1732210079565,NULL
1732210824,cdf3b871d7045a44247ef4b914a0c606,PennController,1,0,welcome,NULL,PennController,0,_Header_,End,1732210079819,NULL
1732210824,cdf3b871d7045a44247ef4b914a0c606,PennController,1,0,welcome,NULL,PennController,0,_Trial_,End,1732210101442,NULL
# 13. ID.
# 14. Comments.
1732210824,cdf3b871d7045a44247ef4b914a0c606,PennController,124,0,consent,NULL,PennController,2,_Trial_,Start,1732210101445,5c2ff645644d5300010c25f3,NULL
1732210824,cdf3b871d7045a44247ef4b914a0c606,PennController,124,0,consent,NULL,PennController,2,_Header_,Start,1732210101445,5c2ff645644d5300010c25f3,NULL
1732210824,cdf3b871d7045a44247ef4b914a0c606,PennController,124,0,consent,NULL,PennController,2,_Header_,End,1732210101696,5c2ff645644d5300010c25f3,NULL
1732210824,cdf3b871d7045a44247ef4b914a0c606,PennController,124,0,consent,NULL,TextInput,ID,Final,5c2ff645644d5300010c25f3,1732210131864,5c2ff645644d5300010c25f3,NULL
1732210824,cdf3b871d7045a44247ef4b914a0c606,PennController,124,0,consent,NULL,PennController,2,_Trial_,End,1732210131876,5c2ff645644d5300010c25f3,NULL
# 13. Comments.
1732210824,cdf3b871d7045a44247ef4b914a0c606,PennController,126,0,instructions1_conc,NULL,PennController,4,_Trial_,Start,1732210131877,NULL
1732210824,cdf3b871d7045a44247ef4b914a0c606,PennController,126,0,instructions1_conc,NULL,PennController,4,_Header_,Start,1732210131877,NULL
1732210824,cdf3b871d7045a44247ef4b914a0c606,PennController,126,0,instructions1_conc,NULL,PennController,4,_Header_,End,1732210132131,NULL
1732210824,cdf3b871d7045a44247ef4b914a0c606,PennController,126,0,instructions1_conc,NULL,PennController,4,_Trial_,End,1732210166298,NULL
1732210824,cdf3b871d7045a44247ef4b914a0c606,PennController,127,0,instructions2_conc,NULL,PennController,5,_Trial_,Start,1732210166299,NULL
1732210824,cdf3b871d7045a44247ef4b914a0c606,PennController,127,0,instructions2_conc,NULL,PennController,5,_Header_,Start,1732210166299,NULL
1732210824,cdf3b871d7045a44247ef4b914a0c606,PennController,127,0,instructions2_conc,NULL,PennController,5,_Header_,End,1732210166551,NULL
1732210824,cdf3b871d7045a44247ef4b914a0c606,PennController,127,0,instructions2_conc,NULL,PennController,5,_Trial_,End,1732210174256,NULL
1732210824,cdf3b871d7045a44247ef4b914a0c606,PennController,134,0,instructions3_hands,NULL,PennController,12,_Trial_,Start,1732210174257,NULL
1732210824,cdf3b871d7045a44247ef4b914a0c606,PennController,134,0,instructions3_hands,NULL,PennController,12,_Header_,Start,1732210174257,NULL
1732210824,cdf3b871d7045a44247ef4b914a0c606,PennController,134,0,instructions3_hands,NULL,PennController,12,_Header_,End,1732210174511,NULL
1732210824,cdf3b871d7045a44247ef4b914a0c606,PennController,134,0,instructions3_hands,NULL,PennController,12,_Trial_,End,1732210183831,NULL
1732210824,cdf3b871d7045a44247ef4b914a0c606,PennController,129,0,practice_intro_conc,NULL,PennController,7,_Trial_,Start,1732210183833,NULL
1732210824,cdf3b871d7045a44247ef4b914a0c606,PennController,129,0,practice_intro_conc,NULL,PennController,7,_Header_,Start,1732210183833,NULL
1732210824,cdf3b871d7045a44247ef4b914a0c606,PennController,129,0,practice_intro_conc,NULL,PennController,7,_Header_,End,1732210184084,NULL
1732210824,cdf3b871d7045a44247ef4b914a0c606,PennController,129,0,practice_intro_conc,NULL,PennController,7,_Trial_,End,1732210185872,NULL
# 13. ID.
# 14. ReactionTime.
# 15. Word.
# 16. selectedKey.
# 17. selectedValue.
# 18. Key_value_F.
# 19. Key_value_J.
# 20. Group.
# 21. Comments.
1732210824,cdf3b871d7045a44247ef4b914a0c606,PennController,87,0,calibrator_conc_feedback,NULL,PennController,98,_Trial_,Start,1732210185875,undefined,1070,marriage,undefined,abstract,concrete,abstract,B,NULL
1732210824,cdf3b871d7045a44247ef4b914a0c606,PennController,87,0,calibrator_conc_feedback,NULL,PennController,98,_Header_,Start,1732210185875,undefined,1070,marriage,undefined,abstract,concrete,abstract,B,NULL
1732210824,cdf3b871d7045a44247ef4b914a0c606,PennController,87,0,calibrator_conc_feedback,NULL,PennController,98,_Header_,End,1732210186127,undefined,1070,marriage,undefined,abstract,concrete,abstract,B,NULL
1732210824,cdf3b871d7045a44247ef4b914a0c606,PennController,87,0,calibrator_conc_feedback,NULL,Selector,Selection,Selection,concrete,1732210189690,undefined,1070,marriage,undefined,abstract,concrete,abstract,B,concrete;abstract
1732210824,cdf3b871d7045a44247ef4b914a0c606,PennController,87,0,calibrator_conc_feedback,NULL,PennController,98,_Trial_,End,1732210189714,undefined,1070,marriage,undefined,abstract,concrete,abstract,B,NULL
1732210824,cdf3b871d7045a44247ef4b914a0c606,PennController,86,0,calibrator_conc_feedback,NULL,PennController,97,_Trial_,Start,1732210189717,undefined,1985,kick,undefined,abstract,concrete,abstract,B,NULL
1732210824,cdf3b871d7045a44247ef4b914a0c606,PennController,86,0,calibrator_conc_feedback,NULL,PennController,97,_Header_,Start,1732210189717,undefined,1985,kick,undefined,abstract,concrete,abstract,B,NULL
1732210824,cdf3b871d7045a44247ef4b914a0c606,PennController,86,0,calibrator_conc_feedback,NULL,PennController,97,_Header_,End,1732210189968,undefined,1985,kick,undefined,abstract,concrete,abstract,B,NULL
1732210824,cdf3b871d7045a44247ef4b914a0c606,PennController,86,0,calibrator_conc_feedback,NULL,Selector,Selection,Selection,concrete,1732210192461,undefined,1985,kick,undefined,abstract,concrete,abstract,B,concrete;abstract
1732210824,cdf3b871d7045a44247ef4b914a0c606,PennController,86,0,calibrator_conc_feedback,NULL,PennController,97,_Trial_,End,1732210194473,undefined,1985,kick,undefined,abstract,concrete,abstract,B,NULL
1732210824,cdf3b871d7045a44247ef4b914a0c606,PennController,84,0,calibrator_conc_feedback,NULL,PennController,95,_Trial_,Start,1732210194476,undefined,2927,gas,undefined,abstract,concrete,abstract,B,NULL
1732210824,cdf3b871d7045a44247ef4b914a0c606,PennController,84,0,calibrator_conc_feedback,NULL,PennController,95,_Header_,Start,1732210194477,undefined,2927,gas,undefined,abstract,concrete,abstract,B,NULL
1732210824,cdf3b871d7045a44247ef4b914a0c606,PennController,84,0,calibrator_conc_feedback,NULL,PennController,95,_Header_,End,1732210194727,undefined,2927,gas,undefined,abstract,concrete,abstract,B,NULL
1732210824,cdf3b871d7045a44247ef4b914a0c606,PennController,84,0,calibrator_conc_feedback,NULL,Selector,Selection,Selection,concrete,1732210198158,undefined,2927,gas,undefined,abstract,concrete,abstract,B,concrete;abstract
1732210824,cdf3b871d7045a44247ef4b914a0c606,PennController,84,0,calibrator_conc_feedback,NULL,PennController,95,_Trial_,End,1732210200166,undefined,2927,gas,undefined,abstract,concrete,abstract,B,NULL
1732210824,cdf3b871d7045a44247ef4b914a0c606,PennController,91,0,calibrator_conc_feedback,NULL,PennController,102,_Trial_,Start,1732210200169,undefined,1709,theory,undefined,abstract,concrete,abstract,B,NULL
1732210824,cdf3b871d7045a44247ef4b914a0c606,PennController,91,0,calibrator_conc_feedback,NULL,PennController,102,_Header_,Start,1732210200169,undefined,1709,theory,undefined,abstract,concrete,abstract,B,NULL
1732210824,cdf3b871d7045a44247ef4b914a0c606,PennController,91,0,calibrator_conc_feedback,NULL,PennController,102,_Header_,End,1732210200424,undefined,1709,theory,undefined,abstract,concrete,abstract,B,NULL
1732210824,cdf3b871d7045a44247ef4b914a0c606,PennController,91,0,calibrator_conc_feedback,NULL,Selector,Selection,Selection,abstract,1732210202639,undefined,1709,theory,undefined,abstract,concrete,abstract,B,concrete;abstract
1732210824,cdf3b871d7045a44247ef4b914a0c606,PennController,91,0,calibrator_conc_feedback,NULL,PennController,102,_Trial_,End,1732210204647,undefined,1709,theory,undefined,abstract,concrete,abstract,B,NULL
1732210824,cdf3b871d7045a44247ef4b914a0c606,PennController,88,0,calibrator_conc_feedback,NULL,PennController,99,_Trial_,Start,1732210204650,undefined,2032,polite,undefined,abstract,concrete,abstract,B,NULL
1732210824,cdf3b871d7045a44247ef4b914a0c606,PennController,88,0,calibrator_conc_feedback,NULL,PennController,99,_Header_,Start,1732210204650,undefined,2032,polite,undefined,abstract,concrete,abstract,B,NULL
1732210824,cdf3b871d7045a44247ef4b914a0c606,PennController,88,0,calibrator_conc_feedback,NULL,PennController,99,_Header_,End,1732210204903,undefined,2032,polite,undefined,abstract,concrete,abstract,B,NULL
1732210824,cdf3b871d7045a44247ef4b914a0c606,PennController,88,0,calibrator_conc_feedback,NULL,Selector,Selection,Selection,abstract,1732210207441,undefined,2032,polite,undefined,abstract,concrete,abstract,B,concrete;abstract
1732210824,cdf3b871d7045a44247ef4b914a0c606,PennController,88,0,calibrator_conc_feedback,NULL,PennController,99,_Trial_,End,1732210209451,undefined,2032,polite,undefined,abstract,concrete,abstract,B,NULL
1732210824,cdf3b871d7045a44247ef4b914a0c606,PennController,93,0,calibrator_conc_feedback,NULL,PennController,104,_Trial_,Start,1732210209454,undefined,1173,insecure,undefined,abstract,concrete,abstract,B,NULL
1732210824,cdf3b871d7045a44247ef4b914a0c606,PennController,93,0,calibrator_conc_feedback,NULL,PennController,104,_Header_,Start,1732210209454,undefined,1173,insecure,undefined,abstract,concrete,abstract,B,NULL
1732210824,cdf3b871d7045a44247ef4b914a0c606,PennController,93,0,calibrator_conc_feedback,NULL,PennController,104,_Header_,End,1732210209708,undefined,1173,insecure,undefined,abstract,concrete,abstract,B,NULL
1732210824,cdf3b871d7045a44247ef4b914a0c606,PennController,93,0,calibrator_conc_feedback,NULL,Selector,Selection,Selection,abstract,1732210211388,undefined,1173,insecure,undefined,abstract,concrete,abstract,B,concrete;abstract
1732210824,cdf3b871d7045a44247ef4b914a0c606,PennController,93,0,calibrator_conc_feedback,NULL,PennController,104,_Trial_,End,1732210213396,undefined,1173,insecure,undefined,abstract,concrete,abstract,B,NULL
1732210824,cdf3b871d7045a44247ef4b914a0c606,PennController,89,0,calibrator_conc_feedback,NULL,PennController,100,_Trial_,Start,1732210213397,undefined,1389,shirt,undefined,abstract,concrete,abstract,B,NULL
1732210824,cdf3b871d7045a44247ef4b914a0c606,PennController,89,0,calibrator_conc_feedback,NULL,PennController,100,_Header_,Start,1732210213397,undefined,1389,shirt,undefined,abstract,concrete,abstract,B,NULL
1732210824,cdf3b871d7045a44247ef4b914a0c606,PennController,89,0,calibrator_conc_feedback,NULL,PennController,100,_Header_,End,1732210213651,undefined,1389,shirt,undefined,abstract,concrete,abstract,B,NULL
1732210824,cdf3b871d7045a44247ef4b914a0c606,PennController,89,0,calibrator_conc_feedback,NULL,Selector,Selection,Selection,concrete,1732210215544,undefined,1389,shirt,undefined,abstract,concrete,abstract,B,concrete;abstract
1732210824,cdf3b871d7045a44247ef4b914a0c606,PennController,89,0,calibrator_conc_feedback,NULL,PennController,100,_Trial_,End,1732210217551,undefined,1389,shirt,undefined,abstract,concrete,abstract,B,NULL
1732210824,cdf3b871d7045a44247ef4b914a0c606,PennController,85,0,calibrator_conc_feedback,NULL,PennController,96,_Trial_,Start,1732210217552,undefined,1398,grasshopper,undefined,abstract,concrete,abstract,B,NULL
1732210824,cdf3b871d7045a44247ef4b914a0c606,PennController,85,0,calibrator_conc_feedback,NULL,PennController,96,_Header_,Start,1732210217552,undefined,1398,grasshopper,undefined,abstract,concrete,abstract,B,NULL
1732210824,cdf3b871d7045a44247ef4b914a0c606,PennController,85,0,calibrator_conc_feedback,NULL,PennController,96,_Header_,End,1732210217807,undefined,1398,grasshopper,undefined,abstract,concrete,abstract,B,NULL
1732210824,cdf3b871d7045a44247ef4b914a0c606,PennController,85,0,calibrator_conc_feedback,NULL,Selector,Selection,Selection,concrete,1732210219707,undefined,1398,grasshopper,undefined,abstract,concrete,abstract,B,concrete;abstract
1732210824,cdf3b871d7045a44247ef4b914a0c606,PennController,85,0,calibrator_conc_feedback,NULL,PennController,96,_Trial_,End,1732210221714,undefined,1398,grasshopper,undefined,abstract,concrete,abstract,B,NULL
1732210824,cdf3b871d7045a44247ef4b914a0c606,PennController,92,0,calibrator_conc_feedback,NULL,PennController,103,_Trial_,Start,1732210221716,undefined,1649,whistle,undefined,abstract,concrete,abstract,B,NULL
1732210824,cdf3b871d7045a44247ef4b914a0c606,PennController,92,0,calibrator_conc_feedback,NULL,PennController,103,_Header_,Start,1732210221716,undefined,1649,whistle,undefined,abstract,concrete,abstract,B,NULL
1732210824,cdf3b871d7045a44247ef4b914a0c606,PennController,92,0,calibrator_conc_feedback,NULL,PennController,103,_Header_,End,1732210221967,undefined,1649,whistle,undefined,abstract,concrete,abstract,B,NULL
1732210824,cdf3b871d7045a44247ef4b914a0c606,PennController,92,0,calibrator_conc_feedback,NULL,Selector,Selection,Selection,concrete,1732210224119,undefined,1649,whistle,undefined,abstract,concrete,abstract,B,concrete;abstract
1732210824,cdf3b871d7045a44247ef4b914a0c606,PennController,92,0,calibrator_conc_feedback,NULL,PennController,103,_Trial_,End,1732210226127,undefined,1649,whistle,undefined,abstract,concrete,abstract,B,NULL
1732210824,cdf3b871d7045a44247ef4b914a0c606,PennController,90,0,calibrator_conc_feedback,NULL,PennController,101,_Trial_,Start,1732210226130,undefined,1328,sugar,undefined,abstract,concrete,abstract,B,NULL
1732210824,cdf3b871d7045a44247ef4b914a0c606,PennController,90,0,calibrator_conc_feedback,NULL,PennController,101,_Header_,Start,1732210226130,undefined,1328,sugar,undefined,abstract,concrete,abstract,B,NULL
1732210824,cdf3b871d7045a44247ef4b914a0c606,PennController,90,0,calibrator_conc_feedback,NULL,PennController,101,_Header_,End,1732210226384,undefined,1328,sugar,undefined,abstract,concrete,abstract,B,NULL
1732210824,cdf3b871d7045a44247ef4b914a0c606,PennController,90,0,calibrator_conc_feedback,NULL,Selector,Selection,Selection,concrete,1732210228215,undefined,1328,sugar,undefined,abstract,concrete,abstract,B,concrete;abstract
1732210824,cdf3b871d7045a44247ef4b914a0c606,PennController,90,0,calibrator_conc_feedback,NULL,PennController,101,_Trial_,End,1732210230224,undefined,1328,sugar,undefined,abstract,concrete,abstract,B,NULL
# 16. Key_value_F.
# 17. Key_value_J.
# 18. Group.
# 19. Comments.
1732210824,cdf3b871d7045a44247ef4b914a0c606,PennController,94,0,calibrator_conc_no_feedback,NULL,PennController,105,_Trial_,Start,1732210230226,undefined,1162,gas,concrete,abstract,B,NULL
1732210824,cdf3b871d7045a44247ef4b914a0c606,PennController,94,0,calibrator_conc_no_feedback,NULL,PennController,105,_Header_,Start,1732210230226,undefined,1162,gas,concrete,abstract,B,NULL
1732210824,cdf3b871d7045a44247ef4b914a0c606,PennController,94,0,calibrator_conc_no_feedback,NULL,PennController,105,_Header_,End,1732210230478,undefined,1162,gas,concrete,abstract,B,NULL
1732210824,cdf3b871d7045a44247ef4b914a0c606,PennController,94,0,calibrator_conc_no_feedback,NULL,Selector,unnamed-Selector,Selection,concrete,1732210232146,undefined,1162,gas,concrete,abstract,B,concrete;abstract
1732210824,cdf3b871d7045a44247ef4b914a0c606,PennController,94,0,calibrator_conc_no_feedback,NULL,PennController,105,_Trial_,End,1732210232151,undefined,1162,gas,concrete,abstract,B,NULL
1732210824,cdf3b871d7045a44247ef4b914a0c606,PennController,97,0,calibrator_conc_no_feedback,NULL,PennController,108,_Trial_,Start,1732210232153,undefined,1465,marriage,concrete,abstract,B,NULL
1732210824,cdf3b871d7045a44247ef4b914a0c606,PennController,97,0,calibrator_conc_no_feedback,NULL,PennController,108,_Header_,Start,1732210232153,undefined,1465,marriage,concrete,abstract,B,NULL
1732210824,cdf3b871d7045a44247ef4b914a0c606,PennController,97,0,calibrator_conc_no_feedback,NULL,PennController,108,_Header_,End,1732210232405,undefined,1465,marriage,concrete,abstract,B,NULL
1732210824,cdf3b871d7045a44247ef4b914a0c606,PennController,97,0,calibrator_conc_no_feedback,NULL,Selector,unnamed-Selector,Selection,concrete,1732210234375,undefined,1465,marriage,concrete,abstract,B,concrete;abstract
1732210824,cdf3b871d7045a44247ef4b914a0c606,PennController,97,0,calibrator_conc_no_feedback,NULL,PennController,108,_Trial_,End,1732210234378,undefined,1465,marriage,concrete,abstract,B,NULL
1732210824,cdf3b871d7045a44247ef4b914a0c606,PennController,103,0,calibrator_conc_no_feedback,NULL,PennController,114,_Trial_,Start,1732210234381,undefined,1434,insecure,concrete,abstract,B,NULL
1732210824,cdf3b871d7045a44247ef4b914a0c606,PennController,103,0,calibrator_conc_no_feedback,NULL,PennController,114,_Header_,Start,1732210234381,undefined,1434,insecure,concrete,abstract,B,NULL
1732210824,cdf3b871d7045a44247ef4b914a0c606,PennController,103,0,calibrator_conc_no_feedback,NULL,PennController,114,_Header_,End,1732210234634,undefined,1434,insecure,concrete,abstract,B,NULL
1732210824,cdf3b871d7045a44247ef4b914a0c606,PennController,103,0,calibrator_conc_no_feedback,NULL,Selector,unnamed-Selector,Selection,abstract,1732210236573,undefined,1434,insecure,concrete,abstract,B,concrete;abstract
1732210824,cdf3b871d7045a44247ef4b914a0c606,PennController,103,0,calibrator_conc_no_feedback,NULL,PennController,114,_Trial_,End,1732210236577,undefined,1434,insecure,concrete,abstract,B,NULL
1732210824,cdf3b871d7045a44247ef4b914a0c606,PennController,101,0,calibrator_conc_no_feedback,NULL,PennController,112,_Trial_,Start,1732210236579,undefined,964,theory,concrete,abstract,B,NULL
1732210824,cdf3b871d7045a44247ef4b914a0c606,PennController,101,0,calibrator_conc_no_feedback,NULL,PennController,112,_Header_,Start,1732210236579,undefined,964,theory,concrete,abstract,B,NULL
1732210824,cdf3b871d7045a44247ef4b914a0c606,PennController,101,0,calibrator_conc_no_feedback,NULL,PennController,112,_Header_,End,1732210236833,undefined,964,theory,concrete,abstract,B,NULL
1732210824,cdf3b871d7045a44247ef4b914a0c606,PennController,101,0,calibrator_conc_no_feedback,NULL,Selector,unnamed-Selector,Selection,abstract,1732210238303,undefined,964,theory,concrete,abstract,B,concrete;abstract
1732210824,cdf3b871d7045a44247ef4b914a0c606,PennController,101,0,calibrator_conc_no_feedback,NULL,PennController,112,_Trial_,End,1732210238307,undefined,964,theory,concrete,abstract,B,NULL
1732210824,cdf3b871d7045a44247ef4b914a0c606,PennController,95,0,calibrator_conc_no_feedback,NULL,PennController,106,_Trial_,Start,1732210238309,undefined,1027,grasshopper,concrete,abstract,B,NULL
1732210824,cdf3b871d7045a44247ef4b914a0c606,PennController,95,0,calibrator_conc_no_feedback,NULL,PennController,106,_Header_,Start,1732210238309,undefined,1027,grasshopper,concrete,abstract,B,NULL
1732210824,cdf3b871d7045a44247ef4b914a0c606,PennController,95,0,calibrator_conc_no_feedback,NULL,PennController,106,_Header_,End,1732210238561,undefined,1027,grasshopper,concrete,abstract,B,NULL
1732210824,cdf3b871d7045a44247ef4b914a0c606,PennController,95,0,calibrator_conc_no_feedback,NULL,Selector,unnamed-Selector,Selection,concrete,1732210240092,undefined,1027,grasshopper,concrete,abstract,B,concrete;abstract
1732210824,cdf3b871d7045a44247ef4b914a0c606,PennController,95,0,calibrator_conc_no_feedback,NULL,PennController,106,_Trial_,End,1732210240095,undefined,1027,grasshopper,concrete,abstract,B,NULL
1732210824,cdf3b871d7045a44247ef4b914a0c606,PennController,96,0,calibrator_conc_no_feedback,NULL,PennController,107,_Trial_,Start,1732210240097,undefined,1248,kick,concrete,abstract,B,NULL
1732210824,cdf3b871d7045a44247ef4b914a0c606,PennController,96,0,calibrator_conc_no_feedback,NULL,PennController,107,_Header_,Start,1732210240097,undefined,1248,kick,concrete,abstract,B,NULL
1732210824,cdf3b871d7045a44247ef4b914a0c606,PennController,96,0,calibrator_conc_no_feedback,NULL,PennController,107,_Header_,End,1732210240348,undefined,1248,kick,concrete,abstract,B,NULL
1732210824,cdf3b871d7045a44247ef4b914a0c606,PennController,96,0,calibrator_conc_no_feedback,NULL,Selector,unnamed-Selector,Selection,concrete,1732210242099,undefined,1248,kick,concrete,abstract,B,concrete;abstract
1732210824,cdf3b871d7045a44247ef4b914a0c606,PennController,96,0,calibrator_conc_no_feedback,NULL,PennController,107,_Trial_,End,1732210242102,undefined,1248,kick,concrete,abstract,B,NULL
1732210824,cdf3b871d7045a44247ef4b914a0c606,PennController,102,0,calibrator_conc_no_feedback,NULL,PennController,113,_Trial_,Start,1732210242105,undefined,1413,whistle,concrete,abstract,B,NULL
1732210824,cdf3b871d7045a44247ef4b914a0c606,PennController,102,0,calibrator_conc_no_feedback,NULL,PennController,113,_Header_,Start,1732210242105,undefined,1413,whistle,concrete,abstract,B,NULL
1732210824,cdf3b871d7045a44247ef4b914a0c606,PennController,102,0,calibrator_conc_no_feedback,NULL,PennController,113,_Header_,End,1732210242357,undefined,1413,whistle,concrete,abstract,B,NULL
1732210824,cdf3b871d7045a44247ef4b914a0c606,PennController,102,0,calibrator_conc_no_feedback,NULL,Selector,unnamed-Selector,Selection,concrete,1732210244276,undefined,1413,whistle,concrete,abstract,B,concrete;abstract
1732210824,cdf3b871d7045a44247ef4b914a0c606,PennController,102,0,calibrator_conc_no_feedback,NULL,PennController,113,_Trial_,End,1732210244280,undefined,1413,whistle,concrete,abstract,B,NULL
1732210824,cdf3b871d7045a44247ef4b914a0c606,PennController,98,0,calibrator_conc_no_feedback,NULL,PennController,109,_Trial_,Start,1732210244284,undefined,955,polite,concrete,abstract,B,NULL
1732210824,cdf3b871d7045a44247ef4b914a0c606,PennController,98,0,calibrator_conc_no_feedback,NULL,PennController,109,_Header_,Start,1732210244284,undefined,955,polite,concrete,abstract,B,NULL
1732210824,cdf3b871d7045a44247ef4b914a0c606,PennController,98,0,calibrator_conc_no_feedback,NULL,PennController,109,_Header_,End,1732210244534,undefined,955,polite,concrete,abstract,B,NULL
1732210824,cdf3b871d7045a44247ef4b914a0c606,PennController,98,0,calibrator_conc_no_feedback,NULL,Selector,unnamed-Selector,Selection,abstract,1732210245992,undefined,955,polite,concrete,abstract,B,concrete;abstract
1732210824,cdf3b871d7045a44247ef4b914a0c606,PennController,98,0,calibrator_conc_no_feedback,NULL,PennController,109,_Trial_,End,1732210246000,undefined,955,polite,concrete,abstract,B,NULL
1732210824,cdf3b871d7045a44247ef4b914a0c606,PennController,99,0,calibrator_conc_no_feedback,NULL,PennController,110,_Trial_,Start,1732210246005,undefined,977,shirt,concrete,abstract,B,NULL
1732210824,cdf3b871d7045a44247ef4b914a0c606,PennController,99,0,calibrator_conc_no_feedback,NULL,PennController,110,_Header_,Start,1732210246005,undefined,977,shirt,concrete,abstract,B,NULL
1732210824,cdf3b871d7045a44247ef4b914a0c606,PennController,99,0,calibrator_conc_no_feedback,NULL,PennController,110,_Header_,End,1732210246257,undefined,977,shirt,concrete,abstract,B,NULL
1732210824,cdf3b871d7045a44247ef4b914a0c606,PennController,99,0,calibrator_conc_no_feedback,NULL,Selector,unnamed-Selector,Selection,concrete,1732210247740,undefined,977,shirt,concrete,abstract,B,concrete;abstract
1732210824,cdf3b871d7045a44247ef4b914a0c606,PennController,99,0,calibrator_conc_no_feedback,NULL,PennController,110,_Trial_,End,1732210247743,undefined,977,shirt,concrete,abstract,B,NULL
1732210824,cdf3b871d7045a44247ef4b914a0c606,PennController,100,0,calibrator_conc_no_feedback,NULL,PennController,111,_Trial_,Start,1732210247745,undefined,993,sugar,concrete,abstract,B,NULL
1732210824,cdf3b871d7045a44247ef4b914a0c606,PennController,100,0,calibrator_conc_no_feedback,NULL,PennController,111,_Header_,Start,1732210247745,undefined,993,sugar,concrete,abstract,B,NULL
1732210824,cdf3b871d7045a44247ef4b914a0c606,PennController,100,0,calibrator_conc_no_feedback,NULL,PennController,111,_Header_,End,1732210247999,undefined,993,sugar,concrete,abstract,B,NULL
1732210824,cdf3b871d7045a44247ef4b914a0c606,PennController,100,0,calibrator_conc_no_feedback,NULL,Selector,unnamed-Selector,Selection,concrete,1732210249499,undefined,993,sugar,concrete,abstract,B,concrete;abstract
1732210824,cdf3b871d7045a44247ef4b914a0c606,PennController,100,0,calibrator_conc_no_feedback,NULL,PennController,111,_Trial_,End,1732210249504,undefined,993,sugar,concrete,abstract,B,NULL
# 13. Comments.
1732210824,cdf3b871d7045a44247ef4b914a0c606,PennController,130,0,endinstructions_conc,NULL,PennController,8,_Trial_,Start,1732210249507,NULL
1732210824,cdf3b871d7045a44247ef4b914a0c606,PennController,130,0,endinstructions_conc,NULL,PennController,8,_Header_,Start,1732210249507,NULL
1732210824,cdf3b871d7045a44247ef4b914a0c606,PennController,130,0,endinstructions_conc,NULL,PennController,8,_Header_,End,1732210249758,NULL
1732210824,cdf3b871d7045a44247ef4b914a0c606,PennController,130,0,endinstructions_conc,NULL,PennController,8,_Trial_,End,1732210263372,NULL
# 13. ID.
# 14. ReactionTime.
# 15. Word.
# 16. ConcValCombo.
# 17. Key_value_F.
# 18. Key_value_J.
# 19. Group.
# 20. Comments.
1732210824,cdf3b871d7045a44247ef4b914a0c606,PennController,22,0,test_conc,NULL,PennController,33,_Trial_,Start,1732210263374,undefined,923,stab,concrete-negative,concrete,abstract,B,NULL
1732210824,cdf3b871d7045a44247ef4b914a0c606,PennController,22,0,test_conc,NULL,PennController,33,_Header_,Start,1732210263374,undefined,923,stab,concrete-negative,concrete,abstract,B,NULL
1732210824,cdf3b871d7045a44247ef4b914a0c606,PennController,22,0,test_conc,NULL,PennController,33,_Header_,End,1732210263628,undefined,923,stab,concrete-negative,concrete,abstract,B,NULL
1732210824,cdf3b871d7045a44247ef4b914a0c606,PennController,22,0,test_conc,NULL,Selector,unnamed-Selector,Selection,concrete,1732210265058,undefined,923,stab,concrete-negative,concrete,abstract,B,concrete;abstract
1732210824,cdf3b871d7045a44247ef4b914a0c606,PennController,22,0,test_conc,NULL,PennController,33,_Trial_,End,1732210265061,undefined,923,stab,concrete-negative,concrete,abstract,B,NULL
1732210824,cdf3b871d7045a44247ef4b914a0c606,PennController,6,0,test_conc,NULL,PennController,17,_Trial_,Start,1732210265063,undefined,1028,cuddle,concrete-positive,concrete,abstract,B,NULL
1732210824,cdf3b871d7045a44247ef4b914a0c606,PennController,6,0,test_conc,NULL,PennController,17,_Header_,Start,1732210265063,undefined,1028,cuddle,concrete-positive,concrete,abstract,B,NULL
1732210824,cdf3b871d7045a44247ef4b914a0c606,PennController,6,0,test_conc,NULL,PennController,17,_Header_,End,1732210265316,undefined,1028,cuddle,concrete-positive,concrete,abstract,B,NULL
1732210824,cdf3b871d7045a44247ef4b914a0c606,PennController,6,0,test_conc,NULL,Selector,unnamed-Selector,Selection,concrete,1732210266848,undefined,1028,cuddle,concrete-positive,concrete,abstract,B,concrete;abstract
1732210824,cdf3b871d7045a44247ef4b914a0c606,PennController,6,0,test_conc,NULL,PennController,17,_Trial_,End,1732210266853,undefined,1028,cuddle,concrete-positive,concrete,abstract,B,NULL
1732210824,cdf3b871d7045a44247ef4b914a0c606,PennController,21,0,test_conc,NULL,PennController,32,_Trial_,Start,1732210266855,undefined,846,spit,concrete-negative,concrete,abstract,B,NULL
1732210824,cdf3b871d7045a44247ef4b914a0c606,PennController,21,0,test_conc,NULL,PennController,32,_Header_,Start,1732210266855,undefined,846,spit,concrete-negative,concrete,abstract,B,NULL
1732210824,cdf3b871d7045a44247ef4b914a0c606,PennController,21,0,test_conc,NULL,PennController,32,_Header_,End,1732210267108,undefined,846,spit,concrete-negative,concrete,abstract,B,NULL
1732210824,cdf3b871d7045a44247ef4b914a0c606,PennController,21,0,test_conc,NULL,Selector,unnamed-Selector,Selection,concrete,1732210268457,undefined,846,spit,concrete-negative,concrete,abstract,B,concrete;abstract
1732210824,cdf3b871d7045a44247ef4b914a0c606,PennController,21,0,test_conc,NULL,PennController,32,_Trial_,End,1732210268461,undefined,846,spit,concrete-negative,concrete,abstract,B,NULL
1732210824,cdf3b871d7045a44247ef4b914a0c606,PennController,34,0,test_conc,NULL,PennController,45,_Trial_,Start,1732210268463,undefined,1357,imagine,abstract-positive,concrete,abstract,B,NULL
1732210824,cdf3b871d7045a44247ef4b914a0c606,PennController,34,0,test_conc,NULL,PennController,45,_Header_,Start,1732210268463,undefined,1357,imagine,abstract-positive,concrete,abstract,B,NULL
1732210824,cdf3b871d7045a44247ef4b914a0c606,PennController,34,0,test_conc,NULL,PennController,45,_Header_,End,1732210268717,undefined,1357,imagine,abstract-positive,concrete,abstract,B,NULL
1732210824,cdf3b871d7045a44247ef4b914a0c606,PennController,34,0,test_conc,NULL,Selector,unnamed-Selector,Selection,abstract,1732210270579,undefined,1357,imagine,abstract-positive,concrete,abstract,B,concrete;abstract
1732210824,cdf3b871d7045a44247ef4b914a0c606,PennController,34,0,test_conc,NULL,PennController,45,_Trial_,End,1732210270584,undefined,1357,imagine,abstract-positive,concrete,abstract,B,NULL
1732210824,cdf3b871d7045a44247ef4b914a0c606,PennController,4,0,test_conc,NULL,PennController,15,_Trial_,Start,1732210270586,undefined,1257,build,concrete-positive,concrete,abstract,B,NULL
1732210824,cdf3b871d7045a44247ef4b914a0c606,PennController,4,0,test_conc,NULL,PennController,15,_Header_,Start,1732210270586,undefined,1257,build,concrete-positive,concrete,abstract,B,NULL
1732210824,cdf3b871d7045a44247ef4b914a0c606,PennController,4,0,test_conc,NULL,PennController,15,_Header_,End,1732210270840,undefined,1257,build,concrete-positive,concrete,abstract,B,NULL
1732210824,cdf3b871d7045a44247ef4b914a0c606,PennController,4,0,test_conc,NULL,Selector,unnamed-Selector,Selection,concrete,1732210272600,undefined,1257,build,concrete-positive,concrete,abstract,B,concrete;abstract
1732210824,cdf3b871d7045a44247ef4b914a0c606,PennController,4,0,test_conc,NULL,PennController,15,_Trial_,End,1732210272607,undefined,1257,build,concrete-positive,concrete,abstract,B,NULL
1732210824,cdf3b871d7045a44247ef4b914a0c606,PennController,7,0,test_conc,NULL,PennController,18,_Trial_,Start,1732210272610,undefined,917,eat,concrete-positive,concrete,abstract,B,NULL
1732210824,cdf3b871d7045a44247ef4b914a0c606,PennController,7,0,test_conc,NULL,PennController,18,_Header_,Start,1732210272610,undefined,917,eat,concrete-positive,concrete,abstract,B,NULL
1732210824,cdf3b871d7045a44247ef4b914a0c606,PennController,7,0,test_conc,NULL,PennController,18,_Header_,End,1732210272864,undefined,917,eat,concrete-positive,concrete,abstract,B,NULL
1732210824,cdf3b871d7045a44247ef4b914a0c606,PennController,7,0,test_conc,NULL,Selector,unnamed-Selector,Selection,concrete,1732210274288,undefined,917,eat,concrete-positive,concrete,abstract,B,concrete;abstract
1732210824,cdf3b871d7045a44247ef4b914a0c606,PennController,7,0,test_conc,NULL,PennController,18,_Trial_,End,1732210274291,undefined,917,eat,concrete-positive,concrete,abstract,B,NULL
1732210824,cdf3b871d7045a44247ef4b914a0c606,PennController,10,0,test_conc,NULL,PennController,21,_Trial_,Start,1732210274293,undefined,1045,running,concrete-positive,concrete,abstract,B,NULL
1732210824,cdf3b871d7045a44247ef4b914a0c606,PennController,10,0,test_conc,NULL,PennController,21,_Header_,Start,1732210274293,undefined,1045,running,concrete-positive,concrete,abstract,B,NULL
1732210824,cdf3b871d7045a44247ef4b914a0c606,PennController,10,0,test_conc,NULL,PennController,21,_Header_,End,1732210274545,undefined,1045,running,concrete-positive,concrete,abstract,B,NULL
1732210824,cdf3b871d7045a44247ef4b914a0c606,PennController,10,0,test_conc,NULL,Selector,unnamed-Selector,Selection,concrete,1732210276094,undefined,1045,running,concrete-positive,concrete,abstract,B,concrete;abstract
1732210824,cdf3b871d7045a44247ef4b914a0c606,PennController,10,0,test_conc,NULL,PennController,21,_Trial_,End,1732210276099,undefined,1045,running,concrete-positive,concrete,abstract,B,NULL
1732210824,cdf3b871d7045a44247ef4b914a0c606,PennController,36,0,test_conc,NULL,PennController,47,_Trial_,Start,1732210276101,undefined,1205,admired,abstract-positive,concrete,abstract,B,NULL
1732210824,cdf3b871d7045a44247ef4b914a0c606,PennController,36,0,test_conc,NULL,PennController,47,_Header_,Start,1732210276101,undefined,1205,admired,abstract-positive,concrete,abstract,B,NULL
1732210824,cdf3b871d7045a44247ef4b914a0c606,PennController,36,0,test_conc,NULL,PennController,47,_Header_,End,1732210276355,undefined,1205,admired,abstract-positive,concrete,abstract,B,NULL
1732210824,cdf3b871d7045a44247ef4b914a0c606,PennController,36,0,test_conc,NULL,Selector,unnamed-Selector,Selection,abstract,1732210278067,undefined,1205,admired,abstract-positive,concrete,abstract,B,concrete;abstract
1732210824,cdf3b871d7045a44247ef4b914a0c606,PennController,36,0,test_conc,NULL,PennController,47,_Trial_,End,1732210278071,undefined,1205,admired,abstract-positive,concrete,abstract,B,NULL
1732210824,cdf3b871d7045a44247ef4b914a0c606,PennController,39,0,test_conc,NULL,PennController,50,_Trial_,Start,1732210278073,undefined,1073,believe,abstract-positive,concrete,abstract,B,NULL
1732210824,cdf3b871d7045a44247ef4b914a0c606,PennController,39,0,test_conc,NULL,PennController,50,_Header_,Start,1732210278073,undefined,1073,believe,abstract-positive,concrete,abstract,B,NULL
1732210824,cdf3b871d7045a44247ef4b914a0c606,PennController,39,0,test_conc,NULL,PennController,50,_Header_,End,1732210278326,undefined,1073,believe,abstract-positive,concrete,abstract,B,NULL
1732210824,cdf3b871d7045a44247ef4b914a0c606,PennController,39,0,test_conc,NULL,Selector,unnamed-Selector,Selection,abstract,1732210279907,undefined,1073,believe,abstract-positive,concrete,abstract,B,concrete;abstract
1732210824,cdf3b871d7045a44247ef4b914a0c606,PennController,39,0,test_conc,NULL,PennController,50,_Trial_,End,1732210279910,undefined,1073,believe,abstract-positive,concrete,abstract,B,NULL
1732210824,cdf3b871d7045a44247ef4b914a0c606,PennController,19,0,test_conc,NULL,PennController,30,_Trial_,Start,1732210279912,undefined,939,slap,concrete-negative,concrete,abstract,B,NULL
1732210824,cdf3b871d7045a44247ef4b914a0c606,PennController,19,0,test_conc,NULL,PennController,30,_Header_,Start,1732210279912,undefined,939,slap,concrete-negative,concrete,abstract,B,NULL
1732210824,cdf3b871d7045a44247ef4b914a0c606,PennController,19,0,test_conc,NULL,PennController,30,_Header_,End,1732210280163,undefined,939,slap,concrete-negative,concrete,abstract,B,NULL
1732210824,cdf3b871d7045a44247ef4b914a0c606,PennController,19,0,test_conc,NULL,Selector,unnamed-Selector,Selection,concrete,1732210281609,undefined,939,slap,concrete-negative,concrete,abstract,B,concrete;abstract
1732210824,cdf3b871d7045a44247ef4b914a0c606,PennController,19,0,test_conc,NULL,PennController,30,_Trial_,End,1732210281614,undefined,939,slap,concrete-negative,concrete,abstract,B,NULL
1732210824,cdf3b871d7045a44247ef4b914a0c606,PennController,12,0,test_conc,NULL,PennController,23,_Trial_,Start,1732210281617,undefined,900,smile,concrete-positive,concrete,abstract,B,NULL
1732210824,cdf3b871d7045a44247ef4b914a0c606,PennController,12,0,test_conc,NULL,PennController,23,_Header_,Start,1732210281617,undefined,900,smile,concrete-positive,concrete,abstract,B,NULL
1732210824,cdf3b871d7045a44247ef4b914a0c606,PennController,12,0,test_conc,NULL,PennController,23,_Header_,End,1732210281867,undefined,900,smile,concrete-positive,concrete,abstract,B,NULL
1732210824,cdf3b871d7045a44247ef4b914a0c606,PennController,12,0,test_conc,NULL,Selector,unnamed-Selector,Selection,concrete,1732210283275,undefined,900,smile,concrete-positive,concrete,abstract,B,concrete;abstract
1732210824,cdf3b871d7045a44247ef4b914a0c606,PennController,12,0,test_conc,NULL,PennController,23,_Trial_,End,1732210283279,undefined,900,smile,concrete-positive,concrete,abstract,B,NULL
1732210824,cdf3b871d7045a44247ef4b914a0c606,PennController,27,0,test_conc,NULL,PennController,38,_Trial_,Start,1732210283282,undefined,1951,exploit,abstract-negative,concrete,abstract,B,NULL
1732210824,cdf3b871d7045a44247ef4b914a0c606,PennController,27,0,test_conc,NULL,PennController,38,_Header_,Start,1732210283282,undefined,1951,exploit,abstract-negative,concrete,abstract,B,NULL
1732210824,cdf3b871d7045a44247ef4b914a0c606,PennController,27,0,test_conc,NULL,PennController,38,_Header_,End,1732210283537,undefined,1951,exploit,abstract-negative,concrete,abstract,B,NULL
1732210824,cdf3b871d7045a44247ef4b914a0c606,PennController,27,0,test_conc,NULL,Selector,unnamed-Selector,Selection,abstract,1732210285995,undefined,1951,exploit,abstract-negative,concrete,abstract,B,concrete;abstract
1732210824,cdf3b871d7045a44247ef4b914a0c606,PennController,27,0,test_conc,NULL,PennController,38,_Trial_,End,1732210285999,undefined,1951,exploit,abstract-negative,concrete,abstract,B,NULL
1732210824,cdf3b871d7045a44247ef4b914a0c606,PennController,8,0,test_conc,NULL,PennController,19,_Trial_,Start,1732210286001,undefined,1134,hug,concrete-positive,concrete,abstract,B,NULL
1732210824,cdf3b871d7045a44247ef4b914a0c606,PennController,8,0,test_conc,NULL,PennController,19,_Header_,Start,1732210286001,undefined,1134,hug,concrete-positive,concrete,abstract,B,NULL
1732210824,cdf3b871d7045a44247ef4b914a0c606,PennController,8,0,test_conc,NULL,PennController,19,_Header_,End,1732210286254,undefined,1134,hug,concrete-positive,concrete,abstract,B,NULL
1732210824,cdf3b871d7045a44247ef4b914a0c606,PennController,8,0,test_conc,NULL,Selector,unnamed-Selector,Selection,concrete,1732210287892,undefined,1134,hug,concrete-positive,concrete,abstract,B,concrete;abstract
1732210824,cdf3b871d7045a44247ef4b914a0c606,PennController,8,0,test_conc,NULL,PennController,19,_Trial_,End,1732210287896,undefined,1134,hug,concrete-positive,concrete,abstract,B,NULL
1732210824,cdf3b871d7045a44247ef4b914a0c606,PennController,37,0,test_conc,NULL,PennController,48,_Trial_,Start,1732210287898,undefined,1433,cherish,abstract-positive,concrete,abstract,B,NULL
1732210824,cdf3b871d7045a44247ef4b914a0c606,PennController,37,0,test_conc,NULL,PennController,48,_Header_,Start,1732210287898,undefined,1433,cherish,abstract-positive,concrete,abstract,B,NULL
1732210824,cdf3b871d7045a44247ef4b914a0c606,PennController,37,0,test_conc,NULL,PennController,48,_Header_,End,1732210288152,undefined,1433,cherish,abstract-positive,concrete,abstract,B,NULL
1732210824,cdf3b871d7045a44247ef4b914a0c606,PennController,37,0,test_conc,NULL,Selector,unnamed-Selector,Selection,abstract,1732210290089,undefined,1433,cherish,abstract-positive,concrete,abstract,B,concrete;abstract
1732210824,cdf3b871d7045a44247ef4b914a0c606,PennController,37,0,test_conc,NULL,PennController,48,_Trial_,End,1732210290093,undefined,1433,cherish,abstract-positive,concrete,abstract,B,NULL
1732210824,cdf3b871d7045a44247ef4b914a0c606,PennController,29,0,test_conc,NULL,PennController,40,_Trial_,Start,1732210290096,undefined,1475,obsess,abstract-negative,concrete,abstract,B,NULL
1732210824,cdf3b871d7045a44247ef4b914a0c606,PennController,29,0,test_conc,NULL,PennController,40,_Header_,Start,1732210290096,undefined,1475,obsess,abstract-negative,concrete,abstract,B,NULL
1732210824,cdf3b871d7045a44247ef4b914a0c606,PennController,29,0,test_conc,NULL,PennController,40,_Header_,End,1732210290350,undefined,1475,obsess,abstract-negative,concrete,abstract,B,NULL
1732210824,cdf3b871d7045a44247ef4b914a0c606,PennController,29,0,test_conc,NULL,Selector,unnamed-Selector,Selection,abstract,1732210292330,undefined,1475,obsess,abstract-negative,concrete,abstract,B,concrete;abstract
1732210824,cdf3b871d7045a44247ef4b914a0c606,PennController,29,0,test_conc,NULL,PennController,40,_Trial_,End,1732210292335,undefined,1475,obsess,abstract-negative,concrete,abstract,B,NULL
1732210824,cdf3b871d7045a44247ef4b914a0c606,PennController,31,0,test_conc,NULL,PennController,42,_Trial_,Start,1732210292337,undefined,1696,scorn,abstract-negative,concrete,abstract,B,NULL
1732210824,cdf3b871d7045a44247ef4b914a0c606,PennController,31,0,test_conc,NULL,PennController,42,_Header_,Start,1732210292337,undefined,1696,scorn,abstract-negative,concrete,abstract,B,NULL
1732210824,cdf3b871d7045a44247ef4b914a0c606,PennController,31,0,test_conc,NULL,PennController,42,_Header_,End,1732210292589,undefined,1696,scorn,abstract-negative,concrete,abstract,B,NULL
1732210824,cdf3b871d7045a44247ef4b914a0c606,PennController,31,0,test_conc,NULL,Selector,unnamed-Selector,Selection,abstract,1732210294787,undefined,1696,scorn,abstract-negative,concrete,abstract,B,concrete;abstract
1732210824,cdf3b871d7045a44247ef4b914a0c606,PennController,31,0,test_conc,NULL,PennController,42,_Trial_,End,1732210294794,undefined,1696,scorn,abstract-negative,concrete,abstract,B,NULL
1732210824,cdf3b871d7045a44247ef4b914a0c606,PennController,11,0,test_conc,NULL,PennController,22,_Trial_,Start,1732210294797,undefined,945,sail,concrete-positive,concrete,abstract,B,NULL
1732210824,cdf3b871d7045a44247ef4b914a0c606,PennController,11,0,test_conc,NULL,PennController,22,_Header_,Start,1732210294797,undefined,945,sail,concrete-positive,concrete,abstract,B,NULL
1732210824,cdf3b871d7045a44247ef4b914a0c606,PennController,11,0,test_conc,NULL,PennController,22,_Header_,End,1732210295050,undefined,945,sail,concrete-positive,concrete,abstract,B,NULL
1732210824,cdf3b871d7045a44247ef4b914a0c606,PennController,11,0,test_conc,NULL,Selector,unnamed-Selector,Selection,concrete,1732210296502,undefined,945,sail,concrete-positive,concrete,abstract,B,concrete;abstract
1732210824,cdf3b871d7045a44247ef4b914a0c606,PennController,11,0,test_conc,NULL,PennController,22,_Trial_,End,1732210296506,undefined,945,sail,concrete-positive,concrete,abstract,B,NULL
1732210824,cdf3b871d7045a44247ef4b914a0c606,PennController,5,0,test_conc,NULL,PennController,16,_Trial_,Start,1732210296508,undefined,1348,cook,concrete-positive,concrete,abstract,B,NULL
1732210824,cdf3b871d7045a44247ef4b914a0c606,PennController,5,0,test_conc,NULL,PennController,16,_Header_,Start,1732210296508,undefined,1348,cook,concrete-positive,concrete,abstract,B,NULL
1732210824,cdf3b871d7045a44247ef4b914a0c606,PennController,5,0,test_conc,NULL,PennController,16,_Header_,End,1732210296758,undefined,1348,cook,concrete-positive,concrete,abstract,B,NULL
1732210824,cdf3b871d7045a44247ef4b914a0c606,PennController,5,0,test_conc,NULL,Selector,unnamed-Selector,Selection,concrete,1732210298612,undefined,1348,cook,concrete-positive,concrete,abstract,B,concrete;abstract
1732210824,cdf3b871d7045a44247ef4b914a0c606,PennController,5,0,test_conc,NULL,PennController,16,_Trial_,End,1732210298615,undefined,1348,cook,concrete-positive,concrete,abstract,B,NULL
1732210824,cdf3b871d7045a44247ef4b914a0c606,PennController,43,0,test_conc,NULL,PennController,54,_Trial_,Start,1732210298617,undefined,1140,respect,abstract-positive,concrete,abstract,B,NULL
1732210824,cdf3b871d7045a44247ef4b914a0c606,PennController,43,0,test_conc,NULL,PennController,54,_Header_,Start,1732210298617,undefined,1140,respect,abstract-positive,concrete,abstract,B,NULL
1732210824,cdf3b871d7045a44247ef4b914a0c606,PennController,43,0,test_conc,NULL,PennController,54,_Header_,End,1732210298871,undefined,1140,respect,abstract-positive,concrete,abstract,B,NULL
1732210824,cdf3b871d7045a44247ef4b914a0c606,PennController,43,0,test_conc,NULL,Selector,unnamed-Selector,Selection,abstract,1732210300514,undefined,1140,respect,abstract-positive,concrete,abstract,B,concrete;abstract
1732210824,cdf3b871d7045a44247ef4b914a0c606,PennController,43,0,test_conc,NULL,PennController,54,_Trial_,End,1732210300518,undefined,1140,respect,abstract-positive,concrete,abstract,B,NULL
1732210824,cdf3b871d7045a44247ef4b914a0c606,PennController,33,0,test_conc,NULL,PennController,44,_Trial_,Start,1732210300521,undefined,1221,worry,abstract-negative,concrete,abstract,B,NULL
1732210824,cdf3b871d7045a44247ef4b914a0c606,PennController,33,0,test_conc,NULL,PennController,44,_Header_,Start,1732210300521,undefined,1221,worry,abstract-negative,concrete,abstract,B,NULL
1732210824,cdf3b871d7045a44247ef4b914a0c606,PennController,33,0,test_conc,NULL,PennController,44,_Header_,End,1732210300774,undefined,1221,worry,abstract-negative,concrete,abstract,B,NULL
1732210824,cdf3b871d7045a44247ef4b914a0c606,PennController,33,0,test_conc,NULL,Selector,unnamed-Selector,Selection,abstract,1732210302499,undefined,1221,worry,abstract-negative,concrete,abstract,B,concrete;abstract
1732210824,cdf3b871d7045a44247ef4b914a0c606,PennController,33,0,test_conc,NULL,PennController,44,_Trial_,End,1732210302502,undefined,1221,worry,abstract-negative,concrete,abstract,B,NULL
1732210824,cdf3b871d7045a44247ef4b914a0c606,PennController,25,0,test_conc,NULL,PennController,36,_Trial_,Start,1732210302504,undefined,1472,befall,abstract-negative,concrete,abstract,B,NULL
1732210824,cdf3b871d7045a44247ef4b914a0c606,PennController,25,0,test_conc,NULL,PennController,36,_Header_,Start,1732210302504,undefined,1472,befall,abstract-negative,concrete,abstract,B,NULL
1732210824,cdf3b871d7045a44247ef4b914a0c606,PennController,25,0,test_conc,NULL,PennController,36,_Header_,End,1732210302756,undefined,1472,befall,abstract-negative,concrete,abstract,B,NULL
1732210824,cdf3b871d7045a44247ef4b914a0c606,PennController,25,0,test_conc,NULL,Selector,unnamed-Selector,Selection,abstract,1732210304733,undefined,1472,befall,abstract-negative,concrete,abstract,B,concrete;abstract
1732210824,cdf3b871d7045a44247ef4b914a0c606,PennController,25,0,test_conc,NULL,PennController,36,_Trial_,End,1732210304738,undefined,1472,befall,abstract-negative,concrete,abstract,B,NULL
1732210824,cdf3b871d7045a44247ef4b914a0c606,PennController,41,0,test_conc,NULL,PennController,52,_Trial_,Start,1732210304740,undefined,1356,esteem,abstract-positive,concrete,abstract,B,NULL
1732210824,cdf3b871d7045a44247ef4b914a0c606,PennController,41,0,test_conc,NULL,PennController,52,_Header_,Start,1732210304740,undefined,1356,esteem,abstract-positive,concrete,abstract,B,NULL
1732210824,cdf3b871d7045a44247ef4b914a0c606,PennController,41,0,test_conc,NULL,PennController,52,_Header_,End,1732210304994,undefined,1356,esteem,abstract-positive,concrete,abstract,B,NULL
1732210824,cdf3b871d7045a44247ef4b914a0c606,PennController,41,0,test_conc,NULL,Selector,unnamed-Selector,Selection,abstract,1732210306853,undefined,1356,esteem,abstract-positive,concrete,abstract,B,concrete;abstract
1732210824,cdf3b871d7045a44247ef4b914a0c606,PennController,41,0,test_conc,NULL,PennController,52,_Trial_,End,1732210306857,undefined,1356,esteem,abstract-positive,concrete,abstract,B,NULL
1732210824,cdf3b871d7045a44247ef4b914a0c606,PennController,40,0,test_conc,NULL,PennController,51,_Trial_,Start,1732210306859,undefined,1836,fulfill,abstract-positive,concrete,abstract,B,NULL
1732210824,cdf3b871d7045a44247ef4b914a0c606,PennController,40,0,test_conc,NULL,PennController,51,_Header_,Start,1732210306859,undefined,1836,fulfill,abstract-positive,concrete,abstract,B,NULL
1732210824,cdf3b871d7045a44247ef4b914a0c606,PennController,40,0,test_conc,NULL,PennController,51,_Header_,End,1732210307110,undefined,1836,fulfill,abstract-positive,concrete,abstract,B,NULL
1732210824,cdf3b871d7045a44247ef4b914a0c606,PennController,40,0,test_conc,NULL,Selector,unnamed-Selector,Selection,abstract,1732210309448,undefined,1836,fulfill,abstract-positive,concrete,abstract,B,concrete;abstract
1732210824,cdf3b871d7045a44247ef4b914a0c606,PennController,40,0,test_conc,NULL,PennController,51,_Trial_,End,1732210309452,undefined,1836,fulfill,abstract-positive,concrete,abstract,B,NULL
1732210824,cdf3b871d7045a44247ef4b914a0c606,PennController,28,0,test_conc,NULL,PennController,39,_Trial_,Start,1732210309456,undefined,1418,loathe,abstract-negative,concrete,abstract,B,NULL
1732210824,cdf3b871d7045a44247ef4b914a0c606,PennController,28,0,test_conc,NULL,PennController,39,_Header_,Start,1732210309456,undefined,1418,loathe,abstract-negative,concrete,abstract,B,NULL
1732210824,cdf3b871d7045a44247ef4b914a0c606,PennController,28,0,test_conc,NULL,PennController,39,_Header_,End,1732210309710,undefined,1418,loathe,abstract-negative,concrete,abstract,B,NULL
1732210824,cdf3b871d7045a44247ef4b914a0c606,PennController,28,0,test_conc,NULL,Selector,unnamed-Selector,Selection,abstract,1732210311635,undefined,1418,loathe,abstract-negative,concrete,abstract,B,concrete;abstract
1732210824,cdf3b871d7045a44247ef4b914a0c606,PennController,28,0,test_conc,NULL,PennController,39,_Trial_,End,1732210311638,undefined,1418,loathe,abstract-negative,concrete,abstract,B,NULL
1732210824,cdf3b871d7045a44247ef4b914a0c606,PennController,23,0,test_conc,NULL,PennController,34,_Trial_,Start,1732210311641,undefined,1125,vomit,concrete-negative,concrete,abstract,B,NULL
1732210824,cdf3b871d7045a44247ef4b914a0c606,PennController,23,0,test_conc,NULL,PennController,34,_Header_,Start,1732210311641,undefined,1125,vomit,concrete-negative,concrete,abstract,B,NULL
1732210824,cdf3b871d7045a44247ef4b914a0c606,PennController,23,0,test_conc,NULL,PennController,34,_Header_,End,1732210311895,undefined,1125,vomit,concrete-negative,concrete,abstract,B,NULL
1732210824,cdf3b871d7045a44247ef4b914a0c606,PennController,23,0,test_conc,NULL,Selector,unnamed-Selector,Selection,concrete,1732210313525,undefined,1125,vomit,concrete-negative,concrete,abstract,B,concrete;abstract
1732210824,cdf3b871d7045a44247ef4b914a0c606,PennController,23,0,test_conc,NULL,PennController,34,_Trial_,End,1732210313528,undefined,1125,vomit,concrete-negative,concrete,abstract,B,NULL
1732210824,cdf3b871d7045a44247ef4b914a0c606,PennController,32,0,test_conc,NULL,PennController,43,_Trial_,Start,1732210313530,undefined,1683,violate,abstract-negative,concrete,abstract,B,NULL
1732210824,cdf3b871d7045a44247ef4b914a0c606,PennController,32,0,test_conc,NULL,PennController,43,_Header_,Start,1732210313530,undefined,1683,violate,abstract-negative,concrete,abstract,B,NULL
1732210824,cdf3b871d7045a44247ef4b914a0c606,PennController,32,0,test_conc,NULL,PennController,43,_Header_,End,1732210313782,undefined,1683,violate,abstract-negative,concrete,abstract,B,NULL
1732210824,cdf3b871d7045a44247ef4b914a0c606,PennController,32,0,test_conc,NULL,Selector,unnamed-Selector,Selection,abstract,1732210315972,undefined,1683,violate,abstract-negative,concrete,abstract,B,concrete;abstract
1732210824,cdf3b871d7045a44247ef4b914a0c606,PennController,32,0,test_conc,NULL,PennController,43,_Trial_,End,1732210315976,undefined,1683,violate,abstract-negative,concrete,abstract,B,NULL
1732210824,cdf3b871d7045a44247ef4b914a0c606,PennController,35,0,test_conc,NULL,PennController,46,_Trial_,Start,1732210315980,undefined,1385,enlighten,abstract-positive,concrete,abstract,B,NULL
1732210824,cdf3b871d7045a44247ef4b914a0c606,PennController,35,0,test_conc,NULL,PennController,46,_Header_,Start,1732210315980,undefined,1385,enlighten,abstract-positive,concrete,abstract,B,NULL
1732210824,cdf3b871d7045a44247ef4b914a0c606,PennController,35,0,test_conc,NULL,PennController,46,_Header_,End,1732210316232,undefined,1385,enlighten,abstract-positive,concrete,abstract,B,NULL
1732210824,cdf3b871d7045a44247ef4b914a0c606,PennController,35,0,test_conc,NULL,Selector,unnamed-Selector,Selection,abstract,1732210318124,undefined,1385,enlighten,abstract-positive,concrete,abstract,B,concrete;abstract
1732210824,cdf3b871d7045a44247ef4b914a0c606,PennController,35,0,test_conc,NULL,PennController,46,_Trial_,End,1732210318127,undefined,1385,enlighten,abstract-positive,concrete,abstract,B,NULL
1732210824,cdf3b871d7045a44247ef4b914a0c606,PennController,15,0,test_conc,NULL,PennController,26,_Trial_,Start,1732210318129,undefined,1184,kill,concrete-negative,concrete,abstract,B,NULL
1732210824,cdf3b871d7045a44247ef4b914a0c606,PennController,15,0,test_conc,NULL,PennController,26,_Header_,Start,1732210318129,undefined,1184,kill,concrete-negative,concrete,abstract,B,NULL
1732210824,cdf3b871d7045a44247ef4b914a0c606,PennController,15,0,test_conc,NULL,PennController,26,_Header_,End,1732210318383,undefined,1184,kill,concrete-negative,concrete,abstract,B,NULL
1732210824,cdf3b871d7045a44247ef4b914a0c606,PennController,15,0,test_conc,NULL,Selector,unnamed-Selector,Selection,concrete,1732210320074,undefined,1184,kill,concrete-negative,concrete,abstract,B,concrete;abstract
1732210824,cdf3b871d7045a44247ef4b914a0c606,PennController,15,0,test_conc,NULL,PennController,26,_Trial_,End,1732210320078,undefined,1184,kill,concrete-negative,concrete,abstract,B,NULL
1732210824,cdf3b871d7045a44247ef4b914a0c606,PennController,18,0,test_conc,NULL,PennController,29,_Trial_,Start,1732210320081,undefined,1398,scratch,concrete-negative,concrete,abstract,B,NULL
1732210824,cdf3b871d7045a44247ef4b914a0c606,PennController,18,0,test_conc,NULL,PennController,29,_Header_,Start,1732210320081,undefined,1398,scratch,concrete-negative,concrete,abstract,B,NULL
1732210824,cdf3b871d7045a44247ef4b914a0c606,PennController,18,0,test_conc,NULL,PennController,29,_Header_,End,1732210320331,undefined,1398,scratch,concrete-negative,concrete,abstract,B,NULL
1732210824,cdf3b871d7045a44247ef4b914a0c606,PennController,18,0,test_conc,NULL,Selector,unnamed-Selector,Selection,concrete,1732210322235,undefined,1398,scratch,concrete-negative,concrete,abstract,B,concrete;abstract
1732210824,cdf3b871d7045a44247ef4b914a0c606,PennController,18,0,test_conc,NULL,PennController,29,_Trial_,End,1732210322239,undefined,1398,scratch,concrete-negative,concrete,abstract,B,NULL
1732210824,cdf3b871d7045a44247ef4b914a0c606,PennController,38,0,test_conc,NULL,PennController,49,_Trial_,Start,1732210322241,undefined,1923,hope,abstract-positive,concrete,abstract,B,NULL
1732210824,cdf3b871d7045a44247ef4b914a0c606,PennController,38,0,test_conc,NULL,PennController,49,_Header_,Start,1732210322241,undefined,1923,hope,abstract-positive,concrete,abstract,B,NULL
1732210824,cdf3b871d7045a44247ef4b914a0c606,PennController,38,0,test_conc,NULL,PennController,49,_Header_,End,1732210322495,undefined,1923,hope,abstract-positive,concrete,abstract,B,NULL
1732210824,cdf3b871d7045a44247ef4b914a0c606,PennController,38,0,test_conc,NULL,Selector,unnamed-Selector,Selection,abstract,1732210324920,undefined,1923,hope,abstract-positive,concrete,abstract,B,concrete;abstract
1732210824,cdf3b871d7045a44247ef4b914a0c606,PennController,38,0,test_conc,NULL,PennController,49,_Trial_,End,1732210324925,undefined,1923,hope,abstract-positive,concrete,abstract,B,NULL
1732210824,cdf3b871d7045a44247ef4b914a0c606,PennController,42,0,test_conc,NULL,PennController,53,_Trial_,Start,1732210324928,undefined,3068,justify,abstract-positive,concrete,abstract,B,NULL
1732210824,cdf3b871d7045a44247ef4b914a0c606,PennController,42,0,test_conc,NULL,PennController,53,_Header_,Start,1732210324928,undefined,3068,justify,abstract-positive,concrete,abstract,B,NULL
1732210824,cdf3b871d7045a44247ef4b914a0c606,PennController,42,0,test_conc,NULL,PennController,53,_Header_,End,1732210325180,undefined,3068,justify,abstract-positive,concrete,abstract,B,NULL
1732210824,cdf3b871d7045a44247ef4b914a0c606,PennController,42,0,test_conc,NULL,Selector,unnamed-Selector,Selection,abstract,1732210328754,undefined,3068,justify,abstract-positive,concrete,abstract,B,concrete;abstract
1732210824,cdf3b871d7045a44247ef4b914a0c606,PennController,42,0,test_conc,NULL,PennController,53,_Trial_,End,1732210328757,undefined,3068,justify,abstract-positive,concrete,abstract,B,NULL
1732210824,cdf3b871d7045a44247ef4b914a0c606,PennController,16,0,test_conc,NULL,PennController,27,_Trial_,Start,1732210328759,undefined,1180,murder,concrete-negative,concrete,abstract,B,NULL
1732210824,cdf3b871d7045a44247ef4b914a0c606,PennController,16,0,test_conc,NULL,PennController,27,_Header_,Start,1732210328759,undefined,1180,murder,concrete-negative,concrete,abstract,B,NULL
1732210824,cdf3b871d7045a44247ef4b914a0c606,PennController,16,0,test_conc,NULL,PennController,27,_Header_,End,1732210329012,undefined,1180,murder,concrete-negative,concrete,abstract,B,NULL
1732210824,cdf3b871d7045a44247ef4b914a0c606,PennController,16,0,test_conc,NULL,Selector,unnamed-Selector,Selection,concrete,1732210330699,undefined,1180,murder,concrete-negative,concrete,abstract,B,concrete;abstract
1732210824,cdf3b871d7045a44247ef4b914a0c606,PennController,16,0,test_conc,NULL,PennController,27,_Trial_,End,1732210330703,undefined,1180,murder,concrete-negative,concrete,abstract,B,NULL
1732210824,cdf3b871d7045a44247ef4b914a0c606,PennController,17,0,test_conc,NULL,PennController,28,_Trial_,Start,1732210330705,undefined,1015,puke,concrete-negative,concrete,abstract,B,NULL
1732210824,cdf3b871d7045a44247ef4b914a0c606,PennController,17,0,test_conc,NULL,PennController,28,_Header_,Start,1732210330705,undefined,1015,puke,concrete-negative,concrete,abstract,B,NULL
1732210824,cdf3b871d7045a44247ef4b914a0c606,PennController,17,0,test_conc,NULL,PennController,28,_Header_,End,1732210330959,undefined,1015,puke,concrete-negative,concrete,abstract,B,NULL
1732210824,cdf3b871d7045a44247ef4b914a0c606,PennController,17,0,test_conc,NULL,Selector,unnamed-Selector,Selection,concrete,1732210332480,undefined,1015,puke,concrete-negative,concrete,abstract,B,concrete;abstract
1732210824,cdf3b871d7045a44247ef4b914a0c606,PennController,17,0,test_conc,NULL,PennController,28,_Trial_,End,1732210332483,undefined,1015,puke,concrete-negative,concrete,abstract,B,NULL
1732210824,cdf3b871d7045a44247ef4b914a0c606,PennController,13,0,test_conc,NULL,PennController,24,_Trial_,Start,1732210332485,undefined,1578,swing,concrete-positive,concrete,abstract,B,NULL
1732210824,cdf3b871d7045a44247ef4b914a0c606,PennController,13,0,test_conc,NULL,PennController,24,_Header_,Start,1732210332485,undefined,1578,swing,concrete-positive,concrete,abstract,B,NULL
1732210824,cdf3b871d7045a44247ef4b914a0c606,PennController,13,0,test_conc,NULL,PennController,24,_Header_,End,1732210332736,undefined,1578,swing,concrete-positive,concrete,abstract,B,NULL
1732210824,cdf3b871d7045a44247ef4b914a0c606,PennController,13,0,test_conc,NULL,Selector,unnamed-Selector,Selection,concrete,1732210334817,undefined,1578,swing,concrete-positive,concrete,abstract,B,concrete;abstract
1732210824,cdf3b871d7045a44247ef4b914a0c606,PennController,13,0,test_conc,NULL,PennController,24,_Trial_,End,1732210334820,undefined,1578,swing,concrete-positive,concrete,abstract,B,NULL
1732210824,cdf3b871d7045a44247ef4b914a0c606,PennController,9,0,test_conc,NULL,PennController,20,_Trial_,Start,1732210334822,undefined,1091,kiss,concrete-positive,concrete,abstract,B,NULL
1732210824,cdf3b871d7045a44247ef4b914a0c606,PennController,9,0,test_conc,NULL,PennController,20,_Header_,Start,1732210334822,undefined,1091,kiss,concrete-positive,concrete,abstract,B,NULL
1732210824,cdf3b871d7045a44247ef4b914a0c606,PennController,9,0,test_conc,NULL,PennController,20,_Header_,End,1732210335076,undefined,1091,kiss,concrete-positive,concrete,abstract,B,NULL
1732210824,cdf3b871d7045a44247ef4b914a0c606,PennController,9,0,test_conc,NULL,Selector,unnamed-Selector,Selection,concrete,1732210336670,undefined,1091,kiss,concrete-positive,concrete,abstract,B,concrete;abstract
1732210824,cdf3b871d7045a44247ef4b914a0c606,PennController,9,0,test_conc,NULL,PennController,20,_Trial_,End,1732210336675,undefined,1091,kiss,concrete-positive,concrete,abstract,B,NULL
1732210824,cdf3b871d7045a44247ef4b914a0c606,PennController,14,0,test_conc,NULL,PennController,25,_Trial_,Start,1732210336677,undefined,1098,bleed,concrete-negative,concrete,abstract,B,NULL
1732210824,cdf3b871d7045a44247ef4b914a0c606,PennController,14,0,test_conc,NULL,PennController,25,_Header_,Start,1732210336677,undefined,1098,bleed,concrete-negative,concrete,abstract,B,NULL
1732210824,cdf3b871d7045a44247ef4b914a0c606,PennController,14,0,test_conc,NULL,PennController,25,_Header_,End,1732210336932,undefined,1098,bleed,concrete-negative,concrete,abstract,B,NULL
1732210824,cdf3b871d7045a44247ef4b914a0c606,PennController,14,0,test_conc,NULL,Selector,unnamed-Selector,Selection,concrete,1732210338536,undefined,1098,bleed,concrete-negative,concrete,abstract,B,concrete;abstract
1732210824,cdf3b871d7045a44247ef4b914a0c606,PennController,14,0,test_conc,NULL,PennController,25,_Trial_,End,1732210338540,undefined,1098,bleed,concrete-negative,concrete,abstract,B,NULL
1732210824,cdf3b871d7045a44247ef4b914a0c606,PennController,20,0,test_conc,NULL,PennController,31,_Trial_,Start,1732210338542,undefined,1127,smack,concrete-negative,concrete,abstract,B,NULL
1732210824,cdf3b871d7045a44247ef4b914a0c606,PennController,20,0,test_conc,NULL,PennController,31,_Header_,Start,1732210338542,undefined,1127,smack,concrete-negative,concrete,abstract,B,NULL
1732210824,cdf3b871d7045a44247ef4b914a0c606,PennController,20,0,test_conc,NULL,PennController,31,_Header_,End,1732210338794,undefined,1127,smack,concrete-negative,concrete,abstract,B,NULL
1732210824,cdf3b871d7045a44247ef4b914a0c606,PennController,20,0,test_conc,NULL,Selector,unnamed-Selector,Selection,concrete,1732210340427,undefined,1127,smack,concrete-negative,concrete,abstract,B,concrete;abstract
1732210824,cdf3b871d7045a44247ef4b914a0c606,PennController,20,0,test_conc,NULL,PennController,31,_Trial_,End,1732210340430,undefined,1127,smack,concrete-negative,concrete,abstract,B,NULL
1732210824,cdf3b871d7045a44247ef4b914a0c606,PennController,24,0,test_conc,NULL,PennController,35,_Trial_,Start,1732210340433,undefined,1983,annoy,abstract-negative,concrete,abstract,B,NULL
1732210824,cdf3b871d7045a44247ef4b914a0c606,PennController,24,0,test_conc,NULL,PennController,35,_Header_,Start,1732210340433,undefined,1983,annoy,abstract-negative,concrete,abstract,B,NULL
1732210824,cdf3b871d7045a44247ef4b914a0c606,PennController,24,0,test_conc,NULL,PennController,35,_Header_,End,1732210340686,undefined,1983,annoy,abstract-negative,concrete,abstract,B,NULL
1732210824,cdf3b871d7045a44247ef4b914a0c606,PennController,24,0,test_conc,NULL,Selector,unnamed-Selector,Selection,abstract,1732210343172,undefined,1983,annoy,abstract-negative,concrete,abstract,B,concrete;abstract
1732210824,cdf3b871d7045a44247ef4b914a0c606,PennController,24,0,test_conc,NULL,PennController,35,_Trial_,End,1732210343176,undefined,1983,annoy,abstract-negative,concrete,abstract,B,NULL
1732210824,cdf3b871d7045a44247ef4b914a0c606,PennController,30,0,test_conc,NULL,PennController,41,_Trial_,Start,1732210343178,undefined,1280,resent,abstract-negative,concrete,abstract,B,NULL
1732210824,cdf3b871d7045a44247ef4b914a0c606,PennController,30,0,test_conc,NULL,PennController,41,_Header_,Start,1732210343178,undefined,1280,resent,abstract-negative,concrete,abstract,B,NULL
1732210824,cdf3b871d7045a44247ef4b914a0c606,PennController,30,0,test_conc,NULL,PennController,41,_Header_,End,1732210343432,undefined,1280,resent,abstract-negative,concrete,abstract,B,NULL
1732210824,cdf3b871d7045a44247ef4b914a0c606,PennController,30,0,test_conc,NULL,Selector,unnamed-Selector,Selection,abstract,1732210345217,undefined,1280,resent,abstract-negative,concrete,abstract,B,concrete;abstract
1732210824,cdf3b871d7045a44247ef4b914a0c606,PennController,30,0,test_conc,NULL,PennController,41,_Trial_,End,1732210345222,undefined,1280,resent,abstract-negative,concrete,abstract,B,NULL
1732210824,cdf3b871d7045a44247ef4b914a0c606,PennController,26,0,test_conc,NULL,PennController,37,_Trial_,Start,1732210345224,undefined,1318,criticize,abstract-negative,concrete,abstract,B,NULL
1732210824,cdf3b871d7045a44247ef4b914a0c606,PennController,26,0,test_conc,NULL,PennController,37,_Header_,Start,1732210345224,undefined,1318,criticize,abstract-negative,concrete,abstract,B,NULL
1732210824,cdf3b871d7045a44247ef4b914a0c606,PennController,26,0,test_conc,NULL,PennController,37,_Header_,End,1732210345476,undefined,1318,criticize,abstract-negative,concrete,abstract,B,NULL
1732210824,cdf3b871d7045a44247ef4b914a0c606,PennController,26,0,test_conc,NULL,Selector,unnamed-Selector,Selection,abstract,1732210347300,undefined,1318,criticize,abstract-negative,concrete,abstract,B,concrete;abstract
1732210824,cdf3b871d7045a44247ef4b914a0c606,PennController,26,0,test_conc,NULL,PennController,37,_Trial_,End,1732210347303,undefined,1318,criticize,abstract-negative,concrete,abstract,B,NULL
1732210824,cdf3b871d7045a44247ef4b914a0c606,PennController,16,0,test_conc,NULL,PennController,27,_Trial_,Start,1732210347305,undefined,1084,murder,concrete-negative,concrete,abstract,B,NULL
1732210824,cdf3b871d7045a44247ef4b914a0c606,PennController,16,0,test_conc,NULL,PennController,27,_Header_,Start,1732210347305,undefined,1084,murder,concrete-negative,concrete,abstract,B,NULL
1732210824,cdf3b871d7045a44247ef4b914a0c606,PennController,16,0,test_conc,NULL,PennController,27,_Header_,End,1732210347558,undefined,1084,murder,concrete-negative,concrete,abstract,B,NULL
1732210824,cdf3b871d7045a44247ef4b914a0c606,PennController,16,0,test_conc,NULL,Selector,unnamed-Selector,Selection,concrete,1732210349152,undefined,1084,murder,concrete-negative,concrete,abstract,B,concrete;abstract
1732210824,cdf3b871d7045a44247ef4b914a0c606,PennController,16,0,test_conc,NULL,PennController,27,_Trial_,End,1732210349155,undefined,1084,murder,concrete-negative,concrete,abstract,B,NULL
1732210824,cdf3b871d7045a44247ef4b914a0c606,PennController,28,0,test_conc,NULL,PennController,39,_Trial_,Start,1732210349158,undefined,971,loathe,abstract-negative,concrete,abstract,B,NULL
1732210824,cdf3b871d7045a44247ef4b914a0c606,PennController,28,0,test_conc,NULL,PennController,39,_Header_,Start,1732210349158,undefined,971,loathe,abstract-negative,concrete,abstract,B,NULL
1732210824,cdf3b871d7045a44247ef4b914a0c606,PennController,28,0,test_conc,NULL,PennController,39,_Header_,End,1732210349411,undefined,971,loathe,abstract-negative,concrete,abstract,B,NULL
1732210824,cdf3b871d7045a44247ef4b914a0c606,PennController,28,0,test_conc,NULL,Selector,unnamed-Selector,Selection,abstract,1732210350889,undefined,971,loathe,abstract-negative,concrete,abstract,B,concrete;abstract
1732210824,cdf3b871d7045a44247ef4b914a0c606,PennController,28,0,test_conc,NULL,PennController,39,_Trial_,End,1732210350893,undefined,971,loathe,abstract-negative,concrete,abstract,B,NULL
1732210824,cdf3b871d7045a44247ef4b914a0c606,PennController,9,0,test_conc,NULL,PennController,20,_Trial_,Start,1732210350896,undefined,1135,kiss,concrete-positive,concrete,abstract,B,NULL
1732210824,cdf3b871d7045a44247ef4b914a0c606,PennController,9,0,test_conc,NULL,PennController,20,_Header_,Start,1732210350896,undefined,1135,kiss,concrete-positive,concrete,abstract,B,NULL
1732210824,cdf3b871d7045a44247ef4b914a0c606,PennController,9,0,test_conc,NULL,PennController,20,_Header_,End,1732210351150,undefined,1135,kiss,concrete-positive,concrete,abstract,B,NULL
1732210824,cdf3b871d7045a44247ef4b914a0c606,PennController,9,0,test_conc,NULL,Selector,unnamed-Selector,Selection,concrete,1732210352790,undefined,1135,kiss,concrete-positive,concrete,abstract,B,concrete;abstract
1732210824,cdf3b871d7045a44247ef4b914a0c606,PennController,9,0,test_conc,NULL,PennController,20,_Trial_,End,1732210352793,undefined,1135,kiss,concrete-positive,concrete,abstract,B,NULL
1732210824,cdf3b871d7045a44247ef4b914a0c606,PennController,38,0,test_conc,NULL,PennController,49,_Trial_,Start,1732210352795,undefined,1086,hope,abstract-positive,concrete,abstract,B,NULL
1732210824,cdf3b871d7045a44247ef4b914a0c606,PennController,38,0,test_conc,NULL,PennController,49,_Header_,Start,1732210352795,undefined,1086,hope,abstract-positive,concrete,abstract,B,NULL
1732210824,cdf3b871d7045a44247ef4b914a0c606,PennController,38,0,test_conc,NULL,PennController,49,_Header_,End,1732210353049,undefined,1086,hope,abstract-positive,concrete,abstract,B,NULL
1732210824,cdf3b871d7045a44247ef4b914a0c606,PennController,38,0,test_conc,NULL,Selector,unnamed-Selector,Selection,abstract,1732210354641,undefined,1086,hope,abstract-positive,concrete,abstract,B,concrete;abstract
1732210824,cdf3b871d7045a44247ef4b914a0c606,PennController,38,0,test_conc,NULL,PennController,49,_Trial_,End,1732210354643,undefined,1086,hope,abstract-positive,concrete,abstract,B,NULL
1732210824,cdf3b871d7045a44247ef4b914a0c606,PennController,29,0,test_conc,NULL,PennController,40,_Trial_,Start,1732210354646,undefined,1004,obsess,abstract-negative,concrete,abstract,B,NULL
1732210824,cdf3b871d7045a44247ef4b914a0c606,PennController,29,0,test_conc,NULL,PennController,40,_Header_,Start,1732210354646,undefined,1004,obsess,abstract-negative,concrete,abstract,B,NULL
1732210824,cdf3b871d7045a44247ef4b914a0c606,PennController,29,0,test_conc,NULL,PennController,40,_Header_,End,1732210354899,undefined,1004,obsess,abstract-negative,concrete,abstract,B,NULL
1732210824,cdf3b871d7045a44247ef4b914a0c606,PennController,29,0,test_conc,NULL,Selector,unnamed-Selector,Selection,abstract,1732210356407,undefined,1004,obsess,abstract-negative,concrete,abstract,B,concrete;abstract
1732210824,cdf3b871d7045a44247ef4b914a0c606,PennController,29,0,test_conc,NULL,PennController,40,_Trial_,End,1732210356410,undefined,1004,obsess,abstract-negative,concrete,abstract,B,NULL
1732210824,cdf3b871d7045a44247ef4b914a0c606,PennController,6,0,test_conc,NULL,PennController,17,_Trial_,Start,1732210356413,undefined,912,cuddle,concrete-positive,concrete,abstract,B,NULL
1732210824,cdf3b871d7045a44247ef4b914a0c606,PennController,6,0,test_conc,NULL,PennController,17,_Header_,Start,1732210356413,undefined,912,cuddle,concrete-positive,concrete,abstract,B,NULL
1732210824,cdf3b871d7045a44247ef4b914a0c606,PennController,6,0,test_conc,NULL,PennController,17,_Header_,End,1732210356664,undefined,912,cuddle,concrete-positive,concrete,abstract,B,NULL
1732210824,cdf3b871d7045a44247ef4b914a0c606,PennController,6,0,test_conc,NULL,Selector,unnamed-Selector,Selection,concrete,1732210358083,undefined,912,cuddle,concrete-positive,concrete,abstract,B,concrete;abstract
1732210824,cdf3b871d7045a44247ef4b914a0c606,PennController,6,0,test_conc,NULL,PennController,17,_Trial_,End,1732210358086,undefined,912,cuddle,concrete-positive,concrete,abstract,B,NULL
1732210824,cdf3b871d7045a44247ef4b914a0c606,PennController,4,0,test_conc,NULL,PennController,15,_Trial_,Start,1732210358088,undefined,1012,build,concrete-positive,concrete,abstract,B,NULL
1732210824,cdf3b871d7045a44247ef4b914a0c606,PennController,4,0,test_conc,NULL,PennController,15,_Header_,Start,1732210358088,undefined,1012,build,concrete-positive,concrete,abstract,B,NULL
1732210824,cdf3b871d7045a44247ef4b914a0c606,PennController,4,0,test_conc,NULL,PennController,15,_Header_,End,1732210358340,undefined,1012,build,concrete-positive,concrete,abstract,B,NULL
1732210824,cdf3b871d7045a44247ef4b914a0c606,PennController,4,0,test_conc,NULL,Selector,unnamed-Selector,Selection,concrete,1732210359857,undefined,1012,build,concrete-positive,concrete,abstract,B,concrete;abstract
1732210824,cdf3b871d7045a44247ef4b914a0c606,PennController,4,0,test_conc,NULL,PennController,15,_Trial_,End,1732210359860,undefined,1012,build,concrete-positive,concrete,abstract,B,NULL
1732210824,cdf3b871d7045a44247ef4b914a0c606,PennController,20,0,test_conc,NULL,PennController,31,_Trial_,Start,1732210359862,undefined,842,smack,concrete-negative,concrete,abstract,B,NULL
1732210824,cdf3b871d7045a44247ef4b914a0c606,PennController,20,0,test_conc,NULL,PennController,31,_Header_,Start,1732210359862,undefined,842,smack,concrete-negative,concrete,abstract,B,NULL
1732210824,cdf3b871d7045a44247ef4b914a0c606,PennController,20,0,test_conc,NULL,PennController,31,_Header_,End,1732210360115,undefined,842,smack,concrete-negative,concrete,abstract,B,NULL
1732210824,cdf3b871d7045a44247ef4b914a0c606,PennController,20,0,test_conc,NULL,Selector,unnamed-Selector,Selection,concrete,1732210361462,undefined,842,smack,concrete-negative,concrete,abstract,B,concrete;abstract
1732210824,cdf3b871d7045a44247ef4b914a0c606,PennController,20,0,test_conc,NULL,PennController,31,_Trial_,End,1732210361465,undefined,842,smack,concrete-negative,concrete,abstract,B,NULL
1732210824,cdf3b871d7045a44247ef4b914a0c606,PennController,23,0,test_conc,NULL,PennController,34,_Trial_,Start,1732210361468,undefined,811,vomit,concrete-negative,concrete,abstract,B,NULL
1732210824,cdf3b871d7045a44247ef4b914a0c606,PennController,23,0,test_conc,NULL,PennController,34,_Header_,Start,1732210361468,undefined,811,vomit,concrete-negative,concrete,abstract,B,NULL
1732210824,cdf3b871d7045a44247ef4b914a0c606,PennController,23,0,test_conc,NULL,PennController,34,_Header_,End,1732210361721,undefined,811,vomit,concrete-negative,concrete,abstract,B,NULL
1732210824,cdf3b871d7045a44247ef4b914a0c606,PennController,23,0,test_conc,NULL,Selector,unnamed-Selector,Selection,concrete,1732210363035,undefined,811,vomit,concrete-negative,concrete,abstract,B,concrete;abstract
1732210824,cdf3b871d7045a44247ef4b914a0c606,PennController,23,0,test_conc,NULL,PennController,34,_Trial_,End,1732210363038,undefined,811,vomit,concrete-negative,concrete,abstract,B,NULL
1732210824,cdf3b871d7045a44247ef4b914a0c606,PennController,30,0,test_conc,NULL,PennController,41,_Trial_,Start,1732210363040,undefined,1019,resent,abstract-negative,concrete,abstract,B,NULL
1732210824,cdf3b871d7045a44247ef4b914a0c606,PennController,30,0,test_conc,NULL,PennController,41,_Header_,Start,1732210363040,undefined,1019,resent,abstract-negative,concrete,abstract,B,NULL
1732210824,cdf3b871d7045a44247ef4b914a0c606,PennController,30,0,test_conc,NULL,PennController,41,_Header_,End,1732210363291,undefined,1019,resent,abstract-negative,concrete,abstract,B,NULL
1732210824,cdf3b871d7045a44247ef4b914a0c606,PennController,30,0,test_conc,NULL,Selector,unnamed-Selector,Selection,abstract,1732210364812,undefined,1019,resent,abstract-negative,concrete,abstract,B,concrete;abstract
1732210824,cdf3b871d7045a44247ef4b914a0c606,PennController,30,0,test_conc,NULL,PennController,41,_Trial_,End,1732210364817,undefined,1019,resent,abstract-negative,concrete,abstract,B,NULL
1732210824,cdf3b871d7045a44247ef4b914a0c606,PennController,40,0,test_conc,NULL,PennController,51,_Trial_,Start,1732210364819,undefined,952,fulfill,abstract-positive,concrete,abstract,B,NULL
1732210824,cdf3b871d7045a44247ef4b914a0c606,PennController,40,0,test_conc,NULL,PennController,51,_Header_,Start,1732210364819,undefined,952,fulfill,abstract-positive,concrete,abstract,B,NULL
1732210824,cdf3b871d7045a44247ef4b914a0c606,PennController,40,0,test_conc,NULL,PennController,51,_Header_,End,1732210365069,undefined,952,fulfill,abstract-positive,concrete,abstract,B,NULL
1732210824,cdf3b871d7045a44247ef4b914a0c606,PennController,40,0,test_conc,NULL,Selector,unnamed-Selector,Selection,abstract,1732210366525,undefined,952,fulfill,abstract-positive,concrete,abstract,B,concrete;abstract
1732210824,cdf3b871d7045a44247ef4b914a0c606,PennController,40,0,test_conc,NULL,PennController,51,_Trial_,End,1732210366528,undefined,952,fulfill,abstract-positive,concrete,abstract,B,NULL
1732210824,cdf3b871d7045a44247ef4b914a0c606,PennController,42,0,test_conc,NULL,PennController,53,_Trial_,Start,1732210366531,undefined,980,justify,abstract-positive,concrete,abstract,B,NULL
1732210824,cdf3b871d7045a44247ef4b914a0c606,PennController,42,0,test_conc,NULL,PennController,53,_Header_,Start,1732210366531,undefined,980,justify,abstract-positive,concrete,abstract,B,NULL
1732210824,cdf3b871d7045a44247ef4b914a0c606,PennController,42,0,test_conc,NULL,PennController,53,_Header_,End,1732210366784,undefined,980,justify,abstract-positive,concrete,abstract,B,NULL
1732210824,cdf3b871d7045a44247ef4b914a0c606,PennController,42,0,test_conc,NULL,Selector,unnamed-Selector,Selection,abstract,1732210368267,undefined,980,justify,abstract-positive,concrete,abstract,B,concrete;abstract
1732210824,cdf3b871d7045a44247ef4b914a0c606,PennController,42,0,test_conc,NULL,PennController,53,_Trial_,End,1732210368270,undefined,980,justify,abstract-positive,concrete,abstract,B,NULL
1732210824,cdf3b871d7045a44247ef4b914a0c606,PennController,26,0,test_conc,NULL,PennController,37,_Trial_,Start,1732210368272,undefined,932,criticize,abstract-negative,concrete,abstract,B,NULL
1732210824,cdf3b871d7045a44247ef4b914a0c606,PennController,26,0,test_conc,NULL,PennController,37,_Header_,Start,1732210368272,undefined,932,criticize,abstract-negative,concrete,abstract,B,NULL
1732210824,cdf3b871d7045a44247ef4b914a0c606,PennController,26,0,test_conc,NULL,PennController,37,_Header_,End,1732210368522,undefined,932,criticize,abstract-negative,concrete,abstract,B,NULL
1732210824,cdf3b871d7045a44247ef4b914a0c606,PennController,26,0,test_conc,NULL,Selector,unnamed-Selector,Selection,abstract,1732210369957,undefined,932,criticize,abstract-negative,concrete,abstract,B,concrete;abstract
1732210824,cdf3b871d7045a44247ef4b914a0c606,PennController,26,0,test_conc,NULL,PennController,37,_Trial_,End,1732210369961,undefined,932,criticize,abstract-negative,concrete,abstract,B,NULL
1732210824,cdf3b871d7045a44247ef4b914a0c606,PennController,21,0,test_conc,NULL,PennController,32,_Trial_,Start,1732210369964,undefined,853,spit,concrete-negative,concrete,abstract,B,NULL
1732210824,cdf3b871d7045a44247ef4b914a0c606,PennController,21,0,test_conc,NULL,PennController,32,_Header_,Start,1732210369964,undefined,853,spit,concrete-negative,concrete,abstract,B,NULL
1732210824,cdf3b871d7045a44247ef4b914a0c606,PennController,21,0,test_conc,NULL,PennController,32,_Header_,End,1732210370217,undefined,853,spit,concrete-negative,concrete,abstract,B,NULL
1732210824,cdf3b871d7045a44247ef4b914a0c606,PennController,21,0,test_conc,NULL,Selector,unnamed-Selector,Selection,concrete,1732210371574,undefined,853,spit,concrete-negative,concrete,abstract,B,concrete;abstract
1732210824,cdf3b871d7045a44247ef4b914a0c606,PennController,21,0,test_conc,NULL,PennController,32,_Trial_,End,1732210371579,undefined,853,spit,concrete-negative,concrete,abstract,B,NULL
1732210824,cdf3b871d7045a44247ef4b914a0c606,PennController,36,0,test_conc,NULL,PennController,47,_Trial_,Start,1732210371581,undefined,1001,admired,abstract-positive,concrete,abstract,B,NULL
1732210824,cdf3b871d7045a44247ef4b914a0c606,PennController,36,0,test_conc,NULL,PennController,47,_Header_,Start,1732210371581,undefined,1001,admired,abstract-positive,concrete,abstract,B,NULL
1732210824,cdf3b871d7045a44247ef4b914a0c606,PennController,36,0,test_conc,NULL,PennController,47,_Header_,End,1732210371834,undefined,1001,admired,abstract-positive,concrete,abstract,B,NULL
1732210824,cdf3b871d7045a44247ef4b914a0c606,PennController,36,0,test_conc,NULL,Selector,unnamed-Selector,Selection,abstract,1732210373343,undefined,1001,admired,abstract-positive,concrete,abstract,B,concrete;abstract
1732210824,cdf3b871d7045a44247ef4b914a0c606,PennController,36,0,test_conc,NULL,PennController,47,_Trial_,End,1732210373347,undefined,1001,admired,abstract-positive,concrete,abstract,B,NULL
1732210824,cdf3b871d7045a44247ef4b914a0c606,PennController,33,0,test_conc,NULL,PennController,44,_Trial_,Start,1732210373350,undefined,1426,worry,abstract-negative,concrete,abstract,B,NULL
1732210824,cdf3b871d7045a44247ef4b914a0c606,PennController,33,0,test_conc,NULL,PennController,44,_Header_,Start,1732210373350,undefined,1426,worry,abstract-negative,concrete,abstract,B,NULL
1732210824,cdf3b871d7045a44247ef4b914a0c606,PennController,33,0,test_conc,NULL,PennController,44,_Header_,End,1732210373601,undefined,1426,worry,abstract-negative,concrete,abstract,B,NULL
1732210824,cdf3b871d7045a44247ef4b914a0c606,PennController,33,0,test_conc,NULL,Selector,unnamed-Selector,Selection,abstract,1732210375535,undefined,1426,worry,abstract-negative,concrete,abstract,B,concrete;abstract
1732210824,cdf3b871d7045a44247ef4b914a0c606,PennController,33,0,test_conc,NULL,PennController,44,_Trial_,End,1732210375538,undefined,1426,worry,abstract-negative,concrete,abstract,B,NULL
1732210824,cdf3b871d7045a44247ef4b914a0c606,PennController,22,0,test_conc,NULL,PennController,33,_Trial_,Start,1732210375540,undefined,818,stab,concrete-negative,concrete,abstract,B,NULL
1732210824,cdf3b871d7045a44247ef4b914a0c606,PennController,22,0,test_conc,NULL,PennController,33,_Header_,Start,1732210375540,undefined,818,stab,concrete-negative,concrete,abstract,B,NULL
1732210824,cdf3b871d7045a44247ef4b914a0c606,PennController,22,0,test_conc,NULL,PennController,33,_Header_,End,1732210375794,undefined,818,stab,concrete-negative,concrete,abstract,B,NULL
1732210824,cdf3b871d7045a44247ef4b914a0c606,PennController,22,0,test_conc,NULL,Selector,unnamed-Selector,Selection,concrete,1732210377119,undefined,818,stab,concrete-negative,concrete,abstract,B,concrete;abstract
1732210824,cdf3b871d7045a44247ef4b914a0c606,PennController,22,0,test_conc,NULL,PennController,33,_Trial_,End,1732210377120,undefined,818,stab,concrete-negative,concrete,abstract,B,NULL
1732210824,cdf3b871d7045a44247ef4b914a0c606,PennController,8,0,test_conc,NULL,PennController,19,_Trial_,Start,1732210377121,undefined,795,hug,concrete-positive,concrete,abstract,B,NULL
1732210824,cdf3b871d7045a44247ef4b914a0c606,PennController,8,0,test_conc,NULL,PennController,19,_Header_,Start,1732210377121,undefined,795,hug,concrete-positive,concrete,abstract,B,NULL
1732210824,cdf3b871d7045a44247ef4b914a0c606,PennController,8,0,test_conc,NULL,PennController,19,_Header_,End,1732210377374,undefined,795,hug,concrete-positive,concrete,abstract,B,NULL
1732210824,cdf3b871d7045a44247ef4b914a0c606,PennController,8,0,test_conc,NULL,Selector,unnamed-Selector,Selection,concrete,1732210378674,undefined,795,hug,concrete-positive,concrete,abstract,B,concrete;abstract
1732210824,cdf3b871d7045a44247ef4b914a0c606,PennController,8,0,test_conc,NULL,PennController,19,_Trial_,End,1732210378677,undefined,795,hug,concrete-positive,concrete,abstract,B,NULL
1732210824,cdf3b871d7045a44247ef4b914a0c606,PennController,32,0,test_conc,NULL,PennController,43,_Trial_,Start,1732210378679,undefined,1000,violate,abstract-negative,concrete,abstract,B,NULL
1732210824,cdf3b871d7045a44247ef4b914a0c606,PennController,32,0,test_conc,NULL,PennController,43,_Header_,Start,1732210378679,undefined,1000,violate,abstract-negative,concrete,abstract,B,NULL
1732210824,cdf3b871d7045a44247ef4b914a0c606,PennController,32,0,test_conc,NULL,PennController,43,_Header_,End,1732210378932,undefined,1000,violate,abstract-negative,concrete,abstract,B,NULL
1732210824,cdf3b871d7045a44247ef4b914a0c606,PennController,32,0,test_conc,NULL,Selector,unnamed-Selector,Selection,abstract,1732210380436,undefined,1000,violate,abstract-negative,concrete,abstract,B,concrete;abstract
1732210824,cdf3b871d7045a44247ef4b914a0c606,PennController,32,0,test_conc,NULL,PennController,43,_Trial_,End,1732210380440,undefined,1000,violate,abstract-negative,concrete,abstract,B,NULL
1732210824,cdf3b871d7045a44247ef4b914a0c606,PennController,43,0,test_conc,NULL,PennController,54,_Trial_,Start,1732210380442,undefined,822,respect,abstract-positive,concrete,abstract,B,NULL
1732210824,cdf3b871d7045a44247ef4b914a0c606,PennController,43,0,test_conc,NULL,PennController,54,_Header_,Start,1732210380442,undefined,822,respect,abstract-positive,concrete,abstract,B,NULL
1732210824,cdf3b871d7045a44247ef4b914a0c606,PennController,43,0,test_conc,NULL,PennController,54,_Header_,End,1732210380693,undefined,822,respect,abstract-positive,concrete,abstract,B,NULL
1732210824,cdf3b871d7045a44247ef4b914a0c606,PennController,43,0,test_conc,NULL,Selector,unnamed-Selector,Selection,abstract,1732210382019,undefined,822,respect,abstract-positive,concrete,abstract,B,concrete;abstract
1732210824,cdf3b871d7045a44247ef4b914a0c606,PennController,43,0,test_conc,NULL,PennController,54,_Trial_,End,1732210382023,undefined,822,respect,abstract-positive,concrete,abstract,B,NULL
1732210824,cdf3b871d7045a44247ef4b914a0c606,PennController,41,0,test_conc,NULL,PennController,52,_Trial_,Start,1732210382025,undefined,767,esteem,abstract-positive,concrete,abstract,B,NULL
1732210824,cdf3b871d7045a44247ef4b914a0c606,PennController,41,0,test_conc,NULL,PennController,52,_Header_,Start,1732210382025,undefined,767,esteem,abstract-positive,concrete,abstract,B,NULL
1732210824,cdf3b871d7045a44247ef4b914a0c606,PennController,41,0,test_conc,NULL,PennController,52,_Header_,End,1732210382276,undefined,767,esteem,abstract-positive,concrete,abstract,B,NULL
1732210824,cdf3b871d7045a44247ef4b914a0c606,PennController,41,0,test_conc,NULL,Selector,unnamed-Selector,Selection,abstract,1732210383547,undefined,767,esteem,abstract-positive,concrete,abstract,B,concrete;abstract
1732210824,cdf3b871d7045a44247ef4b914a0c606,PennController,41,0,test_conc,NULL,PennController,52,_Trial_,End,1732210383551,undefined,767,esteem,abstract-positive,concrete,abstract,B,NULL
1732210824,cdf3b871d7045a44247ef4b914a0c606,PennController,39,0,test_conc,NULL,PennController,50,_Trial_,Start,1732210383553,undefined,809,believe,abstract-positive,concrete,abstract,B,NULL
1732210824,cdf3b871d7045a44247ef4b914a0c606,PennController,39,0,test_conc,NULL,PennController,50,_Header_,Start,1732210383553,undefined,809,believe,abstract-positive,concrete,abstract,B,NULL
1732210824,cdf3b871d7045a44247ef4b914a0c606,PennController,39,0,test_conc,NULL,PennController,50,_Header_,End,1732210383807,undefined,809,believe,abstract-positive,concrete,abstract,B,NULL
1732210824,cdf3b871d7045a44247ef4b914a0c606,PennController,39,0,test_conc,NULL,Selector,unnamed-Selector,Selection,abstract,1732210385123,undefined,809,believe,abstract-positive,concrete,abstract,B,concrete;abstract
1732210824,cdf3b871d7045a44247ef4b914a0c606,PennController,39,0,test_conc,NULL,PennController,50,_Trial_,End,1732210385127,undefined,809,believe,abstract-positive,concrete,abstract,B,NULL
1732210824,cdf3b871d7045a44247ef4b914a0c606,PennController,27,0,test_conc,NULL,PennController,38,_Trial_,Start,1732210385130,undefined,816,exploit,abstract-negative,concrete,abstract,B,NULL
1732210824,cdf3b871d7045a44247ef4b914a0c606,PennController,27,0,test_conc,NULL,PennController,38,_Header_,Start,1732210385130,undefined,816,exploit,abstract-negative,concrete,abstract,B,NULL
1732210824,cdf3b871d7045a44247ef4b914a0c606,PennController,27,0,test_conc,NULL,PennController,38,_Header_,End,1732210385383,undefined,816,exploit,abstract-negative,concrete,abstract,B,NULL
1732210824,cdf3b871d7045a44247ef4b914a0c606,PennController,27,0,test_conc,NULL,Selector,unnamed-Selector,Selection,abstract,1732210386705,undefined,816,exploit,abstract-negative,concrete,abstract,B,concrete;abstract
1732210824,cdf3b871d7045a44247ef4b914a0c606,PennController,27,0,test_conc,NULL,PennController,38,_Trial_,End,1732210386710,undefined,816,exploit,abstract-negative,concrete,abstract,B,NULL
1732210824,cdf3b871d7045a44247ef4b914a0c606,PennController,17,0,test_conc,NULL,PennController,28,_Trial_,Start,1732210386712,undefined,760,puke,concrete-negative,concrete,abstract,B,NULL
1732210824,cdf3b871d7045a44247ef4b914a0c606,PennController,17,0,test_conc,NULL,PennController,28,_Header_,Start,1732210386712,undefined,760,puke,concrete-negative,concrete,abstract,B,NULL
1732210824,cdf3b871d7045a44247ef4b914a0c606,PennController,17,0,test_conc,NULL,PennController,28,_Header_,End,1732210386963,undefined,760,puke,concrete-negative,concrete,abstract,B,NULL
1732210824,cdf3b871d7045a44247ef4b914a0c606,PennController,17,0,test_conc,NULL,Selector,unnamed-Selector,Selection,concrete,1732210388230,undefined,760,puke,concrete-negative,concrete,abstract,B,concrete;abstract
1732210824,cdf3b871d7045a44247ef4b914a0c606,PennController,17,0,test_conc,NULL,PennController,28,_Trial_,End,1732210388233,undefined,760,puke,concrete-negative,concrete,abstract,B,NULL
1732210824,cdf3b871d7045a44247ef4b914a0c606,PennController,15,0,test_conc,NULL,PennController,26,_Trial_,Start,1732210388235,undefined,865,kill,concrete-negative,concrete,abstract,B,NULL
1732210824,cdf3b871d7045a44247ef4b914a0c606,PennController,15,0,test_conc,NULL,PennController,26,_Header_,Start,1732210388235,undefined,865,kill,concrete-negative,concrete,abstract,B,NULL
1732210824,cdf3b871d7045a44247ef4b914a0c606,PennController,15,0,test_conc,NULL,PennController,26,_Header_,End,1732210388488,undefined,865,kill,concrete-negative,concrete,abstract,B,NULL
1732210824,cdf3b871d7045a44247ef4b914a0c606,PennController,15,0,test_conc,NULL,Selector,unnamed-Selector,Selection,concrete,1732210389858,undefined,865,kill,concrete-negative,concrete,abstract,B,concrete;abstract
1732210824,cdf3b871d7045a44247ef4b914a0c606,PennController,15,0,test_conc,NULL,PennController,26,_Trial_,End,1732210389862,undefined,865,kill,concrete-negative,concrete,abstract,B,NULL
1732210824,cdf3b871d7045a44247ef4b914a0c606,PennController,5,0,test_conc,NULL,PennController,16,_Trial_,Start,1732210389864,undefined,840,cook,concrete-positive,concrete,abstract,B,NULL
1732210824,cdf3b871d7045a44247ef4b914a0c606,PennController,5,0,test_conc,NULL,PennController,16,_Header_,Start,1732210389864,undefined,840,cook,concrete-positive,concrete,abstract,B,NULL
1732210824,cdf3b871d7045a44247ef4b914a0c606,PennController,5,0,test_conc,NULL,PennController,16,_Header_,End,1732210390115,undefined,840,cook,concrete-positive,concrete,abstract,B,NULL
1732210824,cdf3b871d7045a44247ef4b914a0c606,PennController,5,0,test_conc,NULL,Selector,unnamed-Selector,Selection,concrete,1732210391461,undefined,840,cook,concrete-positive,concrete,abstract,B,concrete;abstract
1732210824,cdf3b871d7045a44247ef4b914a0c606,PennController,5,0,test_conc,NULL,PennController,16,_Trial_,End,1732210391466,undefined,840,cook,concrete-positive,concrete,abstract,B,NULL
1732210824,cdf3b871d7045a44247ef4b914a0c606,PennController,25,0,test_conc,NULL,PennController,36,_Trial_,Start,1732210391469,undefined,982,befall,abstract-negative,concrete,abstract,B,NULL
1732210824,cdf3b871d7045a44247ef4b914a0c606,PennController,25,0,test_conc,NULL,PennController,36,_Header_,Start,1732210391469,undefined,982,befall,abstract-negative,concrete,abstract,B,NULL
1732210824,cdf3b871d7045a44247ef4b914a0c606,PennController,25,0,test_conc,NULL,PennController,36,_Header_,End,1732210391720,undefined,982,befall,abstract-negative,concrete,abstract,B,NULL
1732210824,cdf3b871d7045a44247ef4b914a0c606,PennController,25,0,test_conc,NULL,Selector,unnamed-Selector,Selection,abstract,1732210393208,undefined,982,befall,abstract-negative,concrete,abstract,B,concrete;abstract
1732210824,cdf3b871d7045a44247ef4b914a0c606,PennController,25,0,test_conc,NULL,PennController,36,_Trial_,End,1732210393210,undefined,982,befall,abstract-negative,concrete,abstract,B,NULL
1732210824,cdf3b871d7045a44247ef4b914a0c606,PennController,31,0,test_conc,NULL,PennController,42,_Trial_,Start,1732210393213,undefined,986,scorn,abstract-negative,concrete,abstract,B,NULL
1732210824,cdf3b871d7045a44247ef4b914a0c606,PennController,31,0,test_conc,NULL,PennController,42,_Header_,Start,1732210393213,undefined,986,scorn,abstract-negative,concrete,abstract,B,NULL
1732210824,cdf3b871d7045a44247ef4b914a0c606,PennController,31,0,test_conc,NULL,PennController,42,_Header_,End,1732210393467,undefined,986,scorn,abstract-negative,concrete,abstract,B,NULL
1732210824,cdf3b871d7045a44247ef4b914a0c606,PennController,31,0,test_conc,NULL,Selector,unnamed-Selector,Selection,abstract,1732210394956,undefined,986,scorn,abstract-negative,concrete,abstract,B,concrete;abstract
1732210824,cdf3b871d7045a44247ef4b914a0c606,PennController,31,0,test_conc,NULL,PennController,42,_Trial_,End,1732210394958,undefined,986,scorn,abstract-negative,concrete,abstract,B,NULL
1732210824,cdf3b871d7045a44247ef4b914a0c606,PennController,34,0,test_conc,NULL,PennController,45,_Trial_,Start,1732210394958,undefined,1190,imagine,abstract-positive,concrete,abstract,B,NULL
1732210824,cdf3b871d7045a44247ef4b914a0c606,PennController,34,0,test_conc,NULL,PennController,45,_Header_,Start,1732210394958,undefined,1190,imagine,abstract-positive,concrete,abstract,B,NULL
1732210824,cdf3b871d7045a44247ef4b914a0c606,PennController,34,0,test_conc,NULL,PennController,45,_Header_,End,1732210395210,undefined,1190,imagine,abstract-positive,concrete,abstract,B,NULL
1732210824,cdf3b871d7045a44247ef4b914a0c606,PennController,34,0,test_conc,NULL,Selector,unnamed-Selector,Selection,abstract,1732210396905,undefined,1190,imagine,abstract-positive,concrete,abstract,B,concrete;abstract
1732210824,cdf3b871d7045a44247ef4b914a0c606,PennController,34,0,test_conc,NULL,PennController,45,_Trial_,End,1732210396906,undefined,1190,imagine,abstract-positive,concrete,abstract,B,NULL
1732210824,cdf3b871d7045a44247ef4b914a0c606,PennController,13,0,test_conc,NULL,PennController,24,_Trial_,Start,1732210396907,undefined,846,swing,concrete-positive,concrete,abstract,B,NULL
1732210824,cdf3b871d7045a44247ef4b914a0c606,PennController,13,0,test_conc,NULL,PennController,24,_Header_,Start,1732210396907,undefined,846,swing,concrete-positive,concrete,abstract,B,NULL
1732210824,cdf3b871d7045a44247ef4b914a0c606,PennController,13,0,test_conc,NULL,PennController,24,_Header_,End,1732210397160,undefined,846,swing,concrete-positive,concrete,abstract,B,NULL
1732210824,cdf3b871d7045a44247ef4b914a0c606,PennController,13,0,test_conc,NULL,Selector,unnamed-Selector,Selection,concrete,1732210398511,undefined,846,swing,concrete-positive,concrete,abstract,B,concrete;abstract
1732210824,cdf3b871d7045a44247ef4b914a0c606,PennController,13,0,test_conc,NULL,PennController,24,_Trial_,End,1732210398514,undefined,846,swing,concrete-positive,concrete,abstract,B,NULL
1732210824,cdf3b871d7045a44247ef4b914a0c606,PennController,14,0,test_conc,NULL,PennController,25,_Trial_,Start,1732210398516,undefined,746,bleed,concrete-negative,concrete,abstract,B,NULL
1732210824,cdf3b871d7045a44247ef4b914a0c606,PennController,14,0,test_conc,NULL,PennController,25,_Header_,Start,1732210398516,undefined,746,bleed,concrete-negative,concrete,abstract,B,NULL
1732210824,cdf3b871d7045a44247ef4b914a0c606,PennController,14,0,test_conc,NULL,PennController,25,_Header_,End,1732210398766,undefined,746,bleed,concrete-negative,concrete,abstract,B,NULL
1732210824,cdf3b871d7045a44247ef4b914a0c606,PennController,14,0,test_conc,NULL,Selector,unnamed-Selector,Selection,concrete,1732210400016,undefined,746,bleed,concrete-negative,concrete,abstract,B,concrete;abstract
1732210824,cdf3b871d7045a44247ef4b914a0c606,PennController,14,0,test_conc,NULL,PennController,25,_Trial_,End,1732210400020,undefined,746,bleed,concrete-negative,concrete,abstract,B,NULL
1732210824,cdf3b871d7045a44247ef4b914a0c606,PennController,12,0,test_conc,NULL,PennController,23,_Trial_,Start,1732210400023,undefined,851,smile,concrete-positive,concrete,abstract,B,NULL
1732210824,cdf3b871d7045a44247ef4b914a0c606,PennController,12,0,test_conc,NULL,PennController,23,_Header_,Start,1732210400023,undefined,851,smile,concrete-positive,concrete,abstract,B,NULL
1732210824,cdf3b871d7045a44247ef4b914a0c606,PennController,12,0,test_conc,NULL,PennController,23,_Header_,End,1732210400278,undefined,851,smile,concrete-positive,concrete,abstract,B,NULL
1732210824,cdf3b871d7045a44247ef4b914a0c606,PennController,12,0,test_conc,NULL,Selector,unnamed-Selector,Selection,concrete,1732210401632,undefined,851,smile,concrete-positive,concrete,abstract,B,concrete;abstract
1732210824,cdf3b871d7045a44247ef4b914a0c606,PennController,12,0,test_conc,NULL,PennController,23,_Trial_,End,1732210401636,undefined,851,smile,concrete-positive,concrete,abstract,B,NULL
1732210824,cdf3b871d7045a44247ef4b914a0c606,PennController,35,0,test_conc,NULL,PennController,46,_Trial_,Start,1732210401638,undefined,924,enlighten,abstract-positive,concrete,abstract,B,NULL
1732210824,cdf3b871d7045a44247ef4b914a0c606,PennController,35,0,test_conc,NULL,PennController,46,_Header_,Start,1732210401638,undefined,924,enlighten,abstract-positive,concrete,abstract,B,NULL
1732210824,cdf3b871d7045a44247ef4b914a0c606,PennController,35,0,test_conc,NULL,PennController,46,_Header_,End,1732210401889,undefined,924,enlighten,abstract-positive,concrete,abstract,B,NULL
1732210824,cdf3b871d7045a44247ef4b914a0c606,PennController,35,0,test_conc,NULL,Selector,unnamed-Selector,Selection,abstract,1732210403320,undefined,924,enlighten,abstract-positive,concrete,abstract,B,concrete;abstract
1732210824,cdf3b871d7045a44247ef4b914a0c606,PennController,35,0,test_conc,NULL,PennController,46,_Trial_,End,1732210403323,undefined,924,enlighten,abstract-positive,concrete,abstract,B,NULL
1732210824,cdf3b871d7045a44247ef4b914a0c606,PennController,18,0,test_conc,NULL,PennController,29,_Trial_,Start,1732210403325,undefined,823,scratch,concrete-negative,concrete,abstract,B,NULL
1732210824,cdf3b871d7045a44247ef4b914a0c606,PennController,18,0,test_conc,NULL,PennController,29,_Header_,Start,1732210403325,undefined,823,scratch,concrete-negative,concrete,abstract,B,NULL
1732210824,cdf3b871d7045a44247ef4b914a0c606,PennController,18,0,test_conc,NULL,PennController,29,_Header_,End,1732210403580,undefined,823,scratch,concrete-negative,concrete,abstract,B,NULL
1732210824,cdf3b871d7045a44247ef4b914a0c606,PennController,18,0,test_conc,NULL,Selector,unnamed-Selector,Selection,concrete,1732210404908,undefined,823,scratch,concrete-negative,concrete,abstract,B,concrete;abstract
1732210824,cdf3b871d7045a44247ef4b914a0c606,PennController,18,0,test_conc,NULL,PennController,29,_Trial_,End,1732210404910,undefined,823,scratch,concrete-negative,concrete,abstract,B,NULL
1732210824,cdf3b871d7045a44247ef4b914a0c606,PennController,11,0,test_conc,NULL,PennController,22,_Trial_,Start,1732210404913,undefined,692,sail,concrete-positive,concrete,abstract,B,NULL
1732210824,cdf3b871d7045a44247ef4b914a0c606,PennController,11,0,test_conc,NULL,PennController,22,_Header_,Start,1732210404913,undefined,692,sail,concrete-positive,concrete,abstract,B,NULL
1732210824,cdf3b871d7045a44247ef4b914a0c606,PennController,11,0,test_conc,NULL,PennController,22,_Header_,End,1732210405166,undefined,692,sail,concrete-positive,concrete,abstract,B,NULL
1732210824,cdf3b871d7045a44247ef4b914a0c606,PennController,11,0,test_conc,NULL,Selector,unnamed-Selector,Selection,concrete,1732210406364,undefined,692,sail,concrete-positive,concrete,abstract,B,concrete;abstract
1732210824,cdf3b871d7045a44247ef4b914a0c606,PennController,11,0,test_conc,NULL,PennController,22,_Trial_,End,1732210406368,undefined,692,sail,concrete-positive,concrete,abstract,B,NULL
1732210824,cdf3b871d7045a44247ef4b914a0c606,PennController,7,0,test_conc,NULL,PennController,18,_Trial_,Start,1732210406370,undefined,744,eat,concrete-positive,concrete,abstract,B,NULL
1732210824,cdf3b871d7045a44247ef4b914a0c606,PennController,7,0,test_conc,NULL,PennController,18,_Header_,Start,1732210406370,undefined,744,eat,concrete-positive,concrete,abstract,B,NULL
1732210824,cdf3b871d7045a44247ef4b914a0c606,PennController,7,0,test_conc,NULL,PennController,18,_Header_,End,1732210406624,undefined,744,eat,concrete-positive,concrete,abstract,B,NULL
1732210824,cdf3b871d7045a44247ef4b914a0c606,PennController,7,0,test_conc,NULL,Selector,unnamed-Selector,Selection,concrete,1732210407872,undefined,744,eat,concrete-positive,concrete,abstract,B,concrete;abstract
1732210824,cdf3b871d7045a44247ef4b914a0c606,PennController,7,0,test_conc,NULL,PennController,18,_Trial_,End,1732210407876,undefined,744,eat,concrete-positive,concrete,abstract,B,NULL
1732210824,cdf3b871d7045a44247ef4b914a0c606,PennController,37,0,test_conc,NULL,PennController,48,_Trial_,Start,1732210407880,undefined,898,cherish,abstract-positive,concrete,abstract,B,NULL
1732210824,cdf3b871d7045a44247ef4b914a0c606,PennController,37,0,test_conc,NULL,PennController,48,_Header_,Start,1732210407880,undefined,898,cherish,abstract-positive,concrete,abstract,B,NULL
1732210824,cdf3b871d7045a44247ef4b914a0c606,PennController,37,0,test_conc,NULL,PennController,48,_Header_,End,1732210408131,undefined,898,cherish,abstract-positive,concrete,abstract,B,NULL
1732210824,cdf3b871d7045a44247ef4b914a0c606,PennController,37,0,test_conc,NULL,Selector,unnamed-Selector,Selection,abstract,1732210409537,undefined,898,cherish,abstract-positive,concrete,abstract,B,concrete;abstract
1732210824,cdf3b871d7045a44247ef4b914a0c606,PennController,37,0,test_conc,NULL,PennController,48,_Trial_,End,1732210409540,undefined,898,cherish,abstract-positive,concrete,abstract,B,NULL
