#
# Results on Tue, 18 Feb 2025 17:02:29 GMT
# USER AGENT: Mozilla/5.0 (Windows NT 10.0; Win64; x64) AppleWebKit/537.36 (KHTML, like Gecko) Chrome/133.0.0.0 Safari/537.36 Edg/133.0.0.0
# Design number was non-random = 0
#
# Columns below this comment are as follows:
# 1. Results reception time.
# 2. MD5 hash of participant's IP address.
# 3. Controller name.
# 4. Order number of item.
# 5. Inner element number.
# 6. Label.
# 7. Latin Square Group.
# 8. PennElementType.
# 9. PennElementName.
# 10. Parameter.
# 11. Value.
# 12. EventTime.
# 13. Comments.
1739898149,19ce432b7c591b0354d6ad32fbe691db,PennController,1,0,welcome,NULL,PennController,0,_Trial_,Start,1739897553058,NULL
1739898149,19ce432b7c591b0354d6ad32fbe691db,PennController,1,0,welcome,NULL,PennController,0,_Header_,Start,1739897553058,NULL
1739898149,19ce432b7c591b0354d6ad32fbe691db,PennController,1,0,welcome,NULL,PennController,0,_Header_,End,1739897553309,NULL
1739898149,19ce432b7c591b0354d6ad32fbe691db,PennController,1,0,welcome,NULL,PennController,0,_Trial_,End,1739897560416,NULL
# 13. ID.
# 14. Comments.
1739898149,19ce432b7c591b0354d6ad32fbe691db,PennController,124,0,consent,NULL,PennController,2,_Trial_,Start,1739897560417,6460181fc3a15babdad7bf3e,NULL
1739898149,19ce432b7c591b0354d6ad32fbe691db,PennController,124,0,consent,NULL,PennController,2,_Header_,Start,1739897560417,6460181fc3a15babdad7bf3e,NULL
1739898149,19ce432b7c591b0354d6ad32fbe691db,PennController,124,0,consent,NULL,PennController,2,_Header_,End,1739897560673,6460181fc3a15babdad7bf3e,NULL
1739898149,19ce432b7c591b0354d6ad32fbe691db,PennController,124,0,consent,NULL,TextInput,ID,First,,1739897569854,6460181fc3a15babdad7bf3e,Control
1739898149,19ce432b7c591b0354d6ad32fbe691db,PennController,124,0,consent,NULL,TextInput,ID,Final,6460181fc3a15babdad7bf3e,1739897573109,6460181fc3a15babdad7bf3e,NULL
1739898149,19ce432b7c591b0354d6ad32fbe691db,PennController,124,0,consent,NULL,PennController,2,_Trial_,End,1739897573114,6460181fc3a15babdad7bf3e,NULL
# 13. Comments.
1739898149,19ce432b7c591b0354d6ad32fbe691db,PennController,132,0,instructions1_syn,NULL,PennController,10,_Trial_,Start,1739897573115,NULL
1739898149,19ce432b7c591b0354d6ad32fbe691db,PennController,132,0,instructions1_syn,NULL,PennController,10,_Header_,Start,1739897573115,NULL
1739898149,19ce432b7c591b0354d6ad32fbe691db,PennController,132,0,instructions1_syn,NULL,PennController,10,_Header_,End,1739897573369,NULL
1739898149,19ce432b7c591b0354d6ad32fbe691db,PennController,132,0,instructions1_syn,NULL,PennController,10,_Trial_,End,1739897591548,NULL
1739898149,19ce432b7c591b0354d6ad32fbe691db,PennController,133,0,instructions2_syn,NULL,PennController,11,_Trial_,Start,1739897591549,NULL
1739898149,19ce432b7c591b0354d6ad32fbe691db,PennController,133,0,instructions2_syn,NULL,PennController,11,_Header_,Start,1739897591549,NULL
1739898149,19ce432b7c591b0354d6ad32fbe691db,PennController,133,0,instructions2_syn,NULL,PennController,11,_Header_,End,1739897591799,NULL
1739898149,19ce432b7c591b0354d6ad32fbe691db,PennController,133,0,instructions2_syn,NULL,PennController,11,_Trial_,End,1739897596254,NULL
1739898149,19ce432b7c591b0354d6ad32fbe691db,PennController,128,0,instructions3_hands,NULL,PennController,6,_Trial_,Start,1739897596255,NULL
1739898149,19ce432b7c591b0354d6ad32fbe691db,PennController,128,0,instructions3_hands,NULL,PennController,6,_Header_,Start,1739897596255,NULL
1739898149,19ce432b7c591b0354d6ad32fbe691db,PennController,128,0,instructions3_hands,NULL,PennController,6,_Header_,End,1739897596505,NULL
1739898149,19ce432b7c591b0354d6ad32fbe691db,PennController,128,0,instructions3_hands,NULL,PennController,6,_Trial_,End,1739897600346,NULL
1739898149,19ce432b7c591b0354d6ad32fbe691db,PennController,135,0,practice_intro_syn,NULL,PennController,13,_Trial_,Start,1739897600346,NULL
1739898149,19ce432b7c591b0354d6ad32fbe691db,PennController,135,0,practice_intro_syn,NULL,PennController,13,_Header_,Start,1739897600346,NULL
1739898149,19ce432b7c591b0354d6ad32fbe691db,PennController,135,0,practice_intro_syn,NULL,PennController,13,_Header_,End,1739897600600,NULL
1739898149,19ce432b7c591b0354d6ad32fbe691db,PennController,135,0,practice_intro_syn,NULL,PennController,13,_Trial_,End,1739897603546,NULL
# 13. ID.
# 14. ReactionTime.
# 15. Word.
# 16. selectedKey.
# 17. selectedValue.
# 18. Key_value_F.
# 19. Key_value_J.
# 20. Group.
# 21. Comments.
1739898149,19ce432b7c591b0354d6ad32fbe691db,PennController,88,0,calibrator_syn_feedback,NULL,PennController,99,_Trial_,Start,1739897603547,undefined,2832,reside,undefined,noun,verb,noun,B,NULL
1739898149,19ce432b7c591b0354d6ad32fbe691db,PennController,88,0,calibrator_syn_feedback,NULL,PennController,99,_Header_,Start,1739897603547,undefined,2832,reside,undefined,noun,verb,noun,B,NULL
1739898149,19ce432b7c591b0354d6ad32fbe691db,PennController,88,0,calibrator_syn_feedback,NULL,PennController,99,_Header_,End,1739897603798,undefined,2832,reside,undefined,noun,verb,noun,B,NULL
1739898149,19ce432b7c591b0354d6ad32fbe691db,PennController,88,0,calibrator_syn_feedback,NULL,Selector,Selection,Selection,verb,1739897609001,undefined,2832,reside,undefined,noun,verb,noun,B,verb;noun
1739898149,19ce432b7c591b0354d6ad32fbe691db,PennController,88,0,calibrator_syn_feedback,NULL,PennController,99,_Trial_,End,1739897609140,undefined,2832,reside,undefined,noun,verb,noun,B,NULL
1739898149,19ce432b7c591b0354d6ad32fbe691db,PennController,86,0,calibrator_syn_feedback,NULL,PennController,97,_Trial_,Start,1739897609141,undefined,1784,endure,undefined,noun,verb,noun,B,NULL
1739898149,19ce432b7c591b0354d6ad32fbe691db,PennController,86,0,calibrator_syn_feedback,NULL,PennController,97,_Header_,Start,1739897609141,undefined,1784,endure,undefined,noun,verb,noun,B,NULL
1739898149,19ce432b7c591b0354d6ad32fbe691db,PennController,86,0,calibrator_syn_feedback,NULL,PennController,97,_Header_,End,1739897609393,undefined,1784,endure,undefined,noun,verb,noun,B,NULL
1739898149,19ce432b7c591b0354d6ad32fbe691db,PennController,86,0,calibrator_syn_feedback,NULL,Selector,Selection,Selection,verb,1739897612910,undefined,1784,endure,undefined,noun,verb,noun,B,verb;noun
1739898149,19ce432b7c591b0354d6ad32fbe691db,PennController,86,0,calibrator_syn_feedback,NULL,PennController,97,_Trial_,End,1739897613682,undefined,1784,endure,undefined,noun,verb,noun,B,NULL
1739898149,19ce432b7c591b0354d6ad32fbe691db,PennController,87,0,calibrator_syn_feedback,NULL,PennController,98,_Trial_,Start,1739897613683,undefined,1327,concur,undefined,noun,verb,noun,B,NULL
1739898149,19ce432b7c591b0354d6ad32fbe691db,PennController,87,0,calibrator_syn_feedback,NULL,PennController,98,_Header_,Start,1739897613683,undefined,1327,concur,undefined,noun,verb,noun,B,NULL
1739898149,19ce432b7c591b0354d6ad32fbe691db,PennController,87,0,calibrator_syn_feedback,NULL,PennController,98,_Header_,End,1739897613936,undefined,1327,concur,undefined,noun,verb,noun,B,NULL
1739898149,19ce432b7c591b0354d6ad32fbe691db,PennController,87,0,calibrator_syn_feedback,NULL,Selector,Selection,Selection,verb,1739897617506,undefined,1327,concur,undefined,noun,verb,noun,B,verb;noun
1739898149,19ce432b7c591b0354d6ad32fbe691db,PennController,87,0,calibrator_syn_feedback,NULL,PennController,98,_Trial_,End,1739897617772,undefined,1327,concur,undefined,noun,verb,noun,B,NULL
1739898149,19ce432b7c591b0354d6ad32fbe691db,PennController,92,0,calibrator_syn_feedback,NULL,PennController,103,_Trial_,Start,1739897617773,undefined,2626,wisdom,undefined,noun,verb,noun,B,NULL
1739898149,19ce432b7c591b0354d6ad32fbe691db,PennController,92,0,calibrator_syn_feedback,NULL,PennController,103,_Header_,Start,1739897617773,undefined,2626,wisdom,undefined,noun,verb,noun,B,NULL
1739898149,19ce432b7c591b0354d6ad32fbe691db,PennController,92,0,calibrator_syn_feedback,NULL,PennController,103,_Header_,End,1739897618026,undefined,2626,wisdom,undefined,noun,verb,noun,B,NULL
1739898149,19ce432b7c591b0354d6ad32fbe691db,PennController,92,0,calibrator_syn_feedback,NULL,Selector,Selection,Selection,noun,1739897622965,undefined,2626,wisdom,undefined,noun,verb,noun,B,verb;noun
1739898149,19ce432b7c591b0354d6ad32fbe691db,PennController,92,0,calibrator_syn_feedback,NULL,PennController,103,_Trial_,End,1739897623162,undefined,2626,wisdom,undefined,noun,verb,noun,B,NULL
1739898149,19ce432b7c591b0354d6ad32fbe691db,PennController,91,0,calibrator_syn_feedback,NULL,PennController,102,_Trial_,Start,1739897623163,undefined,1223,childhood,undefined,noun,verb,noun,B,NULL
1739898149,19ce432b7c591b0354d6ad32fbe691db,PennController,91,0,calibrator_syn_feedback,NULL,PennController,102,_Header_,Start,1739897623163,undefined,1223,childhood,undefined,noun,verb,noun,B,NULL
1739898149,19ce432b7c591b0354d6ad32fbe691db,PennController,91,0,calibrator_syn_feedback,NULL,PennController,102,_Header_,End,1739897623415,undefined,1223,childhood,undefined,noun,verb,noun,B,NULL
1739898149,19ce432b7c591b0354d6ad32fbe691db,PennController,91,0,calibrator_syn_feedback,NULL,Selector,Selection,Selection,noun,1739897627004,undefined,1223,childhood,undefined,noun,verb,noun,B,verb;noun
1739898149,19ce432b7c591b0354d6ad32fbe691db,PennController,91,0,calibrator_syn_feedback,NULL,PennController,102,_Trial_,End,1739897627147,undefined,1223,childhood,undefined,noun,verb,noun,B,NULL
1739898149,19ce432b7c591b0354d6ad32fbe691db,PennController,85,0,calibrator_syn_feedback,NULL,PennController,96,_Trial_,Start,1739897627148,undefined,1071,depart,undefined,noun,verb,noun,B,NULL
1739898149,19ce432b7c591b0354d6ad32fbe691db,PennController,85,0,calibrator_syn_feedback,NULL,PennController,96,_Header_,Start,1739897627148,undefined,1071,depart,undefined,noun,verb,noun,B,NULL
1739898149,19ce432b7c591b0354d6ad32fbe691db,PennController,85,0,calibrator_syn_feedback,NULL,PennController,96,_Header_,End,1739897627400,undefined,1071,depart,undefined,noun,verb,noun,B,NULL
1739898149,19ce432b7c591b0354d6ad32fbe691db,PennController,85,0,calibrator_syn_feedback,NULL,Selector,Selection,Selection,verb,1739897630717,undefined,1071,depart,undefined,noun,verb,noun,B,verb;noun
1739898149,19ce432b7c591b0354d6ad32fbe691db,PennController,85,0,calibrator_syn_feedback,NULL,PennController,96,_Trial_,End,1739897630981,undefined,1071,depart,undefined,noun,verb,noun,B,NULL
1739898149,19ce432b7c591b0354d6ad32fbe691db,PennController,89,0,calibrator_syn_feedback,NULL,PennController,100,_Trial_,Start,1739897630982,undefined,857,furniture,undefined,noun,verb,noun,B,NULL
1739898149,19ce432b7c591b0354d6ad32fbe691db,PennController,89,0,calibrator_syn_feedback,NULL,PennController,100,_Header_,Start,1739897630982,undefined,857,furniture,undefined,noun,verb,noun,B,NULL
1739898149,19ce432b7c591b0354d6ad32fbe691db,PennController,89,0,calibrator_syn_feedback,NULL,PennController,100,_Header_,End,1739897631235,undefined,857,furniture,undefined,noun,verb,noun,B,NULL
1739898149,19ce432b7c591b0354d6ad32fbe691db,PennController,89,0,calibrator_syn_feedback,NULL,Selector,Selection,Selection,noun,1739897634148,undefined,857,furniture,undefined,noun,verb,noun,B,verb;noun
1739898149,19ce432b7c591b0354d6ad32fbe691db,PennController,89,0,calibrator_syn_feedback,NULL,PennController,100,_Trial_,End,1739897634595,undefined,857,furniture,undefined,noun,verb,noun,B,NULL
1739898149,19ce432b7c591b0354d6ad32fbe691db,PennController,93,0,calibrator_syn_feedback,NULL,PennController,104,_Trial_,Start,1739897634596,undefined,1335,traffic,undefined,noun,verb,noun,B,NULL
1739898149,19ce432b7c591b0354d6ad32fbe691db,PennController,93,0,calibrator_syn_feedback,NULL,PennController,104,_Header_,Start,1739897634596,undefined,1335,traffic,undefined,noun,verb,noun,B,NULL
1739898149,19ce432b7c591b0354d6ad32fbe691db,PennController,93,0,calibrator_syn_feedback,NULL,PennController,104,_Header_,End,1739897634847,undefined,1335,traffic,undefined,noun,verb,noun,B,NULL
1739898149,19ce432b7c591b0354d6ad32fbe691db,PennController,93,0,calibrator_syn_feedback,NULL,Selector,Selection,Selection,noun,1739897637630,undefined,1335,traffic,undefined,noun,verb,noun,B,verb;noun
1739898149,19ce432b7c591b0354d6ad32fbe691db,PennController,93,0,calibrator_syn_feedback,NULL,PennController,104,_Trial_,End,1739897638689,undefined,1335,traffic,undefined,noun,verb,noun,B,NULL
1739898149,19ce432b7c591b0354d6ad32fbe691db,PennController,84,0,calibrator_syn_feedback,NULL,PennController,95,_Trial_,Start,1739897638690,undefined,713,exist,undefined,noun,verb,noun,B,NULL
1739898149,19ce432b7c591b0354d6ad32fbe691db,PennController,84,0,calibrator_syn_feedback,NULL,PennController,95,_Header_,Start,1739897638690,undefined,713,exist,undefined,noun,verb,noun,B,NULL
1739898149,19ce432b7c591b0354d6ad32fbe691db,PennController,84,0,calibrator_syn_feedback,NULL,PennController,95,_Header_,End,1739897638941,undefined,713,exist,undefined,noun,verb,noun,B,NULL
1739898149,19ce432b7c591b0354d6ad32fbe691db,PennController,84,0,calibrator_syn_feedback,NULL,Selector,Selection,Selection,verb,1739897642087,undefined,713,exist,undefined,noun,verb,noun,B,verb;noun
1739898149,19ce432b7c591b0354d6ad32fbe691db,PennController,84,0,calibrator_syn_feedback,NULL,PennController,95,_Trial_,End,1739897642160,undefined,713,exist,undefined,noun,verb,noun,B,NULL
1739898149,19ce432b7c591b0354d6ad32fbe691db,PennController,90,0,calibrator_syn_feedback,NULL,PennController,101,_Trial_,Start,1739897642161,undefined,1130,luggage,undefined,noun,verb,noun,B,NULL
1739898149,19ce432b7c591b0354d6ad32fbe691db,PennController,90,0,calibrator_syn_feedback,NULL,PennController,101,_Header_,Start,1739897642161,undefined,1130,luggage,undefined,noun,verb,noun,B,NULL
1739898149,19ce432b7c591b0354d6ad32fbe691db,PennController,90,0,calibrator_syn_feedback,NULL,PennController,101,_Header_,End,1739897642413,undefined,1130,luggage,undefined,noun,verb,noun,B,NULL
1739898149,19ce432b7c591b0354d6ad32fbe691db,PennController,90,0,calibrator_syn_feedback,NULL,Selector,Selection,Selection,noun,1739897645162,undefined,1130,luggage,undefined,noun,verb,noun,B,verb;noun
1739898149,19ce432b7c591b0354d6ad32fbe691db,PennController,90,0,calibrator_syn_feedback,NULL,PennController,101,_Trial_,End,1739897646048,undefined,1130,luggage,undefined,noun,verb,noun,B,NULL
# 16. Key_value_F.
# 17. Key_value_J.
# 18. Group.
# 19. Comments.
1739898149,19ce432b7c591b0354d6ad32fbe691db,PennController,103,0,calibrator_syn_no_feedback,NULL,PennController,114,_Trial_,Start,1739897646050,undefined,1022,traffic,verb,noun,B,NULL
1739898149,19ce432b7c591b0354d6ad32fbe691db,PennController,103,0,calibrator_syn_no_feedback,NULL,PennController,114,_Header_,Start,1739897646050,undefined,1022,traffic,verb,noun,B,NULL
1739898149,19ce432b7c591b0354d6ad32fbe691db,PennController,103,0,calibrator_syn_no_feedback,NULL,PennController,114,_Header_,End,1739897646304,undefined,1022,traffic,verb,noun,B,NULL
1739898149,19ce432b7c591b0354d6ad32fbe691db,PennController,103,0,calibrator_syn_no_feedback,NULL,Selector,unnamed-Selector,Selection,noun,1739897647829,undefined,1022,traffic,verb,noun,B,verb;noun
1739898149,19ce432b7c591b0354d6ad32fbe691db,PennController,103,0,calibrator_syn_no_feedback,NULL,PennController,114,_Trial_,End,1739897647830,undefined,1022,traffic,verb,noun,B,NULL
1739898149,19ce432b7c591b0354d6ad32fbe691db,PennController,101,0,calibrator_syn_no_feedback,NULL,PennController,112,_Trial_,Start,1739897647831,undefined,777,childhood,verb,noun,B,NULL
1739898149,19ce432b7c591b0354d6ad32fbe691db,PennController,101,0,calibrator_syn_no_feedback,NULL,PennController,112,_Header_,Start,1739897647831,undefined,777,childhood,verb,noun,B,NULL
1739898149,19ce432b7c591b0354d6ad32fbe691db,PennController,101,0,calibrator_syn_no_feedback,NULL,PennController,112,_Header_,End,1739897648083,undefined,777,childhood,verb,noun,B,NULL
1739898149,19ce432b7c591b0354d6ad32fbe691db,PennController,101,0,calibrator_syn_no_feedback,NULL,Selector,unnamed-Selector,Selection,noun,1739897649363,undefined,777,childhood,verb,noun,B,verb;noun
1739898149,19ce432b7c591b0354d6ad32fbe691db,PennController,101,0,calibrator_syn_no_feedback,NULL,PennController,112,_Trial_,End,1739897649365,undefined,777,childhood,verb,noun,B,NULL
1739898149,19ce432b7c591b0354d6ad32fbe691db,PennController,100,0,calibrator_syn_no_feedback,NULL,PennController,111,_Trial_,Start,1739897649366,undefined,859,luggage,verb,noun,B,NULL
1739898149,19ce432b7c591b0354d6ad32fbe691db,PennController,100,0,calibrator_syn_no_feedback,NULL,PennController,111,_Header_,Start,1739897649366,undefined,859,luggage,verb,noun,B,NULL
1739898149,19ce432b7c591b0354d6ad32fbe691db,PennController,100,0,calibrator_syn_no_feedback,NULL,PennController,111,_Header_,End,1739897649619,undefined,859,luggage,verb,noun,B,NULL
1739898149,19ce432b7c591b0354d6ad32fbe691db,PennController,100,0,calibrator_syn_no_feedback,NULL,Selector,unnamed-Selector,Selection,noun,1739897650980,undefined,859,luggage,verb,noun,B,verb;noun
1739898149,19ce432b7c591b0354d6ad32fbe691db,PennController,100,0,calibrator_syn_no_feedback,NULL,PennController,111,_Trial_,End,1739897650981,undefined,859,luggage,verb,noun,B,NULL
1739898149,19ce432b7c591b0354d6ad32fbe691db,PennController,96,0,calibrator_syn_no_feedback,NULL,PennController,107,_Trial_,Start,1739897650982,undefined,1276,endure,verb,noun,B,NULL
1739898149,19ce432b7c591b0354d6ad32fbe691db,PennController,96,0,calibrator_syn_no_feedback,NULL,PennController,107,_Header_,Start,1739897650982,undefined,1276,endure,verb,noun,B,NULL
1739898149,19ce432b7c591b0354d6ad32fbe691db,PennController,96,0,calibrator_syn_no_feedback,NULL,PennController,107,_Header_,End,1739897651235,undefined,1276,endure,verb,noun,B,NULL
1739898149,19ce432b7c591b0354d6ad32fbe691db,PennController,96,0,calibrator_syn_no_feedback,NULL,Selector,unnamed-Selector,Selection,verb,1739897653016,undefined,1276,endure,verb,noun,B,verb;noun
1739898149,19ce432b7c591b0354d6ad32fbe691db,PennController,96,0,calibrator_syn_no_feedback,NULL,PennController,107,_Trial_,End,1739897653018,undefined,1276,endure,verb,noun,B,NULL
1739898149,19ce432b7c591b0354d6ad32fbe691db,PennController,94,0,calibrator_syn_no_feedback,NULL,PennController,105,_Trial_,Start,1739897653019,undefined,749,exist,verb,noun,B,NULL
1739898149,19ce432b7c591b0354d6ad32fbe691db,PennController,94,0,calibrator_syn_no_feedback,NULL,PennController,105,_Header_,Start,1739897653019,undefined,749,exist,verb,noun,B,NULL
1739898149,19ce432b7c591b0354d6ad32fbe691db,PennController,94,0,calibrator_syn_no_feedback,NULL,PennController,105,_Header_,End,1739897653272,undefined,749,exist,verb,noun,B,NULL
1739898149,19ce432b7c591b0354d6ad32fbe691db,PennController,94,0,calibrator_syn_no_feedback,NULL,Selector,unnamed-Selector,Selection,verb,1739897654524,undefined,749,exist,verb,noun,B,verb;noun
1739898149,19ce432b7c591b0354d6ad32fbe691db,PennController,94,0,calibrator_syn_no_feedback,NULL,PennController,105,_Trial_,End,1739897654525,undefined,749,exist,verb,noun,B,NULL
1739898149,19ce432b7c591b0354d6ad32fbe691db,PennController,98,0,calibrator_syn_no_feedback,NULL,PennController,109,_Trial_,Start,1739897654526,undefined,798,reside,verb,noun,B,NULL
1739898149,19ce432b7c591b0354d6ad32fbe691db,PennController,98,0,calibrator_syn_no_feedback,NULL,PennController,109,_Header_,Start,1739897654526,undefined,798,reside,verb,noun,B,NULL
1739898149,19ce432b7c591b0354d6ad32fbe691db,PennController,98,0,calibrator_syn_no_feedback,NULL,PennController,109,_Header_,End,1739897654780,undefined,798,reside,verb,noun,B,NULL
1739898149,19ce432b7c591b0354d6ad32fbe691db,PennController,98,0,calibrator_syn_no_feedback,NULL,Selector,unnamed-Selector,Selection,verb,1739897656083,undefined,798,reside,verb,noun,B,verb;noun
1739898149,19ce432b7c591b0354d6ad32fbe691db,PennController,98,0,calibrator_syn_no_feedback,NULL,PennController,109,_Trial_,End,1739897656084,undefined,798,reside,verb,noun,B,NULL
1739898149,19ce432b7c591b0354d6ad32fbe691db,PennController,95,0,calibrator_syn_no_feedback,NULL,PennController,106,_Trial_,Start,1739897656085,undefined,687,depart,verb,noun,B,NULL
1739898149,19ce432b7c591b0354d6ad32fbe691db,PennController,95,0,calibrator_syn_no_feedback,NULL,PennController,106,_Header_,Start,1739897656086,undefined,687,depart,verb,noun,B,NULL
1739898149,19ce432b7c591b0354d6ad32fbe691db,PennController,95,0,calibrator_syn_no_feedback,NULL,PennController,106,_Header_,End,1739897656339,undefined,687,depart,verb,noun,B,NULL
1739898149,19ce432b7c591b0354d6ad32fbe691db,PennController,95,0,calibrator_syn_no_feedback,NULL,Selector,unnamed-Selector,Selection,verb,1739897657530,undefined,687,depart,verb,noun,B,verb;noun
1739898149,19ce432b7c591b0354d6ad32fbe691db,PennController,95,0,calibrator_syn_no_feedback,NULL,PennController,106,_Trial_,End,1739897657531,undefined,687,depart,verb,noun,B,NULL
1739898149,19ce432b7c591b0354d6ad32fbe691db,PennController,97,0,calibrator_syn_no_feedback,NULL,PennController,108,_Trial_,Start,1739897657531,undefined,820,concur,verb,noun,B,NULL
1739898149,19ce432b7c591b0354d6ad32fbe691db,PennController,97,0,calibrator_syn_no_feedback,NULL,PennController,108,_Header_,Start,1739897657531,undefined,820,concur,verb,noun,B,NULL
1739898149,19ce432b7c591b0354d6ad32fbe691db,PennController,97,0,calibrator_syn_no_feedback,NULL,PennController,108,_Header_,End,1739897657786,undefined,820,concur,verb,noun,B,NULL
1739898149,19ce432b7c591b0354d6ad32fbe691db,PennController,97,0,calibrator_syn_no_feedback,NULL,Selector,unnamed-Selector,Selection,verb,1739897659111,undefined,820,concur,verb,noun,B,verb;noun
1739898149,19ce432b7c591b0354d6ad32fbe691db,PennController,97,0,calibrator_syn_no_feedback,NULL,PennController,108,_Trial_,End,1739897659112,undefined,820,concur,verb,noun,B,NULL
1739898149,19ce432b7c591b0354d6ad32fbe691db,PennController,102,0,calibrator_syn_no_feedback,NULL,PennController,113,_Trial_,Start,1739897659112,undefined,789,wisdom,verb,noun,B,NULL
1739898149,19ce432b7c591b0354d6ad32fbe691db,PennController,102,0,calibrator_syn_no_feedback,NULL,PennController,113,_Header_,Start,1739897659112,undefined,789,wisdom,verb,noun,B,NULL
1739898149,19ce432b7c591b0354d6ad32fbe691db,PennController,102,0,calibrator_syn_no_feedback,NULL,PennController,113,_Header_,End,1739897659364,undefined,789,wisdom,verb,noun,B,NULL
1739898149,19ce432b7c591b0354d6ad32fbe691db,PennController,102,0,calibrator_syn_no_feedback,NULL,Selector,unnamed-Selector,Selection,noun,1739897660658,undefined,789,wisdom,verb,noun,B,verb;noun
1739898149,19ce432b7c591b0354d6ad32fbe691db,PennController,102,0,calibrator_syn_no_feedback,NULL,PennController,113,_Trial_,End,1739897660659,undefined,789,wisdom,verb,noun,B,NULL
1739898149,19ce432b7c591b0354d6ad32fbe691db,PennController,99,0,calibrator_syn_no_feedback,NULL,PennController,110,_Trial_,Start,1739897660660,undefined,764,furniture,verb,noun,B,NULL
1739898149,19ce432b7c591b0354d6ad32fbe691db,PennController,99,0,calibrator_syn_no_feedback,NULL,PennController,110,_Header_,Start,1739897660660,undefined,764,furniture,verb,noun,B,NULL
1739898149,19ce432b7c591b0354d6ad32fbe691db,PennController,99,0,calibrator_syn_no_feedback,NULL,PennController,110,_Header_,End,1739897660914,undefined,764,furniture,verb,noun,B,NULL
1739898149,19ce432b7c591b0354d6ad32fbe691db,PennController,99,0,calibrator_syn_no_feedback,NULL,Selector,unnamed-Selector,Selection,noun,1739897662180,undefined,764,furniture,verb,noun,B,verb;noun
1739898149,19ce432b7c591b0354d6ad32fbe691db,PennController,99,0,calibrator_syn_no_feedback,NULL,PennController,110,_Trial_,End,1739897662181,undefined,764,furniture,verb,noun,B,NULL
# 13. Comments.
1739898149,19ce432b7c591b0354d6ad32fbe691db,PennController,136,0,endinstructions_syn,NULL,PennController,14,_Trial_,Start,1739897662182,NULL
1739898149,19ce432b7c591b0354d6ad32fbe691db,PennController,136,0,endinstructions_syn,NULL,PennController,14,_Header_,Start,1739897662182,NULL
1739898149,19ce432b7c591b0354d6ad32fbe691db,PennController,136,0,endinstructions_syn,NULL,PennController,14,_Header_,End,1739897662436,NULL
1739898149,19ce432b7c591b0354d6ad32fbe691db,PennController,136,0,endinstructions_syn,NULL,PennController,14,_Trial_,End,1739897665491,NULL
# 13. ID.
# 14. ReactionTime.
# 15. Word.
# 16. ConcValCombo.
# 17. Key_value_F.
# 18. Key_value_J.
# 19. Group.
# 20. Comments.
1739898149,19ce432b7c591b0354d6ad32fbe691db,PennController,5,0,test_syn,NULL,PennController,16,_Trial_,Start,1739897665492,undefined,801,garbage,concrete-negative,verb,noun,B,NULL
1739898149,19ce432b7c591b0354d6ad32fbe691db,PennController,5,0,test_syn,NULL,PennController,16,_Header_,Start,1739897665492,undefined,801,garbage,concrete-negative,verb,noun,B,NULL
1739898149,19ce432b7c591b0354d6ad32fbe691db,PennController,5,0,test_syn,NULL,PennController,16,_Header_,End,1739897665747,undefined,801,garbage,concrete-negative,verb,noun,B,NULL
1739898149,19ce432b7c591b0354d6ad32fbe691db,PennController,5,0,test_syn,NULL,Selector,unnamed-Selector,Selection,noun,1739897667050,undefined,801,garbage,concrete-negative,verb,noun,B,verb;noun
1739898149,19ce432b7c591b0354d6ad32fbe691db,PennController,5,0,test_syn,NULL,PennController,16,_Trial_,End,1739897667051,undefined,801,garbage,concrete-negative,verb,noun,B,NULL
1739898149,19ce432b7c591b0354d6ad32fbe691db,PennController,28,0,test_syn,NULL,PennController,39,_Trial_,Start,1739897667052,undefined,864,kindness,abstract-positive,verb,noun,B,NULL
1739898149,19ce432b7c591b0354d6ad32fbe691db,PennController,28,0,test_syn,NULL,PennController,39,_Header_,Start,1739897667052,undefined,864,kindness,abstract-positive,verb,noun,B,NULL
1739898149,19ce432b7c591b0354d6ad32fbe691db,PennController,28,0,test_syn,NULL,PennController,39,_Header_,End,1739897667304,undefined,864,kindness,abstract-positive,verb,noun,B,NULL
1739898149,19ce432b7c591b0354d6ad32fbe691db,PennController,28,0,test_syn,NULL,Selector,unnamed-Selector,Selection,noun,1739897668672,undefined,864,kindness,abstract-positive,verb,noun,B,verb;noun
1739898149,19ce432b7c591b0354d6ad32fbe691db,PennController,28,0,test_syn,NULL,PennController,39,_Trial_,End,1739897668673,undefined,864,kindness,abstract-positive,verb,noun,B,NULL
1739898149,19ce432b7c591b0354d6ad32fbe691db,PennController,9,0,test_syn,NULL,PennController,20,_Trial_,Start,1739897668674,undefined,779,choke,concrete-negative,verb,noun,B,NULL
1739898149,19ce432b7c591b0354d6ad32fbe691db,PennController,9,0,test_syn,NULL,PennController,20,_Header_,Start,1739897668674,undefined,779,choke,concrete-negative,verb,noun,B,NULL
1739898149,19ce432b7c591b0354d6ad32fbe691db,PennController,9,0,test_syn,NULL,PennController,20,_Header_,End,1739897668926,undefined,779,choke,concrete-negative,verb,noun,B,NULL
1739898149,19ce432b7c591b0354d6ad32fbe691db,PennController,9,0,test_syn,NULL,Selector,unnamed-Selector,Selection,verb,1739897670207,undefined,779,choke,concrete-negative,verb,noun,B,verb;noun
1739898149,19ce432b7c591b0354d6ad32fbe691db,PennController,9,0,test_syn,NULL,PennController,20,_Trial_,End,1739897670208,undefined,779,choke,concrete-negative,verb,noun,B,NULL
1739898149,19ce432b7c591b0354d6ad32fbe691db,PennController,38,0,test_syn,NULL,PennController,49,_Trial_,Start,1739897670208,undefined,603,home,concrete-postiive,verb,noun,B,NULL
1739898149,19ce432b7c591b0354d6ad32fbe691db,PennController,38,0,test_syn,NULL,PennController,49,_Header_,Start,1739897670208,undefined,603,home,concrete-postiive,verb,noun,B,NULL
1739898149,19ce432b7c591b0354d6ad32fbe691db,PennController,38,0,test_syn,NULL,PennController,49,_Header_,End,1739897670460,undefined,603,home,concrete-postiive,verb,noun,B,NULL
1739898149,19ce432b7c591b0354d6ad32fbe691db,PennController,38,0,test_syn,NULL,Selector,unnamed-Selector,Selection,noun,1739897671567,undefined,603,home,concrete-postiive,verb,noun,B,verb;noun
1739898149,19ce432b7c591b0354d6ad32fbe691db,PennController,38,0,test_syn,NULL,PennController,49,_Trial_,End,1739897671567,undefined,603,home,concrete-postiive,verb,noun,B,NULL
1739898149,19ce432b7c591b0354d6ad32fbe691db,PennController,10,0,test_syn,NULL,PennController,21,_Trial_,Start,1739897671568,undefined,861,fester,concrete-negative,verb,noun,B,NULL
1739898149,19ce432b7c591b0354d6ad32fbe691db,PennController,10,0,test_syn,NULL,PennController,21,_Header_,Start,1739897671568,undefined,861,fester,concrete-negative,verb,noun,B,NULL
1739898149,19ce432b7c591b0354d6ad32fbe691db,PennController,10,0,test_syn,NULL,PennController,21,_Header_,End,1739897671820,undefined,861,fester,concrete-negative,verb,noun,B,NULL
1739898149,19ce432b7c591b0354d6ad32fbe691db,PennController,10,0,test_syn,NULL,Selector,unnamed-Selector,Selection,verb,1739897673186,undefined,861,fester,concrete-negative,verb,noun,B,verb;noun
1739898149,19ce432b7c591b0354d6ad32fbe691db,PennController,10,0,test_syn,NULL,PennController,21,_Trial_,End,1739897673188,undefined,861,fester,concrete-negative,verb,noun,B,NULL
1739898149,19ce432b7c591b0354d6ad32fbe691db,PennController,29,0,test_syn,NULL,PennController,40,_Trial_,Start,1739897673189,undefined,727,admire,abstract-positive,verb,noun,B,NULL
1739898149,19ce432b7c591b0354d6ad32fbe691db,PennController,29,0,test_syn,NULL,PennController,40,_Header_,Start,1739897673189,undefined,727,admire,abstract-positive,verb,noun,B,NULL
1739898149,19ce432b7c591b0354d6ad32fbe691db,PennController,29,0,test_syn,NULL,PennController,40,_Header_,End,1739897673442,undefined,727,admire,abstract-positive,verb,noun,B,NULL
1739898149,19ce432b7c591b0354d6ad32fbe691db,PennController,29,0,test_syn,NULL,Selector,unnamed-Selector,Selection,verb,1739897674673,undefined,727,admire,abstract-positive,verb,noun,B,verb;noun
1739898149,19ce432b7c591b0354d6ad32fbe691db,PennController,29,0,test_syn,NULL,PennController,40,_Trial_,End,1739897674675,undefined,727,admire,abstract-positive,verb,noun,B,NULL
1739898149,19ce432b7c591b0354d6ad32fbe691db,PennController,30,0,test_syn,NULL,PennController,41,_Trial_,Start,1739897674676,undefined,747,cherish,abstract-positive,verb,noun,B,NULL
1739898149,19ce432b7c591b0354d6ad32fbe691db,PennController,30,0,test_syn,NULL,PennController,41,_Header_,Start,1739897674676,undefined,747,cherish,abstract-positive,verb,noun,B,NULL
1739898149,19ce432b7c591b0354d6ad32fbe691db,PennController,30,0,test_syn,NULL,PennController,41,_Header_,End,1739897674928,undefined,747,cherish,abstract-positive,verb,noun,B,NULL
1739898149,19ce432b7c591b0354d6ad32fbe691db,PennController,30,0,test_syn,NULL,Selector,unnamed-Selector,Selection,verb,1739897676176,undefined,747,cherish,abstract-positive,verb,noun,B,verb;noun
1739898149,19ce432b7c591b0354d6ad32fbe691db,PennController,30,0,test_syn,NULL,PennController,41,_Trial_,End,1739897676177,undefined,747,cherish,abstract-positive,verb,noun,B,NULL
1739898149,19ce432b7c591b0354d6ad32fbe691db,PennController,22,0,test_syn,NULL,PennController,33,_Trial_,Start,1739897676178,undefined,842,resent,abstract-negative,verb,noun,B,NULL
1739898149,19ce432b7c591b0354d6ad32fbe691db,PennController,22,0,test_syn,NULL,PennController,33,_Header_,Start,1739897676178,undefined,842,resent,abstract-negative,verb,noun,B,NULL
1739898149,19ce432b7c591b0354d6ad32fbe691db,PennController,22,0,test_syn,NULL,PennController,33,_Header_,End,1739897676430,undefined,842,resent,abstract-negative,verb,noun,B,NULL
1739898149,19ce432b7c591b0354d6ad32fbe691db,PennController,22,0,test_syn,NULL,Selector,unnamed-Selector,Selection,verb,1739897677778,undefined,842,resent,abstract-negative,verb,noun,B,verb;noun
1739898149,19ce432b7c591b0354d6ad32fbe691db,PennController,22,0,test_syn,NULL,PennController,33,_Trial_,End,1739897677779,undefined,842,resent,abstract-negative,verb,noun,B,NULL
1739898149,19ce432b7c591b0354d6ad32fbe691db,PennController,15,0,test_syn,NULL,PennController,26,_Trial_,Start,1739897677780,undefined,668,hatred,abstract-negative,verb,noun,B,NULL
1739898149,19ce432b7c591b0354d6ad32fbe691db,PennController,15,0,test_syn,NULL,PennController,26,_Header_,Start,1739897677780,undefined,668,hatred,abstract-negative,verb,noun,B,NULL
1739898149,19ce432b7c591b0354d6ad32fbe691db,PennController,15,0,test_syn,NULL,PennController,26,_Header_,End,1739897678034,undefined,668,hatred,abstract-negative,verb,noun,B,NULL
1739898149,19ce432b7c591b0354d6ad32fbe691db,PennController,15,0,test_syn,NULL,Selector,unnamed-Selector,Selection,verb,1739897679203,undefined,668,hatred,abstract-negative,verb,noun,B,verb;noun
1739898149,19ce432b7c591b0354d6ad32fbe691db,PennController,15,0,test_syn,NULL,PennController,26,_Trial_,End,1739897679205,undefined,668,hatred,abstract-negative,verb,noun,B,NULL
1739898149,19ce432b7c591b0354d6ad32fbe691db,PennController,41,0,test_syn,NULL,PennController,52,_Trial_,Start,1739897679206,undefined,1188,glisten,concrete-postiive,verb,noun,B,NULL
1739898149,19ce432b7c591b0354d6ad32fbe691db,PennController,41,0,test_syn,NULL,PennController,52,_Header_,Start,1739897679206,undefined,1188,glisten,concrete-postiive,verb,noun,B,NULL
1739898149,19ce432b7c591b0354d6ad32fbe691db,PennController,41,0,test_syn,NULL,PennController,52,_Header_,End,1739897679456,undefined,1188,glisten,concrete-postiive,verb,noun,B,NULL
1739898149,19ce432b7c591b0354d6ad32fbe691db,PennController,41,0,test_syn,NULL,Selector,unnamed-Selector,Selection,verb,1739897681147,undefined,1188,glisten,concrete-postiive,verb,noun,B,verb;noun
1739898149,19ce432b7c591b0354d6ad32fbe691db,PennController,41,0,test_syn,NULL,PennController,52,_Trial_,End,1739897681147,undefined,1188,glisten,concrete-postiive,verb,noun,B,NULL
1739898149,19ce432b7c591b0354d6ad32fbe691db,PennController,14,0,test_syn,NULL,PennController,25,_Trial_,Start,1739897681148,undefined,1459,terror,abstract-negative,verb,noun,B,NULL
1739898149,19ce432b7c591b0354d6ad32fbe691db,PennController,14,0,test_syn,NULL,PennController,25,_Header_,Start,1739897681148,undefined,1459,terror,abstract-negative,verb,noun,B,NULL
1739898149,19ce432b7c591b0354d6ad32fbe691db,PennController,14,0,test_syn,NULL,PennController,25,_Header_,End,1739897681399,undefined,1459,terror,abstract-negative,verb,noun,B,NULL
1739898149,19ce432b7c591b0354d6ad32fbe691db,PennController,14,0,test_syn,NULL,Selector,unnamed-Selector,Selection,noun,1739897683363,undefined,1459,terror,abstract-negative,verb,noun,B,verb;noun
1739898149,19ce432b7c591b0354d6ad32fbe691db,PennController,14,0,test_syn,NULL,PennController,25,_Trial_,End,1739897683364,undefined,1459,terror,abstract-negative,verb,noun,B,NULL
1739898149,19ce432b7c591b0354d6ad32fbe691db,PennController,27,0,test_syn,NULL,PennController,38,_Trial_,Start,1739897683365,undefined,1958,inspiration,abstract-positive,verb,noun,B,NULL
1739898149,19ce432b7c591b0354d6ad32fbe691db,PennController,27,0,test_syn,NULL,PennController,38,_Header_,Start,1739897683365,undefined,1958,inspiration,abstract-positive,verb,noun,B,NULL
1739898149,19ce432b7c591b0354d6ad32fbe691db,PennController,27,0,test_syn,NULL,PennController,38,_Header_,End,1739897683616,undefined,1958,inspiration,abstract-positive,verb,noun,B,NULL
1739898149,19ce432b7c591b0354d6ad32fbe691db,PennController,27,0,test_syn,NULL,Selector,unnamed-Selector,Selection,noun,1739897686075,undefined,1958,inspiration,abstract-positive,verb,noun,B,verb;noun
1739898149,19ce432b7c591b0354d6ad32fbe691db,PennController,27,0,test_syn,NULL,PennController,38,_Trial_,End,1739897686076,undefined,1958,inspiration,abstract-positive,verb,noun,B,NULL
1739898149,19ce432b7c591b0354d6ad32fbe691db,PennController,11,0,test_syn,NULL,PennController,22,_Trial_,Start,1739897686077,undefined,1162,writhe,concrete-negative,verb,noun,B,NULL
1739898149,19ce432b7c591b0354d6ad32fbe691db,PennController,11,0,test_syn,NULL,PennController,22,_Header_,Start,1739897686077,undefined,1162,writhe,concrete-negative,verb,noun,B,NULL
1739898149,19ce432b7c591b0354d6ad32fbe691db,PennController,11,0,test_syn,NULL,PennController,22,_Header_,End,1739897686329,undefined,1162,writhe,concrete-negative,verb,noun,B,NULL
1739898149,19ce432b7c591b0354d6ad32fbe691db,PennController,11,0,test_syn,NULL,Selector,unnamed-Selector,Selection,verb,1739897687996,undefined,1162,writhe,concrete-negative,verb,noun,B,verb;noun
1739898149,19ce432b7c591b0354d6ad32fbe691db,PennController,11,0,test_syn,NULL,PennController,22,_Trial_,End,1739897687997,undefined,1162,writhe,concrete-negative,verb,noun,B,NULL
1739898149,19ce432b7c591b0354d6ad32fbe691db,PennController,36,0,test_syn,NULL,PennController,47,_Trial_,Start,1739897687999,undefined,747,fireplace,concrete-postiive,verb,noun,B,NULL
1739898149,19ce432b7c591b0354d6ad32fbe691db,PennController,36,0,test_syn,NULL,PennController,47,_Header_,Start,1739897687999,undefined,747,fireplace,concrete-postiive,verb,noun,B,NULL
1739898149,19ce432b7c591b0354d6ad32fbe691db,PennController,36,0,test_syn,NULL,PennController,47,_Header_,End,1739897688250,undefined,747,fireplace,concrete-postiive,verb,noun,B,NULL
1739898149,19ce432b7c591b0354d6ad32fbe691db,PennController,36,0,test_syn,NULL,Selector,unnamed-Selector,Selection,noun,1739897689498,undefined,747,fireplace,concrete-postiive,verb,noun,B,verb;noun
1739898149,19ce432b7c591b0354d6ad32fbe691db,PennController,36,0,test_syn,NULL,PennController,47,_Trial_,End,1739897689500,undefined,747,fireplace,concrete-postiive,verb,noun,B,NULL
1739898149,19ce432b7c591b0354d6ad32fbe691db,PennController,32,0,test_syn,NULL,PennController,43,_Trial_,Start,1739897689501,undefined,916,fulfill,abstract-positive,verb,noun,B,NULL
1739898149,19ce432b7c591b0354d6ad32fbe691db,PennController,32,0,test_syn,NULL,PennController,43,_Header_,Start,1739897689501,undefined,916,fulfill,abstract-positive,verb,noun,B,NULL
1739898149,19ce432b7c591b0354d6ad32fbe691db,PennController,32,0,test_syn,NULL,PennController,43,_Header_,End,1739897689754,undefined,916,fulfill,abstract-positive,verb,noun,B,NULL
1739898149,19ce432b7c591b0354d6ad32fbe691db,PennController,32,0,test_syn,NULL,Selector,unnamed-Selector,Selection,verb,1739897691175,undefined,916,fulfill,abstract-positive,verb,noun,B,verb;noun
1739898149,19ce432b7c591b0354d6ad32fbe691db,PennController,32,0,test_syn,NULL,PennController,43,_Trial_,End,1739897691175,undefined,916,fulfill,abstract-positive,verb,noun,B,NULL
1739898149,19ce432b7c591b0354d6ad32fbe691db,PennController,19,0,test_syn,NULL,PennController,30,_Trial_,Start,1739897691176,undefined,846,befall,abstract-negative,verb,noun,B,NULL
1739898149,19ce432b7c591b0354d6ad32fbe691db,PennController,19,0,test_syn,NULL,PennController,30,_Header_,Start,1739897691176,undefined,846,befall,abstract-negative,verb,noun,B,NULL
1739898149,19ce432b7c591b0354d6ad32fbe691db,PennController,19,0,test_syn,NULL,PennController,30,_Header_,End,1739897691426,undefined,846,befall,abstract-negative,verb,noun,B,NULL
1739898149,19ce432b7c591b0354d6ad32fbe691db,PennController,19,0,test_syn,NULL,Selector,unnamed-Selector,Selection,verb,1739897692773,undefined,846,befall,abstract-negative,verb,noun,B,verb;noun
1739898149,19ce432b7c591b0354d6ad32fbe691db,PennController,19,0,test_syn,NULL,PennController,30,_Trial_,End,1739897692775,undefined,846,befall,abstract-negative,verb,noun,B,NULL
1739898149,19ce432b7c591b0354d6ad32fbe691db,PennController,35,0,test_syn,NULL,PennController,46,_Trial_,Start,1739897692776,undefined,849,chocolate,concrete-postiive,verb,noun,B,NULL
1739898149,19ce432b7c591b0354d6ad32fbe691db,PennController,35,0,test_syn,NULL,PennController,46,_Header_,Start,1739897692776,undefined,849,chocolate,concrete-postiive,verb,noun,B,NULL
1739898149,19ce432b7c591b0354d6ad32fbe691db,PennController,35,0,test_syn,NULL,PennController,46,_Header_,End,1739897693030,undefined,849,chocolate,concrete-postiive,verb,noun,B,NULL
1739898149,19ce432b7c591b0354d6ad32fbe691db,PennController,35,0,test_syn,NULL,Selector,unnamed-Selector,Selection,noun,1739897694383,undefined,849,chocolate,concrete-postiive,verb,noun,B,verb;noun
1739898149,19ce432b7c591b0354d6ad32fbe691db,PennController,35,0,test_syn,NULL,PennController,46,_Trial_,End,1739897694384,undefined,849,chocolate,concrete-postiive,verb,noun,B,NULL
1739898149,19ce432b7c591b0354d6ad32fbe691db,PennController,42,0,test_syn,NULL,PennController,53,_Trial_,Start,1739897694385,undefined,860,eat,concrete-postiive,verb,noun,B,NULL
1739898149,19ce432b7c591b0354d6ad32fbe691db,PennController,42,0,test_syn,NULL,PennController,53,_Header_,Start,1739897694385,undefined,860,eat,concrete-postiive,verb,noun,B,NULL
1739898149,19ce432b7c591b0354d6ad32fbe691db,PennController,42,0,test_syn,NULL,PennController,53,_Header_,End,1739897694635,undefined,860,eat,concrete-postiive,verb,noun,B,NULL
1739898149,19ce432b7c591b0354d6ad32fbe691db,PennController,42,0,test_syn,NULL,Selector,unnamed-Selector,Selection,verb,1739897696000,undefined,860,eat,concrete-postiive,verb,noun,B,verb;noun
1739898149,19ce432b7c591b0354d6ad32fbe691db,PennController,42,0,test_syn,NULL,PennController,53,_Trial_,End,1739897696002,undefined,860,eat,concrete-postiive,verb,noun,B,NULL
1739898149,19ce432b7c591b0354d6ad32fbe691db,PennController,33,0,test_syn,NULL,PennController,44,_Trial_,Start,1739897696003,undefined,804,imagine,abstract-positive,verb,noun,B,NULL
1739898149,19ce432b7c591b0354d6ad32fbe691db,PennController,33,0,test_syn,NULL,PennController,44,_Header_,Start,1739897696003,undefined,804,imagine,abstract-positive,verb,noun,B,NULL
1739898149,19ce432b7c591b0354d6ad32fbe691db,PennController,33,0,test_syn,NULL,PennController,44,_Header_,End,1739897696256,undefined,804,imagine,abstract-positive,verb,noun,B,NULL
1739898149,19ce432b7c591b0354d6ad32fbe691db,PennController,33,0,test_syn,NULL,Selector,unnamed-Selector,Selection,verb,1739897697564,undefined,804,imagine,abstract-positive,verb,noun,B,verb;noun
1739898149,19ce432b7c591b0354d6ad32fbe691db,PennController,33,0,test_syn,NULL,PennController,44,_Trial_,End,1739897697566,undefined,804,imagine,abstract-positive,verb,noun,B,NULL
1739898149,19ce432b7c591b0354d6ad32fbe691db,PennController,16,0,test_syn,NULL,PennController,27,_Trial_,Start,1739897697567,undefined,861,anxiety,abstract-negative,verb,noun,B,NULL
1739898149,19ce432b7c591b0354d6ad32fbe691db,PennController,16,0,test_syn,NULL,PennController,27,_Header_,Start,1739897697567,undefined,861,anxiety,abstract-negative,verb,noun,B,NULL
1739898149,19ce432b7c591b0354d6ad32fbe691db,PennController,16,0,test_syn,NULL,PennController,27,_Header_,End,1739897697820,undefined,861,anxiety,abstract-negative,verb,noun,B,NULL
1739898149,19ce432b7c591b0354d6ad32fbe691db,PennController,16,0,test_syn,NULL,Selector,unnamed-Selector,Selection,noun,1739897699184,undefined,861,anxiety,abstract-negative,verb,noun,B,verb;noun
1739898149,19ce432b7c591b0354d6ad32fbe691db,PennController,16,0,test_syn,NULL,PennController,27,_Trial_,End,1739897699185,undefined,861,anxiety,abstract-negative,verb,noun,B,NULL
1739898149,19ce432b7c591b0354d6ad32fbe691db,PennController,6,0,test_syn,NULL,PennController,17,_Trial_,Start,1739897699187,undefined,1175,mud,concrete-negative,verb,noun,B,NULL
1739898149,19ce432b7c591b0354d6ad32fbe691db,PennController,6,0,test_syn,NULL,PennController,17,_Header_,Start,1739897699187,undefined,1175,mud,concrete-negative,verb,noun,B,NULL
1739898149,19ce432b7c591b0354d6ad32fbe691db,PennController,6,0,test_syn,NULL,PennController,17,_Header_,End,1739897699438,undefined,1175,mud,concrete-negative,verb,noun,B,NULL
1739898149,19ce432b7c591b0354d6ad32fbe691db,PennController,6,0,test_syn,NULL,Selector,unnamed-Selector,Selection,noun,1739897701119,undefined,1175,mud,concrete-negative,verb,noun,B,verb;noun
1739898149,19ce432b7c591b0354d6ad32fbe691db,PennController,6,0,test_syn,NULL,PennController,17,_Trial_,End,1739897701121,undefined,1175,mud,concrete-negative,verb,noun,B,NULL
1739898149,19ce432b7c591b0354d6ad32fbe691db,PennController,13,0,test_syn,NULL,PennController,24,_Trial_,Start,1739897701122,undefined,1013,stab,concrete-negative,verb,noun,B,NULL
1739898149,19ce432b7c591b0354d6ad32fbe691db,PennController,13,0,test_syn,NULL,PennController,24,_Header_,Start,1739897701122,undefined,1013,stab,concrete-negative,verb,noun,B,NULL
1739898149,19ce432b7c591b0354d6ad32fbe691db,PennController,13,0,test_syn,NULL,PennController,24,_Header_,End,1739897701375,undefined,1013,stab,concrete-negative,verb,noun,B,NULL
1739898149,19ce432b7c591b0354d6ad32fbe691db,PennController,13,0,test_syn,NULL,Selector,unnamed-Selector,Selection,verb,1739897702890,undefined,1013,stab,concrete-negative,verb,noun,B,verb;noun
1739898149,19ce432b7c591b0354d6ad32fbe691db,PennController,13,0,test_syn,NULL,PennController,24,_Trial_,End,1739897702891,undefined,1013,stab,concrete-negative,verb,noun,B,NULL
1739898149,19ce432b7c591b0354d6ad32fbe691db,PennController,7,0,test_syn,NULL,PennController,18,_Trial_,Start,1739897702892,undefined,1488,corpse,concrete-negative,verb,noun,B,NULL
1739898149,19ce432b7c591b0354d6ad32fbe691db,PennController,7,0,test_syn,NULL,PennController,18,_Header_,Start,1739897702892,undefined,1488,corpse,concrete-negative,verb,noun,B,NULL
1739898149,19ce432b7c591b0354d6ad32fbe691db,PennController,7,0,test_syn,NULL,PennController,18,_Header_,End,1739897703143,undefined,1488,corpse,concrete-negative,verb,noun,B,NULL
1739898149,19ce432b7c591b0354d6ad32fbe691db,PennController,7,0,test_syn,NULL,Selector,unnamed-Selector,Selection,noun,1739897705135,undefined,1488,corpse,concrete-negative,verb,noun,B,verb;noun
1739898149,19ce432b7c591b0354d6ad32fbe691db,PennController,7,0,test_syn,NULL,PennController,18,_Trial_,End,1739897705136,undefined,1488,corpse,concrete-negative,verb,noun,B,NULL
1739898149,19ce432b7c591b0354d6ad32fbe691db,PennController,21,0,test_syn,NULL,PennController,32,_Trial_,Start,1739897705137,undefined,733,exploit,abstract-negative,verb,noun,B,NULL
1739898149,19ce432b7c591b0354d6ad32fbe691db,PennController,21,0,test_syn,NULL,PennController,32,_Header_,Start,1739897705137,undefined,733,exploit,abstract-negative,verb,noun,B,NULL
1739898149,19ce432b7c591b0354d6ad32fbe691db,PennController,21,0,test_syn,NULL,PennController,32,_Header_,End,1739897705390,undefined,733,exploit,abstract-negative,verb,noun,B,NULL
1739898149,19ce432b7c591b0354d6ad32fbe691db,PennController,21,0,test_syn,NULL,Selector,unnamed-Selector,Selection,verb,1739897706630,undefined,733,exploit,abstract-negative,verb,noun,B,verb;noun
1739898149,19ce432b7c591b0354d6ad32fbe691db,PennController,21,0,test_syn,NULL,PennController,32,_Trial_,End,1739897706630,undefined,733,exploit,abstract-negative,verb,noun,B,NULL
1739898149,19ce432b7c591b0354d6ad32fbe691db,PennController,43,0,test_syn,NULL,PennController,54,_Trial_,Start,1739897706631,undefined,757,running,concrete-postiive,verb,noun,B,NULL
1739898149,19ce432b7c591b0354d6ad32fbe691db,PennController,43,0,test_syn,NULL,PennController,54,_Header_,Start,1739897706631,undefined,757,running,concrete-postiive,verb,noun,B,NULL
1739898149,19ce432b7c591b0354d6ad32fbe691db,PennController,43,0,test_syn,NULL,PennController,54,_Header_,End,1739897706883,undefined,757,running,concrete-postiive,verb,noun,B,NULL
1739898149,19ce432b7c591b0354d6ad32fbe691db,PennController,43,0,test_syn,NULL,Selector,unnamed-Selector,Selection,verb,1739897708146,undefined,757,running,concrete-postiive,verb,noun,B,verb;noun
1739898149,19ce432b7c591b0354d6ad32fbe691db,PennController,43,0,test_syn,NULL,PennController,54,_Trial_,End,1739897708147,undefined,757,running,concrete-postiive,verb,noun,B,NULL
1739898149,19ce432b7c591b0354d6ad32fbe691db,PennController,40,0,test_syn,NULL,PennController,51,_Trial_,Start,1739897708148,undefined,732,breathe,concrete-postiive,verb,noun,B,NULL
1739898149,19ce432b7c591b0354d6ad32fbe691db,PennController,40,0,test_syn,NULL,PennController,51,_Header_,Start,1739897708148,undefined,732,breathe,concrete-postiive,verb,noun,B,NULL
1739898149,19ce432b7c591b0354d6ad32fbe691db,PennController,40,0,test_syn,NULL,PennController,51,_Header_,End,1739897708402,undefined,732,breathe,concrete-postiive,verb,noun,B,NULL
1739898149,19ce432b7c591b0354d6ad32fbe691db,PennController,40,0,test_syn,NULL,Selector,unnamed-Selector,Selection,verb,1739897709641,undefined,732,breathe,concrete-postiive,verb,noun,B,verb;noun
1739898149,19ce432b7c591b0354d6ad32fbe691db,PennController,40,0,test_syn,NULL,PennController,51,_Trial_,End,1739897709641,undefined,732,breathe,concrete-postiive,verb,noun,B,NULL
1739898149,19ce432b7c591b0354d6ad32fbe691db,PennController,17,0,test_syn,NULL,PennController,28,_Trial_,Start,1739897709641,undefined,1224,failure,abstract-negative,verb,noun,B,NULL
1739898149,19ce432b7c591b0354d6ad32fbe691db,PennController,17,0,test_syn,NULL,PennController,28,_Header_,Start,1739897709641,undefined,1224,failure,abstract-negative,verb,noun,B,NULL
1739898149,19ce432b7c591b0354d6ad32fbe691db,PennController,17,0,test_syn,NULL,PennController,28,_Header_,End,1739897709894,undefined,1224,failure,abstract-negative,verb,noun,B,NULL
1739898149,19ce432b7c591b0354d6ad32fbe691db,PennController,17,0,test_syn,NULL,Selector,unnamed-Selector,Selection,noun,1739897711622,undefined,1224,failure,abstract-negative,verb,noun,B,verb;noun
1739898149,19ce432b7c591b0354d6ad32fbe691db,PennController,17,0,test_syn,NULL,PennController,28,_Trial_,End,1739897711622,undefined,1224,failure,abstract-negative,verb,noun,B,NULL
1739898149,19ce432b7c591b0354d6ad32fbe691db,PennController,18,0,test_syn,NULL,PennController,29,_Trial_,Start,1739897711622,undefined,927,grief,abstract-negative,verb,noun,B,NULL
1739898149,19ce432b7c591b0354d6ad32fbe691db,PennController,18,0,test_syn,NULL,PennController,29,_Header_,Start,1739897711622,undefined,927,grief,abstract-negative,verb,noun,B,NULL
1739898149,19ce432b7c591b0354d6ad32fbe691db,PennController,18,0,test_syn,NULL,PennController,29,_Header_,End,1739897711875,undefined,927,grief,abstract-negative,verb,noun,B,NULL
1739898149,19ce432b7c591b0354d6ad32fbe691db,PennController,18,0,test_syn,NULL,Selector,unnamed-Selector,Selection,noun,1739897713307,undefined,927,grief,abstract-negative,verb,noun,B,verb;noun
1739898149,19ce432b7c591b0354d6ad32fbe691db,PennController,18,0,test_syn,NULL,PennController,29,_Trial_,End,1739897713308,undefined,927,grief,abstract-negative,verb,noun,B,NULL
1739898149,19ce432b7c591b0354d6ad32fbe691db,PennController,12,0,test_syn,NULL,PennController,23,_Trial_,Start,1739897713308,undefined,852,bleed,concrete-negative,verb,noun,B,NULL
1739898149,19ce432b7c591b0354d6ad32fbe691db,PennController,12,0,test_syn,NULL,PennController,23,_Header_,Start,1739897713308,undefined,852,bleed,concrete-negative,verb,noun,B,NULL
1739898149,19ce432b7c591b0354d6ad32fbe691db,PennController,12,0,test_syn,NULL,PennController,23,_Header_,End,1739897713561,undefined,852,bleed,concrete-negative,verb,noun,B,NULL
1739898149,19ce432b7c591b0354d6ad32fbe691db,PennController,12,0,test_syn,NULL,Selector,unnamed-Selector,Selection,verb,1739897714917,undefined,852,bleed,concrete-negative,verb,noun,B,verb;noun
1739898149,19ce432b7c591b0354d6ad32fbe691db,PennController,12,0,test_syn,NULL,PennController,23,_Trial_,End,1739897714918,undefined,852,bleed,concrete-negative,verb,noun,B,NULL
1739898149,19ce432b7c591b0354d6ad32fbe691db,PennController,31,0,test_syn,NULL,PennController,42,_Trial_,Start,1739897714919,undefined,1599,enlighten,abstract-positive,verb,noun,B,NULL
1739898149,19ce432b7c591b0354d6ad32fbe691db,PennController,31,0,test_syn,NULL,PennController,42,_Header_,Start,1739897714919,undefined,1599,enlighten,abstract-positive,verb,noun,B,NULL
1739898149,19ce432b7c591b0354d6ad32fbe691db,PennController,31,0,test_syn,NULL,PennController,42,_Header_,End,1739897715169,undefined,1599,enlighten,abstract-positive,verb,noun,B,NULL
1739898149,19ce432b7c591b0354d6ad32fbe691db,PennController,31,0,test_syn,NULL,Selector,unnamed-Selector,Selection,verb,1739897717268,undefined,1599,enlighten,abstract-positive,verb,noun,B,verb;noun
1739898149,19ce432b7c591b0354d6ad32fbe691db,PennController,31,0,test_syn,NULL,PennController,42,_Trial_,End,1739897717270,undefined,1599,enlighten,abstract-positive,verb,noun,B,NULL
1739898149,19ce432b7c591b0354d6ad32fbe691db,PennController,25,0,test_syn,NULL,PennController,36,_Trial_,Start,1739897717271,undefined,967,freedom,abstract-positive,verb,noun,B,NULL
1739898149,19ce432b7c591b0354d6ad32fbe691db,PennController,25,0,test_syn,NULL,PennController,36,_Header_,Start,1739897717271,undefined,967,freedom,abstract-positive,verb,noun,B,NULL
1739898149,19ce432b7c591b0354d6ad32fbe691db,PennController,25,0,test_syn,NULL,PennController,36,_Header_,End,1739897717524,undefined,967,freedom,abstract-positive,verb,noun,B,NULL
1739898149,19ce432b7c591b0354d6ad32fbe691db,PennController,25,0,test_syn,NULL,Selector,unnamed-Selector,Selection,noun,1739897718998,undefined,967,freedom,abstract-positive,verb,noun,B,verb;noun
1739898149,19ce432b7c591b0354d6ad32fbe691db,PennController,25,0,test_syn,NULL,PennController,36,_Trial_,End,1739897718999,undefined,967,freedom,abstract-positive,verb,noun,B,NULL
1739898149,19ce432b7c591b0354d6ad32fbe691db,PennController,4,0,test_syn,NULL,PennController,15,_Trial_,Start,1739897718999,undefined,959,toxin,concrete-negative,verb,noun,B,NULL
1739898149,19ce432b7c591b0354d6ad32fbe691db,PennController,4,0,test_syn,NULL,PennController,15,_Header_,Start,1739897718999,undefined,959,toxin,concrete-negative,verb,noun,B,NULL
1739898149,19ce432b7c591b0354d6ad32fbe691db,PennController,4,0,test_syn,NULL,PennController,15,_Header_,End,1739897719251,undefined,959,toxin,concrete-negative,verb,noun,B,NULL
1739898149,19ce432b7c591b0354d6ad32fbe691db,PennController,4,0,test_syn,NULL,Selector,unnamed-Selector,Selection,noun,1739897720716,undefined,959,toxin,concrete-negative,verb,noun,B,verb;noun
1739898149,19ce432b7c591b0354d6ad32fbe691db,PennController,4,0,test_syn,NULL,PennController,15,_Trial_,End,1739897720718,undefined,959,toxin,concrete-negative,verb,noun,B,NULL
1739898149,19ce432b7c591b0354d6ad32fbe691db,PennController,26,0,test_syn,NULL,PennController,37,_Trial_,Start,1739897720719,undefined,1777,gratitude,abstract-positive,verb,noun,B,NULL
1739898149,19ce432b7c591b0354d6ad32fbe691db,PennController,26,0,test_syn,NULL,PennController,37,_Header_,Start,1739897720719,undefined,1777,gratitude,abstract-positive,verb,noun,B,NULL
1739898149,19ce432b7c591b0354d6ad32fbe691db,PennController,26,0,test_syn,NULL,PennController,37,_Header_,End,1739897720973,undefined,1777,gratitude,abstract-positive,verb,noun,B,NULL
1739898149,19ce432b7c591b0354d6ad32fbe691db,PennController,26,0,test_syn,NULL,Selector,unnamed-Selector,Selection,noun,1739897723253,undefined,1777,gratitude,abstract-positive,verb,noun,B,verb;noun
1739898149,19ce432b7c591b0354d6ad32fbe691db,PennController,26,0,test_syn,NULL,PennController,37,_Trial_,End,1739897723253,undefined,1777,gratitude,abstract-positive,verb,noun,B,NULL
1739898149,19ce432b7c591b0354d6ad32fbe691db,PennController,23,0,test_syn,NULL,PennController,34,_Trial_,Start,1739897723254,undefined,753,obsess,abstract-negative,verb,noun,B,NULL
1739898149,19ce432b7c591b0354d6ad32fbe691db,PennController,23,0,test_syn,NULL,PennController,34,_Header_,Start,1739897723254,undefined,753,obsess,abstract-negative,verb,noun,B,NULL
1739898149,19ce432b7c591b0354d6ad32fbe691db,PennController,23,0,test_syn,NULL,PennController,34,_Header_,End,1739897723504,undefined,753,obsess,abstract-negative,verb,noun,B,NULL
1739898149,19ce432b7c591b0354d6ad32fbe691db,PennController,23,0,test_syn,NULL,Selector,unnamed-Selector,Selection,verb,1739897724761,undefined,753,obsess,abstract-negative,verb,noun,B,verb;noun
1739898149,19ce432b7c591b0354d6ad32fbe691db,PennController,23,0,test_syn,NULL,PennController,34,_Trial_,End,1739897724762,undefined,753,obsess,abstract-negative,verb,noun,B,NULL
1739898149,19ce432b7c591b0354d6ad32fbe691db,PennController,8,0,test_syn,NULL,PennController,19,_Trial_,Start,1739897724762,undefined,754,slave,concrete-negative,verb,noun,B,NULL
1739898149,19ce432b7c591b0354d6ad32fbe691db,PennController,8,0,test_syn,NULL,PennController,19,_Header_,Start,1739897724762,undefined,754,slave,concrete-negative,verb,noun,B,NULL
1739898149,19ce432b7c591b0354d6ad32fbe691db,PennController,8,0,test_syn,NULL,PennController,19,_Header_,End,1739897725013,undefined,754,slave,concrete-negative,verb,noun,B,NULL
1739898149,19ce432b7c591b0354d6ad32fbe691db,PennController,8,0,test_syn,NULL,Selector,unnamed-Selector,Selection,noun,1739897726272,undefined,754,slave,concrete-negative,verb,noun,B,verb;noun
1739898149,19ce432b7c591b0354d6ad32fbe691db,PennController,8,0,test_syn,NULL,PennController,19,_Trial_,End,1739897726274,undefined,754,slave,concrete-negative,verb,noun,B,NULL
1739898149,19ce432b7c591b0354d6ad32fbe691db,PennController,24,0,test_syn,NULL,PennController,35,_Trial_,Start,1739897726275,undefined,1272,compassion,abstract-positive,verb,noun,B,NULL
1739898149,19ce432b7c591b0354d6ad32fbe691db,PennController,24,0,test_syn,NULL,PennController,35,_Header_,Start,1739897726275,undefined,1272,compassion,abstract-positive,verb,noun,B,NULL
1739898149,19ce432b7c591b0354d6ad32fbe691db,PennController,24,0,test_syn,NULL,PennController,35,_Header_,End,1739897726529,undefined,1272,compassion,abstract-positive,verb,noun,B,NULL
1739898149,19ce432b7c591b0354d6ad32fbe691db,PennController,24,0,test_syn,NULL,Selector,unnamed-Selector,Selection,verb,1739897728304,undefined,1272,compassion,abstract-positive,verb,noun,B,verb;noun
1739898149,19ce432b7c591b0354d6ad32fbe691db,PennController,24,0,test_syn,NULL,PennController,35,_Trial_,End,1739897728305,undefined,1272,compassion,abstract-positive,verb,noun,B,NULL
1739898149,19ce432b7c591b0354d6ad32fbe691db,PennController,39,0,test_syn,NULL,PennController,50,_Trial_,Start,1739897728306,undefined,1141,glide,concrete-postiive,verb,noun,B,NULL
1739898149,19ce432b7c591b0354d6ad32fbe691db,PennController,39,0,test_syn,NULL,PennController,50,_Header_,Start,1739897728306,undefined,1141,glide,concrete-postiive,verb,noun,B,NULL
1739898149,19ce432b7c591b0354d6ad32fbe691db,PennController,39,0,test_syn,NULL,PennController,50,_Header_,End,1739897728559,undefined,1141,glide,concrete-postiive,verb,noun,B,NULL
1739898149,19ce432b7c591b0354d6ad32fbe691db,PennController,39,0,test_syn,NULL,Selector,unnamed-Selector,Selection,verb,1739897730205,undefined,1141,glide,concrete-postiive,verb,noun,B,verb;noun
1739898149,19ce432b7c591b0354d6ad32fbe691db,PennController,39,0,test_syn,NULL,PennController,50,_Trial_,End,1739897730206,undefined,1141,glide,concrete-postiive,verb,noun,B,NULL
1739898149,19ce432b7c591b0354d6ad32fbe691db,PennController,20,0,test_syn,NULL,PennController,31,_Trial_,Start,1739897730207,undefined,910,criticize,abstract-negative,verb,noun,B,NULL
1739898149,19ce432b7c591b0354d6ad32fbe691db,PennController,20,0,test_syn,NULL,PennController,31,_Header_,Start,1739897730207,undefined,910,criticize,abstract-negative,verb,noun,B,NULL
1739898149,19ce432b7c591b0354d6ad32fbe691db,PennController,20,0,test_syn,NULL,PennController,31,_Header_,End,1739897730457,undefined,910,criticize,abstract-negative,verb,noun,B,NULL
1739898149,19ce432b7c591b0354d6ad32fbe691db,PennController,20,0,test_syn,NULL,Selector,unnamed-Selector,Selection,verb,1739897731872,undefined,910,criticize,abstract-negative,verb,noun,B,verb;noun
1739898149,19ce432b7c591b0354d6ad32fbe691db,PennController,20,0,test_syn,NULL,PennController,31,_Trial_,End,1739897731873,undefined,910,criticize,abstract-negative,verb,noun,B,NULL
1739898149,19ce432b7c591b0354d6ad32fbe691db,PennController,34,0,test_syn,NULL,PennController,45,_Trial_,Start,1739897731873,undefined,722,beach,concrete-postiive,verb,noun,B,NULL
1739898149,19ce432b7c591b0354d6ad32fbe691db,PennController,34,0,test_syn,NULL,PennController,45,_Header_,Start,1739897731874,undefined,722,beach,concrete-postiive,verb,noun,B,NULL
1739898149,19ce432b7c591b0354d6ad32fbe691db,PennController,34,0,test_syn,NULL,PennController,45,_Header_,End,1739897732127,undefined,722,beach,concrete-postiive,verb,noun,B,NULL
1739898149,19ce432b7c591b0354d6ad32fbe691db,PennController,34,0,test_syn,NULL,Selector,unnamed-Selector,Selection,noun,1739897733355,undefined,722,beach,concrete-postiive,verb,noun,B,verb;noun
1739898149,19ce432b7c591b0354d6ad32fbe691db,PennController,34,0,test_syn,NULL,PennController,45,_Trial_,End,1739897733356,undefined,722,beach,concrete-postiive,verb,noun,B,NULL
1739898149,19ce432b7c591b0354d6ad32fbe691db,PennController,37,0,test_syn,NULL,PennController,48,_Trial_,Start,1739897733357,undefined,740,flowers,concrete-postiive,verb,noun,B,NULL
1739898149,19ce432b7c591b0354d6ad32fbe691db,PennController,37,0,test_syn,NULL,PennController,48,_Header_,Start,1739897733357,undefined,740,flowers,concrete-postiive,verb,noun,B,NULL
1739898149,19ce432b7c591b0354d6ad32fbe691db,PennController,37,0,test_syn,NULL,PennController,48,_Header_,End,1739897733607,undefined,740,flowers,concrete-postiive,verb,noun,B,NULL
1739898149,19ce432b7c591b0354d6ad32fbe691db,PennController,37,0,test_syn,NULL,Selector,unnamed-Selector,Selection,noun,1739897734853,undefined,740,flowers,concrete-postiive,verb,noun,B,verb;noun
1739898149,19ce432b7c591b0354d6ad32fbe691db,PennController,37,0,test_syn,NULL,PennController,48,_Trial_,End,1739897734854,undefined,740,flowers,concrete-postiive,verb,noun,B,NULL
1739898149,19ce432b7c591b0354d6ad32fbe691db,PennController,31,0,test_syn,NULL,PennController,42,_Trial_,Start,1739897734855,undefined,828,enlighten,abstract-positive,verb,noun,B,NULL
1739898149,19ce432b7c591b0354d6ad32fbe691db,PennController,31,0,test_syn,NULL,PennController,42,_Header_,Start,1739897734855,undefined,828,enlighten,abstract-positive,verb,noun,B,NULL
1739898149,19ce432b7c591b0354d6ad32fbe691db,PennController,31,0,test_syn,NULL,PennController,42,_Header_,End,1739897735109,undefined,828,enlighten,abstract-positive,verb,noun,B,NULL
1739898149,19ce432b7c591b0354d6ad32fbe691db,PennController,31,0,test_syn,NULL,Selector,unnamed-Selector,Selection,verb,1739897736442,undefined,828,enlighten,abstract-positive,verb,noun,B,verb;noun
1739898149,19ce432b7c591b0354d6ad32fbe691db,PennController,31,0,test_syn,NULL,PennController,42,_Trial_,End,1739897736442,undefined,828,enlighten,abstract-positive,verb,noun,B,NULL
1739898149,19ce432b7c591b0354d6ad32fbe691db,PennController,29,0,test_syn,NULL,PennController,40,_Trial_,Start,1739897736443,undefined,822,admire,abstract-positive,verb,noun,B,NULL
1739898149,19ce432b7c591b0354d6ad32fbe691db,PennController,29,0,test_syn,NULL,PennController,40,_Header_,Start,1739897736443,undefined,822,admire,abstract-positive,verb,noun,B,NULL
1739898149,19ce432b7c591b0354d6ad32fbe691db,PennController,29,0,test_syn,NULL,PennController,40,_Header_,End,1739897736693,undefined,822,admire,abstract-positive,verb,noun,B,NULL
1739898149,19ce432b7c591b0354d6ad32fbe691db,PennController,29,0,test_syn,NULL,Selector,unnamed-Selector,Selection,verb,1739897738020,undefined,822,admire,abstract-positive,verb,noun,B,verb;noun
1739898149,19ce432b7c591b0354d6ad32fbe691db,PennController,29,0,test_syn,NULL,PennController,40,_Trial_,End,1739897738021,undefined,822,admire,abstract-positive,verb,noun,B,NULL
1739898149,19ce432b7c591b0354d6ad32fbe691db,PennController,25,0,test_syn,NULL,PennController,36,_Trial_,Start,1739897738022,undefined,836,freedom,abstract-positive,verb,noun,B,NULL
1739898149,19ce432b7c591b0354d6ad32fbe691db,PennController,25,0,test_syn,NULL,PennController,36,_Header_,Start,1739897738022,undefined,836,freedom,abstract-positive,verb,noun,B,NULL
1739898149,19ce432b7c591b0354d6ad32fbe691db,PennController,25,0,test_syn,NULL,PennController,36,_Header_,End,1739897738275,undefined,836,freedom,abstract-positive,verb,noun,B,NULL
1739898149,19ce432b7c591b0354d6ad32fbe691db,PennController,25,0,test_syn,NULL,Selector,unnamed-Selector,Selection,noun,1739897739617,undefined,836,freedom,abstract-positive,verb,noun,B,verb;noun
1739898149,19ce432b7c591b0354d6ad32fbe691db,PennController,25,0,test_syn,NULL,PennController,36,_Trial_,End,1739897739618,undefined,836,freedom,abstract-positive,verb,noun,B,NULL
1739898149,19ce432b7c591b0354d6ad32fbe691db,PennController,26,0,test_syn,NULL,PennController,37,_Trial_,Start,1739897739619,undefined,1712,gratitude,abstract-positive,verb,noun,B,NULL
1739898149,19ce432b7c591b0354d6ad32fbe691db,PennController,26,0,test_syn,NULL,PennController,37,_Header_,Start,1739897739619,undefined,1712,gratitude,abstract-positive,verb,noun,B,NULL
1739898149,19ce432b7c591b0354d6ad32fbe691db,PennController,26,0,test_syn,NULL,PennController,37,_Header_,End,1739897739870,undefined,1712,gratitude,abstract-positive,verb,noun,B,NULL
1739898149,19ce432b7c591b0354d6ad32fbe691db,PennController,26,0,test_syn,NULL,Selector,unnamed-Selector,Selection,noun,1739897742085,undefined,1712,gratitude,abstract-positive,verb,noun,B,verb;noun
1739898149,19ce432b7c591b0354d6ad32fbe691db,PennController,26,0,test_syn,NULL,PennController,37,_Trial_,End,1739897742087,undefined,1712,gratitude,abstract-positive,verb,noun,B,NULL
1739898149,19ce432b7c591b0354d6ad32fbe691db,PennController,21,0,test_syn,NULL,PennController,32,_Trial_,Start,1739897742088,undefined,712,exploit,abstract-negative,verb,noun,B,NULL
1739898149,19ce432b7c591b0354d6ad32fbe691db,PennController,21,0,test_syn,NULL,PennController,32,_Header_,Start,1739897742088,undefined,712,exploit,abstract-negative,verb,noun,B,NULL
1739898149,19ce432b7c591b0354d6ad32fbe691db,PennController,21,0,test_syn,NULL,PennController,32,_Header_,End,1739897742339,undefined,712,exploit,abstract-negative,verb,noun,B,NULL
1739898149,19ce432b7c591b0354d6ad32fbe691db,PennController,21,0,test_syn,NULL,Selector,unnamed-Selector,Selection,verb,1739897743557,undefined,712,exploit,abstract-negative,verb,noun,B,verb;noun
1739898149,19ce432b7c591b0354d6ad32fbe691db,PennController,21,0,test_syn,NULL,PennController,32,_Trial_,End,1739897743558,undefined,712,exploit,abstract-negative,verb,noun,B,NULL
1739898149,19ce432b7c591b0354d6ad32fbe691db,PennController,41,0,test_syn,NULL,PennController,52,_Trial_,Start,1739897743559,undefined,982,glisten,concrete-postiive,verb,noun,B,NULL
1739898149,19ce432b7c591b0354d6ad32fbe691db,PennController,41,0,test_syn,NULL,PennController,52,_Header_,Start,1739897743559,undefined,982,glisten,concrete-postiive,verb,noun,B,NULL
1739898149,19ce432b7c591b0354d6ad32fbe691db,PennController,41,0,test_syn,NULL,PennController,52,_Header_,End,1739897743809,undefined,982,glisten,concrete-postiive,verb,noun,B,NULL
1739898149,19ce432b7c591b0354d6ad32fbe691db,PennController,41,0,test_syn,NULL,Selector,unnamed-Selector,Selection,verb,1739897745293,undefined,982,glisten,concrete-postiive,verb,noun,B,verb;noun
1739898149,19ce432b7c591b0354d6ad32fbe691db,PennController,41,0,test_syn,NULL,PennController,52,_Trial_,End,1739897745293,undefined,982,glisten,concrete-postiive,verb,noun,B,NULL
1739898149,19ce432b7c591b0354d6ad32fbe691db,PennController,22,0,test_syn,NULL,PennController,33,_Trial_,Start,1739897745294,undefined,853,resent,abstract-negative,verb,noun,B,NULL
1739898149,19ce432b7c591b0354d6ad32fbe691db,PennController,22,0,test_syn,NULL,PennController,33,_Header_,Start,1739897745294,undefined,853,resent,abstract-negative,verb,noun,B,NULL
1739898149,19ce432b7c591b0354d6ad32fbe691db,PennController,22,0,test_syn,NULL,PennController,33,_Header_,End,1739897745546,undefined,853,resent,abstract-negative,verb,noun,B,NULL
1739898149,19ce432b7c591b0354d6ad32fbe691db,PennController,22,0,test_syn,NULL,Selector,unnamed-Selector,Selection,verb,1739897746904,undefined,853,resent,abstract-negative,verb,noun,B,verb;noun
1739898149,19ce432b7c591b0354d6ad32fbe691db,PennController,22,0,test_syn,NULL,PennController,33,_Trial_,End,1739897746905,undefined,853,resent,abstract-negative,verb,noun,B,NULL
1739898149,19ce432b7c591b0354d6ad32fbe691db,PennController,32,0,test_syn,NULL,PennController,43,_Trial_,Start,1739897746906,undefined,665,fulfill,abstract-positive,verb,noun,B,NULL
1739898149,19ce432b7c591b0354d6ad32fbe691db,PennController,32,0,test_syn,NULL,PennController,43,_Header_,Start,1739897746906,undefined,665,fulfill,abstract-positive,verb,noun,B,NULL
1739898149,19ce432b7c591b0354d6ad32fbe691db,PennController,32,0,test_syn,NULL,PennController,43,_Header_,End,1739897747160,undefined,665,fulfill,abstract-positive,verb,noun,B,NULL
1739898149,19ce432b7c591b0354d6ad32fbe691db,PennController,32,0,test_syn,NULL,Selector,unnamed-Selector,Selection,verb,1739897748328,undefined,665,fulfill,abstract-positive,verb,noun,B,verb;noun
1739898149,19ce432b7c591b0354d6ad32fbe691db,PennController,32,0,test_syn,NULL,PennController,43,_Trial_,End,1739897748329,undefined,665,fulfill,abstract-positive,verb,noun,B,NULL
1739898149,19ce432b7c591b0354d6ad32fbe691db,PennController,42,0,test_syn,NULL,PennController,53,_Trial_,Start,1739897748329,undefined,781,eat,concrete-postiive,verb,noun,B,NULL
1739898149,19ce432b7c591b0354d6ad32fbe691db,PennController,42,0,test_syn,NULL,PennController,53,_Header_,Start,1739897748329,undefined,781,eat,concrete-postiive,verb,noun,B,NULL
1739898149,19ce432b7c591b0354d6ad32fbe691db,PennController,42,0,test_syn,NULL,PennController,53,_Header_,End,1739897748584,undefined,781,eat,concrete-postiive,verb,noun,B,NULL
1739898149,19ce432b7c591b0354d6ad32fbe691db,PennController,42,0,test_syn,NULL,Selector,unnamed-Selector,Selection,verb,1739897749868,undefined,781,eat,concrete-postiive,verb,noun,B,verb;noun
1739898149,19ce432b7c591b0354d6ad32fbe691db,PennController,42,0,test_syn,NULL,PennController,53,_Trial_,End,1739897749869,undefined,781,eat,concrete-postiive,verb,noun,B,NULL
1739898149,19ce432b7c591b0354d6ad32fbe691db,PennController,39,0,test_syn,NULL,PennController,50,_Trial_,Start,1739897749870,undefined,692,glide,concrete-postiive,verb,noun,B,NULL
1739898149,19ce432b7c591b0354d6ad32fbe691db,PennController,39,0,test_syn,NULL,PennController,50,_Header_,Start,1739897749870,undefined,692,glide,concrete-postiive,verb,noun,B,NULL
1739898149,19ce432b7c591b0354d6ad32fbe691db,PennController,39,0,test_syn,NULL,PennController,50,_Header_,End,1739897750124,undefined,692,glide,concrete-postiive,verb,noun,B,NULL
1739898149,19ce432b7c591b0354d6ad32fbe691db,PennController,39,0,test_syn,NULL,Selector,unnamed-Selector,Selection,verb,1739897751320,undefined,692,glide,concrete-postiive,verb,noun,B,verb;noun
1739898149,19ce432b7c591b0354d6ad32fbe691db,PennController,39,0,test_syn,NULL,PennController,50,_Trial_,End,1739897751320,undefined,692,glide,concrete-postiive,verb,noun,B,NULL
1739898149,19ce432b7c591b0354d6ad32fbe691db,PennController,34,0,test_syn,NULL,PennController,45,_Trial_,Start,1739897751321,undefined,723,beach,concrete-postiive,verb,noun,B,NULL
1739898149,19ce432b7c591b0354d6ad32fbe691db,PennController,34,0,test_syn,NULL,PennController,45,_Header_,Start,1739897751321,undefined,723,beach,concrete-postiive,verb,noun,B,NULL
1739898149,19ce432b7c591b0354d6ad32fbe691db,PennController,34,0,test_syn,NULL,PennController,45,_Header_,End,1739897751572,undefined,723,beach,concrete-postiive,verb,noun,B,NULL
1739898149,19ce432b7c591b0354d6ad32fbe691db,PennController,34,0,test_syn,NULL,Selector,unnamed-Selector,Selection,noun,1739897752797,undefined,723,beach,concrete-postiive,verb,noun,B,verb;noun
1739898149,19ce432b7c591b0354d6ad32fbe691db,PennController,34,0,test_syn,NULL,PennController,45,_Trial_,End,1739897752799,undefined,723,beach,concrete-postiive,verb,noun,B,NULL
1739898149,19ce432b7c591b0354d6ad32fbe691db,PennController,20,0,test_syn,NULL,PennController,31,_Trial_,Start,1739897752800,undefined,825,criticize,abstract-negative,verb,noun,B,NULL
1739898149,19ce432b7c591b0354d6ad32fbe691db,PennController,20,0,test_syn,NULL,PennController,31,_Header_,Start,1739897752800,undefined,825,criticize,abstract-negative,verb,noun,B,NULL
1739898149,19ce432b7c591b0354d6ad32fbe691db,PennController,20,0,test_syn,NULL,PennController,31,_Header_,End,1739897753052,undefined,825,criticize,abstract-negative,verb,noun,B,NULL
1739898149,19ce432b7c591b0354d6ad32fbe691db,PennController,20,0,test_syn,NULL,Selector,unnamed-Selector,Selection,verb,1739897754381,undefined,825,criticize,abstract-negative,verb,noun,B,verb;noun
1739898149,19ce432b7c591b0354d6ad32fbe691db,PennController,20,0,test_syn,NULL,PennController,31,_Trial_,End,1739897754382,undefined,825,criticize,abstract-negative,verb,noun,B,NULL
1739898149,19ce432b7c591b0354d6ad32fbe691db,PennController,27,0,test_syn,NULL,PennController,38,_Trial_,Start,1739897754383,undefined,978,inspiration,abstract-positive,verb,noun,B,NULL
1739898149,19ce432b7c591b0354d6ad32fbe691db,PennController,27,0,test_syn,NULL,PennController,38,_Header_,Start,1739897754383,undefined,978,inspiration,abstract-positive,verb,noun,B,NULL
1739898149,19ce432b7c591b0354d6ad32fbe691db,PennController,27,0,test_syn,NULL,PennController,38,_Header_,End,1739897754638,undefined,978,inspiration,abstract-positive,verb,noun,B,NULL
1739898149,19ce432b7c591b0354d6ad32fbe691db,PennController,27,0,test_syn,NULL,Selector,unnamed-Selector,Selection,noun,1739897756118,undefined,978,inspiration,abstract-positive,verb,noun,B,verb;noun
1739898149,19ce432b7c591b0354d6ad32fbe691db,PennController,27,0,test_syn,NULL,PennController,38,_Trial_,End,1739897756120,undefined,978,inspiration,abstract-positive,verb,noun,B,NULL
1739898149,19ce432b7c591b0354d6ad32fbe691db,PennController,35,0,test_syn,NULL,PennController,46,_Trial_,Start,1739897756120,undefined,725,chocolate,concrete-postiive,verb,noun,B,NULL
1739898149,19ce432b7c591b0354d6ad32fbe691db,PennController,35,0,test_syn,NULL,PennController,46,_Header_,Start,1739897756120,undefined,725,chocolate,concrete-postiive,verb,noun,B,NULL
1739898149,19ce432b7c591b0354d6ad32fbe691db,PennController,35,0,test_syn,NULL,PennController,46,_Header_,End,1739897756373,undefined,725,chocolate,concrete-postiive,verb,noun,B,NULL
1739898149,19ce432b7c591b0354d6ad32fbe691db,PennController,35,0,test_syn,NULL,Selector,unnamed-Selector,Selection,noun,1739897757602,undefined,725,chocolate,concrete-postiive,verb,noun,B,verb;noun
1739898149,19ce432b7c591b0354d6ad32fbe691db,PennController,35,0,test_syn,NULL,PennController,46,_Trial_,End,1739897757603,undefined,725,chocolate,concrete-postiive,verb,noun,B,NULL
1739898149,19ce432b7c591b0354d6ad32fbe691db,PennController,10,0,test_syn,NULL,PennController,21,_Trial_,Start,1739897757604,undefined,840,fester,concrete-negative,verb,noun,B,NULL
1739898149,19ce432b7c591b0354d6ad32fbe691db,PennController,10,0,test_syn,NULL,PennController,21,_Header_,Start,1739897757604,undefined,840,fester,concrete-negative,verb,noun,B,NULL
1739898149,19ce432b7c591b0354d6ad32fbe691db,PennController,10,0,test_syn,NULL,PennController,21,_Header_,End,1739897757858,undefined,840,fester,concrete-negative,verb,noun,B,NULL
1739898149,19ce432b7c591b0354d6ad32fbe691db,PennController,10,0,test_syn,NULL,Selector,unnamed-Selector,Selection,verb,1739897759199,undefined,840,fester,concrete-negative,verb,noun,B,verb;noun
1739898149,19ce432b7c591b0354d6ad32fbe691db,PennController,10,0,test_syn,NULL,PennController,21,_Trial_,End,1739897759200,undefined,840,fester,concrete-negative,verb,noun,B,NULL
1739898149,19ce432b7c591b0354d6ad32fbe691db,PennController,23,0,test_syn,NULL,PennController,34,_Trial_,Start,1739897759201,undefined,756,obsess,abstract-negative,verb,noun,B,NULL
1739898149,19ce432b7c591b0354d6ad32fbe691db,PennController,23,0,test_syn,NULL,PennController,34,_Header_,Start,1739897759201,undefined,756,obsess,abstract-negative,verb,noun,B,NULL
1739898149,19ce432b7c591b0354d6ad32fbe691db,PennController,23,0,test_syn,NULL,PennController,34,_Header_,End,1739897759454,undefined,756,obsess,abstract-negative,verb,noun,B,NULL
1739898149,19ce432b7c591b0354d6ad32fbe691db,PennController,23,0,test_syn,NULL,Selector,unnamed-Selector,Selection,verb,1739897760711,undefined,756,obsess,abstract-negative,verb,noun,B,verb;noun
1739898149,19ce432b7c591b0354d6ad32fbe691db,PennController,23,0,test_syn,NULL,PennController,34,_Trial_,End,1739897760712,undefined,756,obsess,abstract-negative,verb,noun,B,NULL
1739898149,19ce432b7c591b0354d6ad32fbe691db,PennController,18,0,test_syn,NULL,PennController,29,_Trial_,Start,1739897760713,undefined,1002,grief,abstract-negative,verb,noun,B,NULL
1739898149,19ce432b7c591b0354d6ad32fbe691db,PennController,18,0,test_syn,NULL,PennController,29,_Header_,Start,1739897760713,undefined,1002,grief,abstract-negative,verb,noun,B,NULL
1739898149,19ce432b7c591b0354d6ad32fbe691db,PennController,18,0,test_syn,NULL,PennController,29,_Header_,End,1739897760967,undefined,1002,grief,abstract-negative,verb,noun,B,NULL
1739898149,19ce432b7c591b0354d6ad32fbe691db,PennController,18,0,test_syn,NULL,Selector,unnamed-Selector,Selection,noun,1739897762475,undefined,1002,grief,abstract-negative,verb,noun,B,verb;noun
1739898149,19ce432b7c591b0354d6ad32fbe691db,PennController,18,0,test_syn,NULL,PennController,29,_Trial_,End,1739897762477,undefined,1002,grief,abstract-negative,verb,noun,B,NULL
1739898149,19ce432b7c591b0354d6ad32fbe691db,PennController,11,0,test_syn,NULL,PennController,22,_Trial_,Start,1739897762478,undefined,779,writhe,concrete-negative,verb,noun,B,NULL
1739898149,19ce432b7c591b0354d6ad32fbe691db,PennController,11,0,test_syn,NULL,PennController,22,_Header_,Start,1739897762478,undefined,779,writhe,concrete-negative,verb,noun,B,NULL
1739898149,19ce432b7c591b0354d6ad32fbe691db,PennController,11,0,test_syn,NULL,PennController,22,_Header_,End,1739897762730,undefined,779,writhe,concrete-negative,verb,noun,B,NULL
1739898149,19ce432b7c591b0354d6ad32fbe691db,PennController,11,0,test_syn,NULL,Selector,unnamed-Selector,Selection,verb,1739897764014,undefined,779,writhe,concrete-negative,verb,noun,B,verb;noun
1739898149,19ce432b7c591b0354d6ad32fbe691db,PennController,11,0,test_syn,NULL,PennController,22,_Trial_,End,1739897764015,undefined,779,writhe,concrete-negative,verb,noun,B,NULL
1739898149,19ce432b7c591b0354d6ad32fbe691db,PennController,9,0,test_syn,NULL,PennController,20,_Trial_,Start,1739897764016,undefined,675,choke,concrete-negative,verb,noun,B,NULL
1739898149,19ce432b7c591b0354d6ad32fbe691db,PennController,9,0,test_syn,NULL,PennController,20,_Header_,Start,1739897764016,undefined,675,choke,concrete-negative,verb,noun,B,NULL
1739898149,19ce432b7c591b0354d6ad32fbe691db,PennController,9,0,test_syn,NULL,PennController,20,_Header_,End,1739897764270,undefined,675,choke,concrete-negative,verb,noun,B,NULL
1739898149,19ce432b7c591b0354d6ad32fbe691db,PennController,9,0,test_syn,NULL,Selector,unnamed-Selector,Selection,verb,1739897765446,undefined,675,choke,concrete-negative,verb,noun,B,verb;noun
1739898149,19ce432b7c591b0354d6ad32fbe691db,PennController,9,0,test_syn,NULL,PennController,20,_Trial_,End,1739897765448,undefined,675,choke,concrete-negative,verb,noun,B,NULL
1739898149,19ce432b7c591b0354d6ad32fbe691db,PennController,19,0,test_syn,NULL,PennController,30,_Trial_,Start,1739897765449,undefined,870,befall,abstract-negative,verb,noun,B,NULL
1739898149,19ce432b7c591b0354d6ad32fbe691db,PennController,19,0,test_syn,NULL,PennController,30,_Header_,Start,1739897765449,undefined,870,befall,abstract-negative,verb,noun,B,NULL
1739898149,19ce432b7c591b0354d6ad32fbe691db,PennController,19,0,test_syn,NULL,PennController,30,_Header_,End,1739897765700,undefined,870,befall,abstract-negative,verb,noun,B,NULL
1739898149,19ce432b7c591b0354d6ad32fbe691db,PennController,19,0,test_syn,NULL,Selector,unnamed-Selector,Selection,verb,1739897767074,undefined,870,befall,abstract-negative,verb,noun,B,verb;noun
1739898149,19ce432b7c591b0354d6ad32fbe691db,PennController,19,0,test_syn,NULL,PennController,30,_Trial_,End,1739897767075,undefined,870,befall,abstract-negative,verb,noun,B,NULL
1739898149,19ce432b7c591b0354d6ad32fbe691db,PennController,17,0,test_syn,NULL,PennController,28,_Trial_,Start,1739897767075,undefined,1172,failure,abstract-negative,verb,noun,B,NULL
1739898149,19ce432b7c591b0354d6ad32fbe691db,PennController,17,0,test_syn,NULL,PennController,28,_Header_,Start,1739897767075,undefined,1172,failure,abstract-negative,verb,noun,B,NULL
1739898149,19ce432b7c591b0354d6ad32fbe691db,PennController,17,0,test_syn,NULL,PennController,28,_Header_,End,1739897767327,undefined,1172,failure,abstract-negative,verb,noun,B,NULL
1739898149,19ce432b7c591b0354d6ad32fbe691db,PennController,17,0,test_syn,NULL,Selector,unnamed-Selector,Selection,noun,1739897769003,undefined,1172,failure,abstract-negative,verb,noun,B,verb;noun
1739898149,19ce432b7c591b0354d6ad32fbe691db,PennController,17,0,test_syn,NULL,PennController,28,_Trial_,End,1739897769004,undefined,1172,failure,abstract-negative,verb,noun,B,NULL
1739898149,19ce432b7c591b0354d6ad32fbe691db,PennController,37,0,test_syn,NULL,PennController,48,_Trial_,Start,1739897769005,undefined,621,flowers,concrete-postiive,verb,noun,B,NULL
1739898149,19ce432b7c591b0354d6ad32fbe691db,PennController,37,0,test_syn,NULL,PennController,48,_Header_,Start,1739897769005,undefined,621,flowers,concrete-postiive,verb,noun,B,NULL
1739898149,19ce432b7c591b0354d6ad32fbe691db,PennController,37,0,test_syn,NULL,PennController,48,_Header_,End,1739897769255,undefined,621,flowers,concrete-postiive,verb,noun,B,NULL
1739898149,19ce432b7c591b0354d6ad32fbe691db,PennController,37,0,test_syn,NULL,Selector,unnamed-Selector,Selection,noun,1739897770380,undefined,621,flowers,concrete-postiive,verb,noun,B,verb;noun
1739898149,19ce432b7c591b0354d6ad32fbe691db,PennController,37,0,test_syn,NULL,PennController,48,_Trial_,End,1739897770382,undefined,621,flowers,concrete-postiive,verb,noun,B,NULL
1739898149,19ce432b7c591b0354d6ad32fbe691db,PennController,40,0,test_syn,NULL,PennController,51,_Trial_,Start,1739897770383,undefined,773,breathe,concrete-postiive,verb,noun,B,NULL
1739898149,19ce432b7c591b0354d6ad32fbe691db,PennController,40,0,test_syn,NULL,PennController,51,_Header_,Start,1739897770383,undefined,773,breathe,concrete-postiive,verb,noun,B,NULL
1739898149,19ce432b7c591b0354d6ad32fbe691db,PennController,40,0,test_syn,NULL,PennController,51,_Header_,End,1739897770634,undefined,773,breathe,concrete-postiive,verb,noun,B,NULL
1739898149,19ce432b7c591b0354d6ad32fbe691db,PennController,40,0,test_syn,NULL,Selector,unnamed-Selector,Selection,verb,1739897771907,undefined,773,breathe,concrete-postiive,verb,noun,B,verb;noun
1739898149,19ce432b7c591b0354d6ad32fbe691db,PennController,40,0,test_syn,NULL,PennController,51,_Trial_,End,1739897771909,undefined,773,breathe,concrete-postiive,verb,noun,B,NULL
1739898149,19ce432b7c591b0354d6ad32fbe691db,PennController,28,0,test_syn,NULL,PennController,39,_Trial_,Start,1739897771909,undefined,930,kindness,abstract-positive,verb,noun,B,NULL
1739898149,19ce432b7c591b0354d6ad32fbe691db,PennController,28,0,test_syn,NULL,PennController,39,_Header_,Start,1739897771909,undefined,930,kindness,abstract-positive,verb,noun,B,NULL
1739898149,19ce432b7c591b0354d6ad32fbe691db,PennController,28,0,test_syn,NULL,PennController,39,_Header_,End,1739897772160,undefined,930,kindness,abstract-positive,verb,noun,B,NULL
1739898149,19ce432b7c591b0354d6ad32fbe691db,PennController,28,0,test_syn,NULL,Selector,unnamed-Selector,Selection,noun,1739897773594,undefined,930,kindness,abstract-positive,verb,noun,B,verb;noun
1739898149,19ce432b7c591b0354d6ad32fbe691db,PennController,28,0,test_syn,NULL,PennController,39,_Trial_,End,1739897773595,undefined,930,kindness,abstract-positive,verb,noun,B,NULL
1739898149,19ce432b7c591b0354d6ad32fbe691db,PennController,15,0,test_syn,NULL,PennController,26,_Trial_,Start,1739897773595,undefined,673,hatred,abstract-negative,verb,noun,B,NULL
1739898149,19ce432b7c591b0354d6ad32fbe691db,PennController,15,0,test_syn,NULL,PennController,26,_Header_,Start,1739897773595,undefined,673,hatred,abstract-negative,verb,noun,B,NULL
1739898149,19ce432b7c591b0354d6ad32fbe691db,PennController,15,0,test_syn,NULL,PennController,26,_Header_,End,1739897773848,undefined,673,hatred,abstract-negative,verb,noun,B,NULL
1739898149,19ce432b7c591b0354d6ad32fbe691db,PennController,15,0,test_syn,NULL,Selector,unnamed-Selector,Selection,verb,1739897775027,undefined,673,hatred,abstract-negative,verb,noun,B,verb;noun
1739898149,19ce432b7c591b0354d6ad32fbe691db,PennController,15,0,test_syn,NULL,PennController,26,_Trial_,End,1739897775028,undefined,673,hatred,abstract-negative,verb,noun,B,NULL
1739898149,19ce432b7c591b0354d6ad32fbe691db,PennController,8,0,test_syn,NULL,PennController,19,_Trial_,Start,1739897775029,undefined,989,slave,concrete-negative,verb,noun,B,NULL
1739898149,19ce432b7c591b0354d6ad32fbe691db,PennController,8,0,test_syn,NULL,PennController,19,_Header_,Start,1739897775029,undefined,989,slave,concrete-negative,verb,noun,B,NULL
1739898149,19ce432b7c591b0354d6ad32fbe691db,PennController,8,0,test_syn,NULL,PennController,19,_Header_,End,1739897775283,undefined,989,slave,concrete-negative,verb,noun,B,NULL
1739898149,19ce432b7c591b0354d6ad32fbe691db,PennController,8,0,test_syn,NULL,Selector,unnamed-Selector,Selection,noun,1739897776772,undefined,989,slave,concrete-negative,verb,noun,B,verb;noun
1739898149,19ce432b7c591b0354d6ad32fbe691db,PennController,8,0,test_syn,NULL,PennController,19,_Trial_,End,1739897776773,undefined,989,slave,concrete-negative,verb,noun,B,NULL
1739898149,19ce432b7c591b0354d6ad32fbe691db,PennController,36,0,test_syn,NULL,PennController,47,_Trial_,Start,1739897776774,undefined,1328,fireplace,concrete-postiive,verb,noun,B,NULL
1739898149,19ce432b7c591b0354d6ad32fbe691db,PennController,36,0,test_syn,NULL,PennController,47,_Header_,Start,1739897776774,undefined,1328,fireplace,concrete-postiive,verb,noun,B,NULL
1739898149,19ce432b7c591b0354d6ad32fbe691db,PennController,36,0,test_syn,NULL,PennController,47,_Header_,End,1739897777027,undefined,1328,fireplace,concrete-postiive,verb,noun,B,NULL
1739898149,19ce432b7c591b0354d6ad32fbe691db,PennController,36,0,test_syn,NULL,Selector,unnamed-Selector,Selection,noun,1739897778859,undefined,1328,fireplace,concrete-postiive,verb,noun,B,verb;noun
1739898149,19ce432b7c591b0354d6ad32fbe691db,PennController,36,0,test_syn,NULL,PennController,47,_Trial_,End,1739897778860,undefined,1328,fireplace,concrete-postiive,verb,noun,B,NULL
1739898149,19ce432b7c591b0354d6ad32fbe691db,PennController,16,0,test_syn,NULL,PennController,27,_Trial_,Start,1739897778860,undefined,1158,anxiety,abstract-negative,verb,noun,B,NULL
1739898149,19ce432b7c591b0354d6ad32fbe691db,PennController,16,0,test_syn,NULL,PennController,27,_Header_,Start,1739897778860,undefined,1158,anxiety,abstract-negative,verb,noun,B,NULL
1739898149,19ce432b7c591b0354d6ad32fbe691db,PennController,16,0,test_syn,NULL,PennController,27,_Header_,End,1739897779111,undefined,1158,anxiety,abstract-negative,verb,noun,B,NULL
1739898149,19ce432b7c591b0354d6ad32fbe691db,PennController,16,0,test_syn,NULL,Selector,unnamed-Selector,Selection,noun,1739897780772,undefined,1158,anxiety,abstract-negative,verb,noun,B,verb;noun
1739898149,19ce432b7c591b0354d6ad32fbe691db,PennController,16,0,test_syn,NULL,PennController,27,_Trial_,End,1739897780773,undefined,1158,anxiety,abstract-negative,verb,noun,B,NULL
1739898149,19ce432b7c591b0354d6ad32fbe691db,PennController,30,0,test_syn,NULL,PennController,41,_Trial_,Start,1739897780774,undefined,1008,cherish,abstract-positive,verb,noun,B,NULL
1739898149,19ce432b7c591b0354d6ad32fbe691db,PennController,30,0,test_syn,NULL,PennController,41,_Header_,Start,1739897780774,undefined,1008,cherish,abstract-positive,verb,noun,B,NULL
1739898149,19ce432b7c591b0354d6ad32fbe691db,PennController,30,0,test_syn,NULL,PennController,41,_Header_,End,1739897781026,undefined,1008,cherish,abstract-positive,verb,noun,B,NULL
1739898149,19ce432b7c591b0354d6ad32fbe691db,PennController,30,0,test_syn,NULL,Selector,unnamed-Selector,Selection,verb,1739897782537,undefined,1008,cherish,abstract-positive,verb,noun,B,verb;noun
1739898149,19ce432b7c591b0354d6ad32fbe691db,PennController,30,0,test_syn,NULL,PennController,41,_Trial_,End,1739897782537,undefined,1008,cherish,abstract-positive,verb,noun,B,NULL
1739898149,19ce432b7c591b0354d6ad32fbe691db,PennController,6,0,test_syn,NULL,PennController,17,_Trial_,Start,1739897782538,undefined,1029,mud,concrete-negative,verb,noun,B,NULL
1739898149,19ce432b7c591b0354d6ad32fbe691db,PennController,6,0,test_syn,NULL,PennController,17,_Header_,Start,1739897782538,undefined,1029,mud,concrete-negative,verb,noun,B,NULL
1739898149,19ce432b7c591b0354d6ad32fbe691db,PennController,6,0,test_syn,NULL,PennController,17,_Header_,End,1739897782791,undefined,1029,mud,concrete-negative,verb,noun,B,NULL
1739898149,19ce432b7c591b0354d6ad32fbe691db,PennController,6,0,test_syn,NULL,Selector,unnamed-Selector,Selection,noun,1739897784323,undefined,1029,mud,concrete-negative,verb,noun,B,verb;noun
1739898149,19ce432b7c591b0354d6ad32fbe691db,PennController,6,0,test_syn,NULL,PennController,17,_Trial_,End,1739897784324,undefined,1029,mud,concrete-negative,verb,noun,B,NULL
1739898149,19ce432b7c591b0354d6ad32fbe691db,PennController,7,0,test_syn,NULL,PennController,18,_Trial_,Start,1739897784325,undefined,691,corpse,concrete-negative,verb,noun,B,NULL
1739898149,19ce432b7c591b0354d6ad32fbe691db,PennController,7,0,test_syn,NULL,PennController,18,_Header_,Start,1739897784325,undefined,691,corpse,concrete-negative,verb,noun,B,NULL
1739898149,19ce432b7c591b0354d6ad32fbe691db,PennController,7,0,test_syn,NULL,PennController,18,_Header_,End,1739897784578,undefined,691,corpse,concrete-negative,verb,noun,B,NULL
1739898149,19ce432b7c591b0354d6ad32fbe691db,PennController,7,0,test_syn,NULL,Selector,unnamed-Selector,Selection,noun,1739897785771,undefined,691,corpse,concrete-negative,verb,noun,B,verb;noun
1739898149,19ce432b7c591b0354d6ad32fbe691db,PennController,7,0,test_syn,NULL,PennController,18,_Trial_,End,1739897785772,undefined,691,corpse,concrete-negative,verb,noun,B,NULL
1739898149,19ce432b7c591b0354d6ad32fbe691db,PennController,5,0,test_syn,NULL,PennController,16,_Trial_,Start,1739897785773,undefined,943,garbage,concrete-negative,verb,noun,B,NULL
1739898149,19ce432b7c591b0354d6ad32fbe691db,PennController,5,0,test_syn,NULL,PennController,16,_Header_,Start,1739897785773,undefined,943,garbage,concrete-negative,verb,noun,B,NULL
1739898149,19ce432b7c591b0354d6ad32fbe691db,PennController,5,0,test_syn,NULL,PennController,16,_Header_,End,1739897786027,undefined,943,garbage,concrete-negative,verb,noun,B,NULL
1739898149,19ce432b7c591b0354d6ad32fbe691db,PennController,5,0,test_syn,NULL,Selector,unnamed-Selector,Selection,noun,1739897787471,undefined,943,garbage,concrete-negative,verb,noun,B,verb;noun
1739898149,19ce432b7c591b0354d6ad32fbe691db,PennController,5,0,test_syn,NULL,PennController,16,_Trial_,End,1739897787473,undefined,943,garbage,concrete-negative,verb,noun,B,NULL
1739898149,19ce432b7c591b0354d6ad32fbe691db,PennController,14,0,test_syn,NULL,PennController,25,_Trial_,Start,1739897787474,undefined,1087,terror,abstract-negative,verb,noun,B,NULL
1739898149,19ce432b7c591b0354d6ad32fbe691db,PennController,14,0,test_syn,NULL,PennController,25,_Header_,Start,1739897787474,undefined,1087,terror,abstract-negative,verb,noun,B,NULL
1739898149,19ce432b7c591b0354d6ad32fbe691db,PennController,14,0,test_syn,NULL,PennController,25,_Header_,End,1739897787726,undefined,1087,terror,abstract-negative,verb,noun,B,NULL
1739898149,19ce432b7c591b0354d6ad32fbe691db,PennController,14,0,test_syn,NULL,Selector,unnamed-Selector,Selection,noun,1739897789315,undefined,1087,terror,abstract-negative,verb,noun,B,verb;noun
1739898149,19ce432b7c591b0354d6ad32fbe691db,PennController,14,0,test_syn,NULL,PennController,25,_Trial_,End,1739897789316,undefined,1087,terror,abstract-negative,verb,noun,B,NULL
1739898149,19ce432b7c591b0354d6ad32fbe691db,PennController,38,0,test_syn,NULL,PennController,49,_Trial_,Start,1739897789316,undefined,728,home,concrete-postiive,verb,noun,B,NULL
1739898149,19ce432b7c591b0354d6ad32fbe691db,PennController,38,0,test_syn,NULL,PennController,49,_Header_,Start,1739897789316,undefined,728,home,concrete-postiive,verb,noun,B,NULL
1739898149,19ce432b7c591b0354d6ad32fbe691db,PennController,38,0,test_syn,NULL,PennController,49,_Header_,End,1739897789569,undefined,728,home,concrete-postiive,verb,noun,B,NULL
1739898149,19ce432b7c591b0354d6ad32fbe691db,PennController,38,0,test_syn,NULL,Selector,unnamed-Selector,Selection,noun,1739897790804,undefined,728,home,concrete-postiive,verb,noun,B,verb;noun
1739898149,19ce432b7c591b0354d6ad32fbe691db,PennController,38,0,test_syn,NULL,PennController,49,_Trial_,End,1739897790805,undefined,728,home,concrete-postiive,verb,noun,B,NULL
1739898149,19ce432b7c591b0354d6ad32fbe691db,PennController,4,0,test_syn,NULL,PennController,15,_Trial_,Start,1739897790805,undefined,720,toxin,concrete-negative,verb,noun,B,NULL
1739898149,19ce432b7c591b0354d6ad32fbe691db,PennController,4,0,test_syn,NULL,PennController,15,_Header_,Start,1739897790805,undefined,720,toxin,concrete-negative,verb,noun,B,NULL
1739898149,19ce432b7c591b0354d6ad32fbe691db,PennController,4,0,test_syn,NULL,PennController,15,_Header_,End,1739897791056,undefined,720,toxin,concrete-negative,verb,noun,B,NULL
1739898149,19ce432b7c591b0354d6ad32fbe691db,PennController,4,0,test_syn,NULL,Selector,unnamed-Selector,Selection,noun,1739897792278,undefined,720,toxin,concrete-negative,verb,noun,B,verb;noun
1739898149,19ce432b7c591b0354d6ad32fbe691db,PennController,4,0,test_syn,NULL,PennController,15,_Trial_,End,1739897792280,undefined,720,toxin,concrete-negative,verb,noun,B,NULL
1739898149,19ce432b7c591b0354d6ad32fbe691db,PennController,13,0,test_syn,NULL,PennController,24,_Trial_,Start,1739897792281,undefined,879,stab,concrete-negative,verb,noun,B,NULL
1739898149,19ce432b7c591b0354d6ad32fbe691db,PennController,13,0,test_syn,NULL,PennController,24,_Header_,Start,1739897792281,undefined,879,stab,concrete-negative,verb,noun,B,NULL
1739898149,19ce432b7c591b0354d6ad32fbe691db,PennController,13,0,test_syn,NULL,PennController,24,_Header_,End,1739897792534,undefined,879,stab,concrete-negative,verb,noun,B,NULL
1739898149,19ce432b7c591b0354d6ad32fbe691db,PennController,13,0,test_syn,NULL,Selector,unnamed-Selector,Selection,verb,1739897793914,undefined,879,stab,concrete-negative,verb,noun,B,verb;noun
1739898149,19ce432b7c591b0354d6ad32fbe691db,PennController,13,0,test_syn,NULL,PennController,24,_Trial_,End,1739897793915,undefined,879,stab,concrete-negative,verb,noun,B,NULL
1739898149,19ce432b7c591b0354d6ad32fbe691db,PennController,43,0,test_syn,NULL,PennController,54,_Trial_,Start,1739897793916,undefined,756,running,concrete-postiive,verb,noun,B,NULL
1739898149,19ce432b7c591b0354d6ad32fbe691db,PennController,43,0,test_syn,NULL,PennController,54,_Header_,Start,1739897793916,undefined,756,running,concrete-postiive,verb,noun,B,NULL
1739898149,19ce432b7c591b0354d6ad32fbe691db,PennController,43,0,test_syn,NULL,PennController,54,_Header_,End,1739897794166,undefined,756,running,concrete-postiive,verb,noun,B,NULL
1739898149,19ce432b7c591b0354d6ad32fbe691db,PennController,43,0,test_syn,NULL,Selector,unnamed-Selector,Selection,verb,1739897795427,undefined,756,running,concrete-postiive,verb,noun,B,verb;noun
1739898149,19ce432b7c591b0354d6ad32fbe691db,PennController,43,0,test_syn,NULL,PennController,54,_Trial_,End,1739897795427,undefined,756,running,concrete-postiive,verb,noun,B,NULL
1739898149,19ce432b7c591b0354d6ad32fbe691db,PennController,33,0,test_syn,NULL,PennController,44,_Trial_,Start,1739897795428,undefined,957,imagine,abstract-positive,verb,noun,B,NULL
1739898149,19ce432b7c591b0354d6ad32fbe691db,PennController,33,0,test_syn,NULL,PennController,44,_Header_,Start,1739897795428,undefined,957,imagine,abstract-positive,verb,noun,B,NULL
1739898149,19ce432b7c591b0354d6ad32fbe691db,PennController,33,0,test_syn,NULL,PennController,44,_Header_,End,1739897795679,undefined,957,imagine,abstract-positive,verb,noun,B,NULL
1739898149,19ce432b7c591b0354d6ad32fbe691db,PennController,33,0,test_syn,NULL,Selector,unnamed-Selector,Selection,verb,1739897797140,undefined,957,imagine,abstract-positive,verb,noun,B,verb;noun
1739898149,19ce432b7c591b0354d6ad32fbe691db,PennController,33,0,test_syn,NULL,PennController,44,_Trial_,End,1739897797141,undefined,957,imagine,abstract-positive,verb,noun,B,NULL
1739898149,19ce432b7c591b0354d6ad32fbe691db,PennController,24,0,test_syn,NULL,PennController,35,_Trial_,Start,1739897797143,undefined,1043,compassion,abstract-positive,verb,noun,B,NULL
1739898149,19ce432b7c591b0354d6ad32fbe691db,PennController,24,0,test_syn,NULL,PennController,35,_Header_,Start,1739897797143,undefined,1043,compassion,abstract-positive,verb,noun,B,NULL
1739898149,19ce432b7c591b0354d6ad32fbe691db,PennController,24,0,test_syn,NULL,PennController,35,_Header_,End,1739897797394,undefined,1043,compassion,abstract-positive,verb,noun,B,NULL
1739898149,19ce432b7c591b0354d6ad32fbe691db,PennController,24,0,test_syn,NULL,Selector,unnamed-Selector,Selection,noun,1739897798942,undefined,1043,compassion,abstract-positive,verb,noun,B,verb;noun
1739898149,19ce432b7c591b0354d6ad32fbe691db,PennController,24,0,test_syn,NULL,PennController,35,_Trial_,End,1739897798944,undefined,1043,compassion,abstract-positive,verb,noun,B,NULL
1739898149,19ce432b7c591b0354d6ad32fbe691db,PennController,12,0,test_syn,NULL,PennController,23,_Trial_,Start,1739897798945,undefined,1069,bleed,concrete-negative,verb,noun,B,NULL
1739898149,19ce432b7c591b0354d6ad32fbe691db,PennController,12,0,test_syn,NULL,PennController,23,_Header_,Start,1739897798945,undefined,1069,bleed,concrete-negative,verb,noun,B,NULL
1739898149,19ce432b7c591b0354d6ad32fbe691db,PennController,12,0,test_syn,NULL,PennController,23,_Header_,End,1739897799197,undefined,1069,bleed,concrete-negative,verb,noun,B,NULL
1739898149,19ce432b7c591b0354d6ad32fbe691db,PennController,12,0,test_syn,NULL,Selector,unnamed-Selector,Selection,verb,1739897800770,undefined,1069,bleed,concrete-negative,verb,noun,B,verb;noun
1739898149,19ce432b7c591b0354d6ad32fbe691db,PennController,12,0,test_syn,NULL,PennController,23,_Trial_,End,1739897800771,undefined,1069,bleed,concrete-negative,verb,noun,B,NULL
1739898149,19ce432b7c591b0354d6ad32fbe691db,PennController,15,0,test_syn,NULL,PennController,26,_Trial_,Start,1739897800771,undefined,1198,hatred,abstract-negative,verb,noun,B,NULL
1739898149,19ce432b7c591b0354d6ad32fbe691db,PennController,15,0,test_syn,NULL,PennController,26,_Header_,Start,1739897800771,undefined,1198,hatred,abstract-negative,verb,noun,B,NULL
1739898149,19ce432b7c591b0354d6ad32fbe691db,PennController,15,0,test_syn,NULL,PennController,26,_Header_,End,1739897801022,undefined,1198,hatred,abstract-negative,verb,noun,B,NULL
1739898149,19ce432b7c591b0354d6ad32fbe691db,PennController,15,0,test_syn,NULL,Selector,unnamed-Selector,Selection,verb,1739897802726,undefined,1198,hatred,abstract-negative,verb,noun,B,verb;noun
1739898149,19ce432b7c591b0354d6ad32fbe691db,PennController,15,0,test_syn,NULL,PennController,26,_Trial_,End,1739897802727,undefined,1198,hatred,abstract-negative,verb,noun,B,NULL
1739898149,19ce432b7c591b0354d6ad32fbe691db,PennController,40,0,test_syn,NULL,PennController,51,_Trial_,Start,1739897802727,undefined,791,breathe,concrete-postiive,verb,noun,B,NULL
1739898149,19ce432b7c591b0354d6ad32fbe691db,PennController,40,0,test_syn,NULL,PennController,51,_Header_,Start,1739897802727,undefined,791,breathe,concrete-postiive,verb,noun,B,NULL
1739898149,19ce432b7c591b0354d6ad32fbe691db,PennController,40,0,test_syn,NULL,PennController,51,_Header_,End,1739897802978,undefined,791,breathe,concrete-postiive,verb,noun,B,NULL
1739898149,19ce432b7c591b0354d6ad32fbe691db,PennController,40,0,test_syn,NULL,Selector,unnamed-Selector,Selection,verb,1739897804274,undefined,791,breathe,concrete-postiive,verb,noun,B,verb;noun
1739898149,19ce432b7c591b0354d6ad32fbe691db,PennController,40,0,test_syn,NULL,PennController,51,_Trial_,End,1739897804275,undefined,791,breathe,concrete-postiive,verb,noun,B,NULL
1739898149,19ce432b7c591b0354d6ad32fbe691db,PennController,21,0,test_syn,NULL,PennController,32,_Trial_,Start,1739897804275,undefined,1148,exploit,abstract-negative,verb,noun,B,NULL
1739898149,19ce432b7c591b0354d6ad32fbe691db,PennController,21,0,test_syn,NULL,PennController,32,_Header_,Start,1739897804275,undefined,1148,exploit,abstract-negative,verb,noun,B,NULL
1739898149,19ce432b7c591b0354d6ad32fbe691db,PennController,21,0,test_syn,NULL,PennController,32,_Header_,End,1739897804526,undefined,1148,exploit,abstract-negative,verb,noun,B,NULL
1739898149,19ce432b7c591b0354d6ad32fbe691db,PennController,21,0,test_syn,NULL,Selector,unnamed-Selector,Selection,verb,1739897806176,undefined,1148,exploit,abstract-negative,verb,noun,B,verb;noun
