#
# Results on Tue, 18 Feb 2025 13:36:04 GMT
# USER AGENT: Mozilla/5.0 (Windows NT 10.0; Win64; x64) AppleWebKit/537.36 (KHTML, like Gecko) Chrome/132.0.0.0 Safari/537.36
# Design number was non-random = 0
#
# Columns below this comment are as follows:
# 1. Results reception time.
# 2. MD5 hash of participant's IP address.
# 3. Controller name.
# 4. Order number of item.
# 5. Inner element number.
# 6. Label.
# 7. Latin Square Group.
# 8. PennElementType.
# 9. PennElementName.
# 10. Parameter.
# 11. Value.
# 12. EventTime.
# 13. Comments.
1739885764,875ec1e925121d967046ea15d0a22cb8,PennController,1,0,welcome,NULL,PennController,0,_Trial_,Start,1739885205186,NULL
1739885764,875ec1e925121d967046ea15d0a22cb8,PennController,1,0,welcome,NULL,PennController,0,_Header_,Start,1739885205186,NULL
1739885764,875ec1e925121d967046ea15d0a22cb8,PennController,1,0,welcome,NULL,PennController,0,_Header_,End,1739885205439,NULL
1739885764,875ec1e925121d967046ea15d0a22cb8,PennController,1,0,welcome,NULL,PennController,0,_Trial_,End,1739885211751,NULL
# 13. ID.
# 14. Comments.
1739885764,875ec1e925121d967046ea15d0a22cb8,PennController,124,0,consent,NULL,PennController,2,_Trial_,Start,1739885211752,58a477c660cd820001e9a5d6,NULL
1739885764,875ec1e925121d967046ea15d0a22cb8,PennController,124,0,consent,NULL,PennController,2,_Header_,Start,1739885211752,58a477c660cd820001e9a5d6,NULL
1739885764,875ec1e925121d967046ea15d0a22cb8,PennController,124,0,consent,NULL,PennController,2,_Header_,End,1739885212003,58a477c660cd820001e9a5d6,NULL
1739885764,875ec1e925121d967046ea15d0a22cb8,PennController,124,0,consent,NULL,TextInput,ID,Final,58a477c660cd820001e9a5d6,1739885218153,58a477c660cd820001e9a5d6,NULL
1739885764,875ec1e925121d967046ea15d0a22cb8,PennController,124,0,consent,NULL,PennController,2,_Trial_,End,1739885218153,58a477c660cd820001e9a5d6,NULL
# 13. Comments.
1739885764,875ec1e925121d967046ea15d0a22cb8,PennController,126,0,instructions1_val,NULL,PennController,4,_Trial_,Start,1739885218154,NULL
1739885764,875ec1e925121d967046ea15d0a22cb8,PennController,126,0,instructions1_val,NULL,PennController,4,_Header_,Start,1739885218154,NULL
1739885764,875ec1e925121d967046ea15d0a22cb8,PennController,126,0,instructions1_val,NULL,PennController,4,_Header_,End,1739885218407,NULL
1739885764,875ec1e925121d967046ea15d0a22cb8,PennController,126,0,instructions1_val,NULL,PennController,4,_Trial_,End,1739885231625,NULL
1739885764,875ec1e925121d967046ea15d0a22cb8,PennController,127,0,instructions2_val,NULL,PennController,5,_Trial_,Start,1739885231626,NULL
1739885764,875ec1e925121d967046ea15d0a22cb8,PennController,127,0,instructions2_val,NULL,PennController,5,_Header_,Start,1739885231626,NULL
1739885764,875ec1e925121d967046ea15d0a22cb8,PennController,127,0,instructions2_val,NULL,PennController,5,_Header_,End,1739885231879,NULL
1739885764,875ec1e925121d967046ea15d0a22cb8,PennController,127,0,instructions2_val,NULL,PennController,5,_Trial_,End,1739885236231,NULL
1739885764,875ec1e925121d967046ea15d0a22cb8,PennController,128,0,instructions3_hands,NULL,PennController,6,_Trial_,Start,1739885236233,NULL
1739885764,875ec1e925121d967046ea15d0a22cb8,PennController,128,0,instructions3_hands,NULL,PennController,6,_Header_,Start,1739885236233,NULL
1739885764,875ec1e925121d967046ea15d0a22cb8,PennController,128,0,instructions3_hands,NULL,PennController,6,_Header_,End,1739885236483,NULL
1739885764,875ec1e925121d967046ea15d0a22cb8,PennController,128,0,instructions3_hands,NULL,PennController,6,_Trial_,End,1739885241024,NULL
1739885764,875ec1e925121d967046ea15d0a22cb8,PennController,129,0,practice_intro_val,NULL,PennController,7,_Trial_,Start,1739885241025,NULL
1739885764,875ec1e925121d967046ea15d0a22cb8,PennController,129,0,practice_intro_val,NULL,PennController,7,_Header_,Start,1739885241025,NULL
1739885764,875ec1e925121d967046ea15d0a22cb8,PennController,129,0,practice_intro_val,NULL,PennController,7,_Header_,End,1739885241275,NULL
1739885764,875ec1e925121d967046ea15d0a22cb8,PennController,129,0,practice_intro_val,NULL,PennController,7,_Trial_,End,1739885243655,NULL
# 13. ID.
# 14. ReactionTime.
# 15. Word.
# 16. selectedKey.
# 17. selectedValue.
# 18. Key_value_F.
# 19. Key_value_J.
# 20. Group.
# 21. Comments.
1739885764,875ec1e925121d967046ea15d0a22cb8,PennController,107,0,calibrator_val_feedback,NULL,PennController,118,_Trial_,Start,1739885243656,undefined,1197,icebox,undefined,positive,negative,positive,B,NULL
1739885764,875ec1e925121d967046ea15d0a22cb8,PennController,107,0,calibrator_val_feedback,NULL,PennController,118,_Header_,Start,1739885243656,undefined,1197,icebox,undefined,positive,negative,positive,B,NULL
1739885764,875ec1e925121d967046ea15d0a22cb8,PennController,107,0,calibrator_val_feedback,NULL,PennController,118,_Header_,End,1739885243908,undefined,1197,icebox,undefined,positive,negative,positive,B,NULL
1739885764,875ec1e925121d967046ea15d0a22cb8,PennController,107,0,calibrator_val_feedback,NULL,Selector,Selection,Selection,negative,1739885245606,undefined,1197,icebox,undefined,positive,negative,positive,B,negative;positive
1739885764,875ec1e925121d967046ea15d0a22cb8,PennController,107,0,calibrator_val_feedback,NULL,PennController,118,_Trial_,End,1739885247611,undefined,1197,icebox,undefined,positive,negative,positive,B,NULL
1739885764,875ec1e925121d967046ea15d0a22cb8,PennController,113,0,calibrator_val_feedback,NULL,PennController,124,_Trial_,Start,1739885247612,undefined,1224,kitten,undefined,positive,negative,positive,B,NULL
1739885764,875ec1e925121d967046ea15d0a22cb8,PennController,113,0,calibrator_val_feedback,NULL,PennController,124,_Header_,Start,1739885247612,undefined,1224,kitten,undefined,positive,negative,positive,B,NULL
1739885764,875ec1e925121d967046ea15d0a22cb8,PennController,113,0,calibrator_val_feedback,NULL,PennController,124,_Header_,End,1739885247866,undefined,1224,kitten,undefined,positive,negative,positive,B,NULL
1739885764,875ec1e925121d967046ea15d0a22cb8,PennController,113,0,calibrator_val_feedback,NULL,Selector,Selection,Selection,positive,1739885249594,undefined,1224,kitten,undefined,positive,negative,positive,B,negative;positive
1739885764,875ec1e925121d967046ea15d0a22cb8,PennController,113,0,calibrator_val_feedback,NULL,PennController,124,_Trial_,End,1739885251596,undefined,1224,kitten,undefined,positive,negative,positive,B,NULL
1739885764,875ec1e925121d967046ea15d0a22cb8,PennController,112,0,calibrator_val_feedback,NULL,PennController,123,_Trial_,Start,1739885251597,undefined,1061,joke,undefined,positive,negative,positive,B,NULL
1739885764,875ec1e925121d967046ea15d0a22cb8,PennController,112,0,calibrator_val_feedback,NULL,PennController,123,_Header_,Start,1739885251597,undefined,1061,joke,undefined,positive,negative,positive,B,NULL
1739885764,875ec1e925121d967046ea15d0a22cb8,PennController,112,0,calibrator_val_feedback,NULL,PennController,123,_Header_,End,1739885251850,undefined,1061,joke,undefined,positive,negative,positive,B,NULL
1739885764,875ec1e925121d967046ea15d0a22cb8,PennController,112,0,calibrator_val_feedback,NULL,Selector,Selection,Selection,positive,1739885253416,undefined,1061,joke,undefined,positive,negative,positive,B,negative;positive
1739885764,875ec1e925121d967046ea15d0a22cb8,PennController,112,0,calibrator_val_feedback,NULL,PennController,123,_Trial_,End,1739885255420,undefined,1061,joke,undefined,positive,negative,positive,B,NULL
1739885764,875ec1e925121d967046ea15d0a22cb8,PennController,109,0,calibrator_val_feedback,NULL,PennController,120,_Trial_,Start,1739885255420,undefined,1041,insecure,undefined,positive,negative,positive,B,NULL
1739885764,875ec1e925121d967046ea15d0a22cb8,PennController,109,0,calibrator_val_feedback,NULL,PennController,120,_Header_,Start,1739885255420,undefined,1041,insecure,undefined,positive,negative,positive,B,NULL
1739885764,875ec1e925121d967046ea15d0a22cb8,PennController,109,0,calibrator_val_feedback,NULL,PennController,120,_Header_,End,1739885255673,undefined,1041,insecure,undefined,positive,negative,positive,B,NULL
1739885764,875ec1e925121d967046ea15d0a22cb8,PennController,109,0,calibrator_val_feedback,NULL,Selector,Selection,Selection,negative,1739885257215,undefined,1041,insecure,undefined,positive,negative,positive,B,negative;positive
1739885764,875ec1e925121d967046ea15d0a22cb8,PennController,109,0,calibrator_val_feedback,NULL,PennController,120,_Trial_,End,1739885259217,undefined,1041,insecure,undefined,positive,negative,positive,B,NULL
1739885764,875ec1e925121d967046ea15d0a22cb8,PennController,111,0,calibrator_val_feedback,NULL,PennController,122,_Trial_,Start,1739885259218,undefined,1295,jail,undefined,positive,negative,positive,B,NULL
1739885764,875ec1e925121d967046ea15d0a22cb8,PennController,111,0,calibrator_val_feedback,NULL,PennController,122,_Header_,Start,1739885259218,undefined,1295,jail,undefined,positive,negative,positive,B,NULL
1739885764,875ec1e925121d967046ea15d0a22cb8,PennController,111,0,calibrator_val_feedback,NULL,PennController,122,_Header_,End,1739885259470,undefined,1295,jail,undefined,positive,negative,positive,B,NULL
1739885764,875ec1e925121d967046ea15d0a22cb8,PennController,111,0,calibrator_val_feedback,NULL,Selector,Selection,Selection,negative,1739885261270,undefined,1295,jail,undefined,positive,negative,positive,B,negative;positive
1739885764,875ec1e925121d967046ea15d0a22cb8,PennController,111,0,calibrator_val_feedback,NULL,PennController,122,_Trial_,End,1739885263274,undefined,1295,jail,undefined,positive,negative,positive,B,NULL
1739885764,875ec1e925121d967046ea15d0a22cb8,PennController,106,0,calibrator_val_feedback,NULL,PennController,117,_Trial_,Start,1739885263276,undefined,1258,hat,undefined,positive,negative,positive,B,NULL
1739885764,875ec1e925121d967046ea15d0a22cb8,PennController,106,0,calibrator_val_feedback,NULL,PennController,117,_Header_,Start,1739885263276,undefined,1258,hat,undefined,positive,negative,positive,B,NULL
1739885764,875ec1e925121d967046ea15d0a22cb8,PennController,106,0,calibrator_val_feedback,NULL,PennController,117,_Header_,End,1739885263529,undefined,1258,hat,undefined,positive,negative,positive,B,NULL
1739885764,875ec1e925121d967046ea15d0a22cb8,PennController,106,0,calibrator_val_feedback,NULL,Selector,Selection,Selection,positive,1739885265289,undefined,1258,hat,undefined,positive,negative,positive,B,negative;positive
1739885764,875ec1e925121d967046ea15d0a22cb8,PennController,106,0,calibrator_val_feedback,NULL,PennController,117,_Trial_,End,1739885267295,undefined,1258,hat,undefined,positive,negative,positive,B,NULL
1739885764,875ec1e925121d967046ea15d0a22cb8,PennController,108,0,calibrator_val_feedback,NULL,PennController,119,_Trial_,Start,1739885267298,undefined,1218,industry,undefined,positive,negative,positive,B,NULL
1739885764,875ec1e925121d967046ea15d0a22cb8,PennController,108,0,calibrator_val_feedback,NULL,PennController,119,_Header_,Start,1739885267298,undefined,1218,industry,undefined,positive,negative,positive,B,NULL
1739885764,875ec1e925121d967046ea15d0a22cb8,PennController,108,0,calibrator_val_feedback,NULL,PennController,119,_Header_,End,1739885267550,undefined,1218,industry,undefined,positive,negative,positive,B,NULL
1739885764,875ec1e925121d967046ea15d0a22cb8,PennController,108,0,calibrator_val_feedback,NULL,Selector,Selection,Selection,positive,1739885269275,undefined,1218,industry,undefined,positive,negative,positive,B,negative;positive
1739885764,875ec1e925121d967046ea15d0a22cb8,PennController,108,0,calibrator_val_feedback,NULL,PennController,119,_Trial_,End,1739885271279,undefined,1218,industry,undefined,positive,negative,positive,B,NULL
1739885764,875ec1e925121d967046ea15d0a22cb8,PennController,110,0,calibrator_val_feedback,NULL,PennController,121,_Trial_,Start,1739885271281,undefined,938,invader,undefined,positive,negative,positive,B,NULL
1739885764,875ec1e925121d967046ea15d0a22cb8,PennController,110,0,calibrator_val_feedback,NULL,PennController,121,_Header_,Start,1739885271281,undefined,938,invader,undefined,positive,negative,positive,B,NULL
1739885764,875ec1e925121d967046ea15d0a22cb8,PennController,110,0,calibrator_val_feedback,NULL,PennController,121,_Header_,End,1739885271532,undefined,938,invader,undefined,positive,negative,positive,B,NULL
1739885764,875ec1e925121d967046ea15d0a22cb8,PennController,110,0,calibrator_val_feedback,NULL,Selector,Selection,Selection,negative,1739885272972,undefined,938,invader,undefined,positive,negative,positive,B,negative;positive
1739885764,875ec1e925121d967046ea15d0a22cb8,PennController,110,0,calibrator_val_feedback,NULL,PennController,121,_Trial_,End,1739885274978,undefined,938,invader,undefined,positive,negative,positive,B,NULL
1739885764,875ec1e925121d967046ea15d0a22cb8,PennController,104,0,calibrator_val_feedback,NULL,PennController,115,_Trial_,Start,1739885274979,undefined,1091,free,undefined,positive,negative,positive,B,NULL
1739885764,875ec1e925121d967046ea15d0a22cb8,PennController,104,0,calibrator_val_feedback,NULL,PennController,115,_Header_,Start,1739885274979,undefined,1091,free,undefined,positive,negative,positive,B,NULL
1739885764,875ec1e925121d967046ea15d0a22cb8,PennController,104,0,calibrator_val_feedback,NULL,PennController,115,_Header_,End,1739885275232,undefined,1091,free,undefined,positive,negative,positive,B,NULL
1739885764,875ec1e925121d967046ea15d0a22cb8,PennController,104,0,calibrator_val_feedback,NULL,Selector,Selection,Selection,positive,1739885276827,undefined,1091,free,undefined,positive,negative,positive,B,negative;positive
1739885764,875ec1e925121d967046ea15d0a22cb8,PennController,104,0,calibrator_val_feedback,NULL,PennController,115,_Trial_,End,1739885278830,undefined,1091,free,undefined,positive,negative,positive,B,NULL
1739885764,875ec1e925121d967046ea15d0a22cb8,PennController,105,0,calibrator_val_feedback,NULL,PennController,116,_Trial_,Start,1739885278831,undefined,1167,grin,undefined,positive,negative,positive,B,NULL
1739885764,875ec1e925121d967046ea15d0a22cb8,PennController,105,0,calibrator_val_feedback,NULL,PennController,116,_Header_,Start,1739885278831,undefined,1167,grin,undefined,positive,negative,positive,B,NULL
1739885764,875ec1e925121d967046ea15d0a22cb8,PennController,105,0,calibrator_val_feedback,NULL,PennController,116,_Header_,End,1739885279081,undefined,1167,grin,undefined,positive,negative,positive,B,NULL
1739885764,875ec1e925121d967046ea15d0a22cb8,PennController,105,0,calibrator_val_feedback,NULL,Selector,Selection,Selection,positive,1739885280754,undefined,1167,grin,undefined,positive,negative,positive,B,negative;positive
1739885764,875ec1e925121d967046ea15d0a22cb8,PennController,105,0,calibrator_val_feedback,NULL,PennController,116,_Trial_,End,1739885282757,undefined,1167,grin,undefined,positive,negative,positive,B,NULL
# 16. Key_value_F.
# 17. Key_value_J.
# 18. Group.
# 19. Comments.
1739885764,875ec1e925121d967046ea15d0a22cb8,PennController,114,0,calibrator_val_no_feedback,NULL,PennController,125,_Trial_,Start,1739885282759,undefined,768,free,negative,positive,B,NULL
1739885764,875ec1e925121d967046ea15d0a22cb8,PennController,114,0,calibrator_val_no_feedback,NULL,PennController,125,_Header_,Start,1739885282759,undefined,768,free,negative,positive,B,NULL
1739885764,875ec1e925121d967046ea15d0a22cb8,PennController,114,0,calibrator_val_no_feedback,NULL,PennController,125,_Header_,End,1739885283012,undefined,768,free,negative,positive,B,NULL
1739885764,875ec1e925121d967046ea15d0a22cb8,PennController,114,0,calibrator_val_no_feedback,NULL,Selector,unnamed-Selector,Selection,positive,1739885284285,undefined,768,free,negative,positive,B,negative;positive
1739885764,875ec1e925121d967046ea15d0a22cb8,PennController,114,0,calibrator_val_no_feedback,NULL,PennController,125,_Trial_,End,1739885284287,undefined,768,free,negative,positive,B,NULL
1739885764,875ec1e925121d967046ea15d0a22cb8,PennController,119,0,calibrator_val_no_feedback,NULL,PennController,130,_Trial_,Start,1739885284288,undefined,787,insecure,negative,positive,B,NULL
1739885764,875ec1e925121d967046ea15d0a22cb8,PennController,119,0,calibrator_val_no_feedback,NULL,PennController,130,_Header_,Start,1739885284288,undefined,787,insecure,negative,positive,B,NULL
1739885764,875ec1e925121d967046ea15d0a22cb8,PennController,119,0,calibrator_val_no_feedback,NULL,PennController,130,_Header_,End,1739885284541,undefined,787,insecure,negative,positive,B,NULL
1739885764,875ec1e925121d967046ea15d0a22cb8,PennController,119,0,calibrator_val_no_feedback,NULL,Selector,unnamed-Selector,Selection,negative,1739885285832,undefined,787,insecure,negative,positive,B,negative;positive
1739885764,875ec1e925121d967046ea15d0a22cb8,PennController,119,0,calibrator_val_no_feedback,NULL,PennController,130,_Trial_,End,1739885285833,undefined,787,insecure,negative,positive,B,NULL
1739885764,875ec1e925121d967046ea15d0a22cb8,PennController,122,0,calibrator_val_no_feedback,NULL,PennController,133,_Trial_,Start,1739885285834,undefined,772,joke,negative,positive,B,NULL
1739885764,875ec1e925121d967046ea15d0a22cb8,PennController,122,0,calibrator_val_no_feedback,NULL,PennController,133,_Header_,Start,1739885285834,undefined,772,joke,negative,positive,B,NULL
1739885764,875ec1e925121d967046ea15d0a22cb8,PennController,122,0,calibrator_val_no_feedback,NULL,PennController,133,_Header_,End,1739885286086,undefined,772,joke,negative,positive,B,NULL
1739885764,875ec1e925121d967046ea15d0a22cb8,PennController,122,0,calibrator_val_no_feedback,NULL,Selector,unnamed-Selector,Selection,positive,1739885287363,undefined,772,joke,negative,positive,B,negative;positive
1739885764,875ec1e925121d967046ea15d0a22cb8,PennController,122,0,calibrator_val_no_feedback,NULL,PennController,133,_Trial_,End,1739885287363,undefined,772,joke,negative,positive,B,NULL
1739885764,875ec1e925121d967046ea15d0a22cb8,PennController,120,0,calibrator_val_no_feedback,NULL,PennController,131,_Trial_,Start,1739885287364,undefined,893,invader,negative,positive,B,NULL
1739885764,875ec1e925121d967046ea15d0a22cb8,PennController,120,0,calibrator_val_no_feedback,NULL,PennController,131,_Header_,Start,1739885287364,undefined,893,invader,negative,positive,B,NULL
1739885764,875ec1e925121d967046ea15d0a22cb8,PennController,120,0,calibrator_val_no_feedback,NULL,PennController,131,_Header_,End,1739885287618,undefined,893,invader,negative,positive,B,NULL
1739885764,875ec1e925121d967046ea15d0a22cb8,PennController,120,0,calibrator_val_no_feedback,NULL,Selector,unnamed-Selector,Selection,negative,1739885289014,undefined,893,invader,negative,positive,B,negative;positive
1739885764,875ec1e925121d967046ea15d0a22cb8,PennController,120,0,calibrator_val_no_feedback,NULL,PennController,131,_Trial_,End,1739885289015,undefined,893,invader,negative,positive,B,NULL
1739885764,875ec1e925121d967046ea15d0a22cb8,PennController,118,0,calibrator_val_no_feedback,NULL,PennController,129,_Trial_,Start,1739885289016,undefined,846,industry,negative,positive,B,NULL
1739885764,875ec1e925121d967046ea15d0a22cb8,PennController,118,0,calibrator_val_no_feedback,NULL,PennController,129,_Header_,Start,1739885289016,undefined,846,industry,negative,positive,B,NULL
1739885764,875ec1e925121d967046ea15d0a22cb8,PennController,118,0,calibrator_val_no_feedback,NULL,PennController,129,_Header_,End,1739885289266,undefined,846,industry,negative,positive,B,NULL
1739885764,875ec1e925121d967046ea15d0a22cb8,PennController,118,0,calibrator_val_no_feedback,NULL,Selector,unnamed-Selector,Selection,positive,1739885290619,undefined,846,industry,negative,positive,B,negative;positive
1739885764,875ec1e925121d967046ea15d0a22cb8,PennController,118,0,calibrator_val_no_feedback,NULL,PennController,129,_Trial_,End,1739885290620,undefined,846,industry,negative,positive,B,NULL
1739885764,875ec1e925121d967046ea15d0a22cb8,PennController,115,0,calibrator_val_no_feedback,NULL,PennController,126,_Trial_,Start,1739885290621,undefined,1525,grin,negative,positive,B,NULL
1739885764,875ec1e925121d967046ea15d0a22cb8,PennController,115,0,calibrator_val_no_feedback,NULL,PennController,126,_Header_,Start,1739885290621,undefined,1525,grin,negative,positive,B,NULL
1739885764,875ec1e925121d967046ea15d0a22cb8,PennController,115,0,calibrator_val_no_feedback,NULL,PennController,126,_Header_,End,1739885290874,undefined,1525,grin,negative,positive,B,NULL
1739885764,875ec1e925121d967046ea15d0a22cb8,PennController,115,0,calibrator_val_no_feedback,NULL,Selector,unnamed-Selector,Selection,positive,1739885292902,undefined,1525,grin,negative,positive,B,negative;positive
1739885764,875ec1e925121d967046ea15d0a22cb8,PennController,115,0,calibrator_val_no_feedback,NULL,PennController,126,_Trial_,End,1739885292902,undefined,1525,grin,negative,positive,B,NULL
1739885764,875ec1e925121d967046ea15d0a22cb8,PennController,117,0,calibrator_val_no_feedback,NULL,PennController,128,_Trial_,Start,1739885292903,undefined,868,icebox,negative,positive,B,NULL
1739885764,875ec1e925121d967046ea15d0a22cb8,PennController,117,0,calibrator_val_no_feedback,NULL,PennController,128,_Header_,Start,1739885292903,undefined,868,icebox,negative,positive,B,NULL
1739885764,875ec1e925121d967046ea15d0a22cb8,PennController,117,0,calibrator_val_no_feedback,NULL,PennController,128,_Header_,End,1739885293154,undefined,868,icebox,negative,positive,B,NULL
1739885764,875ec1e925121d967046ea15d0a22cb8,PennController,117,0,calibrator_val_no_feedback,NULL,Selector,unnamed-Selector,Selection,positive,1739885294524,undefined,868,icebox,negative,positive,B,negative;positive
1739885764,875ec1e925121d967046ea15d0a22cb8,PennController,117,0,calibrator_val_no_feedback,NULL,PennController,128,_Trial_,End,1739885294525,undefined,868,icebox,negative,positive,B,NULL
1739885764,875ec1e925121d967046ea15d0a22cb8,PennController,121,0,calibrator_val_no_feedback,NULL,PennController,132,_Trial_,Start,1739885294525,undefined,979,jail,negative,positive,B,NULL
1739885764,875ec1e925121d967046ea15d0a22cb8,PennController,121,0,calibrator_val_no_feedback,NULL,PennController,132,_Header_,Start,1739885294526,undefined,979,jail,negative,positive,B,NULL
1739885764,875ec1e925121d967046ea15d0a22cb8,PennController,121,0,calibrator_val_no_feedback,NULL,PennController,132,_Header_,End,1739885294779,undefined,979,jail,negative,positive,B,NULL
1739885764,875ec1e925121d967046ea15d0a22cb8,PennController,121,0,calibrator_val_no_feedback,NULL,Selector,unnamed-Selector,Selection,negative,1739885296261,undefined,979,jail,negative,positive,B,negative;positive
1739885764,875ec1e925121d967046ea15d0a22cb8,PennController,121,0,calibrator_val_no_feedback,NULL,PennController,132,_Trial_,End,1739885296262,undefined,979,jail,negative,positive,B,NULL
1739885764,875ec1e925121d967046ea15d0a22cb8,PennController,123,0,calibrator_val_no_feedback,NULL,PennController,134,_Trial_,Start,1739885296263,undefined,955,kitten,negative,positive,B,NULL
1739885764,875ec1e925121d967046ea15d0a22cb8,PennController,123,0,calibrator_val_no_feedback,NULL,PennController,134,_Header_,Start,1739885296263,undefined,955,kitten,negative,positive,B,NULL
1739885764,875ec1e925121d967046ea15d0a22cb8,PennController,123,0,calibrator_val_no_feedback,NULL,PennController,134,_Header_,End,1739885296515,undefined,955,kitten,negative,positive,B,NULL
1739885764,875ec1e925121d967046ea15d0a22cb8,PennController,123,0,calibrator_val_no_feedback,NULL,Selector,unnamed-Selector,Selection,positive,1739885297974,undefined,955,kitten,negative,positive,B,negative;positive
1739885764,875ec1e925121d967046ea15d0a22cb8,PennController,123,0,calibrator_val_no_feedback,NULL,PennController,134,_Trial_,End,1739885297975,undefined,955,kitten,negative,positive,B,NULL
1739885764,875ec1e925121d967046ea15d0a22cb8,PennController,116,0,calibrator_val_no_feedback,NULL,PennController,127,_Trial_,Start,1739885297975,undefined,753,hat,negative,positive,B,NULL
1739885764,875ec1e925121d967046ea15d0a22cb8,PennController,116,0,calibrator_val_no_feedback,NULL,PennController,127,_Header_,Start,1739885297975,undefined,753,hat,negative,positive,B,NULL
1739885764,875ec1e925121d967046ea15d0a22cb8,PennController,116,0,calibrator_val_no_feedback,NULL,PennController,127,_Header_,End,1739885298230,undefined,753,hat,negative,positive,B,NULL
1739885764,875ec1e925121d967046ea15d0a22cb8,PennController,116,0,calibrator_val_no_feedback,NULL,Selector,unnamed-Selector,Selection,positive,1739885299484,undefined,753,hat,negative,positive,B,negative;positive
1739885764,875ec1e925121d967046ea15d0a22cb8,PennController,116,0,calibrator_val_no_feedback,NULL,PennController,127,_Trial_,End,1739885299485,undefined,753,hat,negative,positive,B,NULL
# 13. Comments.
1739885764,875ec1e925121d967046ea15d0a22cb8,PennController,130,0,endinstructions_val,NULL,PennController,8,_Trial_,Start,1739885299486,NULL
1739885764,875ec1e925121d967046ea15d0a22cb8,PennController,130,0,endinstructions_val,NULL,PennController,8,_Header_,Start,1739885299486,NULL
1739885764,875ec1e925121d967046ea15d0a22cb8,PennController,130,0,endinstructions_val,NULL,PennController,8,_Header_,End,1739885299740,NULL
1739885764,875ec1e925121d967046ea15d0a22cb8,PennController,130,0,endinstructions_val,NULL,PennController,8,_Trial_,End,1739885301987,NULL
# 13. ID.
# 14. ReactionTime.
# 15. Word.
# 16. ConcValCombo.
# 17. Key_value_F.
# 18. Key_value_J.
# 19. Group.
# 20. Comments.
1739885764,875ec1e925121d967046ea15d0a22cb8,PennController,70,0,test_val,NULL,PennController,81,_Trial_,Start,1739885301989,undefined,649,cherish,abstract-positive,negative,positive,B,NULL
1739885764,875ec1e925121d967046ea15d0a22cb8,PennController,70,0,test_val,NULL,PennController,81,_Header_,Start,1739885301989,undefined,649,cherish,abstract-positive,negative,positive,B,NULL
1739885764,875ec1e925121d967046ea15d0a22cb8,PennController,70,0,test_val,NULL,PennController,81,_Header_,End,1739885302244,undefined,649,cherish,abstract-positive,negative,positive,B,NULL
1739885764,875ec1e925121d967046ea15d0a22cb8,PennController,70,0,test_val,NULL,Selector,unnamed-Selector,Selection,positive,1739885303396,undefined,649,cherish,abstract-positive,negative,positive,B,negative;positive
1739885764,875ec1e925121d967046ea15d0a22cb8,PennController,70,0,test_val,NULL,PennController,81,_Trial_,End,1739885303397,undefined,649,cherish,abstract-positive,negative,positive,B,NULL
1739885764,875ec1e925121d967046ea15d0a22cb8,PennController,79,0,test_val,NULL,PennController,90,_Trial_,Start,1739885303397,undefined,806,glide,concrete-postiive,negative,positive,B,NULL
1739885764,875ec1e925121d967046ea15d0a22cb8,PennController,79,0,test_val,NULL,PennController,90,_Header_,Start,1739885303397,undefined,806,glide,concrete-postiive,negative,positive,B,NULL
1739885764,875ec1e925121d967046ea15d0a22cb8,PennController,79,0,test_val,NULL,PennController,90,_Header_,End,1739885303650,undefined,806,glide,concrete-postiive,negative,positive,B,NULL
1739885764,875ec1e925121d967046ea15d0a22cb8,PennController,79,0,test_val,NULL,Selector,unnamed-Selector,Selection,positive,1739885304959,undefined,806,glide,concrete-postiive,negative,positive,B,negative;positive
1739885764,875ec1e925121d967046ea15d0a22cb8,PennController,79,0,test_val,NULL,PennController,90,_Trial_,End,1739885304960,undefined,806,glide,concrete-postiive,negative,positive,B,NULL
1739885764,875ec1e925121d967046ea15d0a22cb8,PennController,61,0,test_val,NULL,PennController,72,_Trial_,Start,1739885304961,undefined,725,exploit,abstract-negative,negative,positive,B,NULL
1739885764,875ec1e925121d967046ea15d0a22cb8,PennController,61,0,test_val,NULL,PennController,72,_Header_,Start,1739885304961,undefined,725,exploit,abstract-negative,negative,positive,B,NULL
1739885764,875ec1e925121d967046ea15d0a22cb8,PennController,61,0,test_val,NULL,PennController,72,_Header_,End,1739885305212,undefined,725,exploit,abstract-negative,negative,positive,B,NULL
1739885764,875ec1e925121d967046ea15d0a22cb8,PennController,61,0,test_val,NULL,Selector,unnamed-Selector,Selection,negative,1739885306441,undefined,725,exploit,abstract-negative,negative,positive,B,negative;positive
1739885764,875ec1e925121d967046ea15d0a22cb8,PennController,61,0,test_val,NULL,PennController,72,_Trial_,End,1739885306441,undefined,725,exploit,abstract-negative,negative,positive,B,NULL
1739885764,875ec1e925121d967046ea15d0a22cb8,PennController,63,0,test_val,NULL,PennController,74,_Trial_,Start,1739885306442,undefined,891,obsess,abstract-negative,negative,positive,B,NULL
1739885764,875ec1e925121d967046ea15d0a22cb8,PennController,63,0,test_val,NULL,PennController,74,_Header_,Start,1739885306442,undefined,891,obsess,abstract-negative,negative,positive,B,NULL
1739885764,875ec1e925121d967046ea15d0a22cb8,PennController,63,0,test_val,NULL,PennController,74,_Header_,End,1739885306695,undefined,891,obsess,abstract-negative,negative,positive,B,NULL
1739885764,875ec1e925121d967046ea15d0a22cb8,PennController,63,0,test_val,NULL,Selector,unnamed-Selector,Selection,negative,1739885308090,undefined,891,obsess,abstract-negative,negative,positive,B,negative;positive
1739885764,875ec1e925121d967046ea15d0a22cb8,PennController,63,0,test_val,NULL,PennController,74,_Trial_,End,1739885308091,undefined,891,obsess,abstract-negative,negative,positive,B,NULL
1739885764,875ec1e925121d967046ea15d0a22cb8,PennController,59,0,test_val,NULL,PennController,70,_Trial_,Start,1739885308092,undefined,769,befall,abstract-negative,negative,positive,B,NULL
1739885764,875ec1e925121d967046ea15d0a22cb8,PennController,59,0,test_val,NULL,PennController,70,_Header_,Start,1739885308092,undefined,769,befall,abstract-negative,negative,positive,B,NULL
1739885764,875ec1e925121d967046ea15d0a22cb8,PennController,59,0,test_val,NULL,PennController,70,_Header_,End,1739885308345,undefined,769,befall,abstract-negative,negative,positive,B,NULL
1739885764,875ec1e925121d967046ea15d0a22cb8,PennController,59,0,test_val,NULL,Selector,unnamed-Selector,Selection,negative,1739885309622,undefined,769,befall,abstract-negative,negative,positive,B,negative;positive
1739885764,875ec1e925121d967046ea15d0a22cb8,PennController,59,0,test_val,NULL,PennController,70,_Trial_,End,1739885309623,undefined,769,befall,abstract-negative,negative,positive,B,NULL
1739885764,875ec1e925121d967046ea15d0a22cb8,PennController,56,0,test_val,NULL,PennController,67,_Trial_,Start,1739885309624,undefined,611,anxiety,abstract-negative,negative,positive,B,NULL
1739885764,875ec1e925121d967046ea15d0a22cb8,PennController,56,0,test_val,NULL,PennController,67,_Header_,Start,1739885309624,undefined,611,anxiety,abstract-negative,negative,positive,B,NULL
1739885764,875ec1e925121d967046ea15d0a22cb8,PennController,56,0,test_val,NULL,PennController,67,_Header_,End,1739885309874,undefined,611,anxiety,abstract-negative,negative,positive,B,NULL
1739885764,875ec1e925121d967046ea15d0a22cb8,PennController,56,0,test_val,NULL,Selector,unnamed-Selector,Selection,negative,1739885310987,undefined,611,anxiety,abstract-negative,negative,positive,B,negative;positive
1739885764,875ec1e925121d967046ea15d0a22cb8,PennController,56,0,test_val,NULL,PennController,67,_Trial_,End,1739885310987,undefined,611,anxiety,abstract-negative,negative,positive,B,NULL
1739885764,875ec1e925121d967046ea15d0a22cb8,PennController,67,0,test_val,NULL,PennController,78,_Trial_,Start,1739885310988,undefined,531,inspiration,abstract-positive,negative,positive,B,NULL
1739885764,875ec1e925121d967046ea15d0a22cb8,PennController,67,0,test_val,NULL,PennController,78,_Header_,Start,1739885310988,undefined,531,inspiration,abstract-positive,negative,positive,B,NULL
1739885764,875ec1e925121d967046ea15d0a22cb8,PennController,67,0,test_val,NULL,PennController,78,_Header_,End,1739885311240,undefined,531,inspiration,abstract-positive,negative,positive,B,NULL
1739885764,875ec1e925121d967046ea15d0a22cb8,PennController,67,0,test_val,NULL,Selector,unnamed-Selector,Selection,positive,1739885312274,undefined,531,inspiration,abstract-positive,negative,positive,B,negative;positive
1739885764,875ec1e925121d967046ea15d0a22cb8,PennController,67,0,test_val,NULL,PennController,78,_Trial_,End,1739885312275,undefined,531,inspiration,abstract-positive,negative,positive,B,NULL
1739885764,875ec1e925121d967046ea15d0a22cb8,PennController,51,0,test_val,NULL,PennController,62,_Trial_,Start,1739885312276,undefined,771,writhe,concrete-negative,negative,positive,B,NULL
1739885764,875ec1e925121d967046ea15d0a22cb8,PennController,51,0,test_val,NULL,PennController,62,_Header_,Start,1739885312276,undefined,771,writhe,concrete-negative,negative,positive,B,NULL
1739885764,875ec1e925121d967046ea15d0a22cb8,PennController,51,0,test_val,NULL,PennController,62,_Header_,End,1739885312531,undefined,771,writhe,concrete-negative,negative,positive,B,NULL
1739885764,875ec1e925121d967046ea15d0a22cb8,PennController,51,0,test_val,NULL,Selector,unnamed-Selector,Selection,negative,1739885313810,undefined,771,writhe,concrete-negative,negative,positive,B,negative;positive
1739885764,875ec1e925121d967046ea15d0a22cb8,PennController,51,0,test_val,NULL,PennController,62,_Trial_,End,1739885313810,undefined,771,writhe,concrete-negative,negative,positive,B,NULL
1739885764,875ec1e925121d967046ea15d0a22cb8,PennController,54,0,test_val,NULL,PennController,65,_Trial_,Start,1739885313811,undefined,607,terror,abstract-negative,negative,positive,B,NULL
1739885764,875ec1e925121d967046ea15d0a22cb8,PennController,54,0,test_val,NULL,PennController,65,_Header_,Start,1739885313811,undefined,607,terror,abstract-negative,negative,positive,B,NULL
1739885764,875ec1e925121d967046ea15d0a22cb8,PennController,54,0,test_val,NULL,PennController,65,_Header_,End,1739885314062,undefined,607,terror,abstract-negative,negative,positive,B,NULL
1739885764,875ec1e925121d967046ea15d0a22cb8,PennController,54,0,test_val,NULL,Selector,unnamed-Selector,Selection,negative,1739885315171,undefined,607,terror,abstract-negative,negative,positive,B,negative;positive
1739885764,875ec1e925121d967046ea15d0a22cb8,PennController,54,0,test_val,NULL,PennController,65,_Trial_,End,1739885315172,undefined,607,terror,abstract-negative,negative,positive,B,NULL
1739885764,875ec1e925121d967046ea15d0a22cb8,PennController,69,0,test_val,NULL,PennController,80,_Trial_,Start,1739885315173,undefined,655,admire,abstract-positive,negative,positive,B,NULL
1739885764,875ec1e925121d967046ea15d0a22cb8,PennController,69,0,test_val,NULL,PennController,80,_Header_,Start,1739885315173,undefined,655,admire,abstract-positive,negative,positive,B,NULL
1739885764,875ec1e925121d967046ea15d0a22cb8,PennController,69,0,test_val,NULL,PennController,80,_Header_,End,1739885315423,undefined,655,admire,abstract-positive,negative,positive,B,NULL
1739885764,875ec1e925121d967046ea15d0a22cb8,PennController,69,0,test_val,NULL,Selector,unnamed-Selector,Selection,positive,1739885316582,undefined,655,admire,abstract-positive,negative,positive,B,negative;positive
1739885764,875ec1e925121d967046ea15d0a22cb8,PennController,69,0,test_val,NULL,PennController,80,_Trial_,End,1739885316582,undefined,655,admire,abstract-positive,negative,positive,B,NULL
1739885764,875ec1e925121d967046ea15d0a22cb8,PennController,78,0,test_val,NULL,PennController,89,_Trial_,Start,1739885316583,undefined,647,home,concrete-postiive,negative,positive,B,NULL
1739885764,875ec1e925121d967046ea15d0a22cb8,PennController,78,0,test_val,NULL,PennController,89,_Header_,Start,1739885316583,undefined,647,home,concrete-postiive,negative,positive,B,NULL
1739885764,875ec1e925121d967046ea15d0a22cb8,PennController,78,0,test_val,NULL,PennController,89,_Header_,End,1739885316833,undefined,647,home,concrete-postiive,negative,positive,B,NULL
1739885764,875ec1e925121d967046ea15d0a22cb8,PennController,78,0,test_val,NULL,Selector,unnamed-Selector,Selection,positive,1739885317983,undefined,647,home,concrete-postiive,negative,positive,B,negative;positive
1739885764,875ec1e925121d967046ea15d0a22cb8,PennController,78,0,test_val,NULL,PennController,89,_Trial_,End,1739885317984,undefined,647,home,concrete-postiive,negative,positive,B,NULL
1739885764,875ec1e925121d967046ea15d0a22cb8,PennController,58,0,test_val,NULL,PennController,69,_Trial_,Start,1739885317985,undefined,610,grief,abstract-negative,negative,positive,B,NULL
1739885764,875ec1e925121d967046ea15d0a22cb8,PennController,58,0,test_val,NULL,PennController,69,_Header_,Start,1739885317985,undefined,610,grief,abstract-negative,negative,positive,B,NULL
1739885764,875ec1e925121d967046ea15d0a22cb8,PennController,58,0,test_val,NULL,PennController,69,_Header_,End,1739885318237,undefined,610,grief,abstract-negative,negative,positive,B,NULL
1739885764,875ec1e925121d967046ea15d0a22cb8,PennController,58,0,test_val,NULL,Selector,unnamed-Selector,Selection,negative,1739885319353,undefined,610,grief,abstract-negative,negative,positive,B,negative;positive
1739885764,875ec1e925121d967046ea15d0a22cb8,PennController,58,0,test_val,NULL,PennController,69,_Trial_,End,1739885319354,undefined,610,grief,abstract-negative,negative,positive,B,NULL
1739885764,875ec1e925121d967046ea15d0a22cb8,PennController,77,0,test_val,NULL,PennController,88,_Trial_,Start,1739885319355,undefined,736,flowers,concrete-postiive,negative,positive,B,NULL
1739885764,875ec1e925121d967046ea15d0a22cb8,PennController,77,0,test_val,NULL,PennController,88,_Header_,Start,1739885319355,undefined,736,flowers,concrete-postiive,negative,positive,B,NULL
1739885764,875ec1e925121d967046ea15d0a22cb8,PennController,77,0,test_val,NULL,PennController,88,_Header_,End,1739885319605,undefined,736,flowers,concrete-postiive,negative,positive,B,NULL
1739885764,875ec1e925121d967046ea15d0a22cb8,PennController,77,0,test_val,NULL,Selector,unnamed-Selector,Selection,positive,1739885320844,undefined,736,flowers,concrete-postiive,negative,positive,B,negative;positive
1739885764,875ec1e925121d967046ea15d0a22cb8,PennController,77,0,test_val,NULL,PennController,88,_Trial_,End,1739885320845,undefined,736,flowers,concrete-postiive,negative,positive,B,NULL
1739885764,875ec1e925121d967046ea15d0a22cb8,PennController,64,0,test_val,NULL,PennController,75,_Trial_,Start,1739885320846,undefined,568,compassion,abstract-positive,negative,positive,B,NULL
1739885764,875ec1e925121d967046ea15d0a22cb8,PennController,64,0,test_val,NULL,PennController,75,_Header_,Start,1739885320846,undefined,568,compassion,abstract-positive,negative,positive,B,NULL
1739885764,875ec1e925121d967046ea15d0a22cb8,PennController,64,0,test_val,NULL,PennController,75,_Header_,End,1739885321099,undefined,568,compassion,abstract-positive,negative,positive,B,NULL
1739885764,875ec1e925121d967046ea15d0a22cb8,PennController,64,0,test_val,NULL,Selector,unnamed-Selector,Selection,positive,1739885322172,undefined,568,compassion,abstract-positive,negative,positive,B,negative;positive
1739885764,875ec1e925121d967046ea15d0a22cb8,PennController,64,0,test_val,NULL,PennController,75,_Trial_,End,1739885322172,undefined,568,compassion,abstract-positive,negative,positive,B,NULL
1739885764,875ec1e925121d967046ea15d0a22cb8,PennController,73,0,test_val,NULL,PennController,84,_Trial_,Start,1739885322173,undefined,650,imagine,abstract-positive,negative,positive,B,NULL
1739885764,875ec1e925121d967046ea15d0a22cb8,PennController,73,0,test_val,NULL,PennController,84,_Header_,Start,1739885322173,undefined,650,imagine,abstract-positive,negative,positive,B,NULL
1739885764,875ec1e925121d967046ea15d0a22cb8,PennController,73,0,test_val,NULL,PennController,84,_Header_,End,1739885322428,undefined,650,imagine,abstract-positive,negative,positive,B,NULL
1739885764,875ec1e925121d967046ea15d0a22cb8,PennController,73,0,test_val,NULL,Selector,unnamed-Selector,Selection,positive,1739885323583,undefined,650,imagine,abstract-positive,negative,positive,B,negative;positive
1739885764,875ec1e925121d967046ea15d0a22cb8,PennController,73,0,test_val,NULL,PennController,84,_Trial_,End,1739885323584,undefined,650,imagine,abstract-positive,negative,positive,B,NULL
1739885764,875ec1e925121d967046ea15d0a22cb8,PennController,52,0,test_val,NULL,PennController,63,_Trial_,Start,1739885323585,undefined,574,bleed,concrete-negative,negative,positive,B,NULL
1739885764,875ec1e925121d967046ea15d0a22cb8,PennController,52,0,test_val,NULL,PennController,63,_Header_,Start,1739885323585,undefined,574,bleed,concrete-negative,negative,positive,B,NULL
1739885764,875ec1e925121d967046ea15d0a22cb8,PennController,52,0,test_val,NULL,PennController,63,_Header_,End,1739885323836,undefined,574,bleed,concrete-negative,negative,positive,B,NULL
1739885764,875ec1e925121d967046ea15d0a22cb8,PennController,52,0,test_val,NULL,Selector,unnamed-Selector,Selection,negative,1739885324914,undefined,574,bleed,concrete-negative,negative,positive,B,negative;positive
1739885764,875ec1e925121d967046ea15d0a22cb8,PennController,52,0,test_val,NULL,PennController,63,_Trial_,End,1739885324915,undefined,574,bleed,concrete-negative,negative,positive,B,NULL
1739885764,875ec1e925121d967046ea15d0a22cb8,PennController,50,0,test_val,NULL,PennController,61,_Trial_,Start,1739885324915,undefined,825,fester,concrete-negative,negative,positive,B,NULL
1739885764,875ec1e925121d967046ea15d0a22cb8,PennController,50,0,test_val,NULL,PennController,61,_Header_,Start,1739885324915,undefined,825,fester,concrete-negative,negative,positive,B,NULL
1739885764,875ec1e925121d967046ea15d0a22cb8,PennController,50,0,test_val,NULL,PennController,61,_Header_,End,1739885325168,undefined,825,fester,concrete-negative,negative,positive,B,NULL
1739885764,875ec1e925121d967046ea15d0a22cb8,PennController,50,0,test_val,NULL,Selector,unnamed-Selector,Selection,negative,1739885326495,undefined,825,fester,concrete-negative,negative,positive,B,negative;positive
1739885764,875ec1e925121d967046ea15d0a22cb8,PennController,50,0,test_val,NULL,PennController,61,_Trial_,End,1739885326496,undefined,825,fester,concrete-negative,negative,positive,B,NULL
1739885764,875ec1e925121d967046ea15d0a22cb8,PennController,75,0,test_val,NULL,PennController,86,_Trial_,Start,1739885326497,undefined,613,chocolate,concrete-postiive,negative,positive,B,NULL
1739885764,875ec1e925121d967046ea15d0a22cb8,PennController,75,0,test_val,NULL,PennController,86,_Header_,Start,1739885326497,undefined,613,chocolate,concrete-postiive,negative,positive,B,NULL
1739885764,875ec1e925121d967046ea15d0a22cb8,PennController,75,0,test_val,NULL,PennController,86,_Header_,End,1739885326752,undefined,613,chocolate,concrete-postiive,negative,positive,B,NULL
1739885764,875ec1e925121d967046ea15d0a22cb8,PennController,75,0,test_val,NULL,Selector,unnamed-Selector,Selection,positive,1739885327866,undefined,613,chocolate,concrete-postiive,negative,positive,B,negative;positive
1739885764,875ec1e925121d967046ea15d0a22cb8,PennController,75,0,test_val,NULL,PennController,86,_Trial_,End,1739885327867,undefined,613,chocolate,concrete-postiive,negative,positive,B,NULL
1739885764,875ec1e925121d967046ea15d0a22cb8,PennController,46,0,test_val,NULL,PennController,57,_Trial_,Start,1739885327868,undefined,845,mud,concrete-negative,negative,positive,B,NULL
1739885764,875ec1e925121d967046ea15d0a22cb8,PennController,46,0,test_val,NULL,PennController,57,_Header_,Start,1739885327868,undefined,845,mud,concrete-negative,negative,positive,B,NULL
1739885764,875ec1e925121d967046ea15d0a22cb8,PennController,46,0,test_val,NULL,PennController,57,_Header_,End,1739885328120,undefined,845,mud,concrete-negative,negative,positive,B,NULL
1739885764,875ec1e925121d967046ea15d0a22cb8,PennController,46,0,test_val,NULL,Selector,unnamed-Selector,Selection,negative,1739885329470,undefined,845,mud,concrete-negative,negative,positive,B,negative;positive
1739885764,875ec1e925121d967046ea15d0a22cb8,PennController,46,0,test_val,NULL,PennController,57,_Trial_,End,1739885329471,undefined,845,mud,concrete-negative,negative,positive,B,NULL
1739885764,875ec1e925121d967046ea15d0a22cb8,PennController,45,0,test_val,NULL,PennController,56,_Trial_,Start,1739885329472,undefined,800,garbage,concrete-negative,negative,positive,B,NULL
1739885764,875ec1e925121d967046ea15d0a22cb8,PennController,45,0,test_val,NULL,PennController,56,_Header_,Start,1739885329472,undefined,800,garbage,concrete-negative,negative,positive,B,NULL
1739885764,875ec1e925121d967046ea15d0a22cb8,PennController,45,0,test_val,NULL,PennController,56,_Header_,End,1739885329723,undefined,800,garbage,concrete-negative,negative,positive,B,NULL
1739885764,875ec1e925121d967046ea15d0a22cb8,PennController,45,0,test_val,NULL,Selector,unnamed-Selector,Selection,negative,1739885331027,undefined,800,garbage,concrete-negative,negative,positive,B,negative;positive
1739885764,875ec1e925121d967046ea15d0a22cb8,PennController,45,0,test_val,NULL,PennController,56,_Trial_,End,1739885331027,undefined,800,garbage,concrete-negative,negative,positive,B,NULL
1739885764,875ec1e925121d967046ea15d0a22cb8,PennController,49,0,test_val,NULL,PennController,60,_Trial_,Start,1739885331028,undefined,675,choke,concrete-negative,negative,positive,B,NULL
1739885764,875ec1e925121d967046ea15d0a22cb8,PennController,49,0,test_val,NULL,PennController,60,_Header_,Start,1739885331028,undefined,675,choke,concrete-negative,negative,positive,B,NULL
1739885764,875ec1e925121d967046ea15d0a22cb8,PennController,49,0,test_val,NULL,PennController,60,_Header_,End,1739885331280,undefined,675,choke,concrete-negative,negative,positive,B,NULL
1739885764,875ec1e925121d967046ea15d0a22cb8,PennController,49,0,test_val,NULL,Selector,unnamed-Selector,Selection,negative,1739885332458,undefined,675,choke,concrete-negative,negative,positive,B,negative;positive
1739885764,875ec1e925121d967046ea15d0a22cb8,PennController,49,0,test_val,NULL,PennController,60,_Trial_,End,1739885332459,undefined,675,choke,concrete-negative,negative,positive,B,NULL
1739885764,875ec1e925121d967046ea15d0a22cb8,PennController,60,0,test_val,NULL,PennController,71,_Trial_,Start,1739885332459,undefined,555,criticize,abstract-negative,negative,positive,B,NULL
1739885764,875ec1e925121d967046ea15d0a22cb8,PennController,60,0,test_val,NULL,PennController,71,_Header_,Start,1739885332459,undefined,555,criticize,abstract-negative,negative,positive,B,NULL
1739885764,875ec1e925121d967046ea15d0a22cb8,PennController,60,0,test_val,NULL,PennController,71,_Header_,End,1739885332713,undefined,555,criticize,abstract-negative,negative,positive,B,NULL
1739885764,875ec1e925121d967046ea15d0a22cb8,PennController,60,0,test_val,NULL,Selector,unnamed-Selector,Selection,negative,1739885333771,undefined,555,criticize,abstract-negative,negative,positive,B,negative;positive
1739885764,875ec1e925121d967046ea15d0a22cb8,PennController,60,0,test_val,NULL,PennController,71,_Trial_,End,1739885333772,undefined,555,criticize,abstract-negative,negative,positive,B,NULL
1739885764,875ec1e925121d967046ea15d0a22cb8,PennController,53,0,test_val,NULL,PennController,64,_Trial_,Start,1739885333773,undefined,643,stab,concrete-negative,negative,positive,B,NULL
1739885764,875ec1e925121d967046ea15d0a22cb8,PennController,53,0,test_val,NULL,PennController,64,_Header_,Start,1739885333773,undefined,643,stab,concrete-negative,negative,positive,B,NULL
1739885764,875ec1e925121d967046ea15d0a22cb8,PennController,53,0,test_val,NULL,PennController,64,_Header_,End,1739885334027,undefined,643,stab,concrete-negative,negative,positive,B,NULL
1739885764,875ec1e925121d967046ea15d0a22cb8,PennController,53,0,test_val,NULL,Selector,unnamed-Selector,Selection,negative,1739885335174,undefined,643,stab,concrete-negative,negative,positive,B,negative;positive
1739885764,875ec1e925121d967046ea15d0a22cb8,PennController,53,0,test_val,NULL,PennController,64,_Trial_,End,1739885335175,undefined,643,stab,concrete-negative,negative,positive,B,NULL
1739885764,875ec1e925121d967046ea15d0a22cb8,PennController,82,0,test_val,NULL,PennController,93,_Trial_,Start,1739885335176,undefined,555,eat,concrete-postiive,negative,positive,B,NULL
1739885764,875ec1e925121d967046ea15d0a22cb8,PennController,82,0,test_val,NULL,PennController,93,_Header_,Start,1739885335176,undefined,555,eat,concrete-postiive,negative,positive,B,NULL
1739885764,875ec1e925121d967046ea15d0a22cb8,PennController,82,0,test_val,NULL,PennController,93,_Header_,End,1739885335427,undefined,555,eat,concrete-postiive,negative,positive,B,NULL
1739885764,875ec1e925121d967046ea15d0a22cb8,PennController,82,0,test_val,NULL,Selector,unnamed-Selector,Selection,positive,1739885336487,undefined,555,eat,concrete-postiive,negative,positive,B,negative;positive
1739885764,875ec1e925121d967046ea15d0a22cb8,PennController,82,0,test_val,NULL,PennController,93,_Trial_,End,1739885336488,undefined,555,eat,concrete-postiive,negative,positive,B,NULL
1739885764,875ec1e925121d967046ea15d0a22cb8,PennController,57,0,test_val,NULL,PennController,68,_Trial_,Start,1739885336489,undefined,667,failure,abstract-negative,negative,positive,B,NULL
1739885764,875ec1e925121d967046ea15d0a22cb8,PennController,57,0,test_val,NULL,PennController,68,_Header_,Start,1739885336489,undefined,667,failure,abstract-negative,negative,positive,B,NULL
1739885764,875ec1e925121d967046ea15d0a22cb8,PennController,57,0,test_val,NULL,PennController,68,_Header_,End,1739885336740,undefined,667,failure,abstract-negative,negative,positive,B,NULL
1739885764,875ec1e925121d967046ea15d0a22cb8,PennController,57,0,test_val,NULL,Selector,unnamed-Selector,Selection,negative,1739885337914,undefined,667,failure,abstract-negative,negative,positive,B,negative;positive
1739885764,875ec1e925121d967046ea15d0a22cb8,PennController,57,0,test_val,NULL,PennController,68,_Trial_,End,1739885337916,undefined,667,failure,abstract-negative,negative,positive,B,NULL
1739885764,875ec1e925121d967046ea15d0a22cb8,PennController,76,0,test_val,NULL,PennController,87,_Trial_,Start,1739885337917,undefined,789,fireplace,concrete-postiive,negative,positive,B,NULL
1739885764,875ec1e925121d967046ea15d0a22cb8,PennController,76,0,test_val,NULL,PennController,87,_Header_,Start,1739885337917,undefined,789,fireplace,concrete-postiive,negative,positive,B,NULL
1739885764,875ec1e925121d967046ea15d0a22cb8,PennController,76,0,test_val,NULL,PennController,87,_Header_,End,1739885338170,undefined,789,fireplace,concrete-postiive,negative,positive,B,NULL
1739885764,875ec1e925121d967046ea15d0a22cb8,PennController,76,0,test_val,NULL,Selector,unnamed-Selector,Selection,positive,1739885339465,undefined,789,fireplace,concrete-postiive,negative,positive,B,negative;positive
1739885764,875ec1e925121d967046ea15d0a22cb8,PennController,76,0,test_val,NULL,PennController,87,_Trial_,End,1739885339466,undefined,789,fireplace,concrete-postiive,negative,positive,B,NULL
1739885764,875ec1e925121d967046ea15d0a22cb8,PennController,68,0,test_val,NULL,PennController,79,_Trial_,Start,1739885339467,undefined,485,kindness,abstract-positive,negative,positive,B,NULL
1739885764,875ec1e925121d967046ea15d0a22cb8,PennController,68,0,test_val,NULL,PennController,79,_Header_,Start,1739885339467,undefined,485,kindness,abstract-positive,negative,positive,B,NULL
1739885764,875ec1e925121d967046ea15d0a22cb8,PennController,68,0,test_val,NULL,PennController,79,_Header_,End,1739885339718,undefined,485,kindness,abstract-positive,negative,positive,B,NULL
1739885764,875ec1e925121d967046ea15d0a22cb8,PennController,68,0,test_val,NULL,Selector,unnamed-Selector,Selection,positive,1739885340706,undefined,485,kindness,abstract-positive,negative,positive,B,negative;positive
1739885764,875ec1e925121d967046ea15d0a22cb8,PennController,68,0,test_val,NULL,PennController,79,_Trial_,End,1739885340707,undefined,485,kindness,abstract-positive,negative,positive,B,NULL
1739885764,875ec1e925121d967046ea15d0a22cb8,PennController,81,0,test_val,NULL,PennController,92,_Trial_,Start,1739885340708,undefined,627,glisten,concrete-postiive,negative,positive,B,NULL
1739885764,875ec1e925121d967046ea15d0a22cb8,PennController,81,0,test_val,NULL,PennController,92,_Header_,Start,1739885340708,undefined,627,glisten,concrete-postiive,negative,positive,B,NULL
1739885764,875ec1e925121d967046ea15d0a22cb8,PennController,81,0,test_val,NULL,PennController,92,_Header_,End,1739885340960,undefined,627,glisten,concrete-postiive,negative,positive,B,NULL
1739885764,875ec1e925121d967046ea15d0a22cb8,PennController,81,0,test_val,NULL,Selector,unnamed-Selector,Selection,positive,1739885342089,undefined,627,glisten,concrete-postiive,negative,positive,B,negative;positive
1739885764,875ec1e925121d967046ea15d0a22cb8,PennController,81,0,test_val,NULL,PennController,92,_Trial_,End,1739885342090,undefined,627,glisten,concrete-postiive,negative,positive,B,NULL
1739885764,875ec1e925121d967046ea15d0a22cb8,PennController,47,0,test_val,NULL,PennController,58,_Trial_,Start,1739885342091,undefined,617,corpse,concrete-negative,negative,positive,B,NULL
1739885764,875ec1e925121d967046ea15d0a22cb8,PennController,47,0,test_val,NULL,PennController,58,_Header_,Start,1739885342091,undefined,617,corpse,concrete-negative,negative,positive,B,NULL
1739885764,875ec1e925121d967046ea15d0a22cb8,PennController,47,0,test_val,NULL,PennController,58,_Header_,End,1739885342344,undefined,617,corpse,concrete-negative,negative,positive,B,NULL
1739885764,875ec1e925121d967046ea15d0a22cb8,PennController,47,0,test_val,NULL,Selector,unnamed-Selector,Selection,negative,1739885343465,undefined,617,corpse,concrete-negative,negative,positive,B,negative;positive
1739885764,875ec1e925121d967046ea15d0a22cb8,PennController,47,0,test_val,NULL,PennController,58,_Trial_,End,1739885343465,undefined,617,corpse,concrete-negative,negative,positive,B,NULL
1739885764,875ec1e925121d967046ea15d0a22cb8,PennController,62,0,test_val,NULL,PennController,73,_Trial_,Start,1739885343466,undefined,638,resent,abstract-negative,negative,positive,B,NULL
1739885764,875ec1e925121d967046ea15d0a22cb8,PennController,62,0,test_val,NULL,PennController,73,_Header_,Start,1739885343466,undefined,638,resent,abstract-negative,negative,positive,B,NULL
1739885764,875ec1e925121d967046ea15d0a22cb8,PennController,62,0,test_val,NULL,PennController,73,_Header_,End,1739885343716,undefined,638,resent,abstract-negative,negative,positive,B,NULL
1739885764,875ec1e925121d967046ea15d0a22cb8,PennController,62,0,test_val,NULL,Selector,unnamed-Selector,Selection,negative,1739885344859,undefined,638,resent,abstract-negative,negative,positive,B,negative;positive
1739885764,875ec1e925121d967046ea15d0a22cb8,PennController,62,0,test_val,NULL,PennController,73,_Trial_,End,1739885344860,undefined,638,resent,abstract-negative,negative,positive,B,NULL
1739885764,875ec1e925121d967046ea15d0a22cb8,PennController,72,0,test_val,NULL,PennController,83,_Trial_,Start,1739885344861,undefined,628,fulfill,abstract-positive,negative,positive,B,NULL
1739885764,875ec1e925121d967046ea15d0a22cb8,PennController,72,0,test_val,NULL,PennController,83,_Header_,Start,1739885344861,undefined,628,fulfill,abstract-positive,negative,positive,B,NULL
1739885764,875ec1e925121d967046ea15d0a22cb8,PennController,72,0,test_val,NULL,PennController,83,_Header_,End,1739885345113,undefined,628,fulfill,abstract-positive,negative,positive,B,NULL
1739885764,875ec1e925121d967046ea15d0a22cb8,PennController,72,0,test_val,NULL,Selector,unnamed-Selector,Selection,positive,1739885346245,undefined,628,fulfill,abstract-positive,negative,positive,B,negative;positive
1739885764,875ec1e925121d967046ea15d0a22cb8,PennController,72,0,test_val,NULL,PennController,83,_Trial_,End,1739885346246,undefined,628,fulfill,abstract-positive,negative,positive,B,NULL
1739885764,875ec1e925121d967046ea15d0a22cb8,PennController,80,0,test_val,NULL,PennController,91,_Trial_,Start,1739885346247,undefined,683,breathe,concrete-postiive,negative,positive,B,NULL
1739885764,875ec1e925121d967046ea15d0a22cb8,PennController,80,0,test_val,NULL,PennController,91,_Header_,Start,1739885346247,undefined,683,breathe,concrete-postiive,negative,positive,B,NULL
1739885764,875ec1e925121d967046ea15d0a22cb8,PennController,80,0,test_val,NULL,PennController,91,_Header_,End,1739885346498,undefined,683,breathe,concrete-postiive,negative,positive,B,NULL
1739885764,875ec1e925121d967046ea15d0a22cb8,PennController,80,0,test_val,NULL,Selector,unnamed-Selector,Selection,positive,1739885347683,undefined,683,breathe,concrete-postiive,negative,positive,B,negative;positive
1739885764,875ec1e925121d967046ea15d0a22cb8,PennController,80,0,test_val,NULL,PennController,91,_Trial_,End,1739885347684,undefined,683,breathe,concrete-postiive,negative,positive,B,NULL
1739885764,875ec1e925121d967046ea15d0a22cb8,PennController,55,0,test_val,NULL,PennController,66,_Trial_,Start,1739885347685,undefined,590,hatred,abstract-negative,negative,positive,B,NULL
1739885764,875ec1e925121d967046ea15d0a22cb8,PennController,55,0,test_val,NULL,PennController,66,_Header_,Start,1739885347685,undefined,590,hatred,abstract-negative,negative,positive,B,NULL
1739885764,875ec1e925121d967046ea15d0a22cb8,PennController,55,0,test_val,NULL,PennController,66,_Header_,End,1739885347938,undefined,590,hatred,abstract-negative,negative,positive,B,NULL
1739885764,875ec1e925121d967046ea15d0a22cb8,PennController,55,0,test_val,NULL,Selector,unnamed-Selector,Selection,negative,1739885349030,undefined,590,hatred,abstract-negative,negative,positive,B,negative;positive
1739885764,875ec1e925121d967046ea15d0a22cb8,PennController,55,0,test_val,NULL,PennController,66,_Trial_,End,1739885349032,undefined,590,hatred,abstract-negative,negative,positive,B,NULL
1739885764,875ec1e925121d967046ea15d0a22cb8,PennController,48,0,test_val,NULL,PennController,59,_Trial_,Start,1739885349032,undefined,577,slave,concrete-negative,negative,positive,B,NULL
1739885764,875ec1e925121d967046ea15d0a22cb8,PennController,48,0,test_val,NULL,PennController,59,_Header_,Start,1739885349032,undefined,577,slave,concrete-negative,negative,positive,B,NULL
1739885764,875ec1e925121d967046ea15d0a22cb8,PennController,48,0,test_val,NULL,PennController,59,_Header_,End,1739885349286,undefined,577,slave,concrete-negative,negative,positive,B,NULL
1739885764,875ec1e925121d967046ea15d0a22cb8,PennController,48,0,test_val,NULL,Selector,unnamed-Selector,Selection,negative,1739885350367,undefined,577,slave,concrete-negative,negative,positive,B,negative;positive
1739885764,875ec1e925121d967046ea15d0a22cb8,PennController,48,0,test_val,NULL,PennController,59,_Trial_,End,1739885350367,undefined,577,slave,concrete-negative,negative,positive,B,NULL
1739885764,875ec1e925121d967046ea15d0a22cb8,PennController,71,0,test_val,NULL,PennController,82,_Trial_,Start,1739885350369,undefined,558,enlighten,abstract-positive,negative,positive,B,NULL
1739885764,875ec1e925121d967046ea15d0a22cb8,PennController,71,0,test_val,NULL,PennController,82,_Header_,Start,1739885350369,undefined,558,enlighten,abstract-positive,negative,positive,B,NULL
1739885764,875ec1e925121d967046ea15d0a22cb8,PennController,71,0,test_val,NULL,PennController,82,_Header_,End,1739885350621,undefined,558,enlighten,abstract-positive,negative,positive,B,NULL
1739885764,875ec1e925121d967046ea15d0a22cb8,PennController,71,0,test_val,NULL,Selector,unnamed-Selector,Selection,positive,1739885351684,undefined,558,enlighten,abstract-positive,negative,positive,B,negative;positive
1739885764,875ec1e925121d967046ea15d0a22cb8,PennController,71,0,test_val,NULL,PennController,82,_Trial_,End,1739885351685,undefined,558,enlighten,abstract-positive,negative,positive,B,NULL
1739885764,875ec1e925121d967046ea15d0a22cb8,PennController,83,0,test_val,NULL,PennController,94,_Trial_,Start,1739885351686,undefined,609,running,concrete-postiive,negative,positive,B,NULL
1739885764,875ec1e925121d967046ea15d0a22cb8,PennController,83,0,test_val,NULL,PennController,94,_Header_,Start,1739885351686,undefined,609,running,concrete-postiive,negative,positive,B,NULL
1739885764,875ec1e925121d967046ea15d0a22cb8,PennController,83,0,test_val,NULL,PennController,94,_Header_,End,1739885351937,undefined,609,running,concrete-postiive,negative,positive,B,NULL
1739885764,875ec1e925121d967046ea15d0a22cb8,PennController,83,0,test_val,NULL,Selector,unnamed-Selector,Selection,positive,1739885353050,undefined,609,running,concrete-postiive,negative,positive,B,negative;positive
1739885764,875ec1e925121d967046ea15d0a22cb8,PennController,83,0,test_val,NULL,PennController,94,_Trial_,End,1739885353051,undefined,609,running,concrete-postiive,negative,positive,B,NULL
1739885764,875ec1e925121d967046ea15d0a22cb8,PennController,65,0,test_val,NULL,PennController,76,_Trial_,Start,1739885353052,undefined,504,freedom,abstract-positive,negative,positive,B,NULL
1739885764,875ec1e925121d967046ea15d0a22cb8,PennController,65,0,test_val,NULL,PennController,76,_Header_,Start,1739885353052,undefined,504,freedom,abstract-positive,negative,positive,B,NULL
1739885764,875ec1e925121d967046ea15d0a22cb8,PennController,65,0,test_val,NULL,PennController,76,_Header_,End,1739885353303,undefined,504,freedom,abstract-positive,negative,positive,B,NULL
1739885764,875ec1e925121d967046ea15d0a22cb8,PennController,65,0,test_val,NULL,Selector,unnamed-Selector,Selection,positive,1739885354313,undefined,504,freedom,abstract-positive,negative,positive,B,negative;positive
1739885764,875ec1e925121d967046ea15d0a22cb8,PennController,65,0,test_val,NULL,PennController,76,_Trial_,End,1739885354313,undefined,504,freedom,abstract-positive,negative,positive,B,NULL
1739885764,875ec1e925121d967046ea15d0a22cb8,PennController,66,0,test_val,NULL,PennController,77,_Trial_,Start,1739885354314,undefined,535,gratitude,abstract-positive,negative,positive,B,NULL
1739885764,875ec1e925121d967046ea15d0a22cb8,PennController,66,0,test_val,NULL,PennController,77,_Header_,Start,1739885354314,undefined,535,gratitude,abstract-positive,negative,positive,B,NULL
1739885764,875ec1e925121d967046ea15d0a22cb8,PennController,66,0,test_val,NULL,PennController,77,_Header_,End,1739885354565,undefined,535,gratitude,abstract-positive,negative,positive,B,NULL
1739885764,875ec1e925121d967046ea15d0a22cb8,PennController,66,0,test_val,NULL,Selector,unnamed-Selector,Selection,positive,1739885355603,undefined,535,gratitude,abstract-positive,negative,positive,B,negative;positive
1739885764,875ec1e925121d967046ea15d0a22cb8,PennController,66,0,test_val,NULL,PennController,77,_Trial_,End,1739885355604,undefined,535,gratitude,abstract-positive,negative,positive,B,NULL
1739885764,875ec1e925121d967046ea15d0a22cb8,PennController,74,0,test_val,NULL,PennController,85,_Trial_,Start,1739885355605,undefined,723,beach,concrete-postiive,negative,positive,B,NULL
1739885764,875ec1e925121d967046ea15d0a22cb8,PennController,74,0,test_val,NULL,PennController,85,_Header_,Start,1739885355605,undefined,723,beach,concrete-postiive,negative,positive,B,NULL
1739885764,875ec1e925121d967046ea15d0a22cb8,PennController,74,0,test_val,NULL,PennController,85,_Header_,End,1739885355859,undefined,723,beach,concrete-postiive,negative,positive,B,NULL
1739885764,875ec1e925121d967046ea15d0a22cb8,PennController,74,0,test_val,NULL,Selector,unnamed-Selector,Selection,positive,1739885357087,undefined,723,beach,concrete-postiive,negative,positive,B,negative;positive
1739885764,875ec1e925121d967046ea15d0a22cb8,PennController,74,0,test_val,NULL,PennController,85,_Trial_,End,1739885357088,undefined,723,beach,concrete-postiive,negative,positive,B,NULL
1739885764,875ec1e925121d967046ea15d0a22cb8,PennController,44,0,test_val,NULL,PennController,55,_Trial_,Start,1739885357088,undefined,518,toxin,concrete-negative,negative,positive,B,NULL
1739885764,875ec1e925121d967046ea15d0a22cb8,PennController,44,0,test_val,NULL,PennController,55,_Header_,Start,1739885357088,undefined,518,toxin,concrete-negative,negative,positive,B,NULL
1739885764,875ec1e925121d967046ea15d0a22cb8,PennController,44,0,test_val,NULL,PennController,55,_Header_,End,1739885357339,undefined,518,toxin,concrete-negative,negative,positive,B,NULL
1739885764,875ec1e925121d967046ea15d0a22cb8,PennController,44,0,test_val,NULL,Selector,unnamed-Selector,Selection,negative,1739885358360,undefined,518,toxin,concrete-negative,negative,positive,B,negative;positive
1739885764,875ec1e925121d967046ea15d0a22cb8,PennController,44,0,test_val,NULL,PennController,55,_Trial_,End,1739885358362,undefined,518,toxin,concrete-negative,negative,positive,B,NULL
1739885764,875ec1e925121d967046ea15d0a22cb8,PennController,73,0,test_val,NULL,PennController,84,_Trial_,Start,1739885358363,undefined,527,imagine,abstract-positive,negative,positive,B,NULL
1739885764,875ec1e925121d967046ea15d0a22cb8,PennController,73,0,test_val,NULL,PennController,84,_Header_,Start,1739885358363,undefined,527,imagine,abstract-positive,negative,positive,B,NULL
1739885764,875ec1e925121d967046ea15d0a22cb8,PennController,73,0,test_val,NULL,PennController,84,_Header_,End,1739885358614,undefined,527,imagine,abstract-positive,negative,positive,B,NULL
1739885764,875ec1e925121d967046ea15d0a22cb8,PennController,73,0,test_val,NULL,Selector,unnamed-Selector,Selection,positive,1739885359646,undefined,527,imagine,abstract-positive,negative,positive,B,negative;positive
1739885764,875ec1e925121d967046ea15d0a22cb8,PennController,73,0,test_val,NULL,PennController,84,_Trial_,End,1739885359647,undefined,527,imagine,abstract-positive,negative,positive,B,NULL
1739885764,875ec1e925121d967046ea15d0a22cb8,PennController,64,0,test_val,NULL,PennController,75,_Trial_,Start,1739885359648,undefined,554,compassion,abstract-positive,negative,positive,B,NULL
1739885764,875ec1e925121d967046ea15d0a22cb8,PennController,64,0,test_val,NULL,PennController,75,_Header_,Start,1739885359648,undefined,554,compassion,abstract-positive,negative,positive,B,NULL
1739885764,875ec1e925121d967046ea15d0a22cb8,PennController,64,0,test_val,NULL,PennController,75,_Header_,End,1739885359902,undefined,554,compassion,abstract-positive,negative,positive,B,NULL
1739885764,875ec1e925121d967046ea15d0a22cb8,PennController,64,0,test_val,NULL,Selector,unnamed-Selector,Selection,positive,1739885360963,undefined,554,compassion,abstract-positive,negative,positive,B,negative;positive
1739885764,875ec1e925121d967046ea15d0a22cb8,PennController,64,0,test_val,NULL,PennController,75,_Trial_,End,1739885360964,undefined,554,compassion,abstract-positive,negative,positive,B,NULL
1739885764,875ec1e925121d967046ea15d0a22cb8,PennController,65,0,test_val,NULL,PennController,76,_Trial_,Start,1739885360965,undefined,629,freedom,abstract-positive,negative,positive,B,NULL
1739885764,875ec1e925121d967046ea15d0a22cb8,PennController,65,0,test_val,NULL,PennController,76,_Header_,Start,1739885360965,undefined,629,freedom,abstract-positive,negative,positive,B,NULL
1739885764,875ec1e925121d967046ea15d0a22cb8,PennController,65,0,test_val,NULL,PennController,76,_Header_,End,1739885361218,undefined,629,freedom,abstract-positive,negative,positive,B,NULL
1739885764,875ec1e925121d967046ea15d0a22cb8,PennController,65,0,test_val,NULL,Selector,unnamed-Selector,Selection,positive,1739885362350,undefined,629,freedom,abstract-positive,negative,positive,B,negative;positive
1739885764,875ec1e925121d967046ea15d0a22cb8,PennController,65,0,test_val,NULL,PennController,76,_Trial_,End,1739885362351,undefined,629,freedom,abstract-positive,negative,positive,B,NULL
1739885764,875ec1e925121d967046ea15d0a22cb8,PennController,59,0,test_val,NULL,PennController,70,_Trial_,Start,1739885362352,undefined,607,befall,abstract-negative,negative,positive,B,NULL
1739885764,875ec1e925121d967046ea15d0a22cb8,PennController,59,0,test_val,NULL,PennController,70,_Header_,Start,1739885362352,undefined,607,befall,abstract-negative,negative,positive,B,NULL
1739885764,875ec1e925121d967046ea15d0a22cb8,PennController,59,0,test_val,NULL,PennController,70,_Header_,End,1739885362604,undefined,607,befall,abstract-negative,negative,positive,B,NULL
1739885764,875ec1e925121d967046ea15d0a22cb8,PennController,59,0,test_val,NULL,Selector,unnamed-Selector,Selection,negative,1739885363716,undefined,607,befall,abstract-negative,negative,positive,B,negative;positive
1739885764,875ec1e925121d967046ea15d0a22cb8,PennController,59,0,test_val,NULL,PennController,70,_Trial_,End,1739885363717,undefined,607,befall,abstract-negative,negative,positive,B,NULL
1739885764,875ec1e925121d967046ea15d0a22cb8,PennController,60,0,test_val,NULL,PennController,71,_Trial_,Start,1739885363718,undefined,554,criticize,abstract-negative,negative,positive,B,NULL
1739885764,875ec1e925121d967046ea15d0a22cb8,PennController,60,0,test_val,NULL,PennController,71,_Header_,Start,1739885363718,undefined,554,criticize,abstract-negative,negative,positive,B,NULL
1739885764,875ec1e925121d967046ea15d0a22cb8,PennController,60,0,test_val,NULL,PennController,71,_Header_,End,1739885363969,undefined,554,criticize,abstract-negative,negative,positive,B,NULL
1739885764,875ec1e925121d967046ea15d0a22cb8,PennController,60,0,test_val,NULL,Selector,unnamed-Selector,Selection,negative,1739885365030,undefined,554,criticize,abstract-negative,negative,positive,B,negative;positive
1739885764,875ec1e925121d967046ea15d0a22cb8,PennController,60,0,test_val,NULL,PennController,71,_Trial_,End,1739885365031,undefined,554,criticize,abstract-negative,negative,positive,B,NULL
1739885764,875ec1e925121d967046ea15d0a22cb8,PennController,58,0,test_val,NULL,PennController,69,_Trial_,Start,1739885365032,undefined,549,grief,abstract-negative,negative,positive,B,NULL
1739885764,875ec1e925121d967046ea15d0a22cb8,PennController,58,0,test_val,NULL,PennController,69,_Header_,Start,1739885365032,undefined,549,grief,abstract-negative,negative,positive,B,NULL
1739885764,875ec1e925121d967046ea15d0a22cb8,PennController,58,0,test_val,NULL,PennController,69,_Header_,End,1739885365286,undefined,549,grief,abstract-negative,negative,positive,B,NULL
1739885764,875ec1e925121d967046ea15d0a22cb8,PennController,58,0,test_val,NULL,Selector,unnamed-Selector,Selection,negative,1739885366339,undefined,549,grief,abstract-negative,negative,positive,B,negative;positive
1739885764,875ec1e925121d967046ea15d0a22cb8,PennController,58,0,test_val,NULL,PennController,69,_Trial_,End,1739885366340,undefined,549,grief,abstract-negative,negative,positive,B,NULL
1739885764,875ec1e925121d967046ea15d0a22cb8,PennController,75,0,test_val,NULL,PennController,86,_Trial_,Start,1739885366341,undefined,520,chocolate,concrete-postiive,negative,positive,B,NULL
1739885764,875ec1e925121d967046ea15d0a22cb8,PennController,75,0,test_val,NULL,PennController,86,_Header_,Start,1739885366341,undefined,520,chocolate,concrete-postiive,negative,positive,B,NULL
1739885764,875ec1e925121d967046ea15d0a22cb8,PennController,75,0,test_val,NULL,PennController,86,_Header_,End,1739885366594,undefined,520,chocolate,concrete-postiive,negative,positive,B,NULL
1739885764,875ec1e925121d967046ea15d0a22cb8,PennController,75,0,test_val,NULL,Selector,unnamed-Selector,Selection,positive,1739885367619,undefined,520,chocolate,concrete-postiive,negative,positive,B,negative;positive
1739885764,875ec1e925121d967046ea15d0a22cb8,PennController,75,0,test_val,NULL,PennController,86,_Trial_,End,1739885367620,undefined,520,chocolate,concrete-postiive,negative,positive,B,NULL
1739885764,875ec1e925121d967046ea15d0a22cb8,PennController,78,0,test_val,NULL,PennController,89,_Trial_,Start,1739885367621,undefined,511,home,concrete-postiive,negative,positive,B,NULL
1739885764,875ec1e925121d967046ea15d0a22cb8,PennController,78,0,test_val,NULL,PennController,89,_Header_,Start,1739885367621,undefined,511,home,concrete-postiive,negative,positive,B,NULL
1739885764,875ec1e925121d967046ea15d0a22cb8,PennController,78,0,test_val,NULL,PennController,89,_Header_,End,1739885367874,undefined,511,home,concrete-postiive,negative,positive,B,NULL
1739885764,875ec1e925121d967046ea15d0a22cb8,PennController,78,0,test_val,NULL,Selector,unnamed-Selector,Selection,positive,1739885368891,undefined,511,home,concrete-postiive,negative,positive,B,negative;positive
1739885764,875ec1e925121d967046ea15d0a22cb8,PennController,78,0,test_val,NULL,PennController,89,_Trial_,End,1739885368891,undefined,511,home,concrete-postiive,negative,positive,B,NULL
1739885764,875ec1e925121d967046ea15d0a22cb8,PennController,76,0,test_val,NULL,PennController,87,_Trial_,Start,1739885368892,undefined,557,fireplace,concrete-postiive,negative,positive,B,NULL
1739885764,875ec1e925121d967046ea15d0a22cb8,PennController,76,0,test_val,NULL,PennController,87,_Header_,Start,1739885368892,undefined,557,fireplace,concrete-postiive,negative,positive,B,NULL
1739885764,875ec1e925121d967046ea15d0a22cb8,PennController,76,0,test_val,NULL,PennController,87,_Header_,End,1739885369145,undefined,557,fireplace,concrete-postiive,negative,positive,B,NULL
1739885764,875ec1e925121d967046ea15d0a22cb8,PennController,76,0,test_val,NULL,Selector,unnamed-Selector,Selection,positive,1739885370205,undefined,557,fireplace,concrete-postiive,negative,positive,B,negative;positive
1739885764,875ec1e925121d967046ea15d0a22cb8,PennController,76,0,test_val,NULL,PennController,87,_Trial_,End,1739885370206,undefined,557,fireplace,concrete-postiive,negative,positive,B,NULL
1739885764,875ec1e925121d967046ea15d0a22cb8,PennController,53,0,test_val,NULL,PennController,64,_Trial_,Start,1739885370207,undefined,550,stab,concrete-negative,negative,positive,B,NULL
1739885764,875ec1e925121d967046ea15d0a22cb8,PennController,53,0,test_val,NULL,PennController,64,_Header_,Start,1739885370207,undefined,550,stab,concrete-negative,negative,positive,B,NULL
1739885764,875ec1e925121d967046ea15d0a22cb8,PennController,53,0,test_val,NULL,PennController,64,_Header_,End,1739885370461,undefined,550,stab,concrete-negative,negative,positive,B,NULL
1739885764,875ec1e925121d967046ea15d0a22cb8,PennController,53,0,test_val,NULL,Selector,unnamed-Selector,Selection,negative,1739885371513,undefined,550,stab,concrete-negative,negative,positive,B,negative;positive
1739885764,875ec1e925121d967046ea15d0a22cb8,PennController,53,0,test_val,NULL,PennController,64,_Trial_,End,1739885371514,undefined,550,stab,concrete-negative,negative,positive,B,NULL
1739885764,875ec1e925121d967046ea15d0a22cb8,PennController,55,0,test_val,NULL,PennController,66,_Trial_,Start,1739885371514,undefined,552,hatred,abstract-negative,negative,positive,B,NULL
1739885764,875ec1e925121d967046ea15d0a22cb8,PennController,55,0,test_val,NULL,PennController,66,_Header_,Start,1739885371514,undefined,552,hatred,abstract-negative,negative,positive,B,NULL
1739885764,875ec1e925121d967046ea15d0a22cb8,PennController,55,0,test_val,NULL,PennController,66,_Header_,End,1739885371766,undefined,552,hatred,abstract-negative,negative,positive,B,NULL
1739885764,875ec1e925121d967046ea15d0a22cb8,PennController,55,0,test_val,NULL,Selector,unnamed-Selector,Selection,negative,1739885372822,undefined,552,hatred,abstract-negative,negative,positive,B,negative;positive
1739885764,875ec1e925121d967046ea15d0a22cb8,PennController,55,0,test_val,NULL,PennController,66,_Trial_,End,1739885372823,undefined,552,hatred,abstract-negative,negative,positive,B,NULL
1739885764,875ec1e925121d967046ea15d0a22cb8,PennController,46,0,test_val,NULL,PennController,57,_Trial_,Start,1739885372825,undefined,805,mud,concrete-negative,negative,positive,B,NULL
1739885764,875ec1e925121d967046ea15d0a22cb8,PennController,46,0,test_val,NULL,PennController,57,_Header_,Start,1739885372825,undefined,805,mud,concrete-negative,negative,positive,B,NULL
1739885764,875ec1e925121d967046ea15d0a22cb8,PennController,46,0,test_val,NULL,PennController,57,_Header_,End,1739885373076,undefined,805,mud,concrete-negative,negative,positive,B,NULL
1739885764,875ec1e925121d967046ea15d0a22cb8,PennController,46,0,test_val,NULL,Selector,unnamed-Selector,Selection,negative,1739885374385,undefined,805,mud,concrete-negative,negative,positive,B,negative;positive
1739885764,875ec1e925121d967046ea15d0a22cb8,PennController,46,0,test_val,NULL,PennController,57,_Trial_,End,1739885374387,undefined,805,mud,concrete-negative,negative,positive,B,NULL
1739885764,875ec1e925121d967046ea15d0a22cb8,PennController,49,0,test_val,NULL,PennController,60,_Trial_,Start,1739885374388,undefined,688,choke,concrete-negative,negative,positive,B,NULL
1739885764,875ec1e925121d967046ea15d0a22cb8,PennController,49,0,test_val,NULL,PennController,60,_Header_,Start,1739885374388,undefined,688,choke,concrete-negative,negative,positive,B,NULL
1739885764,875ec1e925121d967046ea15d0a22cb8,PennController,49,0,test_val,NULL,PennController,60,_Header_,End,1739885374638,undefined,688,choke,concrete-negative,negative,positive,B,NULL
1739885764,875ec1e925121d967046ea15d0a22cb8,PennController,49,0,test_val,NULL,Selector,unnamed-Selector,Selection,negative,1739885375831,undefined,688,choke,concrete-negative,negative,positive,B,negative;positive
1739885764,875ec1e925121d967046ea15d0a22cb8,PennController,49,0,test_val,NULL,PennController,60,_Trial_,End,1739885375832,undefined,688,choke,concrete-negative,negative,positive,B,NULL
1739885764,875ec1e925121d967046ea15d0a22cb8,PennController,52,0,test_val,NULL,PennController,63,_Trial_,Start,1739885375832,undefined,574,bleed,concrete-negative,negative,positive,B,NULL
1739885764,875ec1e925121d967046ea15d0a22cb8,PennController,52,0,test_val,NULL,PennController,63,_Header_,Start,1739885375832,undefined,574,bleed,concrete-negative,negative,positive,B,NULL
1739885764,875ec1e925121d967046ea15d0a22cb8,PennController,52,0,test_val,NULL,PennController,63,_Header_,End,1739885376083,undefined,574,bleed,concrete-negative,negative,positive,B,NULL
1739885764,875ec1e925121d967046ea15d0a22cb8,PennController,52,0,test_val,NULL,Selector,unnamed-Selector,Selection,negative,1739885377163,undefined,574,bleed,concrete-negative,negative,positive,B,negative;positive
1739885764,875ec1e925121d967046ea15d0a22cb8,PennController,52,0,test_val,NULL,PennController,63,_Trial_,End,1739885377163,undefined,574,bleed,concrete-negative,negative,positive,B,NULL
1739885764,875ec1e925121d967046ea15d0a22cb8,PennController,80,0,test_val,NULL,PennController,91,_Trial_,Start,1739885377164,undefined,501,breathe,concrete-postiive,negative,positive,B,NULL
1739885764,875ec1e925121d967046ea15d0a22cb8,PennController,80,0,test_val,NULL,PennController,91,_Header_,Start,1739885377164,undefined,501,breathe,concrete-postiive,negative,positive,B,NULL
1739885764,875ec1e925121d967046ea15d0a22cb8,PennController,80,0,test_val,NULL,PennController,91,_Header_,End,1739885377415,undefined,501,breathe,concrete-postiive,negative,positive,B,NULL
1739885764,875ec1e925121d967046ea15d0a22cb8,PennController,80,0,test_val,NULL,Selector,unnamed-Selector,Selection,positive,1739885378418,undefined,501,breathe,concrete-postiive,negative,positive,B,negative;positive
1739885764,875ec1e925121d967046ea15d0a22cb8,PennController,80,0,test_val,NULL,PennController,91,_Trial_,End,1739885378419,undefined,501,breathe,concrete-postiive,negative,positive,B,NULL
1739885764,875ec1e925121d967046ea15d0a22cb8,PennController,83,0,test_val,NULL,PennController,94,_Trial_,Start,1739885378420,undefined,579,running,concrete-postiive,negative,positive,B,NULL
1739885764,875ec1e925121d967046ea15d0a22cb8,PennController,83,0,test_val,NULL,PennController,94,_Header_,Start,1739885378420,undefined,579,running,concrete-postiive,negative,positive,B,NULL
1739885764,875ec1e925121d967046ea15d0a22cb8,PennController,83,0,test_val,NULL,PennController,94,_Header_,End,1739885378670,undefined,579,running,concrete-postiive,negative,positive,B,NULL
1739885764,875ec1e925121d967046ea15d0a22cb8,PennController,83,0,test_val,NULL,Selector,unnamed-Selector,Selection,positive,1739885379753,undefined,579,running,concrete-postiive,negative,positive,B,negative;positive
1739885764,875ec1e925121d967046ea15d0a22cb8,PennController,83,0,test_val,NULL,PennController,94,_Trial_,End,1739885379754,undefined,579,running,concrete-postiive,negative,positive,B,NULL
1739885764,875ec1e925121d967046ea15d0a22cb8,PennController,51,0,test_val,NULL,PennController,62,_Trial_,Start,1739885379755,undefined,522,writhe,concrete-negative,negative,positive,B,NULL
1739885764,875ec1e925121d967046ea15d0a22cb8,PennController,51,0,test_val,NULL,PennController,62,_Header_,Start,1739885379755,undefined,522,writhe,concrete-negative,negative,positive,B,NULL
1739885764,875ec1e925121d967046ea15d0a22cb8,PennController,51,0,test_val,NULL,PennController,62,_Header_,End,1739885380005,undefined,522,writhe,concrete-negative,negative,positive,B,NULL
1739885764,875ec1e925121d967046ea15d0a22cb8,PennController,51,0,test_val,NULL,Selector,unnamed-Selector,Selection,negative,1739885381029,undefined,522,writhe,concrete-negative,negative,positive,B,negative;positive
1739885764,875ec1e925121d967046ea15d0a22cb8,PennController,51,0,test_val,NULL,PennController,62,_Trial_,End,1739885381030,undefined,522,writhe,concrete-negative,negative,positive,B,NULL
1739885764,875ec1e925121d967046ea15d0a22cb8,PennController,67,0,test_val,NULL,PennController,78,_Trial_,Start,1739885381031,undefined,513,inspiration,abstract-positive,negative,positive,B,NULL
1739885764,875ec1e925121d967046ea15d0a22cb8,PennController,67,0,test_val,NULL,PennController,78,_Header_,Start,1739885381031,undefined,513,inspiration,abstract-positive,negative,positive,B,NULL
1739885764,875ec1e925121d967046ea15d0a22cb8,PennController,67,0,test_val,NULL,PennController,78,_Header_,End,1739885381282,undefined,513,inspiration,abstract-positive,negative,positive,B,NULL
1739885764,875ec1e925121d967046ea15d0a22cb8,PennController,67,0,test_val,NULL,Selector,unnamed-Selector,Selection,positive,1739885382295,undefined,513,inspiration,abstract-positive,negative,positive,B,negative;positive
1739885764,875ec1e925121d967046ea15d0a22cb8,PennController,67,0,test_val,NULL,PennController,78,_Trial_,End,1739885382296,undefined,513,inspiration,abstract-positive,negative,positive,B,NULL
1739885764,875ec1e925121d967046ea15d0a22cb8,PennController,82,0,test_val,NULL,PennController,93,_Trial_,Start,1739885382296,undefined,480,eat,concrete-postiive,negative,positive,B,NULL
1739885764,875ec1e925121d967046ea15d0a22cb8,PennController,82,0,test_val,NULL,PennController,93,_Header_,Start,1739885382296,undefined,480,eat,concrete-postiive,negative,positive,B,NULL
1739885764,875ec1e925121d967046ea15d0a22cb8,PennController,82,0,test_val,NULL,PennController,93,_Header_,End,1739885382549,undefined,480,eat,concrete-postiive,negative,positive,B,NULL
1739885764,875ec1e925121d967046ea15d0a22cb8,PennController,82,0,test_val,NULL,Selector,unnamed-Selector,Selection,positive,1739885383534,undefined,480,eat,concrete-postiive,negative,positive,B,negative;positive
1739885764,875ec1e925121d967046ea15d0a22cb8,PennController,82,0,test_val,NULL,PennController,93,_Trial_,End,1739885383535,undefined,480,eat,concrete-postiive,negative,positive,B,NULL
1739885764,875ec1e925121d967046ea15d0a22cb8,PennController,48,0,test_val,NULL,PennController,59,_Trial_,Start,1739885383536,undefined,551,slave,concrete-negative,negative,positive,B,NULL
1739885764,875ec1e925121d967046ea15d0a22cb8,PennController,48,0,test_val,NULL,PennController,59,_Header_,Start,1739885383536,undefined,551,slave,concrete-negative,negative,positive,B,NULL
1739885764,875ec1e925121d967046ea15d0a22cb8,PennController,48,0,test_val,NULL,PennController,59,_Header_,End,1739885383791,undefined,551,slave,concrete-negative,negative,positive,B,NULL
1739885764,875ec1e925121d967046ea15d0a22cb8,PennController,48,0,test_val,NULL,Selector,unnamed-Selector,Selection,negative,1739885384844,undefined,551,slave,concrete-negative,negative,positive,B,negative;positive
1739885764,875ec1e925121d967046ea15d0a22cb8,PennController,48,0,test_val,NULL,PennController,59,_Trial_,End,1739885384845,undefined,551,slave,concrete-negative,negative,positive,B,NULL
1739885764,875ec1e925121d967046ea15d0a22cb8,PennController,74,0,test_val,NULL,PennController,85,_Trial_,Start,1739885384846,undefined,578,beach,concrete-postiive,negative,positive,B,NULL
1739885764,875ec1e925121d967046ea15d0a22cb8,PennController,74,0,test_val,NULL,PennController,85,_Header_,Start,1739885384846,undefined,578,beach,concrete-postiive,negative,positive,B,NULL
1739885764,875ec1e925121d967046ea15d0a22cb8,PennController,74,0,test_val,NULL,PennController,85,_Header_,End,1739885385100,undefined,578,beach,concrete-postiive,negative,positive,B,NULL
1739885764,875ec1e925121d967046ea15d0a22cb8,PennController,74,0,test_val,NULL,Selector,unnamed-Selector,Selection,positive,1739885386178,undefined,578,beach,concrete-postiive,negative,positive,B,negative;positive
1739885764,875ec1e925121d967046ea15d0a22cb8,PennController,74,0,test_val,NULL,PennController,85,_Trial_,End,1739885386179,undefined,578,beach,concrete-postiive,negative,positive,B,NULL
1739885764,875ec1e925121d967046ea15d0a22cb8,PennController,61,0,test_val,NULL,PennController,72,_Trial_,Start,1739885386180,undefined,679,exploit,abstract-negative,negative,positive,B,NULL
1739885764,875ec1e925121d967046ea15d0a22cb8,PennController,61,0,test_val,NULL,PennController,72,_Header_,Start,1739885386180,undefined,679,exploit,abstract-negative,negative,positive,B,NULL
1739885764,875ec1e925121d967046ea15d0a22cb8,PennController,61,0,test_val,NULL,PennController,72,_Header_,End,1739885386431,undefined,679,exploit,abstract-negative,negative,positive,B,NULL
1739885764,875ec1e925121d967046ea15d0a22cb8,PennController,61,0,test_val,NULL,Selector,unnamed-Selector,Selection,negative,1739885387615,undefined,679,exploit,abstract-negative,negative,positive,B,negative;positive
1739885764,875ec1e925121d967046ea15d0a22cb8,PennController,61,0,test_val,NULL,PennController,72,_Trial_,End,1739885387616,undefined,679,exploit,abstract-negative,negative,positive,B,NULL
1739885764,875ec1e925121d967046ea15d0a22cb8,PennController,68,0,test_val,NULL,PennController,79,_Trial_,Start,1739885387617,undefined,533,kindness,abstract-positive,negative,positive,B,NULL
1739885764,875ec1e925121d967046ea15d0a22cb8,PennController,68,0,test_val,NULL,PennController,79,_Header_,Start,1739885387617,undefined,533,kindness,abstract-positive,negative,positive,B,NULL
1739885764,875ec1e925121d967046ea15d0a22cb8,PennController,68,0,test_val,NULL,PennController,79,_Header_,End,1739885387870,undefined,533,kindness,abstract-positive,negative,positive,B,NULL
1739885764,875ec1e925121d967046ea15d0a22cb8,PennController,68,0,test_val,NULL,Selector,unnamed-Selector,Selection,positive,1739885388906,undefined,533,kindness,abstract-positive,negative,positive,B,negative;positive
1739885764,875ec1e925121d967046ea15d0a22cb8,PennController,68,0,test_val,NULL,PennController,79,_Trial_,End,1739885388907,undefined,533,kindness,abstract-positive,negative,positive,B,NULL
1739885764,875ec1e925121d967046ea15d0a22cb8,PennController,72,0,test_val,NULL,PennController,83,_Trial_,Start,1739885388908,undefined,553,fulfill,abstract-positive,negative,positive,B,NULL
1739885764,875ec1e925121d967046ea15d0a22cb8,PennController,72,0,test_val,NULL,PennController,83,_Header_,Start,1739885388908,undefined,553,fulfill,abstract-positive,negative,positive,B,NULL
1739885764,875ec1e925121d967046ea15d0a22cb8,PennController,72,0,test_val,NULL,PennController,83,_Header_,End,1739885389162,undefined,553,fulfill,abstract-positive,negative,positive,B,NULL
1739885764,875ec1e925121d967046ea15d0a22cb8,PennController,72,0,test_val,NULL,Selector,unnamed-Selector,Selection,positive,1739885390217,undefined,553,fulfill,abstract-positive,negative,positive,B,negative;positive
1739885764,875ec1e925121d967046ea15d0a22cb8,PennController,72,0,test_val,NULL,PennController,83,_Trial_,End,1739885390218,undefined,553,fulfill,abstract-positive,negative,positive,B,NULL
1739885764,875ec1e925121d967046ea15d0a22cb8,PennController,47,0,test_val,NULL,PennController,58,_Trial_,Start,1739885390219,undefined,514,corpse,concrete-negative,negative,positive,B,NULL
1739885764,875ec1e925121d967046ea15d0a22cb8,PennController,47,0,test_val,NULL,PennController,58,_Header_,Start,1739885390219,undefined,514,corpse,concrete-negative,negative,positive,B,NULL
1739885764,875ec1e925121d967046ea15d0a22cb8,PennController,47,0,test_val,NULL,PennController,58,_Header_,End,1739885390471,undefined,514,corpse,concrete-negative,negative,positive,B,NULL
1739885764,875ec1e925121d967046ea15d0a22cb8,PennController,47,0,test_val,NULL,Selector,unnamed-Selector,Selection,negative,1739885391490,undefined,514,corpse,concrete-negative,negative,positive,B,negative;positive
1739885764,875ec1e925121d967046ea15d0a22cb8,PennController,47,0,test_val,NULL,PennController,58,_Trial_,End,1739885391491,undefined,514,corpse,concrete-negative,negative,positive,B,NULL
1739885764,875ec1e925121d967046ea15d0a22cb8,PennController,79,0,test_val,NULL,PennController,90,_Trial_,Start,1739885391492,undefined,590,glide,concrete-postiive,negative,positive,B,NULL
1739885764,875ec1e925121d967046ea15d0a22cb8,PennController,79,0,test_val,NULL,PennController,90,_Header_,Start,1739885391492,undefined,590,glide,concrete-postiive,negative,positive,B,NULL
1739885764,875ec1e925121d967046ea15d0a22cb8,PennController,79,0,test_val,NULL,PennController,90,_Header_,End,1739885391743,undefined,590,glide,concrete-postiive,negative,positive,B,NULL
1739885764,875ec1e925121d967046ea15d0a22cb8,PennController,79,0,test_val,NULL,Selector,unnamed-Selector,Selection,positive,1739885392840,undefined,590,glide,concrete-postiive,negative,positive,B,negative;positive
1739885764,875ec1e925121d967046ea15d0a22cb8,PennController,79,0,test_val,NULL,PennController,90,_Trial_,End,1739885392840,undefined,590,glide,concrete-postiive,negative,positive,B,NULL
1739885764,875ec1e925121d967046ea15d0a22cb8,PennController,63,0,test_val,NULL,PennController,74,_Trial_,Start,1739885392841,undefined,579,obsess,abstract-negative,negative,positive,B,NULL
1739885764,875ec1e925121d967046ea15d0a22cb8,PennController,63,0,test_val,NULL,PennController,74,_Header_,Start,1739885392841,undefined,579,obsess,abstract-negative,negative,positive,B,NULL
1739885764,875ec1e925121d967046ea15d0a22cb8,PennController,63,0,test_val,NULL,PennController,74,_Header_,End,1739885393095,undefined,579,obsess,abstract-negative,negative,positive,B,NULL
1739885764,875ec1e925121d967046ea15d0a22cb8,PennController,63,0,test_val,NULL,Selector,unnamed-Selector,Selection,negative,1739885394178,undefined,579,obsess,abstract-negative,negative,positive,B,negative;positive
1739885764,875ec1e925121d967046ea15d0a22cb8,PennController,63,0,test_val,NULL,PennController,74,_Trial_,End,1739885394178,undefined,579,obsess,abstract-negative,negative,positive,B,NULL
1739885764,875ec1e925121d967046ea15d0a22cb8,PennController,81,0,test_val,NULL,PennController,92,_Trial_,Start,1739885394179,undefined,651,glisten,concrete-postiive,negative,positive,B,NULL
1739885764,875ec1e925121d967046ea15d0a22cb8,PennController,81,0,test_val,NULL,PennController,92,_Header_,Start,1739885394179,undefined,651,glisten,concrete-postiive,negative,positive,B,NULL
1739885764,875ec1e925121d967046ea15d0a22cb8,PennController,81,0,test_val,NULL,PennController,92,_Header_,End,1739885394431,undefined,651,glisten,concrete-postiive,negative,positive,B,NULL
1739885764,875ec1e925121d967046ea15d0a22cb8,PennController,81,0,test_val,NULL,Selector,unnamed-Selector,Selection,positive,1739885395588,undefined,651,glisten,concrete-postiive,negative,positive,B,negative;positive
1739885764,875ec1e925121d967046ea15d0a22cb8,PennController,81,0,test_val,NULL,PennController,92,_Trial_,End,1739885395588,undefined,651,glisten,concrete-postiive,negative,positive,B,NULL
1739885764,875ec1e925121d967046ea15d0a22cb8,PennController,44,0,test_val,NULL,PennController,55,_Trial_,Start,1739885395589,undefined,585,toxin,concrete-negative,negative,positive,B,NULL
1739885764,875ec1e925121d967046ea15d0a22cb8,PennController,44,0,test_val,NULL,PennController,55,_Header_,Start,1739885395589,undefined,585,toxin,concrete-negative,negative,positive,B,NULL
1739885764,875ec1e925121d967046ea15d0a22cb8,PennController,44,0,test_val,NULL,PennController,55,_Header_,End,1739885395840,undefined,585,toxin,concrete-negative,negative,positive,B,NULL
1739885764,875ec1e925121d967046ea15d0a22cb8,PennController,44,0,test_val,NULL,Selector,unnamed-Selector,Selection,negative,1739885396930,undefined,585,toxin,concrete-negative,negative,positive,B,negative;positive
1739885764,875ec1e925121d967046ea15d0a22cb8,PennController,44,0,test_val,NULL,PennController,55,_Trial_,End,1739885396931,undefined,585,toxin,concrete-negative,negative,positive,B,NULL
1739885764,875ec1e925121d967046ea15d0a22cb8,PennController,70,0,test_val,NULL,PennController,81,_Trial_,Start,1739885396932,undefined,583,cherish,abstract-positive,negative,positive,B,NULL
1739885764,875ec1e925121d967046ea15d0a22cb8,PennController,70,0,test_val,NULL,PennController,81,_Header_,Start,1739885396932,undefined,583,cherish,abstract-positive,negative,positive,B,NULL
1739885764,875ec1e925121d967046ea15d0a22cb8,PennController,70,0,test_val,NULL,PennController,81,_Header_,End,1739885397183,undefined,583,cherish,abstract-positive,negative,positive,B,NULL
1739885764,875ec1e925121d967046ea15d0a22cb8,PennController,70,0,test_val,NULL,Selector,unnamed-Selector,Selection,positive,1739885398267,undefined,583,cherish,abstract-positive,negative,positive,B,negative;positive
1739885764,875ec1e925121d967046ea15d0a22cb8,PennController,70,0,test_val,NULL,PennController,81,_Trial_,End,1739885398268,undefined,583,cherish,abstract-positive,negative,positive,B,NULL
1739885764,875ec1e925121d967046ea15d0a22cb8,PennController,56,0,test_val,NULL,PennController,67,_Trial_,Start,1739885398269,undefined,691,anxiety,abstract-negative,negative,positive,B,NULL
1739885764,875ec1e925121d967046ea15d0a22cb8,PennController,56,0,test_val,NULL,PennController,67,_Header_,Start,1739885398269,undefined,691,anxiety,abstract-negative,negative,positive,B,NULL
1739885764,875ec1e925121d967046ea15d0a22cb8,PennController,56,0,test_val,NULL,PennController,67,_Header_,End,1739885398521,undefined,691,anxiety,abstract-negative,negative,positive,B,NULL
1739885764,875ec1e925121d967046ea15d0a22cb8,PennController,56,0,test_val,NULL,Selector,unnamed-Selector,Selection,negative,1739885399717,undefined,691,anxiety,abstract-negative,negative,positive,B,negative;positive
1739885764,875ec1e925121d967046ea15d0a22cb8,PennController,56,0,test_val,NULL,PennController,67,_Trial_,End,1739885399718,undefined,691,anxiety,abstract-negative,negative,positive,B,NULL
1739885764,875ec1e925121d967046ea15d0a22cb8,PennController,77,0,test_val,NULL,PennController,88,_Trial_,Start,1739885399719,undefined,508,flowers,concrete-postiive,negative,positive,B,NULL
1739885764,875ec1e925121d967046ea15d0a22cb8,PennController,77,0,test_val,NULL,PennController,88,_Header_,Start,1739885399719,undefined,508,flowers,concrete-postiive,negative,positive,B,NULL
1739885764,875ec1e925121d967046ea15d0a22cb8,PennController,77,0,test_val,NULL,PennController,88,_Header_,End,1739885399972,undefined,508,flowers,concrete-postiive,negative,positive,B,NULL
1739885764,875ec1e925121d967046ea15d0a22cb8,PennController,77,0,test_val,NULL,Selector,unnamed-Selector,Selection,positive,1739885400987,undefined,508,flowers,concrete-postiive,negative,positive,B,negative;positive
1739885764,875ec1e925121d967046ea15d0a22cb8,PennController,77,0,test_val,NULL,PennController,88,_Trial_,End,1739885400988,undefined,508,flowers,concrete-postiive,negative,positive,B,NULL
1739885764,875ec1e925121d967046ea15d0a22cb8,PennController,66,0,test_val,NULL,PennController,77,_Trial_,Start,1739885400989,undefined,547,gratitude,abstract-positive,negative,positive,B,NULL
1739885764,875ec1e925121d967046ea15d0a22cb8,PennController,66,0,test_val,NULL,PennController,77,_Header_,Start,1739885400989,undefined,547,gratitude,abstract-positive,negative,positive,B,NULL
1739885764,875ec1e925121d967046ea15d0a22cb8,PennController,66,0,test_val,NULL,PennController,77,_Header_,End,1739885401241,undefined,547,gratitude,abstract-positive,negative,positive,B,NULL
1739885764,875ec1e925121d967046ea15d0a22cb8,PennController,66,0,test_val,NULL,Selector,unnamed-Selector,Selection,positive,1739885402293,undefined,547,gratitude,abstract-positive,negative,positive,B,negative;positive
1739885764,875ec1e925121d967046ea15d0a22cb8,PennController,66,0,test_val,NULL,PennController,77,_Trial_,End,1739885402293,undefined,547,gratitude,abstract-positive,negative,positive,B,NULL
1739885764,875ec1e925121d967046ea15d0a22cb8,PennController,50,0,test_val,NULL,PennController,61,_Trial_,Start,1739885402294,undefined,595,fester,concrete-negative,negative,positive,B,NULL
1739885764,875ec1e925121d967046ea15d0a22cb8,PennController,50,0,test_val,NULL,PennController,61,_Header_,Start,1739885402294,undefined,595,fester,concrete-negative,negative,positive,B,NULL
1739885764,875ec1e925121d967046ea15d0a22cb8,PennController,50,0,test_val,NULL,PennController,61,_Header_,End,1739885402547,undefined,595,fester,concrete-negative,negative,positive,B,NULL
1739885764,875ec1e925121d967046ea15d0a22cb8,PennController,50,0,test_val,NULL,Selector,unnamed-Selector,Selection,negative,1739885403645,undefined,595,fester,concrete-negative,negative,positive,B,negative;positive
1739885764,875ec1e925121d967046ea15d0a22cb8,PennController,50,0,test_val,NULL,PennController,61,_Trial_,End,1739885403646,undefined,595,fester,concrete-negative,negative,positive,B,NULL
1739885764,875ec1e925121d967046ea15d0a22cb8,PennController,45,0,test_val,NULL,PennController,56,_Trial_,Start,1739885403647,undefined,705,garbage,concrete-negative,negative,positive,B,NULL
1739885764,875ec1e925121d967046ea15d0a22cb8,PennController,45,0,test_val,NULL,PennController,56,_Header_,Start,1739885403647,undefined,705,garbage,concrete-negative,negative,positive,B,NULL
1739885764,875ec1e925121d967046ea15d0a22cb8,PennController,45,0,test_val,NULL,PennController,56,_Header_,End,1739885403901,undefined,705,garbage,concrete-negative,negative,positive,B,NULL
1739885764,875ec1e925121d967046ea15d0a22cb8,PennController,45,0,test_val,NULL,Selector,unnamed-Selector,Selection,negative,1739885405110,undefined,705,garbage,concrete-negative,negative,positive,B,negative;positive
1739885764,875ec1e925121d967046ea15d0a22cb8,PennController,45,0,test_val,NULL,PennController,56,_Trial_,End,1739885405111,undefined,705,garbage,concrete-negative,negative,positive,B,NULL
1739885764,875ec1e925121d967046ea15d0a22cb8,PennController,69,0,test_val,NULL,PennController,80,_Trial_,Start,1739885405112,undefined,655,admire,abstract-positive,negative,positive,B,NULL
1739885764,875ec1e925121d967046ea15d0a22cb8,PennController,69,0,test_val,NULL,PennController,80,_Header_,Start,1739885405112,undefined,655,admire,abstract-positive,negative,positive,B,NULL
1739885764,875ec1e925121d967046ea15d0a22cb8,PennController,69,0,test_val,NULL,PennController,80,_Header_,End,1739885405365,undefined,655,admire,abstract-positive,negative,positive,B,NULL
1739885764,875ec1e925121d967046ea15d0a22cb8,PennController,69,0,test_val,NULL,Selector,unnamed-Selector,Selection,positive,1739885406526,undefined,655,admire,abstract-positive,negative,positive,B,negative;positive
1739885764,875ec1e925121d967046ea15d0a22cb8,PennController,69,0,test_val,NULL,PennController,80,_Trial_,End,1739885406527,undefined,655,admire,abstract-positive,negative,positive,B,NULL
1739885764,875ec1e925121d967046ea15d0a22cb8,PennController,54,0,test_val,NULL,PennController,65,_Trial_,Start,1739885406527,undefined,608,terror,abstract-negative,negative,positive,B,NULL
1739885764,875ec1e925121d967046ea15d0a22cb8,PennController,54,0,test_val,NULL,PennController,65,_Header_,Start,1739885406527,undefined,608,terror,abstract-negative,negative,positive,B,NULL
1739885764,875ec1e925121d967046ea15d0a22cb8,PennController,54,0,test_val,NULL,PennController,65,_Header_,End,1739885406778,undefined,608,terror,abstract-negative,negative,positive,B,NULL
1739885764,875ec1e925121d967046ea15d0a22cb8,PennController,54,0,test_val,NULL,Selector,unnamed-Selector,Selection,negative,1739885407890,undefined,608,terror,abstract-negative,negative,positive,B,negative;positive
1739885764,875ec1e925121d967046ea15d0a22cb8,PennController,54,0,test_val,NULL,PennController,65,_Trial_,End,1739885407890,undefined,608,terror,abstract-negative,negative,positive,B,NULL
1739885764,875ec1e925121d967046ea15d0a22cb8,PennController,62,0,test_val,NULL,PennController,73,_Trial_,Start,1739885407891,undefined,902,resent,abstract-negative,negative,positive,B,NULL
1739885764,875ec1e925121d967046ea15d0a22cb8,PennController,62,0,test_val,NULL,PennController,73,_Header_,Start,1739885407891,undefined,902,resent,abstract-negative,negative,positive,B,NULL
