"","ID.true","Word","Label","Task","BlockOrder","EventTime","Value","ReactionTime","Key_value_F","Key_value_J","Comments","Group","LogReactionTime","TrialNumber"
"1","55a2fa33fdf99b073cd94947","traffic","calibrator_syn_feedback","Syntactic","SV",1739899872422,"noun",4158,"verb","noun","verb;noun","B",8.33278946841796,1
"2","55a2fa33fdf99b073cd94947","exist","calibrator_syn_feedback","Syntactic","SV",1739899877121,"verb",1940,"verb","noun","verb;noun","B",7.57044325205737,2
"3","55a2fa33fdf99b073cd94947","wisdom","calibrator_syn_feedback","Syntactic","SV",1739899881110,"noun",1232,"verb","noun","verb;noun","B",7.11639414409346,3
"4","55a2fa33fdf99b073cd94947","concur","calibrator_syn_feedback","Syntactic","SV",1739899885021,"verb",1151,"verb","noun","verb;noun","B",7.04838640872188,4
"5","55a2fa33fdf99b073cd94947","depart","calibrator_syn_feedback","Syntactic","SV",1739899889033,"verb",1256,"verb","noun","verb;noun","B",7.13568734702814,5
"6","55a2fa33fdf99b073cd94947","reside","calibrator_syn_feedback","Syntactic","SV",1739899892597,"verb",805,"verb","noun","verb;noun","B",6.69084227741856,6
"7","55a2fa33fdf99b073cd94947","endure","calibrator_syn_feedback","Syntactic","SV",1739899896097,"verb",742,"verb","noun","verb;noun","B",6.60934924316738,7
"8","55a2fa33fdf99b073cd94947","furniture","calibrator_syn_feedback","Syntactic","SV",1739899899846,"noun",990,"verb","noun","verb;noun","B",6.89770494312864,8
"9","55a2fa33fdf99b073cd94947","luggage","calibrator_syn_feedback","Syntactic","SV",1739899903345,"noun",742,"verb","noun","verb;noun","B",6.60934924316738,9
"10","55a2fa33fdf99b073cd94947","childhood","calibrator_syn_feedback","Syntactic","SV",1739899906809,"noun",709,"verb","noun","verb;noun","B",6.56385552653213,10
"11","55a2fa33fdf99b073cd94947","traffic","calibrator_syn_no_feedback","Syntactic","SV",1739899910310,"verb",743,"B","verb;noun","","",6.61069604471776,11
"12","55a2fa33fdf99b073cd94947","depart","calibrator_syn_no_feedback","Syntactic","SV",1739899912047,"verb",978,"B","verb;noun","","",6.88550967003482,12
"13","55a2fa33fdf99b073cd94947","concur","calibrator_syn_no_feedback","Syntactic","SV",1739899913634,"verb",833,"B","verb;noun","","",6.72503364216684,13
"14","55a2fa33fdf99b073cd94947","wisdom","calibrator_syn_no_feedback","Syntactic","SV",1739899915097,"noun",706,"B","verb;noun","","",6.55961523749324,14
"15","55a2fa33fdf99b073cd94947","luggage","calibrator_syn_no_feedback","Syntactic","SV",1739899916697,"noun",846,"B","verb;noun","","",6.74051935960622,15
"16","55a2fa33fdf99b073cd94947","reside","calibrator_syn_no_feedback","Syntactic","SV",1739899918135,"verb",682,"B","verb;noun","","",6.52502965784346,16
"17","55a2fa33fdf99b073cd94947","endure","calibrator_syn_no_feedback","Syntactic","SV",1739899919647,"verb",755,"B","verb;noun","","",6.62671774924902,17
"18","55a2fa33fdf99b073cd94947","exist","calibrator_syn_no_feedback","Syntactic","SV",1739899920860,"verb",457,"B","verb;noun","","",6.12468339089421,18
"19","55a2fa33fdf99b073cd94947","childhood","calibrator_syn_no_feedback","Syntactic","SV",1739899922134,"noun",519,"B","verb;noun","","",6.25190388316589,19
"20","55a2fa33fdf99b073cd94947","furniture","calibrator_syn_no_feedback","Syntactic","SV",1739899923571,"noun",683,"B","verb;noun","","",6.52649485957079,20
"21","55a2fa33fdf99b073cd94947","hat","calibrator_val_feedback","Valence","SV",1739900184549,"positive",2391,"negative","positive","negative;positive","B",7.77946696745832,21
"22","55a2fa33fdf99b073cd94947","joke","calibrator_val_feedback","Valence","SV",1739900188984,"positive",1667,"negative","positive","negative;positive","B",7.41878088275079,22
"23","55a2fa33fdf99b073cd94947","jail","calibrator_val_feedback","Valence","SV",1739900192622,"negative",875,"negative","positive","negative;positive","B",6.77422388635761,23
"24","55a2fa33fdf99b073cd94947","icebox","calibrator_val_feedback","Valence","SV",1739900196771,"positive",1392,"negative","positive","negative;positive","B",7.23849684089437,24
"25","55a2fa33fdf99b073cd94947","grin","calibrator_val_feedback","Valence","SV",1739900200584,"positive",1050,"negative","positive","negative;positive","B",6.95654544315157,25
"26","55a2fa33fdf99b073cd94947","industry","calibrator_val_feedback","Valence","SV",1739900207273,"positive",2100,"negative","positive","negative;positive","B",7.64969262371151,26
"27","55a2fa33fdf99b073cd94947","kitten","calibrator_val_feedback","Valence","SV",1739900209275,"positive",1067,"negative","positive","negative;positive","B",6.97260625130175,27
"28","55a2fa33fdf99b073cd94947","insecure","calibrator_val_feedback","Valence","SV",1739900212858,"negative",823,"negative","positive","negative;positive","B",6.71295620067707,28
"29","55a2fa33fdf99b073cd94947","free","calibrator_val_feedback","Valence","SV",1739900216858,"positive",1236,"negative","positive","negative;positive","B",7.11963563801764,29
"30","55a2fa33fdf99b073cd94947","invader","calibrator_val_feedback","Valence","SV",1739900222023,"negative",2403,"negative","positive","negative;positive","B",7.78447323573647,30
"31","55a2fa33fdf99b073cd94947","free","calibrator_val_no_feedback","Valence","SV",1739900226058,"positive",1277,"B","negative;positive","","",7.15226885603254,31
"32","55a2fa33fdf99b073cd94947","joke","calibrator_val_no_feedback","Valence","SV",1739900227535,"positive",716,"B","negative;positive","","",6.57368016696065,32
"33","55a2fa33fdf99b073cd94947","grin","calibrator_val_no_feedback","Valence","SV",1739900228925,"positive",634,"B","negative;positive","","",6.45204895443723,33
"34","55a2fa33fdf99b073cd94947","industry","calibrator_val_no_feedback","Valence","SV",1739900230661,"negative",977,"B","negative;positive","","",6.88448665204278,34
"35","55a2fa33fdf99b073cd94947","jail","calibrator_val_no_feedback","Valence","SV",1739900232287,"negative",866,"B","negative;positive","","",6.76388490856244,35
"36","55a2fa33fdf99b073cd94947","kitten","calibrator_val_no_feedback","Valence","SV",1739900233647,"positive",602,"B","negative;positive","","",6.40025744530882,36
"37","55a2fa33fdf99b073cd94947","hat","calibrator_val_no_feedback","Valence","SV",1739900235034,"positive",632,"B","negative;positive","","",6.44888939414686,37
"38","55a2fa33fdf99b073cd94947","insecure","calibrator_val_no_feedback","Valence","SV",1739900236487,"negative",695,"B","negative;positive","","",6.54391184556479,38
"39","55a2fa33fdf99b073cd94947","invader","calibrator_val_no_feedback","Valence","SV",1739900237947,"negative",701,"B","negative;positive","","",6.55250788703459,39
"40","55a2fa33fdf99b073cd94947","icebox","calibrator_val_no_feedback","Valence","SV",1739900239572,"negative",866,"B","negative;positive","","",6.76388490856244,40
"41","5df2f36b617219204de98060","concur","calibrator_syn_feedback","Syntactic","SV",1739899899525,"verb",1454,"noun","verb","noun;verb","A",7.28207365809346,1
"42","5df2f36b617219204de98060","wisdom","calibrator_syn_feedback","Syntactic","SV",1739899904190,"noun",1431,"noun","verb","noun;verb","A",7.26612877955645,2
"43","5df2f36b617219204de98060","traffic","calibrator_syn_feedback","Syntactic","SV",1739899907469,"noun",1793,"noun","verb","noun;verb","A",7.49164547360513,3
"44","5df2f36b617219204de98060","depart","calibrator_syn_feedback","Syntactic","SV",1739899911837,"verb",1605,"noun","verb","noun;verb","A",7.38087903556412,4
"45","5df2f36b617219204de98060","reside","calibrator_syn_feedback","Syntactic","SV",1739899916006,"noun",1410,"noun","verb","noun;verb","A",7.25134498337221,5
"46","5df2f36b617219204de98060","exist","calibrator_syn_feedback","Syntactic","SV",1739899920702,"noun",1937,"noun","verb","noun;verb","A",7.568895663407,6
"47","5df2f36b617219204de98060","luggage","calibrator_syn_feedback","Syntactic","SV",1739899924453,"noun",996,"noun","verb","noun;verb","A",6.9037472575846,7
"48","5df2f36b617219204de98060","endure","calibrator_syn_feedback","Syntactic","SV",1739899928150,"verb",938,"noun","verb","noun;verb","A",6.84374994900622,8
"49","5df2f36b617219204de98060","childhood","calibrator_syn_feedback","Syntactic","SV",1739899931774,"noun",865,"noun","verb","noun;verb","A",6.76272950693188,9
"50","5df2f36b617219204de98060","furniture","calibrator_syn_feedback","Syntactic","SV",1739899935407,"noun",874,"noun","verb","noun;verb","A",6.77308037565554,10
"51","5df2f36b617219204de98060","traffic","calibrator_syn_no_feedback","Syntactic","SV",1739899939510,"noun",1340,"A","noun;verb","","",7.20042489294496,11
"52","5df2f36b617219204de98060","luggage","calibrator_syn_no_feedback","Syntactic","SV",1739899941142,"noun",874,"A","noun;verb","","",6.77308037565554,12
"53","5df2f36b617219204de98060","concur","calibrator_syn_no_feedback","Syntactic","SV",1739899942838,"verb",938,"A","noun;verb","","",6.84374994900622,13
"54","5df2f36b617219204de98060","furniture","calibrator_syn_no_feedback","Syntactic","SV",1739899944206,"noun",617,"A","noun;verb","","",6.42486902390539,14
"55","5df2f36b617219204de98060","reside","calibrator_syn_no_feedback","Syntactic","SV",1739899945622,"verb",659,"A","noun;verb","","",6.49072353450251,15
"56","5df2f36b617219204de98060","exist","calibrator_syn_no_feedback","Syntactic","SV",1739899947030,"verb",648,"A","noun;verb","","",6.47389069635227,16
"57","5df2f36b617219204de98060","wisdom","calibrator_syn_no_feedback","Syntactic","SV",1739899948671,"verb",886,"A","noun;verb","","",6.78671695060508,17
"58","5df2f36b617219204de98060","endure","calibrator_syn_no_feedback","Syntactic","SV",1739899950079,"verb",655,"A","noun;verb","","",6.48463523563525,18
"59","5df2f36b617219204de98060","depart","calibrator_syn_no_feedback","Syntactic","SV",1739899951855,"verb",1021,"A","noun;verb","","",6.92853781816467,19
"60","5df2f36b617219204de98060","childhood","calibrator_syn_no_feedback","Syntactic","SV",1739899953519,"noun",907,"A","noun;verb","","",6.81014245011514,20
"61","5df2f36b617219204de98060","industry","calibrator_val_feedback","Valence","SV",1739900276736,"negative",2807,"positive","negative","positive;negative","A",7.93987157636188,21
"62","5df2f36b617219204de98060","icebox","calibrator_val_feedback","Valence","SV",1739900282656,"positive",3158,"positive","negative","positive;negative","A",8.05769419481559,22
"63","5df2f36b617219204de98060","kitten","calibrator_val_feedback","Valence","SV",1739900286567,"positive",1157,"positive","negative","positive;negative","A",7.05358572719368,23
"64","5df2f36b617219204de98060","hat","calibrator_val_feedback","Valence","SV",1739900295600,"positive",6275,"positive","negative","positive;negative","A",8.74432876399998,24
"65","5df2f36b617219204de98060","joke","calibrator_val_feedback","Valence","SV",1739900299385,"positive",1030,"positive","negative","positive;negative","A",6.93731408122368,25
"66","5df2f36b617219204de98060","insecure","calibrator_val_feedback","Valence","SV",1739900302961,"negative",818,"positive","negative","positive;negative","A",6.70686233660275,26
"67","5df2f36b617219204de98060","invader","calibrator_val_feedback","Valence","SV",1739900306704,"negative",984,"positive","negative","positive;negative","A",6.89162589705225,27
"68","5df2f36b617219204de98060","grin","calibrator_val_feedback","Valence","SV",1739900311553,"negative",2093,"positive","negative","positive;negative","A",7.646353722446,28
"69","5df2f36b617219204de98060","jail","calibrator_val_feedback","Valence","SV",1739900315136,"negative",823,"positive","negative","positive;negative","A",6.71295620067707,29
"70","5df2f36b617219204de98060","free","calibrator_val_feedback","Valence","SV",1739900318840,"positive",946,"positive","negative","positive;negative","A",6.85224256905188,30
"71","5df2f36b617219204de98060","joke","calibrator_val_no_feedback","Valence","SV",1739900322817,"positive",1219,"A","positive;negative","","",7.10578612948127,31
"72","5df2f36b617219204de98060","jail","calibrator_val_no_feedback","Valence","SV",1739900324209,"negative",637,"A","positive;negative","","",6.45676965557216,32
"73","5df2f36b617219204de98060","hat","calibrator_val_no_feedback","Valence","SV",1739900329312,"positive",4348,"A","positive;negative","","",8.3774712482411,33
"74","5df2f36b617219204de98060","grin","calibrator_val_no_feedback","Valence","SV",1739900332105,"positive",2037,"A","positive;negative","","",7.61923341622681,34
"75","5df2f36b617219204de98060","insecure","calibrator_val_no_feedback","Valence","SV",1739900333505,"negative",644,"A","positive;negative","","",6.46769872610435,35
"76","5df2f36b617219204de98060","industry","calibrator_val_no_feedback","Valence","SV",1739900335833,"negative",1569,"A","positive;negative","","",7.35819375273303,36
"77","5df2f36b617219204de98060","icebox","calibrator_val_no_feedback","Valence","SV",1739900339945,"positive",3356,"A","positive;negative","","",8.1185050675871,37
"78","5df2f36b617219204de98060","kitten","calibrator_val_no_feedback","Valence","SV",1739900341729,"positive",1032,"A","positive;negative","","",6.93925394604151,38
"79","5df2f36b617219204de98060","invader","calibrator_val_no_feedback","Valence","SV",1739900343402,"negative",916,"A","positive;negative","","",6.82001636467413,39
"80","5df2f36b617219204de98060","free","calibrator_val_no_feedback","Valence","SV",1739900344929,"positive",771,"A","positive;negative","","",6.64768837356333,40
"81","6460181fc3a15babdad7bf3e","reside","calibrator_syn_feedback","Syntactic","SV",1739897609001,"verb",2832,"verb","noun","verb;noun","B",7.94873845481361,1
"82","6460181fc3a15babdad7bf3e","endure","calibrator_syn_feedback","Syntactic","SV",1739897612910,"verb",1784,"verb","noun","verb;noun","B",7.48661331313996,2
"83","6460181fc3a15babdad7bf3e","concur","calibrator_syn_feedback","Syntactic","SV",1739897617506,"verb",1327,"verb","noun","verb;noun","B",7.19067603433221,3
"84","6460181fc3a15babdad7bf3e","wisdom","calibrator_syn_feedback","Syntactic","SV",1739897622965,"noun",2626,"verb","noun","verb;noun","B",7.87321705486274,4
"85","6460181fc3a15babdad7bf3e","childhood","calibrator_syn_feedback","Syntactic","SV",1739897627004,"noun",1223,"verb","noun","verb;noun","B",7.10906213568717,5
"86","6460181fc3a15babdad7bf3e","depart","calibrator_syn_feedback","Syntactic","SV",1739897630717,"verb",1071,"verb","noun","verb;noun","B",6.97634807044775,6
"87","6460181fc3a15babdad7bf3e","furniture","calibrator_syn_feedback","Syntactic","SV",1739897634148,"noun",857,"verb","noun","verb;noun","B",6.75343791859778,7
"88","6460181fc3a15babdad7bf3e","traffic","calibrator_syn_feedback","Syntactic","SV",1739897637630,"noun",1335,"verb","noun","verb;noun","B",7.19668657083435,8
"89","6460181fc3a15babdad7bf3e","exist","calibrator_syn_feedback","Syntactic","SV",1739897642087,"verb",713,"verb","noun","verb;noun","B",6.5694814204143,9
"90","6460181fc3a15babdad7bf3e","luggage","calibrator_syn_feedback","Syntactic","SV",1739897645162,"noun",1130,"verb","noun","verb;noun","B",7.02997291170639,10
"91","6460181fc3a15babdad7bf3e","traffic","calibrator_syn_no_feedback","Syntactic","SV",1739897647829,"noun",1022,"B","verb;noun","","",6.92951677076365,11
"92","6460181fc3a15babdad7bf3e","childhood","calibrator_syn_no_feedback","Syntactic","SV",1739897649363,"noun",777,"B","verb;noun","","",6.65544035036765,12
"93","6460181fc3a15babdad7bf3e","luggage","calibrator_syn_no_feedback","Syntactic","SV",1739897650980,"noun",859,"B","verb;noun","","",6.75576892198425,13
"94","6460181fc3a15babdad7bf3e","endure","calibrator_syn_no_feedback","Syntactic","SV",1739897653016,"verb",1276,"B","verb;noun","","",7.15148546390474,14
"95","6460181fc3a15babdad7bf3e","exist","calibrator_syn_no_feedback","Syntactic","SV",1739897654524,"verb",749,"B","verb;noun","","",6.61873898351722,15
"96","6460181fc3a15babdad7bf3e","reside","calibrator_syn_no_feedback","Syntactic","SV",1739897656083,"verb",798,"B","verb;noun","","",6.68210859744981,16
"97","6460181fc3a15babdad7bf3e","depart","calibrator_syn_no_feedback","Syntactic","SV",1739897657530,"verb",687,"B","verb;noun","","",6.53233429222235,17
"98","6460181fc3a15babdad7bf3e","concur","calibrator_syn_no_feedback","Syntactic","SV",1739897659111,"verb",820,"B","verb;noun","","",6.7093043402583,18
"99","6460181fc3a15babdad7bf3e","wisdom","calibrator_syn_no_feedback","Syntactic","SV",1739897660658,"noun",789,"B","verb;noun","","",6.67076632084587,19
"100","6460181fc3a15babdad7bf3e","furniture","calibrator_syn_no_feedback","Syntactic","SV",1739897662180,"noun",764,"B","verb;noun","","",6.63856778916652,20
"101","6460181fc3a15babdad7bf3e","free","calibrator_val_feedback","Valence","SV",1739897900191,"positive",1500,"negative","positive","negative;positive","B",7.3132203870903,21
"102","6460181fc3a15babdad7bf3e","joke","calibrator_val_feedback","Valence","SV",1739897904307,"positive",1305,"negative","positive","negative;positive","B",7.17395831975679,22
"103","6460181fc3a15babdad7bf3e","invader","calibrator_val_feedback","Valence","SV",1739897908177,"negative",1173,"negative","positive","negative;positive","B",7.06731984865348,23
"104","6460181fc3a15babdad7bf3e","industry","calibrator_val_feedback","Valence","SV",1739897911966,"positive",1041,"negative","positive","negative;positive","B",6.94793706861497,24
"105","6460181fc3a15babdad7bf3e","icebox","calibrator_val_feedback","Valence","SV",1739897915705,"positive",950,"negative","positive","negative;positive","B",6.85646198459459,25
"106","6460181fc3a15babdad7bf3e","jail","calibrator_val_feedback","Valence","SV",1739897919588,"negative",1095,"negative","positive","negative;positive","B",6.9985096422506,26
"107","6460181fc3a15babdad7bf3e","insecure","calibrator_val_feedback","Valence","SV",1739897922120,"negative",1011,"negative","positive","negative;positive","B",6.91869521902047,27
"108","6460181fc3a15babdad7bf3e","grin","calibrator_val_feedback","Valence","SV",1739897927424,"positive",1198,"negative","positive","negative;positive","B",7.08840877867539,28
"109","6460181fc3a15babdad7bf3e","kitten","calibrator_val_feedback","Valence","SV",1739897930917,"positive",832,"negative","positive","negative;positive","B",6.72383244082121,29
"110","6460181fc3a15babdad7bf3e","hat","calibrator_val_feedback","Valence","SV",1739897933288,"positive",785,"negative","positive","negative;positive","B",6.66568371778241,30
"111","6460181fc3a15babdad7bf3e","free","calibrator_val_no_feedback","Valence","SV",1739897936060,"positive",685,"B","negative;positive","","",6.52941883826223,31
"112","6460181fc3a15babdad7bf3e","icebox","calibrator_val_no_feedback","Valence","SV",1739897937532,"positive",715,"B","negative;positive","","",6.57228254269401,32
"113","6460181fc3a15babdad7bf3e","joke","calibrator_val_no_feedback","Valence","SV",1739897938903,"positive",613,"B","negative;positive","","",6.41836493593621,33
"114","6460181fc3a15babdad7bf3e","grin","calibrator_val_no_feedback","Valence","SV",1739897940244,"positive",582,"B","negative;positive","","",6.36647044773144,34
"115","6460181fc3a15babdad7bf3e","insecure","calibrator_val_no_feedback","Valence","SV",1739897941610,"negative",607,"B","negative;positive","","",6.4085287910595,35
"116","6460181fc3a15babdad7bf3e","jail","calibrator_val_no_feedback","Valence","SV",1739897943022,"negative",654,"B","negative;positive","","",6.4831073514572,36
"117","6460181fc3a15babdad7bf3e","invader","calibrator_val_no_feedback","Valence","SV",1739897944410,"negative",628,"B","negative;positive","","",6.4425401664682,37
"118","6460181fc3a15babdad7bf3e","industry","calibrator_val_no_feedback","Valence","SV",1739897945903,"positive",739,"B","negative;positive","","",6.6052979209482,38
"119","6460181fc3a15babdad7bf3e","kitten","calibrator_val_no_feedback","Valence","SV",1739897947261,"positive",603,"B","negative;positive","","",6.40191719672719,39
"120","6460181fc3a15babdad7bf3e","hat","calibrator_val_no_feedback","Valence","SV",1739897948703,"positive",689,"B","negative;positive","","",6.53524127101366,40
"121","5d89106d1719af0001ee23e5","insecure","calibrator_val_feedback","Valence","VS",1739887678373,"negative",1894,"negative","positive","negative;positive","B",7.54644627374602,1
"122","5d89106d1719af0001ee23e5","jail","calibrator_val_feedback","Valence","VS",1739887682901,"negative",1768,"negative","positive","negative;positive","B",7.47760424319759,2
"123","5d89106d1719af0001ee23e5","free","calibrator_val_feedback","Valence","VS",1739887686357,"positive",698,"negative","positive","negative;positive","B",6.54821910276237,3
"124","5d89106d1719af0001ee23e5","industry","calibrator_val_feedback","Valence","VS",1739887689805,"positive",692,"negative","positive","negative;positive","B",6.53958595561767,4
"125","5d89106d1719af0001ee23e5","invader","calibrator_val_feedback","Valence","VS",1739887693373,"negative",810,"negative","positive","negative;positive","B",6.69703424766648,5
"126","5d89106d1719af0001ee23e5","icebox","calibrator_val_feedback","Valence","VS",1739887696950,"positive",818,"negative","positive","negative;positive","B",6.70686233660275,6
"127","5d89106d1719af0001ee23e5","hat","calibrator_val_feedback","Valence","VS",1739887700237,"positive",530,"negative","positive","negative;positive","B",6.27287700654617,7
"128","5d89106d1719af0001ee23e5","joke","calibrator_val_feedback","Valence","VS",1739887703989,"negative",999,"negative","positive","negative;positive","B",6.90675477864855,8
"129","5d89106d1719af0001ee23e5","grin","calibrator_val_feedback","Valence","VS",1739887707669,"positive",924,"negative","positive","negative;positive","B",6.82871207164168,9
"130","5d89106d1719af0001ee23e5","kitten","calibrator_val_feedback","Valence","VS",1739887711085,"positive",657,"negative","positive","negative;positive","B",6.48768401848461,10
"131","5d89106d1719af0001ee23e5","kitten","calibrator_val_no_feedback","Valence","VS",1739887714341,"positive",498,"B","negative;positive","","",6.21060007702465,11
"132","5d89106d1719af0001ee23e5","hat","calibrator_val_no_feedback","Valence","VS",1739887716085,"positive",985,"B","negative;positive","","",6.89264164117209,12
"133","5d89106d1719af0001ee23e5","free","calibrator_val_no_feedback","Valence","VS",1739887717413,"positive",571,"B","negative;positive","","",6.34738920965601,13
"134","5d89106d1719af0001ee23e5","industry","calibrator_val_no_feedback","Valence","VS",1739887718741,"positive",570,"B","negative;positive","","",6.3456363608286,14
"135","5d89106d1719af0001ee23e5","insecure","calibrator_val_no_feedback","Valence","VS",1739887720069,"negative",572,"B","negative;positive","","",6.3491389913798,15
"136","5d89106d1719af0001ee23e5","joke","calibrator_val_no_feedback","Valence","VS",1739887721517,"positive",691,"B","negative;positive","","",6.53813982376767,16
"137","5d89106d1719af0001ee23e5","jail","calibrator_val_no_feedback","Valence","VS",1739887723085,"negative",809,"B","negative;positive","","",6.69579891705849,17
"138","5d89106d1719af0001ee23e5","icebox","calibrator_val_no_feedback","Valence","VS",1739887724405,"positive",563,"B","negative;positive","","",6.33327962813969,18
"139","5d89106d1719af0001ee23e5","invader","calibrator_val_no_feedback","Valence","VS",1739887725821,"negative",660,"B","negative;positive","","",6.49223983502047,19
"140","5d89106d1719af0001ee23e5","grin","calibrator_val_no_feedback","Valence","VS",1739887727173,"positive",597,"B","negative;positive","","",6.3919171133926,20
"141","5d89106d1719af0001ee23e5","furniture","calibrator_syn_feedback","Syntactic","VS",1739887969390,"noun",1316,"verb","noun","verb;noun","B",7.18235211188526,21
"142","5d89106d1719af0001ee23e5","concur","calibrator_syn_feedback","Syntactic","VS",1739887972941,"verb",793,"verb","noun","verb;noun","B",6.67582322163485,22
"143","5d89106d1719af0001ee23e5","depart","calibrator_syn_feedback","Syntactic","VS",1739887976597,"verb",897,"verb","noun","verb;noun","B",6.7990558620588,23
"144","5d89106d1719af0001ee23e5","endure","calibrator_syn_feedback","Syntactic","VS",1739887980493,"verb",1138,"verb","noun","verb;noun","B",7.03702761468628,24
"145","5d89106d1719af0001ee23e5","childhood","calibrator_syn_feedback","Syntactic","VS",1739887985237,"noun",886,"verb","noun","verb;noun","B",6.78671695060508,25
"146","5d89106d1719af0001ee23e5","exist","calibrator_syn_feedback","Syntactic","VS",1739887988110,"verb",1205,"verb","noun","verb;noun","B",7.09423484592476,26
"147","5d89106d1719af0001ee23e5","reside","calibrator_syn_feedback","Syntactic","VS",1739887991774,"verb",907,"verb","noun","verb;noun","B",6.81014245011514,27
"148","5d89106d1719af0001ee23e5","wisdom","calibrator_syn_feedback","Syntactic","VS",1739887995558,"verb",1023,"verb","noun","verb;noun","B",6.93049476595163,28
"149","5d89106d1719af0001ee23e5","luggage","calibrator_syn_feedback","Syntactic","VS",1739887998990,"noun",674,"verb","noun","verb;noun","B",6.51323011091231,29
"150","5d89106d1719af0001ee23e5","traffic","calibrator_syn_feedback","Syntactic","VS",1739888002382,"noun",633,"verb","noun","verb;noun","B",6.45047042214418,30
"151","5d89106d1719af0001ee23e5","exist","calibrator_syn_no_feedback","Syntactic","VS",1739888006206,"verb",1063,"B","verb;noun","","",6.96885037834195,31
"152","5d89106d1719af0001ee23e5","traffic","calibrator_syn_no_feedback","Syntactic","VS",1739888007832,"noun",868,"B","verb;noun","","",6.76619171466035,32
"153","5d89106d1719af0001ee23e5","childhood","calibrator_syn_no_feedback","Syntactic","VS",1739888009181,"noun",594,"B","verb;noun","","",6.38687931936265,33
"154","5d89106d1719af0001ee23e5","concur","calibrator_syn_no_feedback","Syntactic","VS",1739888010661,"verb",721,"B","verb;noun","","",6.58063913728495,34
"155","5d89106d1719af0001ee23e5","endure","calibrator_syn_no_feedback","Syntactic","VS",1739888012062,"verb",645,"B","verb;noun","","",6.46925031679577,35
"156","5d89106d1719af0001ee23e5","luggage","calibrator_syn_no_feedback","Syntactic","VS",1739888013486,"noun",667,"B","verb;noun","","",6.50279004591562,36
"157","5d89106d1719af0001ee23e5","reside","calibrator_syn_no_feedback","Syntactic","VS",1739888015199,"noun",954,"B","verb;noun","","",6.86066367144829,37
"158","5d89106d1719af0001ee23e5","furniture","calibrator_syn_no_feedback","Syntactic","VS",1739888016630,"noun",671,"B","verb;noun","","",6.50876913697168,38
"159","5d89106d1719af0001ee23e5","wisdom","calibrator_syn_no_feedback","Syntactic","VS",1739888018134,"noun",747,"B","verb;noun","","",6.61606518513282,39
"160","5d89106d1719af0001ee23e5","depart","calibrator_syn_no_feedback","Syntactic","VS",1739888019725,"verb",836,"B","verb;noun","","",6.7286286130847,40
"161","629aaa38fdfc8168501b930e","childhood","calibrator_syn_feedback","Syntactic","SV",1743093675420,"noun",1976,"noun","verb","noun;verb","A",7.58882987830781,1
"162","629aaa38fdfc8168501b930e","exist","calibrator_syn_feedback","Syntactic","SV",1743093679130,"verb",1854,"noun","verb","noun;verb","A",7.5251007461258,2
"163","629aaa38fdfc8168501b930e","luggage","calibrator_syn_feedback","Syntactic","SV",1743093683547,"noun",1652,"noun","verb","noun;verb","A",7.40974195408092,3
"164","629aaa38fdfc8168501b930e","wisdom","calibrator_syn_feedback","Syntactic","SV",1743093687907,"noun",1597,"noun","verb","noun;verb","A",7.37588214821501,4
"165","629aaa38fdfc8168501b930e","furniture","calibrator_syn_feedback","Syntactic","SV",1743093691636,"noun",964,"noun","verb","noun;verb","A",6.87109129461055,5
"166","629aaa38fdfc8168501b930e","reside","calibrator_syn_feedback","Syntactic","SV",1743093695469,"verb",1068,"noun","verb","noun;verb","A",6.97354301952014,6
"167","629aaa38fdfc8168501b930e","depart","calibrator_syn_feedback","Syntactic","SV",1743093699052,"verb",814,"noun","verb","noun;verb","A",6.70196036600254,7
"168","629aaa38fdfc8168501b930e","concur","calibrator_syn_feedback","Syntactic","SV",1743093703388,"verb",1572,"noun","verb","noun;verb","A",7.36010397298915,8
"169","629aaa38fdfc8168501b930e","endure","calibrator_syn_feedback","Syntactic","SV",1743093706944,"verb",788,"noun","verb","noun;verb","A",6.66949808985788,9
"170","629aaa38fdfc8168501b930e","traffic","calibrator_syn_feedback","Syntactic","SV",1743093710441,"noun",727,"noun","verb","noun;verb","A",6.58892647753352,10
"171","629aaa38fdfc8168501b930e","endure","calibrator_syn_no_feedback","Syntactic","SV",1743093713825,"verb",620,"A","noun;verb","","",6.42971947803914,11
"172","629aaa38fdfc8168501b930e","traffic","calibrator_syn_no_feedback","Syntactic","SV",1743093716029,"noun",1445,"A","noun;verb","","",7.27586460054653,12
"173","629aaa38fdfc8168501b930e","depart","calibrator_syn_no_feedback","Syntactic","SV",1743093717952,"verb",1164,"A","noun;verb","","",7.05961762829138,13
"174","629aaa38fdfc8168501b930e","furniture","calibrator_syn_no_feedback","Syntactic","SV",1743093719972,"noun",1263,"A","noun;verb","","",7.14124512235049,14
"175","629aaa38fdfc8168501b930e","exist","calibrator_syn_no_feedback","Syntactic","SV",1743093721342,"verb",606,"A","noun;verb","","",6.40687998606931,15
"176","629aaa38fdfc8168501b930e","concur","calibrator_syn_no_feedback","Syntactic","SV",1743093723020,"verb",922,"A","noun;verb","","",6.82654522355659,16
"177","629aaa38fdfc8168501b930e","luggage","calibrator_syn_no_feedback","Syntactic","SV",1743093724509,"noun",732,"A","noun;verb","","",6.59578051396131,17
"178","629aaa38fdfc8168501b930e","reside","calibrator_syn_no_feedback","Syntactic","SV",1743093726304,"verb",1037,"A","noun;verb","","",6.94408720822953,18
"179","629aaa38fdfc8168501b930e","childhood","calibrator_syn_no_feedback","Syntactic","SV",1743093727724,"noun",661,"A","noun;verb","","",6.49375383985169,19
"180","629aaa38fdfc8168501b930e","wisdom","calibrator_syn_no_feedback","Syntactic","SV",1743093729295,"noun",809,"A","noun;verb","","",6.69579891705849,20
"181","629aaa38fdfc8168501b930e","kitten","calibrator_val_feedback","Valence","SV",1743094054478,"positive",1644,"positive","negative","positive;negative","A",7.40488757561612,21
"182","629aaa38fdfc8168501b930e","hat","calibrator_val_feedback","Valence","SV",1743094059260,"positive",2009,"positive","negative","positive;negative","A",7.60539236481493,22
"183","629aaa38fdfc8168501b930e","free","calibrator_val_feedback","Valence","SV",1743094063491,"positive",1462,"positive","negative","positive;negative","A",7.28756064030972,23
"184","629aaa38fdfc8168501b930e","insecure","calibrator_val_feedback","Valence","SV",1743094066924,"negative",657,"positive","negative","positive;negative","A",6.48768401848461,24
"185","629aaa38fdfc8168501b930e","grin","calibrator_val_feedback","Valence","SV",1743094070803,"positive",1114,"positive","negative","positive;negative","A",7.01571242048723,25
"186","629aaa38fdfc8168501b930e","industry","calibrator_val_feedback","Valence","SV",1743094075353,"negative",1786,"positive","negative","positive;negative","A",7.48773376143644,26
"187","629aaa38fdfc8168501b930e","invader","calibrator_val_feedback","Valence","SV",1743094078883,"negative",769,"positive","negative","positive;negative","A",6.64509096950564,27
"188","629aaa38fdfc8168501b930e","joke","calibrator_val_feedback","Valence","SV",1743094082437,"positive",789,"positive","negative","positive;negative","A",6.67076632084587,28
"189","629aaa38fdfc8168501b930e","icebox","calibrator_val_feedback","Valence","SV",1743094087268,"positive",2064,"positive","negative","positive;negative","A",7.63240112660145,29
"190","629aaa38fdfc8168501b930e","jail","calibrator_val_feedback","Valence","SV",1743094090924,"negative",893,"positive","negative","positive;negative","A",6.7945865808765,30
"191","629aaa38fdfc8168501b930e","insecure","calibrator_val_no_feedback","Valence","SV",1743094094569,"negative",886,"A","positive;negative","","",6.78671695060508,31
"192","629aaa38fdfc8168501b930e","invader","calibrator_val_no_feedback","Valence","SV",1743094096070,"negative",744,"A","positive;negative","","",6.61204103483309,32
"193","629aaa38fdfc8168501b930e","free","calibrator_val_no_feedback","Valence","SV",1743094097590,"positive",752,"A","positive;negative","","",6.62273632394984,33
"194","629aaa38fdfc8168501b930e","jail","calibrator_val_no_feedback","Valence","SV",1743094099030,"negative",675,"A","positive;negative","","",6.51471269087253,34
"195","629aaa38fdfc8168501b930e","joke","calibrator_val_no_feedback","Valence","SV",1743094100444,"positive",653,"A","positive;negative","","",6.48157712927643,35
"196","629aaa38fdfc8168501b930e","hat","calibrator_val_no_feedback","Valence","SV",1743094102076,"positive",872,"A","positive;negative","","",6.77078942390898,36
"197","629aaa38fdfc8168501b930e","kitten","calibrator_val_no_feedback","Valence","SV",1743094103552,"positive",715,"A","positive;negative","","",6.57228254269401,37
"198","629aaa38fdfc8168501b930e","grin","calibrator_val_no_feedback","Valence","SV",1743094105042,"positive",730,"A","positive;negative","","",6.59304453414244,38
"199","629aaa38fdfc8168501b930e","icebox","calibrator_val_no_feedback","Valence","SV",1743094106524,"positive",720,"A","positive;negative","","",6.5792512120101,39
"200","629aaa38fdfc8168501b930e","industry","calibrator_val_no_feedback","Valence","SV",1743094108102,"negative",813,"A","positive;negative","","",6.70073110954781,40
"201","5deb3ffdf375c625fa83bac7","wisdom","calibrator_syn_feedback","Syntactic","SV",1743100533460,"noun",3012,"verb","noun","verb;noun","B",8.01035958891978,1
"202","5deb3ffdf375c625fa83bac7","childhood","calibrator_syn_feedback","Syntactic","SV",1743100537481,"noun",1383,"verb","noun","verb;noun","B",7.23201033166476,2
"203","5deb3ffdf375c625fa83bac7","exist","calibrator_syn_feedback","Syntactic","SV",1743100539926,"verb",1075,"verb","noun","verb;noun","B",6.98007594056176,3
"204","5deb3ffdf375c625fa83bac7","concur","calibrator_syn_feedback","Syntactic","SV",1743100543969,"verb",1283,"verb","noun","verb;noun","B",7.15695636461564,4
"205","5deb3ffdf375c625fa83bac7","reside","calibrator_syn_feedback","Syntactic","SV",1743100547671,"verb",940,"verb","noun","verb;noun","B",6.84587987526405,5
"206","5deb3ffdf375c625fa83bac7","luggage","calibrator_syn_feedback","Syntactic","SV",1743100551258,"noun",825,"verb","noun","verb;noun","B",6.71538338633468,6
"207","5deb3ffdf375c625fa83bac7","traffic","calibrator_syn_feedback","Syntactic","SV",1743100555676,"noun",1663,"verb","noun","verb;noun","B",7.41637847919293,7
"208","5deb3ffdf375c625fa83bac7","furniture","calibrator_syn_feedback","Syntactic","SV",1743100559401,"noun",966,"verb","noun","verb;noun","B",6.87316383421252,8
"209","5deb3ffdf375c625fa83bac7","endure","calibrator_syn_feedback","Syntactic","SV",1743100563430,"verb",1268,"verb","noun","verb;noun","B",7.14519613499717,9
"210","5deb3ffdf375c625fa83bac7","depart","calibrator_syn_feedback","Syntactic","SV",1743100569022,"verb",1298,"verb","noun","verb;noun","B",7.16857989726403,10
"211","5deb3ffdf375c625fa83bac7","furniture","calibrator_syn_no_feedback","Syntactic","SV",1743100570996,"noun",747,"B","verb;noun","","",6.61606518513282,11
"212","5deb3ffdf375c625fa83bac7","reside","calibrator_syn_no_feedback","Syntactic","SV",1743100572500,"verb",746,"B","verb;noun","","",6.61472560020376,12
"213","5deb3ffdf375c625fa83bac7","exist","calibrator_syn_no_feedback","Syntactic","SV",1743100573942,"verb",684,"B","verb;noun","","",6.52795791762255,13
"214","5deb3ffdf375c625fa83bac7","luggage","calibrator_syn_no_feedback","Syntactic","SV",1743100575394,"noun",696,"B","verb;noun","","",6.54534966033442,14
"215","5deb3ffdf375c625fa83bac7","traffic","calibrator_syn_no_feedback","Syntactic","SV",1743100576817,"verb",667,"B","verb;noun","","",6.50279004591562,15
"216","5deb3ffdf375c625fa83bac7","wisdom","calibrator_syn_no_feedback","Syntactic","SV",1743100579088,"noun",1512,"B","verb;noun","","",7.32118855673948,16
"217","5deb3ffdf375c625fa83bac7","concur","calibrator_syn_no_feedback","Syntactic","SV",1743100581567,"verb",1724,"B","verb;noun","","",7.45240245122364,17
"218","5deb3ffdf375c625fa83bac7","childhood","calibrator_syn_no_feedback","Syntactic","SV",1743100583028,"noun",705,"B","verb;noun","","",6.55819780281227,18
"219","5deb3ffdf375c625fa83bac7","endure","calibrator_syn_no_feedback","Syntactic","SV",1743100584682,"verb",899,"B","verb;noun","","",6.80128303447162,19
"220","5deb3ffdf375c625fa83bac7","depart","calibrator_syn_no_feedback","Syntactic","SV",1743100586178,"verb",742,"B","verb;noun","","",6.60934924316738,20
"221","5deb3ffdf375c625fa83bac7","jail","calibrator_val_feedback","Valence","SV",1743101996241,"negative",813,"negative","positive","negative;positive","B",6.70073110954781,21
"222","5deb3ffdf375c625fa83bac7","insecure","calibrator_val_feedback","Valence","SV",1743101999489,"negative",628,"negative","positive","negative;positive","B",6.4425401664682,22
"223","5deb3ffdf375c625fa83bac7","invader","calibrator_val_feedback","Valence","SV",1743102003266,"negative",1013,"negative","positive","negative;positive","B",6.92067150424868,23
"224","5deb3ffdf375c625fa83bac7","grin","calibrator_val_feedback","Valence","SV",1743102006952,"positive",1338,"negative","positive","negative;positive","B",7.19893124068817,24
"225","5deb3ffdf375c625fa83bac7","hat","calibrator_val_feedback","Valence","SV",1743102010225,"positive",790,"negative","positive","negative;positive","B",6.67203294546107,25
"226","5deb3ffdf375c625fa83bac7","kitten","calibrator_val_feedback","Valence","SV",1743102013732,"positive",214,"negative","positive","negative;positive","B",5.36597601502185,26
"227","5deb3ffdf375c625fa83bac7","icebox","calibrator_val_feedback","Valence","SV",1743102016620,"positive",68,"negative","positive","negative;positive","B",4.21950770517611,27
"228","5deb3ffdf375c625fa83bac7","joke","calibrator_val_feedback","Valence","SV",1743102019897,"positive",618,"negative","positive","negative;positive","B",6.42648845745769,28
"229","5deb3ffdf375c625fa83bac7","industry","calibrator_val_feedback","Valence","SV",1743102023801,"positive",1279,"negative","positive","negative;positive","B",7.15383380157884,29
"230","5deb3ffdf375c625fa83bac7","free","calibrator_val_feedback","Valence","SV",1743102026940,"positive",1031,"negative","positive","negative;positive","B",6.93828448401696,30
"231","5deb3ffdf375c625fa83bac7","free","calibrator_val_no_feedback","Valence","SV",1743102029377,"positive",572,"B","negative;positive","","",6.3491389913798,31
"232","5deb3ffdf375c625fa83bac7","hat","calibrator_val_no_feedback","Valence","SV",1743102030457,"positive",321,"B","negative;positive","","",5.77144112313002,32
"233","5deb3ffdf375c625fa83bac7","joke","calibrator_val_no_feedback","Valence","SV",1743102031305,"positive",93,"B","negative;positive","","",4.53259949315326,33
"234","5deb3ffdf375c625fa83bac7","invader","calibrator_val_no_feedback","Valence","SV",1743102032077,"positive",14,"B","negative;positive","","",2.63905732961526,34
"235","5deb3ffdf375c625fa83bac7","jail","calibrator_val_no_feedback","Valence","SV",1743102033159,"negative",327,"B","negative;positive","","",5.78996017089725,35
"236","5deb3ffdf375c625fa83bac7","grin","calibrator_val_no_feedback","Valence","SV",1743102034276,"positive",364,"B","negative;positive","","",5.89715386763674,36
"237","5deb3ffdf375c625fa83bac7","industry","calibrator_val_no_feedback","Valence","SV",1743102035317,"positive",289,"B","negative;positive","","",5.66642668811243,37
"238","5deb3ffdf375c625fa83bac7","icebox","calibrator_val_no_feedback","Valence","SV",1743102036281,"negative",208,"B","negative;positive","","",5.33753807970132,38
"239","5deb3ffdf375c625fa83bac7","kitten","calibrator_val_no_feedback","Valence","SV",1743102037208,"negative",169,"B","negative;positive","","",5.12989871492307,39
"240","5deb3ffdf375c625fa83bac7","insecure","calibrator_val_no_feedback","Valence","SV",1743102037980,"negative",16,"B","negative;positive","","",2.77258872223978,40
"241","65c1501098be0f409188762f","hat","calibrator_val_feedback","Valence","VS",1743087173449,"positive",551,"positive","negative","positive;negative","A",6.31173480915291,1
"242","65c1501098be0f409188762f","industry","calibrator_val_feedback","Valence","VS",1743087176001,"positive",1124,"positive","negative","positive;negative","A",7.02464903045364,2
"243","65c1501098be0f409188762f","invader","calibrator_val_feedback","Valence","VS",1743087179793,"negative",1030,"positive","negative","positive;negative","A",6.93731408122368,3
"244","65c1501098be0f409188762f","insecure","calibrator_val_feedback","Valence","VS",1743087183664,"negative",1109,"positive","negative","positive;negative","A",7.01121398735037,4
"245","65c1501098be0f409188762f","kitten","calibrator_val_feedback","Valence","VS",1743087187264,"positive",840,"positive","negative","positive;negative","A",6.73340189183736,5
"246","65c1501098be0f409188762f","free","calibrator_val_feedback","Valence","VS",1743087190600,"positive",572,"positive","negative","positive;negative","A",6.3491389913798,6
"247","65c1501098be0f409188762f","grin","calibrator_val_feedback","Valence","VS",1743087194640,"positive",1281,"positive","negative","positive;negative","A",7.15539630189673,7
"248","65c1501098be0f409188762f","joke","calibrator_val_feedback","Valence","VS",1743087198399,"positive",999,"positive","negative","positive;negative","A",6.90675477864855,8
"249","65c1501098be0f409188762f","jail","calibrator_val_feedback","Valence","VS",1743087202207,"negative",1051,"positive","negative","positive;negative","A",6.95749737087695,9
"250","65c1501098be0f409188762f","icebox","calibrator_val_feedback","Valence","VS",1743087208431,"positive",3456,"positive","negative","positive;negative","A",8.14786712992395,10
"251","65c1501098be0f409188762f","industry","calibrator_val_no_feedback","Valence","VS",1743087212367,"positive",1168,"A","positive;negative","","",7.06304816338817,11
"252","65c1501098be0f409188762f","hat","calibrator_val_no_feedback","Valence","VS",1743087214047,"positive",922,"A","positive;negative","","",6.82654522355659,12
"253","65c1501098be0f409188762f","grin","calibrator_val_no_feedback","Valence","VS",1743087215719,"positive",912,"A","positive;negative","","",6.81563999007433,13
"254","65c1501098be0f409188762f","insecure","calibrator_val_no_feedback","Valence","VS",1743087217295,"negative",822,"A","positive;negative","","",6.71174039505618,14
"255","65c1501098be0f409188762f","free","calibrator_val_no_feedback","Valence","VS",1743087218838,"positive",785,"A","positive;negative","","",6.66568371778241,15
"256","65c1501098be0f409188762f","jail","calibrator_val_no_feedback","Valence","VS",1743087220190,"negative",595,"A","positive;negative","","",6.38856140554563,16
"257","65c1501098be0f409188762f","joke","calibrator_val_no_feedback","Valence","VS",1743087221582,"positive",636,"A","positive;negative","","",6.45519856334012,17
"258","65c1501098be0f409188762f","icebox","calibrator_val_no_feedback","Valence","VS",1743087223182,"positive",843,"A","positive;negative","","",6.73696695800186,18
"259","65c1501098be0f409188762f","invader","calibrator_val_no_feedback","Valence","VS",1743087224598,"negative",658,"A","positive;negative","","",6.48920493132532,19
"260","65c1501098be0f409188762f","kitten","calibrator_val_no_feedback","Valence","VS",1743087225934,"positive",579,"A","positive;negative","","",6.361302477573,20
"261","65c1501098be0f409188762f","wisdom","calibrator_syn_feedback","Syntactic","VS",1743087539931,"verb",2232,"noun","verb","noun;verb","A",7.7106533235012,21
"262","65c1501098be0f409188762f","depart","calibrator_syn_feedback","Syntactic","VS",1743087544043,"verb",1352,"noun","verb","noun;verb","A",7.20934025660291,22
"263","65c1501098be0f409188762f","concur","calibrator_syn_feedback","Syntactic","VS",1743087547939,"verb",1136,"noun","verb","noun;verb","A",7.0352685992811,23
"264","65c1501098be0f409188762f","luggage","calibrator_syn_feedback","Syntactic","VS",1743087552523,"noun",1825,"noun","verb","noun;verb","A",7.50933526601659,24
"265","65c1501098be0f409188762f","traffic","calibrator_syn_feedback","Syntactic","VS",1743087556524,"noun",1240,"noun","verb","noun;verb","A",7.12286665859908,25
"266","65c1501098be0f409188762f","childhood","calibrator_syn_feedback","Syntactic","VS",1743087561595,"verb",2308,"noun","verb","noun;verb","A",7.74413662762799,26
"267","65c1501098be0f409188762f","endure","calibrator_syn_feedback","Syntactic","VS",1743087565348,"verb",988,"noun","verb","noun;verb","A",6.89568269774787,27
"268","65c1501098be0f409188762f","exist","calibrator_syn_feedback","Syntactic","VS",1743087568828,"verb",719,"noun","verb","noun;verb","A",6.57786135772105,28
"269","65c1501098be0f409188762f","furniture","calibrator_syn_feedback","Syntactic","VS",1743087572500,"noun",913,"noun","verb","noun;verb","A",6.81673588059497,29
"270","65c1501098be0f409188762f","reside","calibrator_syn_feedback","Syntactic","VS",1743087576396,"verb",1137,"noun","verb","noun;verb","A",7.03614849375054,30
"271","65c1501098be0f409188762f","wisdom","calibrator_syn_no_feedback","Syntactic","VS",1743087580076,"verb",921,"A","noun;verb","","",6.82546003625531,31
"272","65c1501098be0f409188762f","depart","calibrator_syn_no_feedback","Syntactic","VS",1743087581716,"verb",883,"A","noun;verb","","",6.78332520060396,32
"273","65c1501098be0f409188762f","traffic","calibrator_syn_no_feedback","Syntactic","VS",1743087583324,"noun",849,"A","noun;verb","","",6.74405918631135,33
"274","65c1501098be0f409188762f","luggage","calibrator_syn_no_feedback","Syntactic","VS",1743087584788,"noun",706,"A","noun;verb","","",6.55961523749324,34
"275","65c1501098be0f409188762f","endure","calibrator_syn_no_feedback","Syntactic","VS",1743087586100,"verb",557,"A","noun;verb","","",6.32256523992728,35
"276","65c1501098be0f409188762f","concur","calibrator_syn_no_feedback","Syntactic","VS",1743087587452,"verb",594,"A","noun;verb","","",6.38687931936265,36
"277","65c1501098be0f409188762f","childhood","calibrator_syn_no_feedback","Syntactic","VS",1743087588764,"verb",557,"A","noun;verb","","",6.32256523992728,37
"278","65c1501098be0f409188762f","furniture","calibrator_syn_no_feedback","Syntactic","VS",1743087590052,"noun",532,"A","noun;verb","","",6.27664348934164,38
"279","65c1501098be0f409188762f","reside","calibrator_syn_no_feedback","Syntactic","VS",1743087591516,"verb",707,"A","noun;verb","","",6.56103066589657,39
"280","65c1501098be0f409188762f","exist","calibrator_syn_no_feedback","Syntactic","VS",1743087592948,"verb",672,"A","noun;verb","","",6.51025834052315,40
"281","64045393fa09ada78f0b5301","endure","calibrator_syn_feedback","Syntactic","SV",1739905135632,"noun",440,"verb","noun","verb;noun","B",6.08677472691231,1
"282","64045393fa09ada78f0b5301","traffic","calibrator_syn_feedback","Syntactic","SV",1739905138556,"noun",2037,"verb","noun","verb;noun","B",7.61923341622681,2
"283","64045393fa09ada78f0b5301","concur","calibrator_syn_feedback","Syntactic","SV",1739905142355,"noun",1011,"verb","noun","verb;noun","B",6.91869521902047,3
"284","64045393fa09ada78f0b5301","depart","calibrator_syn_feedback","Syntactic","SV",1739905147121,"verb",59,"verb","noun","verb;noun","B",4.07753744390572,4
"285","64045393fa09ada78f0b5301","luggage","calibrator_syn_feedback","Syntactic","SV",1739905150042,"noun",87,"verb","noun","verb;noun","B",4.46590811865458,5
"286","64045393fa09ada78f0b5301","reside","calibrator_syn_feedback","Syntactic","SV",1739905152808,"verb",56,"verb","noun","verb;noun","B",4.02535169073515,6
"287","64045393fa09ada78f0b5301","childhood","calibrator_syn_feedback","Syntactic","SV",1739905155694,"noun",60,"verb","noun","verb;noun","B",4.0943445622221,7
"288","64045393fa09ada78f0b5301","wisdom","calibrator_syn_feedback","Syntactic","SV",1739905158537,"verb",153,"verb","noun","verb;noun","B",5.03043792139244,8
"289","64045393fa09ada78f0b5301","exist","calibrator_syn_feedback","Syntactic","SV",1739905161500,"verb",81,"verb","noun","verb;noun","B",4.39444915467244,9
"290","64045393fa09ada78f0b5301","furniture","calibrator_syn_feedback","Syntactic","SV",1739905164319,"verb",96,"verb","noun","verb;noun","B",4.56434819146784,10
"291","64045393fa09ada78f0b5301","furniture","calibrator_syn_no_feedback","Syntactic","SV",1739905165293,"noun",114,"B","verb;noun","","",4.7361984483945,11
"292","64045393fa09ada78f0b5301","depart","calibrator_syn_no_feedback","Syntactic","SV",1739905166535,"noun",476,"B","verb;noun","","",6.16541785423142,12
"293","64045393fa09ada78f0b5301","endure","calibrator_syn_no_feedback","Syntactic","SV",1739905167430,"noun",122,"B","verb;noun","","",4.80402104473326,13
"294","64045393fa09ada78f0b5301","luggage","calibrator_syn_no_feedback","Syntactic","SV",1739905168239,"noun",43,"B","verb;noun","","",3.76120011569356,14
"295","64045393fa09ada78f0b5301","wisdom","calibrator_syn_no_feedback","Syntactic","SV",1739905169063,"noun",52,"B","verb;noun","","",3.95124371858143,15
"296","64045393fa09ada78f0b5301","childhood","calibrator_syn_no_feedback","Syntactic","SV",1739905169862,"noun",27,"B","verb;noun","","",3.29583686600433,16
"297","64045393fa09ada78f0b5301","concur","calibrator_syn_no_feedback","Syntactic","SV",1739905170686,"noun",54,"B","verb;noun","","",3.98898404656427,17
"298","64045393fa09ada78f0b5301","traffic","calibrator_syn_no_feedback","Syntactic","SV",1739905171558,"verb",100,"B","verb;noun","","",4.60517018598809,18
"299","64045393fa09ada78f0b5301","exist","calibrator_syn_no_feedback","Syntactic","SV",1739905172352,"verb",26,"B","verb;noun","","",3.25809653802148,19
"300","64045393fa09ada78f0b5301","reside","calibrator_syn_no_feedback","Syntactic","SV",1739905173200,"verb",64,"B","verb;noun","","",4.15888308335967,20
"301","64045393fa09ada78f0b5301","insecure","calibrator_val_feedback","Valence","SV",1739905508989,"positive",164,"negative","positive","negative;positive","B",5.0998664278242,21
"302","64045393fa09ada78f0b5301","jail","calibrator_val_feedback","Valence","SV",1739905511689,"negative",1201,"negative","positive","negative;positive","B",7.09090982207998,22
"303","64045393fa09ada78f0b5301","free","calibrator_val_feedback","Valence","SV",1739905515562,"positive",1095,"negative","positive","negative;positive","B",6.9985096422506,23
"304","64045393fa09ada78f0b5301","invader","calibrator_val_feedback","Valence","SV",1739905519561,"negative",1221,"negative","positive","negative;positive","B",7.1074254741107,24
"305","64045393fa09ada78f0b5301","joke","calibrator_val_feedback","Valence","SV",1739905523570,"positive",1233,"negative","positive","negative;positive","B",7.11720550316434,25
"306","64045393fa09ada78f0b5301","industry","calibrator_val_feedback","Valence","SV",1739905527119,"positive",769,"negative","positive","negative;positive","B",6.64509096950564,26
"307","64045393fa09ada78f0b5301","hat","calibrator_val_feedback","Valence","SV",1739905530987,"positive",1088,"negative","positive","negative;positive","B",6.99209642741589,27
"308","64045393fa09ada78f0b5301","icebox","calibrator_val_feedback","Valence","SV",1739905535744,"positive",1654,"negative","positive","negative;positive","B",7.41095187558364,28
"309","64045393fa09ada78f0b5301","kitten","calibrator_val_feedback","Valence","SV",1739905539402,"positive",1204,"negative","positive","negative;positive","B",7.09340462586877,29
"310","64045393fa09ada78f0b5301","grin","calibrator_val_feedback","Valence","SV",1739905545330,"positive",1490,"negative","positive","negative;positive","B",7.30653139893951,30
"311","64045393fa09ada78f0b5301","grin","calibrator_val_no_feedback","Valence","SV",1739905547759,"positive",1308,"B","negative;positive","","",7.17625453201714,31
"312","64045393fa09ada78f0b5301","industry","calibrator_val_no_feedback","Valence","SV",1739905549266,"positive",736,"B","negative;positive","","",6.60123011872888,32
"313","64045393fa09ada78f0b5301","invader","calibrator_val_no_feedback","Valence","SV",1739905550113,"positive",72,"B","negative;positive","","",4.27666611901606,33
"314","64045393fa09ada78f0b5301","jail","calibrator_val_no_feedback","Valence","SV",1739905550916,"positive",29,"B","negative;positive","","",3.36729582998647,34
"315","64045393fa09ada78f0b5301","insecure","calibrator_val_no_feedback","Valence","SV",1739905551885,"positive",195,"B","negative;positive","","",5.27299955856375,35
"316","64045393fa09ada78f0b5301","hat","calibrator_val_no_feedback","Valence","SV",1739905552897,"positive",240,"B","negative;positive","","",5.48063892334199,36
"317","64045393fa09ada78f0b5301","kitten","calibrator_val_no_feedback","Valence","SV",1739905553680,"positive",9,"B","negative;positive","","",2.19722457733622,37
"318","64045393fa09ada78f0b5301","joke","calibrator_val_no_feedback","Valence","SV",1739905554826,"positive",382,"B","negative;positive","","",5.94542060860658,38
"319","64045393fa09ada78f0b5301","free","calibrator_val_no_feedback","Valence","SV",1739905555865,"positive",265,"B","negative;positive","","",5.57972982598622,39
"320","64045393fa09ada78f0b5301","icebox","calibrator_val_no_feedback","Valence","SV",1739905557165,"positive",525,"B","negative;positive","","",6.26339826259162,40
"321","57f2da5c6c19420001438d19","traffic","calibrator_syn_feedback","Syntactic","SV",1739898665880,"noun",1597,"noun","verb","noun;verb","A",7.37588214821501,1
"322","57f2da5c6c19420001438d19","endure","calibrator_syn_feedback","Syntactic","SV",1739898669624,"verb",981,"noun","verb","noun;verb","A",6.88857245956536,2
"323","57f2da5c6c19420001438d19","depart","calibrator_syn_feedback","Syntactic","SV",1739898674875,"noun",2488,"noun","verb","noun;verb","A",7.81923445385907,3
"324","57f2da5c6c19420001438d19","luggage","calibrator_syn_feedback","Syntactic","SV",1739898679096,"noun",1460,"noun","verb","noun;verb","A",7.28619171470238,4
"325","57f2da5c6c19420001438d19","concur","calibrator_syn_feedback","Syntactic","SV",1739898682747,"verb",888,"noun","verb","noun;verb","A",6.78897174299217,5
"326","57f2da5c6c19420001438d19","reside","calibrator_syn_feedback","Syntactic","SV",1739898686966,"verb",1460,"noun","verb","noun;verb","A",7.28619171470238,6
"327","57f2da5c6c19420001438d19","wisdom","calibrator_syn_feedback","Syntactic","SV",1739898690949,"verb",1220,"noun","verb","noun;verb","A",7.1066061377273,7
"328","57f2da5c6c19420001438d19","exist","calibrator_syn_feedback","Syntactic","SV",1739898694405,"verb",693,"noun","verb","noun;verb","A",6.5410299991899,8
"329","57f2da5c6c19420001438d19","furniture","calibrator_syn_feedback","Syntactic","SV",1739898698653,"noun",1483,"noun","verb","noun;verb","A",7.30182234213793,9
"330","57f2da5c6c19420001438d19","childhood","calibrator_syn_feedback","Syntactic","SV",1739898703155,"verb",1740,"noun","verb","noun;verb","A",7.46164039220858,10
"331","57f2da5c6c19420001438d19","furniture","calibrator_syn_no_feedback","Syntactic","SV",1739898706808,"noun",895,"A","noun;verb","","",6.79682371827486,11
"332","57f2da5c6c19420001438d19","concur","calibrator_syn_no_feedback","Syntactic","SV",1739898708412,"verb",846,"A","noun;verb","","",6.74051935960622,12
"333","57f2da5c6c19420001438d19","exist","calibrator_syn_no_feedback","Syntactic","SV",1739898710123,"verb",954,"A","noun;verb","","",6.86066367144829,13
"334","57f2da5c6c19420001438d19","childhood","calibrator_syn_no_feedback","Syntactic","SV",1739898712085,"noun",1206,"A","noun;verb","","",7.09506437728713,14
"335","57f2da5c6c19420001438d19","depart","calibrator_syn_no_feedback","Syntactic","SV",1739898714089,"noun",1247,"A","noun;verb","","",7.12849594568004,15
"336","57f2da5c6c19420001438d19","luggage","calibrator_syn_no_feedback","Syntactic","SV",1739898715813,"noun",965,"A","noun;verb","","",6.87212810133899,16
"337","57f2da5c6c19420001438d19","endure","calibrator_syn_no_feedback","Syntactic","SV",1739898717319,"verb",752,"A","noun;verb","","",6.62273632394984,17
"338","57f2da5c6c19420001438d19","wisdom","calibrator_syn_no_feedback","Syntactic","SV",1739898719139,"verb",1063,"A","noun;verb","","",6.96885037834195,18
"339","57f2da5c6c19420001438d19","reside","calibrator_syn_no_feedback","Syntactic","SV",1739898720743,"verb",848,"A","noun;verb","","",6.7428806357919,19
"340","57f2da5c6c19420001438d19","traffic","calibrator_syn_no_feedback","Syntactic","SV",1739898722200,"verb",701,"A","noun;verb","","",6.55250788703459,20
"341","57f2da5c6c19420001438d19","insecure","calibrator_val_feedback","Valence","SV",1739898935306,"negative",524,"positive","negative","positive;negative","A",6.26149168432104,21
"342","57f2da5c6c19420001438d19","jail","calibrator_val_feedback","Valence","SV",1739898938636,"negative",574,"positive","negative","positive;negative","A",6.35262939631957,22
"343","57f2da5c6c19420001438d19","free","calibrator_val_feedback","Valence","SV",1739898941910,"positive",508,"positive","negative","positive;negative","A",6.23048144757848,23
"344","57f2da5c6c19420001438d19","grin","calibrator_val_feedback","Valence","SV",1739898945391,"positive",719,"positive","negative","positive;negative","A",6.57786135772105,24
"345","57f2da5c6c19420001438d19","industry","calibrator_val_feedback","Valence","SV",1739898949027,"positive",875,"positive","negative","positive;negative","A",6.77422388635761,25
"346","57f2da5c6c19420001438d19","kitten","calibrator_val_feedback","Valence","SV",1739898952276,"positive",490,"positive","negative","positive;negative","A",6.19440539110467,26
"347","57f2da5c6c19420001438d19","icebox","calibrator_val_feedback","Valence","SV",1739898955600,"positive",570,"positive","negative","positive;negative","A",6.3456363608286,27
"348","57f2da5c6c19420001438d19","joke","calibrator_val_feedback","Valence","SV",1739898958931,"positive",567,"positive","negative","positive;negative","A",6.34035930372775,28
"349","57f2da5c6c19420001438d19","hat","calibrator_val_feedback","Valence","SV",1739898963088,"positive",469,"positive","negative","positive;negative","A",6.15060276844628,29
"350","57f2da5c6c19420001438d19","invader","calibrator_val_feedback","Valence","SV",1739898965576,"negative",654,"positive","negative","positive;negative","A",6.4831073514572,30
"351","57f2da5c6c19420001438d19","free","calibrator_val_no_feedback","Valence","SV",1739898968903,"positive",567,"A","positive;negative","","",6.34035930372775,31
"352","57f2da5c6c19420001438d19","jail","calibrator_val_no_feedback","Valence","SV",1739898970188,"negative",531,"A","positive;negative","","",6.27476202124194,32
"353","57f2da5c6c19420001438d19","joke","calibrator_val_no_feedback","Valence","SV",1739898971490,"positive",548,"A","positive;negative","","",6.30627528694802,33
"354","57f2da5c6c19420001438d19","icebox","calibrator_val_no_feedback","Valence","SV",1739898972790,"positive",541,"A","positive;negative","","",6.29341927884648,34
"355","57f2da5c6c19420001438d19","kitten","calibrator_val_no_feedback","Valence","SV",1739898974024,"positive",478,"A","positive;negative","","",6.16961073249146,35
"356","57f2da5c6c19420001438d19","insecure","calibrator_val_no_feedback","Valence","SV",1739898975250,"negative",472,"A","positive;negative","","",6.15697898558556,36
"357","57f2da5c6c19420001438d19","invader","calibrator_val_no_feedback","Valence","SV",1739898976449,"negative",442,"A","positive;negative","","",6.0913098820777,37
"358","57f2da5c6c19420001438d19","hat","calibrator_val_no_feedback","Valence","SV",1739898977720,"positive",516,"A","positive;negative","","",6.24610676548156,38
"359","57f2da5c6c19420001438d19","industry","calibrator_val_no_feedback","Valence","SV",1739898979260,"positive",785,"A","positive;negative","","",6.66568371778241,39
"360","57f2da5c6c19420001438d19","grin","calibrator_val_no_feedback","Valence","SV",1739898980448,"positive",433,"A","positive;negative","","",6.07073772800249,40
"361","62c61d8976f69f105da0e4d2","wisdom","calibrator_syn_feedback","Syntactic","SV",1743097756047,"noun",1819,"verb","noun","verb;noun","B",7.50604217851812,1
"362","62c61d8976f69f105da0e4d2","exist","calibrator_syn_feedback","Syntactic","SV",1743097761979,"verb",3164,"verb","noun","verb;noun","B",8.05959232888755,2
"363","62c61d8976f69f105da0e4d2","concur","calibrator_syn_feedback","Syntactic","SV",1743097767378,"verb",2635,"verb","noun","verb;noun","B",7.87663846097546,3
"364","62c61d8976f69f105da0e4d2","traffic","calibrator_syn_feedback","Syntactic","SV",1743097772519,"noun",2376,"verb","noun","verb;noun","B",7.77317368048254,4
"365","62c61d8976f69f105da0e4d2","childhood","calibrator_syn_feedback","Syntactic","SV",1743097776674,"noun",1395,"verb","noun","verb;noun","B",7.24064969425547,5
"366","62c61d8976f69f105da0e4d2","furniture","calibrator_syn_feedback","Syntactic","SV",1743097780813,"noun",1372,"verb","noun","verb;noun","B",7.22402480828583,6
"367","62c61d8976f69f105da0e4d2","reside","calibrator_syn_feedback","Syntactic","SV",1743097785649,"verb",2075,"verb","noun","verb;noun","B",7.6377164326648,7
"368","62c61d8976f69f105da0e4d2","luggage","calibrator_syn_feedback","Syntactic","SV",1743097789405,"noun",992,"verb","noun","verb;noun","B",6.89972310728487,8
"369","62c61d8976f69f105da0e4d2","depart","calibrator_syn_feedback","Syntactic","SV",1743097793622,"verb",1453,"verb","noun","verb;noun","B",7.28138566357028,9
"370","62c61d8976f69f105da0e4d2","endure","calibrator_syn_feedback","Syntactic","SV",1743097797977,"verb",1587,"verb","noun","verb;noun","B",7.36960072052641,10
"371","62c61d8976f69f105da0e4d2","childhood","calibrator_syn_no_feedback","Syntactic","SV",1743097801613,"noun",865,"B","verb;noun","","",6.76272950693188,11
"372","62c61d8976f69f105da0e4d2","furniture","calibrator_syn_no_feedback","Syntactic","SV",1743097804104,"noun",1736,"B","verb;noun","","",7.4593388952203,12
"373","62c61d8976f69f105da0e4d2","depart","calibrator_syn_no_feedback","Syntactic","SV",1743097805923,"verb",1058,"B","verb;noun","","",6.96413561241824,13
"374","62c61d8976f69f105da0e4d2","endure","calibrator_syn_no_feedback","Syntactic","SV",1743097807758,"verb",1074,"B","verb;noun","","",6.97914527506881,14
"375","62c61d8976f69f105da0e4d2","reside","calibrator_syn_no_feedback","Syntactic","SV",1743097810138,"verb",1620,"B","verb;noun","","",7.39018142822643,15
"376","62c61d8976f69f105da0e4d2","traffic","calibrator_syn_no_feedback","Syntactic","SV",1743097811739,"noun",842,"B","verb;noun","","",6.73578001424233,16
"377","62c61d8976f69f105da0e4d2","luggage","calibrator_syn_no_feedback","Syntactic","SV",1743097813160,"noun",661,"B","verb;noun","","",6.49375383985169,17
"378","62c61d8976f69f105da0e4d2","wisdom","calibrator_syn_no_feedback","Syntactic","SV",1743097815448,"noun",1530,"B","verb;noun","","",7.33302301438648,18
"379","62c61d8976f69f105da0e4d2","concur","calibrator_syn_no_feedback","Syntactic","SV",1743097817723,"verb",1513,"B","verb;noun","","",7.32184971378836,19
"380","62c61d8976f69f105da0e4d2","exist","calibrator_syn_no_feedback","Syntactic","SV",1743097819302,"verb",821,"B","verb;noun","","",6.71052310945243,20
"381","62c61d8976f69f105da0e4d2","kitten","calibrator_val_feedback","Valence","SV",1743098074596,"positive",1010,"negative","positive","negative;positive","B",6.9177056098353,21
"382","62c61d8976f69f105da0e4d2","icebox","calibrator_val_feedback","Valence","SV",1743098078584,"positive",1219,"negative","positive","negative;positive","B",7.10578612948127,22
"383","62c61d8976f69f105da0e4d2","invader","calibrator_val_feedback","Valence","SV",1743098083006,"negative",1658,"negative","positive","negative;positive","B",7.41336733569524,23
"384","62c61d8976f69f105da0e4d2","jail","calibrator_val_feedback","Valence","SV",1743098087149,"negative",1382,"negative","positive","negative;positive","B",7.23128700432762,24
"385","62c61d8976f69f105da0e4d2","hat","calibrator_val_feedback","Valence","SV",1743098090874,"positive",966,"negative","positive","negative;positive","B",6.87316383421252,25
"386","62c61d8976f69f105da0e4d2","free","calibrator_val_feedback","Valence","SV",1743098095294,"positive",1656,"negative","positive","negative;positive","B",7.4121603349452,26
"387","62c61d8976f69f105da0e4d2","industry","calibrator_val_feedback","Valence","SV",1743098100590,"negative",2533,"negative","positive","negative;positive","B",7.83715965000168,27
"388","62c61d8976f69f105da0e4d2","insecure","calibrator_val_feedback","Valence","SV",1743098105161,"negative",1118,"negative","positive","negative;positive","B",7.01929665371504,28
"389","62c61d8976f69f105da0e4d2","joke","calibrator_val_feedback","Valence","SV",1743098108527,"positive",1293,"negative","positive","negative;positive","B",7.16472037877186,29
"390","62c61d8976f69f105da0e4d2","grin","calibrator_val_feedback","Valence","SV",1743098112519,"positive",1235,"negative","positive","negative;positive","B",7.11882624906208,30
"391","62c61d8976f69f105da0e4d2","insecure","calibrator_val_no_feedback","Valence","SV",1743098116604,"negative",1325,"B","negative;positive","","",7.18916773842032,31
"392","62c61d8976f69f105da0e4d2","free","calibrator_val_no_feedback","Valence","SV",1743098118398,"positive",1037,"B","negative;positive","","",6.94408720822953,32
"393","62c61d8976f69f105da0e4d2","joke","calibrator_val_no_feedback","Valence","SV",1743098120524,"positive",1364,"B","negative;positive","","",7.21817683840341,33
"394","62c61d8976f69f105da0e4d2","invader","calibrator_val_no_feedback","Valence","SV",1743098122306,"negative",1026,"B","negative;positive","","",6.93342302573071,34
"395","62c61d8976f69f105da0e4d2","jail","calibrator_val_no_feedback","Valence","SV",1743098123851,"negative",791,"B","negative;positive","","",6.67329796776765,35
"396","62c61d8976f69f105da0e4d2","icebox","calibrator_val_no_feedback","Valence","SV",1743098125546,"positive",935,"B","negative;positive","","",6.84054652928869,36
"397","62c61d8976f69f105da0e4d2","industry","calibrator_val_no_feedback","Valence","SV",1743098127410,"negative",1105,"B","negative;positive","","",7.00760061395185,37
"398","62c61d8976f69f105da0e4d2","kitten","calibrator_val_no_feedback","Valence","SV",1743098129056,"positive",887,"B","negative;positive","","",6.78784498230958,38
"399","62c61d8976f69f105da0e4d2","grin","calibrator_val_no_feedback","Valence","SV",1743098130995,"positive",1182,"B","negative;positive","","",7.07496319796604,39
"400","62c61d8976f69f105da0e4d2","hat","calibrator_val_no_feedback","Valence","SV",1743098132582,"positive",829,"B","negative;positive","","",6.7202201551353,40
"401","598e325033481c000164d2aa","jail","calibrator_val_feedback","Valence","VS",1743089204749,"negative",968,"positive","negative","positive;negative","A",6.87523208727658,1
"402","598e325033481c000164d2aa","kitten","calibrator_val_feedback","Valence","VS",1743089208077,"positive",570,"positive","negative","positive;negative","A",6.3456363608286,2
"403","598e325033481c000164d2aa","free","calibrator_val_feedback","Valence","VS",1743089211884,"positive",1050,"positive","negative","positive;negative","A",6.95654544315157,3
"404","598e325033481c000164d2aa","joke","calibrator_val_feedback","Valence","VS",1743089215253,"negative",606,"positive","negative","positive;negative","A",6.40687998606931,4
"405","598e325033481c000164d2aa","hat","calibrator_val_feedback","Valence","VS",1743089218812,"positive",799,"positive","negative","positive;negative","A",6.68336094576627,5
"406","598e325033481c000164d2aa","insecure","calibrator_val_feedback","Valence","VS",1743089223173,"negative",1603,"positive","negative","positive;negative","A",7.37963215260955,6
"407","598e325033481c000164d2aa","grin","calibrator_val_feedback","Valence","VS",1743089226813,"positive",883,"positive","negative","positive;negative","A",6.78332520060396,7
"408","598e325033481c000164d2aa","industry","calibrator_val_feedback","Valence","VS",1743089230869,"positive",1297,"positive","negative","positive;negative","A",7.16780918431644,8
"409","598e325033481c000164d2aa","icebox","calibrator_val_feedback","Valence","VS",1743089234669,"positive",1043,"positive","negative","positive;negative","A",6.94985645500077,9
"410","598e325033481c000164d2aa","invader","calibrator_val_feedback","Valence","VS",1743089238381,"negative",954,"positive","negative","positive;negative","A",6.86066367144829,10
"411","598e325033481c000164d2aa","industry","calibrator_val_no_feedback","Valence","VS",1743089241805,"positive",668,"A","positive;negative","","",6.50428817353665,11
"412","598e325033481c000164d2aa","grin","calibrator_val_no_feedback","Valence","VS",1743089243332,"positive",771,"A","positive;negative","","",6.64768837356333,12
"413","598e325033481c000164d2aa","jail","calibrator_val_no_feedback","Valence","VS",1743089244733,"negative",647,"A","positive;negative","","",6.4723462945009,13
"414","598e325033481c000164d2aa","invader","calibrator_val_no_feedback","Valence","VS",1743089246172,"negative",687,"A","positive;negative","","",6.53233429222235,14
"415","598e325033481c000164d2aa","kitten","calibrator_val_no_feedback","Valence","VS",1743089247556,"positive",631,"A","positive;negative","","",6.44730586254121,15
"416","598e325033481c000164d2aa","insecure","calibrator_val_no_feedback","Valence","VS",1743089249037,"negative",728,"A","positive;negative","","",6.59030104819669,16
"417","598e325033481c000164d2aa","free","calibrator_val_no_feedback","Valence","VS",1743089250581,"positive",787,"A","positive;negative","","",6.6682282484174,17
"418","598e325033481c000164d2aa","joke","calibrator_val_no_feedback","Valence","VS",1743089252061,"positive",727,"A","positive;negative","","",6.58892647753352,18
"419","598e325033481c000164d2aa","hat","calibrator_val_no_feedback","Valence","VS",1743089253477,"positive",664,"A","positive;negative","","",6.49828214947643,19
"420","598e325033481c000164d2aa","icebox","calibrator_val_no_feedback","Valence","VS",1743089254957,"positive",726,"A","positive;negative","","",6.5875500148248,20
"421","598e325033481c000164d2aa","wisdom","calibrator_syn_feedback","Syntactic","VS",1743089479071,"noun",838,"noun","verb","noun;verb","A",6.73101810048208,21
"422","598e325033481c000164d2aa","exist","calibrator_syn_feedback","Syntactic","VS",1743089482935,"verb",1105,"noun","verb","noun;verb","A",7.00760061395185,22
"423","598e325033481c000164d2aa","luggage","calibrator_syn_feedback","Syntactic","VS",1743089486471,"noun",778,"noun","verb","noun;verb","A",6.65672652417839,23
"424","598e325033481c000164d2aa","traffic","calibrator_syn_feedback","Syntactic","VS",1743089490208,"noun",984,"noun","verb","noun;verb","A",6.89162589705225,24
"425","598e325033481c000164d2aa","concur","calibrator_syn_feedback","Syntactic","VS",1743089493584,"verb",618,"noun","verb","noun;verb","A",6.42648845745769,25
"426","598e325033481c000164d2aa","reside","calibrator_syn_feedback","Syntactic","VS",1743089499056,"verb",1225,"noun","verb","noun;verb","A",7.11069612297883,26
"427","598e325033481c000164d2aa","depart","calibrator_syn_feedback","Syntactic","VS",1743089501224,"verb",899,"noun","verb","noun;verb","A",6.80128303447162,27
"428","598e325033481c000164d2aa","endure","calibrator_syn_feedback","Syntactic","VS",1743089505224,"noun",1239,"noun","verb","noun;verb","A",7.12205988162914,28
"429","598e325033481c000164d2aa","childhood","calibrator_syn_feedback","Syntactic","VS",1743089510080,"noun",2096,"noun","verb","noun;verb","A",7.64778604544093,29
"430","598e325033481c000164d2aa","furniture","calibrator_syn_feedback","Syntactic","VS",1743089513760,"noun",924,"noun","verb","noun;verb","A",6.82871207164168,30
"431","598e325033481c000164d2aa","childhood","calibrator_syn_no_feedback","Syntactic","VS",1743089517264,"noun",746,"A","noun;verb","","",6.61472560020376,31
"432","598e325033481c000164d2aa","furniture","calibrator_syn_no_feedback","Syntactic","VS",1743089518800,"noun",781,"A","noun;verb","","",6.66057514983969,32
"433","598e325033481c000164d2aa","wisdom","calibrator_syn_no_feedback","Syntactic","VS",1743089520376,"noun",821,"A","noun;verb","","",6.71052310945243,33
"434","598e325033481c000164d2aa","traffic","calibrator_syn_no_feedback","Syntactic","VS",1743089521896,"noun",762,"A","noun;verb","","",6.63594655568665,34
"435","598e325033481c000164d2aa","depart","calibrator_syn_no_feedback","Syntactic","VS",1743089523368,"verb",717,"A","noun;verb","","",6.57507584059962,35
"436","598e325033481c000164d2aa","endure","calibrator_syn_no_feedback","Syntactic","VS",1743089524704,"verb",581,"A","noun;verb","","",6.36475075685191,36
"437","598e325033481c000164d2aa","reside","calibrator_syn_no_feedback","Syntactic","VS",1743089526152,"verb",692,"A","noun;verb","","",6.53958595561767,37
"438","598e325033481c000164d2aa","exist","calibrator_syn_no_feedback","Syntactic","VS",1743089527552,"verb",644,"A","noun;verb","","",6.46769872610435,38
"439","598e325033481c000164d2aa","luggage","calibrator_syn_no_feedback","Syntactic","VS",1743089528960,"noun",651,"A","noun;verb","","",6.47850964220857,39
"440","598e325033481c000164d2aa","concur","calibrator_syn_no_feedback","Syntactic","VS",1743089530392,"verb",677,"A","noun;verb","","",6.51767127291227,40
"441","63d432e27555fb4b5785cfcd","jail","calibrator_val_feedback","Valence","VS",1743091063243,"negative",1282,"positive","negative","positive;negative","A",7.15617663748062,1
"442","63d432e27555fb4b5785cfcd","insecure","calibrator_val_feedback","Valence","VS",1743091065413,"negative",1135,"positive","negative","positive;negative","A",7.0343879299155,2
"443","63d432e27555fb4b5785cfcd","grin","calibrator_val_feedback","Valence","VS",1743091068972,"positive",796,"positive","negative","positive;negative","A",6.67959918584438,3
"444","63d432e27555fb4b5785cfcd","icebox","calibrator_val_feedback","Valence","VS",1743091072812,"positive",1076,"positive","negative","positive;negative","A",6.98100574072173,4
"445","63d432e27555fb4b5785cfcd","kitten","calibrator_val_feedback","Valence","VS",1743091076243,"positive",670,"positive","negative","positive;negative","A",6.50727771238501,5
"446","63d432e27555fb4b5785cfcd","hat","calibrator_val_feedback","Valence","VS",1743091079747,"positive",744,"positive","negative","positive;negative","A",6.61204103483309,6
"447","63d432e27555fb4b5785cfcd","industry","calibrator_val_feedback","Valence","VS",1743091083413,"negative",902,"positive","negative","positive;negative","A",6.80461452006262,7
"448","63d432e27555fb4b5785cfcd","joke","calibrator_val_feedback","Valence","VS",1743091087666,"positive",1491,"positive","negative","positive;negative","A",7.30720231476474,8
"449","63d432e27555fb4b5785cfcd","invader","calibrator_val_feedback","Valence","VS",1743091091489,"negative",1061,"positive","negative","positive;negative","A",6.96696713861398,9
"450","63d432e27555fb4b5785cfcd","free","calibrator_val_feedback","Valence","VS",1743091095077,"positive",825,"positive","negative","positive;negative","A",6.71538338633468,10
"451","63d432e27555fb4b5785cfcd","grin","calibrator_val_no_feedback","Valence","VS",1743091098527,"positive",695,"A","positive;negative","","",6.54391184556479,11
"452","63d432e27555fb4b5785cfcd","insecure","calibrator_val_no_feedback","Valence","VS",1743091100363,"negative",1078,"A","positive;negative","","",6.98286275146894,12
"453","63d432e27555fb4b5785cfcd","invader","calibrator_val_no_feedback","Valence","VS",1743091102422,"negative",1298,"A","positive;negative","","",7.16857989726403,13
"454","63d432e27555fb4b5785cfcd","kitten","calibrator_val_no_feedback","Valence","VS",1743091103783,"positive",604,"A","positive;negative","","",6.40357419793482,14
"455","63d432e27555fb4b5785cfcd","free","calibrator_val_no_feedback","Valence","VS",1743091105251,"positive",710,"A","positive;negative","","",6.56526497003536,15
"456","63d432e27555fb4b5785cfcd","icebox","calibrator_val_no_feedback","Valence","VS",1743091106725,"positive",714,"A","positive;negative","","",6.57088296233958,16
"457","63d432e27555fb4b5785cfcd","industry","calibrator_val_no_feedback","Valence","VS",1743091108197,"negative",716,"A","positive;negative","","",6.57368016696065,17
"458","63d432e27555fb4b5785cfcd","jail","calibrator_val_no_feedback","Valence","VS",1743091109577,"negative",624,"A","positive;negative","","",6.43615036836943,18
"459","63d432e27555fb4b5785cfcd","hat","calibrator_val_no_feedback","Valence","VS",1743091111077,"positive",744,"A","positive;negative","","",6.61204103483309,19
"460","63d432e27555fb4b5785cfcd","joke","calibrator_val_no_feedback","Valence","VS",1743091112495,"positive",661,"A","positive;negative","","",6.49375383985169,20
"461","63d432e27555fb4b5785cfcd","traffic","calibrator_syn_feedback","Syntactic","VS",1743092017781,"noun",1909,"noun","verb","noun;verb","A",7.55433482372575,21
"462","63d432e27555fb4b5785cfcd","reside","calibrator_syn_feedback","Syntactic","VS",1743092021594,"verb",1054,"noun","verb","noun;verb","A",6.96034772910131,22
"463","63d432e27555fb4b5785cfcd","childhood","calibrator_syn_feedback","Syntactic","VS",1743092025192,"noun",838,"noun","verb","noun;verb","A",6.73101810048208,23
"464","63d432e27555fb4b5785cfcd","wisdom","calibrator_syn_feedback","Syntactic","VS",1743092029008,"noun",1059,"noun","verb","noun;verb","A",6.96508034560141,24
"465","63d432e27555fb4b5785cfcd","exist","calibrator_syn_feedback","Syntactic","VS",1743092032464,"verb",696,"noun","verb","noun;verb","A",6.54534966033442,25
"466","63d432e27555fb4b5785cfcd","luggage","calibrator_syn_feedback","Syntactic","VS",1743092036097,"noun",873,"noun","verb","noun;verb","A",6.7719355558396,26
"467","63d432e27555fb4b5785cfcd","furniture","calibrator_syn_feedback","Syntactic","VS",1743092039569,"noun",712,"noun","verb","noun;verb","A",6.56807791141198,27
"468","63d432e27555fb4b5785cfcd","depart","calibrator_syn_feedback","Syntactic","VS",1743092043199,"verb",871,"noun","verb","noun;verb","A",6.7696419768525,28
"469","63d432e27555fb4b5785cfcd","concur","calibrator_syn_feedback","Syntactic","VS",1743092046773,"verb",818,"noun","verb","noun;verb","A",6.70686233660275,29
"470","63d432e27555fb4b5785cfcd","endure","calibrator_syn_feedback","Syntactic","VS",1743092050320,"verb",787,"noun","verb","noun;verb","A",6.6682282484174,30
"471","63d432e27555fb4b5785cfcd","depart","calibrator_syn_no_feedback","Syntactic","VS",1743092053748,"verb",672,"A","noun;verb","","",6.51025834052315,31
"472","63d432e27555fb4b5785cfcd","wisdom","calibrator_syn_no_feedback","Syntactic","VS",1743092055429,"noun",926,"A","noun;verb","","",6.83087423464618,32
"473","63d432e27555fb4b5785cfcd","luggage","calibrator_syn_no_feedback","Syntactic","VS",1743092056876,"noun",690,"A","noun;verb","","",6.5366915975913,33
"474","63d432e27555fb4b5785cfcd","exist","calibrator_syn_no_feedback","Syntactic","VS",1743092058323,"verb",688,"A","noun;verb","","",6.53378883793334,34
"475","63d432e27555fb4b5785cfcd","furniture","calibrator_syn_no_feedback","Syntactic","VS",1743092059669,"noun",585,"A","noun;verb","","",6.37161184723186,35
"476","63d432e27555fb4b5785cfcd","reside","calibrator_syn_no_feedback","Syntactic","VS",1743092060951,"verb",526,"A","noun;verb","","",6.26530121273771,36
"477","63d432e27555fb4b5785cfcd","endure","calibrator_syn_no_feedback","Syntactic","VS",1743092062225,"verb",516,"A","noun;verb","","",6.24610676548156,37
"478","63d432e27555fb4b5785cfcd","traffic","calibrator_syn_no_feedback","Syntactic","VS",1743092063895,"noun",912,"A","noun;verb","","",6.81563999007433,38
"479","63d432e27555fb4b5785cfcd","concur","calibrator_syn_no_feedback","Syntactic","VS",1743092065218,"verb",567,"A","noun;verb","","",6.34035930372775,39
"480","63d432e27555fb4b5785cfcd","childhood","calibrator_syn_no_feedback","Syntactic","VS",1743092066559,"noun",586,"A","noun;verb","","",6.37331978957701,40
"481","5b915c9d22d85d000115c0f5","insecure","calibrator_val_feedback","Valence","VS",1739892516440,"negative",1157,"positive","negative","positive;negative","A",7.05358572719368,1
"482","5b915c9d22d85d000115c0f5","invader","calibrator_val_feedback","Valence","VS",1739892518433,"negative",1066,"positive","negative","positive;negative","A",6.97166860472579,2
"483","5b915c9d22d85d000115c0f5","joke","calibrator_val_feedback","Valence","VS",1739892522228,"positive",1025,"positive","negative","positive;negative","A",6.93244789157251,3
"484","5b915c9d22d85d000115c0f5","kitten","calibrator_val_feedback","Valence","VS",1739892525737,"positive",739,"positive","negative","positive;negative","A",6.6052979209482,4
"485","5b915c9d22d85d000115c0f5","hat","calibrator_val_feedback","Valence","VS",1739892529212,"positive",708,"positive","negative","positive;negative","A",6.56244409369372,5
"486","5b915c9d22d85d000115c0f5","jail","calibrator_val_feedback","Valence","VS",1739892532698,"negative",714,"positive","negative","positive;negative","A",6.57088296233958,6
"487","5b915c9d22d85d000115c0f5","icebox","calibrator_val_feedback","Valence","VS",1739892536298,"positive",837,"positive","negative","positive;negative","A",6.72982407048948,7
"488","5b915c9d22d85d000115c0f5","free","calibrator_val_feedback","Valence","VS",1739892539830,"positive",762,"positive","negative","positive;negative","A",6.63594655568665,8
"489","5b915c9d22d85d000115c0f5","grin","calibrator_val_feedback","Valence","VS",1739892543289,"positive",694,"positive","negative","positive;negative","A",6.5424719605068,9
"490","5b915c9d22d85d000115c0f5","industry","calibrator_val_feedback","Valence","VS",1739892546287,"negative",231,"positive","negative","positive;negative","A",5.44241771052179,10
"491","5b915c9d22d85d000115c0f5","jail","calibrator_val_no_feedback","Valence","VS",1739892549772,"negative",715,"A","positive;negative","","",6.57228254269401,11
"492","5b915c9d22d85d000115c0f5","insecure","calibrator_val_no_feedback","Valence","VS",1739892551214,"negative",675,"A","positive;negative","","",6.51471269087253,12
"493","5b915c9d22d85d000115c0f5","kitten","calibrator_val_no_feedback","Valence","VS",1739892552744,"positive",767,"A","positive;negative","","",6.64248680136726,13
"494","5b915c9d22d85d000115c0f5","industry","calibrator_val_no_feedback","Valence","VS",1739892554195,"negative",688,"A","positive;negative","","",6.53378883793334,14
"495","5b915c9d22d85d000115c0f5","joke","calibrator_val_no_feedback","Valence","VS",1739892555533,"positive",572,"A","positive;negative","","",6.3491389913798,15
"496","5b915c9d22d85d000115c0f5","hat","calibrator_val_no_feedback","Valence","VS",1739892556867,"positive",574,"A","positive;negative","","",6.35262939631957,16
"497","5b915c9d22d85d000115c0f5","grin","calibrator_val_no_feedback","Valence","VS",1739892558150,"positive",525,"A","positive;negative","","",6.26339826259162,17
"498","5b915c9d22d85d000115c0f5","icebox","calibrator_val_no_feedback","Valence","VS",1739892559506,"positive",593,"A","positive;negative","","",6.38519439899773,18
"499","5b915c9d22d85d000115c0f5","free","calibrator_val_no_feedback","Valence","VS",1739892560801,"positive",534,"A","positive;negative","","",6.2803958389602,19
"500","5b915c9d22d85d000115c0f5","invader","calibrator_val_no_feedback","Valence","VS",1739892562214,"negative",648,"A","positive;negative","","",6.47389069635227,20
"501","5b915c9d22d85d000115c0f5","endure","calibrator_syn_feedback","Syntactic","VS",1739892751750,"verb",2378,"noun","verb","noun;verb","A",7.77401507725073,21
"502","5b915c9d22d85d000115c0f5","reside","calibrator_syn_feedback","Syntactic","VS",1739892756060,"verb",1542,"noun","verb","noun;verb","A",7.34083555412327,22
"503","5b915c9d22d85d000115c0f5","concur","calibrator_syn_feedback","Syntactic","VS",1739892761579,"verb",1148,"noun","verb","noun;verb","A",7.04577657687951,23
"504","5b915c9d22d85d000115c0f5","exist","calibrator_syn_feedback","Syntactic","VS",1739892764463,"verb",1727,"noun","verb","noun;verb","A",7.45414107814668,24
"505","5b915c9d22d85d000115c0f5","traffic","calibrator_syn_feedback","Syntactic","VS",1739892768092,"noun",859,"noun","verb","noun;verb","A",6.75576892198425,25
"506","5b915c9d22d85d000115c0f5","furniture","calibrator_syn_feedback","Syntactic","VS",1739892771458,"noun",599,"noun","verb","noun;verb","A",6.39526159811545,26
"507","5b915c9d22d85d000115c0f5","luggage","calibrator_syn_feedback","Syntactic","VS",1739892774865,"noun",642,"noun","verb","noun;verb","A",6.46458830368996,27
"508","5b915c9d22d85d000115c0f5","childhood","calibrator_syn_feedback","Syntactic","VS",1739892778309,"noun",682,"noun","verb","noun;verb","A",6.52502965784346,28
"509","5b915c9d22d85d000115c0f5","wisdom","calibrator_syn_feedback","Syntactic","VS",1739892781830,"noun",752,"noun","verb","noun;verb","A",6.62273632394984,29
"510","5b915c9d22d85d000115c0f5","depart","calibrator_syn_feedback","Syntactic","VS",1739892785634,"verb",1038,"noun","verb","noun;verb","A",6.94505106372583,30
"511","5b915c9d22d85d000115c0f5","luggage","calibrator_syn_no_feedback","Syntactic","VS",1739892789023,"noun",620,"A","noun;verb","","",6.42971947803914,31
"512","5b915c9d22d85d000115c0f5","depart","calibrator_syn_no_feedback","Syntactic","VS",1739892790718,"noun",930,"A","noun;verb","","",6.8351845861473,32
"513","5b915c9d22d85d000115c0f5","wisdom","calibrator_syn_no_feedback","Syntactic","VS",1739892792411,"noun",935,"A","noun;verb","","",6.84054652928869,33
"514","5b915c9d22d85d000115c0f5","endure","calibrator_syn_no_feedback","Syntactic","VS",1739892794291,"verb",1114,"A","noun;verb","","",7.01571242048723,34
"515","5b915c9d22d85d000115c0f5","exist","calibrator_syn_no_feedback","Syntactic","VS",1739892795676,"verb",624,"A","noun;verb","","",6.43615036836943,35
"516","5b915c9d22d85d000115c0f5","concur","calibrator_syn_no_feedback","Syntactic","VS",1739892797013,"verb",573,"A","noun;verb","","",6.35088571671474,36
"517","5b915c9d22d85d000115c0f5","furniture","calibrator_syn_no_feedback","Syntactic","VS",1739892798371,"noun",595,"A","noun;verb","","",6.38856140554563,37
"518","5b915c9d22d85d000115c0f5","reside","calibrator_syn_no_feedback","Syntactic","VS",1739892799811,"verb",676,"A","noun;verb","","",6.51619307604296,38
"519","5b915c9d22d85d000115c0f5","traffic","calibrator_syn_no_feedback","Syntactic","VS",1739892801239,"noun",671,"A","noun;verb","","",6.50876913697168,39
"520","5b915c9d22d85d000115c0f5","childhood","calibrator_syn_no_feedback","Syntactic","VS",1739892802675,"noun",671,"A","noun;verb","","",6.50876913697168,40
"521","58a477c660cd820001e9a5d6","icebox","calibrator_val_feedback","Valence","VS",1739885245606,"negative",1197,"negative","positive","negative;positive","B",7.08757370555797,1
"522","58a477c660cd820001e9a5d6","kitten","calibrator_val_feedback","Valence","VS",1739885249594,"positive",1224,"negative","positive","negative;positive","B",7.10987946307227,2
"523","58a477c660cd820001e9a5d6","joke","calibrator_val_feedback","Valence","VS",1739885253416,"positive",1061,"negative","positive","negative;positive","B",6.96696713861398,3
"524","58a477c660cd820001e9a5d6","insecure","calibrator_val_feedback","Valence","VS",1739885257215,"negative",1041,"negative","positive","negative;positive","B",6.94793706861497,4
"525","58a477c660cd820001e9a5d6","jail","calibrator_val_feedback","Valence","VS",1739885261270,"negative",1295,"negative","positive","negative;positive","B",7.16626597413364,5
"526","58a477c660cd820001e9a5d6","hat","calibrator_val_feedback","Valence","VS",1739885265289,"positive",1258,"negative","positive","negative;positive","B",7.13727843726039,6
"527","58a477c660cd820001e9a5d6","industry","calibrator_val_feedback","Valence","VS",1739885269275,"positive",1218,"negative","positive","negative;positive","B",7.10496544826984,7
"528","58a477c660cd820001e9a5d6","invader","calibrator_val_feedback","Valence","VS",1739885272972,"negative",938,"negative","positive","negative;positive","B",6.84374994900622,8
"529","58a477c660cd820001e9a5d6","free","calibrator_val_feedback","Valence","VS",1739885276827,"positive",1091,"negative","positive","negative;positive","B",6.99484998583307,9
"530","58a477c660cd820001e9a5d6","grin","calibrator_val_feedback","Valence","VS",1739885280754,"positive",1167,"negative","positive","negative;positive","B",7.06219163228656,10
"531","58a477c660cd820001e9a5d6","free","calibrator_val_no_feedback","Valence","VS",1739885284285,"positive",768,"B","negative;positive","","",6.64378973314767,11
"532","58a477c660cd820001e9a5d6","insecure","calibrator_val_no_feedback","Valence","VS",1739885285832,"negative",787,"B","negative;positive","","",6.6682282484174,12
"533","58a477c660cd820001e9a5d6","joke","calibrator_val_no_feedback","Valence","VS",1739885287363,"positive",772,"B","negative;positive","","",6.64898455002478,13
"534","58a477c660cd820001e9a5d6","invader","calibrator_val_no_feedback","Valence","VS",1739885289014,"negative",893,"B","negative;positive","","",6.7945865808765,14
"535","58a477c660cd820001e9a5d6","industry","calibrator_val_no_feedback","Valence","VS",1739885290619,"positive",846,"B","negative;positive","","",6.74051935960622,15
"536","58a477c660cd820001e9a5d6","grin","calibrator_val_no_feedback","Valence","VS",1739885292902,"positive",1525,"B","negative;positive","","",7.32974968904151,16
"537","58a477c660cd820001e9a5d6","icebox","calibrator_val_no_feedback","Valence","VS",1739885294524,"positive",868,"B","negative;positive","","",6.76619171466035,17
"538","58a477c660cd820001e9a5d6","jail","calibrator_val_no_feedback","Valence","VS",1739885296261,"negative",979,"B","negative;positive","","",6.88653164253051,18
"539","58a477c660cd820001e9a5d6","kitten","calibrator_val_no_feedback","Valence","VS",1739885297974,"positive",955,"B","negative;positive","","",6.86171134048073,19
"540","58a477c660cd820001e9a5d6","hat","calibrator_val_no_feedback","Valence","VS",1739885299484,"positive",753,"B","negative;positive","","",6.62406522779989,20
"541","58a477c660cd820001e9a5d6","traffic","calibrator_syn_feedback","Syntactic","VS",1739885501384,"noun",1552,"verb","noun","verb;noun","B",7.34729970074316,21
"542","58a477c660cd820001e9a5d6","endure","calibrator_syn_feedback","Syntactic","VS",1739885504309,"verb",1675,"verb","noun","verb;noun","B",7.42356844425917,22
"543","58a477c660cd820001e9a5d6","wisdom","calibrator_syn_feedback","Syntactic","VS",1739885508400,"noun",1331,"verb","noun","verb;noun","B",7.19368581839511,23
"544","58a477c660cd820001e9a5d6","exist","calibrator_syn_feedback","Syntactic","VS",1739885512275,"noun",1115,"verb","noun","verb;noun","B",7.01660968389422,24
"545","58a477c660cd820001e9a5d6","concur","calibrator_syn_feedback","Syntactic","VS",1739885516203,"verb",1169,"verb","noun","verb;noun","B",7.06390396147207,25
"546","58a477c660cd820001e9a5d6","depart","calibrator_syn_feedback","Syntactic","VS",1739885520034,"verb",1075,"verb","noun","verb;noun","B",6.98007594056176,26
"547","58a477c660cd820001e9a5d6","furniture","calibrator_syn_feedback","Syntactic","VS",1739885523414,"noun",618,"verb","noun","verb;noun","B",6.42648845745769,27
"548","58a477c660cd820001e9a5d6","luggage","calibrator_syn_feedback","Syntactic","VS",1739885526710,"noun",540,"verb","noun","verb;noun","B",6.29156913955832,28
"549","58a477c660cd820001e9a5d6","childhood","calibrator_syn_feedback","Syntactic","VS",1739885531039,"noun",1571,"verb","noun","verb;noun","B",7.35946763825562,29
"550","58a477c660cd820001e9a5d6","reside","calibrator_syn_feedback","Syntactic","VS",1739885534986,"verb",1184,"verb","noun","verb;noun","B",7.07665381544395,30
"551","58a477c660cd820001e9a5d6","childhood","calibrator_syn_no_feedback","Syntactic","VS",1739885538503,"noun",758,"B","verb;noun","","",6.63068338564237,31
"552","58a477c660cd820001e9a5d6","concur","calibrator_syn_no_feedback","Syntactic","VS",1739885540702,"verb",1442,"B","verb;noun","","",7.27378631784489,32
"553","58a477c660cd820001e9a5d6","depart","calibrator_syn_no_feedback","Syntactic","VS",1739885542548,"verb",1087,"B","verb;noun","","",6.99117688712121,33
"554","58a477c660cd820001e9a5d6","endure","calibrator_syn_no_feedback","Syntactic","VS",1739885543959,"verb",653,"B","verb;noun","","",6.48157712927643,34
"555","58a477c660cd820001e9a5d6","traffic","calibrator_syn_no_feedback","Syntactic","VS",1739885545914,"noun",1195,"B","verb;noun","","",7.08590146436561,35
"556","58a477c660cd820001e9a5d6","furniture","calibrator_syn_no_feedback","Syntactic","VS",1739885547524,"noun",854,"B","verb;noun","","",6.74993119378857,36
"557","58a477c660cd820001e9a5d6","exist","calibrator_syn_no_feedback","Syntactic","VS",1739885549025,"verb",748,"B","verb;noun","","",6.61740297797448,37
"558","58a477c660cd820001e9a5d6","luggage","calibrator_syn_no_feedback","Syntactic","VS",1739885550398,"noun",609,"B","verb;noun","","",6.4118182677099,38
"559","58a477c660cd820001e9a5d6","wisdom","calibrator_syn_no_feedback","Syntactic","VS",1739885552061,"noun",903,"B","verb;noun","","",6.80572255341699,39
"560","58a477c660cd820001e9a5d6","reside","calibrator_syn_no_feedback","Syntactic","VS",1739885553536,"verb",722,"B","verb;noun","","",6.58202513889283,40
"561","5fa62963d5f64b209953d321","industry","calibrator_val_feedback","Valence","VS",1739892122016,"positive",2132,"positive","negative","positive;negative","A",7.66481578528574,1
"562","5fa62963d5f64b209953d321","free","calibrator_val_feedback","Valence","VS",1739892124226,"positive",1288,"positive","negative","positive;negative","A",7.1608459066643,2
"563","5fa62963d5f64b209953d321","insecure","calibrator_val_feedback","Valence","VS",1739892128354,"negative",1367,"positive","negative","positive;negative","A",7.22037383672395,3
"564","5fa62963d5f64b209953d321","kitten","calibrator_val_feedback","Valence","VS",1739892132009,"positive",897,"positive","negative","positive;negative","A",6.7990558620588,4
"565","5fa62963d5f64b209953d321","jail","calibrator_val_feedback","Valence","VS",1739892135754,"negative",982,"positive","negative","positive;negative","A",6.88959130835447,5
"566","5fa62963d5f64b209953d321","hat","calibrator_val_feedback","Valence","VS",1739892140512,"positive",2000,"positive","negative","positive;negative","A",7.60090245954208,6
"567","5fa62963d5f64b209953d321","grin","calibrator_val_feedback","Valence","VS",1739892144633,"positive",1360,"positive","negative","positive;negative","A",7.2152399787301,7
"568","5fa62963d5f64b209953d321","icebox","calibrator_val_feedback","Valence","VS",1739892149281,"positive",1885,"positive","negative","positive;negative","A",7.54168309988211,8
"569","5fa62963d5f64b209953d321","invader","calibrator_val_feedback","Valence","VS",1739892153130,"negative",1086,"positive","negative","positive;negative","A",6.99025650049388,9
"570","5fa62963d5f64b209953d321","joke","calibrator_val_feedback","Valence","VS",1739892156857,"positive",969,"positive","negative","positive;negative","A",6.87626461189077,10
"571","5fa62963d5f64b209953d321","hat","calibrator_val_no_feedback","Valence","VS",1739892160937,"positive",1319,"A","positive;negative","","",7.18462915271731,11
"572","5fa62963d5f64b209953d321","joke","calibrator_val_no_feedback","Valence","VS",1739892162513,"positive",817,"A","positive;negative","","",6.70563909486,12
"573","5fa62963d5f64b209953d321","icebox","calibrator_val_no_feedback","Valence","VS",1739892163961,"positive",688,"A","positive;negative","","",6.53378883793334,13
"574","5fa62963d5f64b209953d321","insecure","calibrator_val_no_feedback","Valence","VS",1739892165375,"negative",660,"A","positive;negative","","",6.49223983502047,14
"575","5fa62963d5f64b209953d321","jail","calibrator_val_no_feedback","Valence","VS",1739892166712,"negative",575,"A","positive;negative","","",6.35437004079735,15
"576","5fa62963d5f64b209953d321","free","calibrator_val_no_feedback","Valence","VS",1739892168017,"positive",547,"A","positive;negative","","",6.30444880242198,16
"577","5fa62963d5f64b209953d321","industry","calibrator_val_no_feedback","Valence","VS",1739892169465,"positive",688,"A","positive;negative","","",6.53378883793334,17
"578","5fa62963d5f64b209953d321","invader","calibrator_val_no_feedback","Valence","VS",1739892170833,"negative",613,"A","positive;negative","","",6.41836493593621,18
"579","5fa62963d5f64b209953d321","kitten","calibrator_val_no_feedback","Valence","VS",1739892172105,"positive",513,"A","positive;negative","","",6.24027584517077,19
"580","5fa62963d5f64b209953d321","grin","calibrator_val_no_feedback","Valence","VS",1739892173385,"positive",518,"A","positive;negative","","",6.24997524225948,20
"581","5fa62963d5f64b209953d321","concur","calibrator_syn_feedback","Syntactic","VS",1739892447609,"verb",3166,"noun","verb","noun;verb","A",8.06022424044096,21
"582","5fa62963d5f64b209953d321","reside","calibrator_syn_feedback","Syntactic","VS",1739892453017,"verb",2646,"noun","verb","noun;verb","A",7.8808043446749,22
"583","5fa62963d5f64b209953d321","furniture","calibrator_syn_feedback","Syntactic","VS",1739892456745,"noun",963,"noun","verb","noun;verb","A",6.87005341179813,23
"584","5fa62963d5f64b209953d321","childhood","calibrator_syn_feedback","Syntactic","VS",1739892460713,"noun",1207,"noun","verb","noun;verb","A",7.09589322109753,24
"585","5fa62963d5f64b209953d321","endure","calibrator_syn_feedback","Syntactic","VS",1739892465137,"verb",1665,"noun","verb","noun;verb","A",7.41758040241454,25
"586","5fa62963d5f64b209953d321","exist","calibrator_syn_feedback","Syntactic","VS",1739892471377,"verb",3479,"noun","verb","noun;verb","A",8.15450017515194,26
"587","5fa62963d5f64b209953d321","wisdom","calibrator_syn_feedback","Syntactic","VS",1739892475537,"noun",1402,"noun","verb","noun;verb","A",7.24565506759454,27
"588","5fa62963d5f64b209953d321","depart","calibrator_syn_feedback","Syntactic","VS",1739892479937,"verb",1641,"noun","verb","noun;verb","A",7.40306109109009,28
"589","5fa62963d5f64b209953d321","traffic","calibrator_syn_feedback","Syntactic","VS",1739892484201,"noun",1505,"noun","verb","noun;verb","A",7.31654817718298,29
"590","5fa62963d5f64b209953d321","luggage","calibrator_syn_feedback","Syntactic","VS",1739892488049,"noun",1087,"noun","verb","noun;verb","A",6.99117688712121,30
"591","5fa62963d5f64b209953d321","furniture","calibrator_syn_no_feedback","Syntactic","VS",1739892491561,"noun",753,"A","noun;verb","","",6.62406522779989,31
"592","5fa62963d5f64b209953d321","luggage","calibrator_syn_no_feedback","Syntactic","VS",1739892493545,"noun",1229,"A","noun;verb","","",7.11395610956603,32
"593","5fa62963d5f64b209953d321","concur","calibrator_syn_no_feedback","Syntactic","VS",1739892495025,"verb",724,"A","noun;verb","","",6.58479139238572,33
"594","5fa62963d5f64b209953d321","depart","calibrator_syn_no_feedback","Syntactic","VS",1739892496761,"verb",979,"A","noun;verb","","",6.88653164253051,34
"595","5fa62963d5f64b209953d321","exist","calibrator_syn_no_feedback","Syntactic","VS",1739892498209,"verb",692,"A","noun;verb","","",6.53958595561767,35
"596","5fa62963d5f64b209953d321","traffic","calibrator_syn_no_feedback","Syntactic","VS",1739892499641,"noun",676,"A","noun;verb","","",6.51619307604296,36
"597","5fa62963d5f64b209953d321","reside","calibrator_syn_no_feedback","Syntactic","VS",1739892501993,"verb",1596,"A","noun;verb","","",7.37525577800975,37
"598","5fa62963d5f64b209953d321","childhood","calibrator_syn_no_feedback","Syntactic","VS",1739892503385,"noun",635,"A","noun;verb","","",6.45362499889269,38
"599","5fa62963d5f64b209953d321","wisdom","calibrator_syn_no_feedback","Syntactic","VS",1739892505393,"noun",1246,"A","noun;verb","","",7.1276936993474,39
"600","5fa62963d5f64b209953d321","endure","calibrator_syn_no_feedback","Syntactic","VS",1739892507769,"verb",1620,"A","noun;verb","","",7.39018142822643,40
"601","6640262ed0b9e3f217df4086","industry","calibrator_val_feedback","Valence","VS",1739886191082,"negative",114,"negative","positive","negative;positive","B",4.7361984483945,1
"602","6640262ed0b9e3f217df4086","icebox","calibrator_val_feedback","Valence","VS",1739886195065,"negative",1420,"negative","positive","negative;positive","B",7.25841215059531,2
"603","6640262ed0b9e3f217df4086","kitten","calibrator_val_feedback","Valence","VS",1739886198401,"negative",640,"negative","positive","negative;positive","B",6.46146817635372,3
"604","6640262ed0b9e3f217df4086","invader","calibrator_val_feedback","Valence","VS",1739886200930,"positive",1378,"negative","positive","negative;positive","B",7.2283884515736,4
"605","6640262ed0b9e3f217df4086","joke","calibrator_val_feedback","Valence","VS",1739886208320,"positive",4634,"negative","positive","negative;positive","B",8.44117570499232,5
"606","6640262ed0b9e3f217df4086","hat","calibrator_val_feedback","Valence","VS",1739886212498,"positive",1422,"negative","positive","negative;positive","B",7.25981961036319,6
