#
# Results on Wed, 05 Feb 2025 19:33:33 GMT
# USER AGENT: Mozilla/5.0 (Windows NT 10.0; Win64; x64; rv:134.0) Gecko/20100101 Firefox/134.0
# Design number was non-random = 0
#
# Columns below this comment are as follows:
# 1. Results reception time.
# 2. MD5 hash of participant's IP address.
# 3. Controller name.
# 4. Order number of item.
# 5. Inner element number.
# 6. Label.
# 7. Latin Square Group.
# 8. PennElementType.
# 9. PennElementName.
# 10. Parameter.
# 11. Value.
# 12. EventTime.
# 13. Comments.
1738784013,8bd1c33a009945a307d4777b43c240c3,PennController,1,0,welcome,NULL,PennController,0,_Trial_,Start,1738783341716,NULL
1738784013,8bd1c33a009945a307d4777b43c240c3,PennController,1,0,welcome,NULL,PennController,0,_Header_,Start,1738783341716,NULL
1738784013,8bd1c33a009945a307d4777b43c240c3,PennController,1,0,welcome,NULL,PennController,0,_Header_,End,1738783341968,NULL
1738784013,8bd1c33a009945a307d4777b43c240c3,PennController,1,0,welcome,NULL,PennController,0,_Trial_,End,1738783358314,NULL
# 13. ID.
# 14. Comments.
1738784013,8bd1c33a009945a307d4777b43c240c3,PennController,124,0,consent,NULL,PennController,2,_Trial_,Start,1738783358317,662a4a8b566905a139dc2ce1,NULL
1738784013,8bd1c33a009945a307d4777b43c240c3,PennController,124,0,consent,NULL,PennController,2,_Header_,Start,1738783358317,662a4a8b566905a139dc2ce1,NULL
1738784013,8bd1c33a009945a307d4777b43c240c3,PennController,124,0,consent,NULL,PennController,2,_Header_,End,1738783358571,662a4a8b566905a139dc2ce1,NULL
1738784013,8bd1c33a009945a307d4777b43c240c3,PennController,124,0,consent,NULL,TextInput,ID,Final,662a4a8b566905a139dc2ce1,1738783369691,662a4a8b566905a139dc2ce1,NULL
1738784013,8bd1c33a009945a307d4777b43c240c3,PennController,124,0,consent,NULL,PennController,2,_Trial_,End,1738783369691,662a4a8b566905a139dc2ce1,NULL
# 13. Comments.
1738784013,8bd1c33a009945a307d4777b43c240c3,PennController,126,0,instructions1_ani,NULL,PennController,4,_Trial_,Start,1738783369691,NULL
1738784013,8bd1c33a009945a307d4777b43c240c3,PennController,126,0,instructions1_ani,NULL,PennController,4,_Header_,Start,1738783369691,NULL
1738784013,8bd1c33a009945a307d4777b43c240c3,PennController,126,0,instructions1_ani,NULL,PennController,4,_Header_,End,1738783369945,NULL
1738784013,8bd1c33a009945a307d4777b43c240c3,PennController,126,0,instructions1_ani,NULL,PennController,4,_Trial_,End,1738783399711,NULL
1738784013,8bd1c33a009945a307d4777b43c240c3,PennController,127,0,instructions2_ani,NULL,PennController,5,_Trial_,Start,1738783399712,NULL
1738784013,8bd1c33a009945a307d4777b43c240c3,PennController,127,0,instructions2_ani,NULL,PennController,5,_Header_,Start,1738783399712,NULL
1738784013,8bd1c33a009945a307d4777b43c240c3,PennController,127,0,instructions2_ani,NULL,PennController,5,_Header_,End,1738783399963,NULL
1738784013,8bd1c33a009945a307d4777b43c240c3,PennController,127,0,instructions2_ani,NULL,PennController,5,_Trial_,End,1738783404253,NULL
1738784013,8bd1c33a009945a307d4777b43c240c3,PennController,134,0,instructions3_hands,NULL,PennController,12,_Trial_,Start,1738783404254,NULL
1738784013,8bd1c33a009945a307d4777b43c240c3,PennController,134,0,instructions3_hands,NULL,PennController,12,_Header_,Start,1738783404254,NULL
1738784013,8bd1c33a009945a307d4777b43c240c3,PennController,134,0,instructions3_hands,NULL,PennController,12,_Header_,End,1738783404521,NULL
1738784013,8bd1c33a009945a307d4777b43c240c3,PennController,134,0,instructions3_hands,NULL,PennController,12,_Trial_,End,1738783412376,NULL
1738784013,8bd1c33a009945a307d4777b43c240c3,PennController,129,0,practice_intro_ani,NULL,PennController,7,_Trial_,Start,1738783412376,NULL
1738784013,8bd1c33a009945a307d4777b43c240c3,PennController,129,0,practice_intro_ani,NULL,PennController,7,_Header_,Start,1738783412376,NULL
1738784013,8bd1c33a009945a307d4777b43c240c3,PennController,129,0,practice_intro_ani,NULL,PennController,7,_Header_,End,1738783412627,NULL
1738784013,8bd1c33a009945a307d4777b43c240c3,PennController,129,0,practice_intro_ani,NULL,PennController,7,_Trial_,End,1738783415400,NULL
# 13. ID.
# 14. ReactionTime.
# 15. Word.
# 16. selectedKey.
# 17. selectedValue.
# 18. Key_value_F.
# 19. Key_value_J.
# 20. Group.
# 21. Comments.
1738784013,8bd1c33a009945a307d4777b43c240c3,PennController,86,0,calibrator_ani_feedback,NULL,PennController,97,_Trial_,Start,1738783415403,undefined,2336,teenager,undefined,inanimate,animate,inanimate,A,NULL
1738784013,8bd1c33a009945a307d4777b43c240c3,PennController,86,0,calibrator_ani_feedback,NULL,PennController,97,_Header_,Start,1738783415403,undefined,2336,teenager,undefined,inanimate,animate,inanimate,A,NULL
1738784013,8bd1c33a009945a307d4777b43c240c3,PennController,86,0,calibrator_ani_feedback,NULL,PennController,97,_Header_,End,1738783415664,undefined,2336,teenager,undefined,inanimate,animate,inanimate,A,NULL
1738784013,8bd1c33a009945a307d4777b43c240c3,PennController,86,0,calibrator_ani_feedback,NULL,Selector,Selection,Selection,Option_F,1738783418511,undefined,2336,teenager,undefined,inanimate,animate,inanimate,A,Option_F;Option_J
1738784013,8bd1c33a009945a307d4777b43c240c3,PennController,86,0,calibrator_ani_feedback,NULL,PennController,97,_Trial_,End,1738783420523,undefined,2336,teenager,undefined,inanimate,animate,inanimate,A,NULL
1738784013,8bd1c33a009945a307d4777b43c240c3,PennController,88,0,calibrator_ani_feedback,NULL,PennController,99,_Trial_,Start,1738783420524,undefined,871,monkey,undefined,inanimate,animate,inanimate,A,NULL
1738784013,8bd1c33a009945a307d4777b43c240c3,PennController,88,0,calibrator_ani_feedback,NULL,PennController,99,_Header_,Start,1738783420524,undefined,871,monkey,undefined,inanimate,animate,inanimate,A,NULL
1738784013,8bd1c33a009945a307d4777b43c240c3,PennController,88,0,calibrator_ani_feedback,NULL,PennController,99,_Header_,End,1738783420787,undefined,871,monkey,undefined,inanimate,animate,inanimate,A,NULL
1738784013,8bd1c33a009945a307d4777b43c240c3,PennController,88,0,calibrator_ani_feedback,NULL,Selector,Selection,Selection,Option_F,1738783422167,undefined,871,monkey,undefined,inanimate,animate,inanimate,A,Option_F;Option_J
1738784013,8bd1c33a009945a307d4777b43c240c3,PennController,88,0,calibrator_ani_feedback,NULL,PennController,99,_Trial_,End,1738783424168,undefined,871,monkey,undefined,inanimate,animate,inanimate,A,NULL
1738784013,8bd1c33a009945a307d4777b43c240c3,PennController,93,0,calibrator_ani_feedback,NULL,PennController,104,_Trial_,Start,1738783424169,undefined,1184,clock,undefined,inanimate,animate,inanimate,A,NULL
1738784013,8bd1c33a009945a307d4777b43c240c3,PennController,93,0,calibrator_ani_feedback,NULL,PennController,104,_Header_,Start,1738783424169,undefined,1184,clock,undefined,inanimate,animate,inanimate,A,NULL
1738784013,8bd1c33a009945a307d4777b43c240c3,PennController,93,0,calibrator_ani_feedback,NULL,PennController,104,_Header_,End,1738783424433,undefined,1184,clock,undefined,inanimate,animate,inanimate,A,NULL
1738784013,8bd1c33a009945a307d4777b43c240c3,PennController,93,0,calibrator_ani_feedback,NULL,Selector,Selection,Selection,Option_J,1738783426127,undefined,1184,clock,undefined,inanimate,animate,inanimate,A,Option_F;Option_J
1738784013,8bd1c33a009945a307d4777b43c240c3,PennController,93,0,calibrator_ani_feedback,NULL,PennController,104,_Trial_,End,1738783428133,undefined,1184,clock,undefined,inanimate,animate,inanimate,A,NULL
1738784013,8bd1c33a009945a307d4777b43c240c3,PennController,87,0,calibrator_ani_feedback,NULL,PennController,98,_Trial_,Start,1738783428135,undefined,1189,horse,undefined,inanimate,animate,inanimate,A,NULL
1738784013,8bd1c33a009945a307d4777b43c240c3,PennController,87,0,calibrator_ani_feedback,NULL,PennController,98,_Header_,Start,1738783428135,undefined,1189,horse,undefined,inanimate,animate,inanimate,A,NULL
1738784013,8bd1c33a009945a307d4777b43c240c3,PennController,87,0,calibrator_ani_feedback,NULL,PennController,98,_Header_,End,1738783428387,undefined,1189,horse,undefined,inanimate,animate,inanimate,A,NULL
1738784013,8bd1c33a009945a307d4777b43c240c3,PennController,87,0,calibrator_ani_feedback,NULL,Selector,Selection,Selection,Option_F,1738783430087,undefined,1189,horse,undefined,inanimate,animate,inanimate,A,Option_F;Option_J
1738784013,8bd1c33a009945a307d4777b43c240c3,PennController,87,0,calibrator_ani_feedback,NULL,PennController,98,_Trial_,End,1738783432097,undefined,1189,horse,undefined,inanimate,animate,inanimate,A,NULL
1738784013,8bd1c33a009945a307d4777b43c240c3,PennController,91,0,calibrator_ani_feedback,NULL,PennController,102,_Trial_,Start,1738783432098,undefined,624,computer,undefined,inanimate,animate,inanimate,A,NULL
1738784013,8bd1c33a009945a307d4777b43c240c3,PennController,91,0,calibrator_ani_feedback,NULL,PennController,102,_Header_,Start,1738783432098,undefined,624,computer,undefined,inanimate,animate,inanimate,A,NULL
1738784013,8bd1c33a009945a307d4777b43c240c3,PennController,91,0,calibrator_ani_feedback,NULL,PennController,102,_Header_,End,1738783432361,undefined,624,computer,undefined,inanimate,animate,inanimate,A,NULL
1738784013,8bd1c33a009945a307d4777b43c240c3,PennController,91,0,calibrator_ani_feedback,NULL,Selector,Selection,Selection,Option_J,1738783433494,undefined,624,computer,undefined,inanimate,animate,inanimate,A,Option_F;Option_J
1738784013,8bd1c33a009945a307d4777b43c240c3,PennController,91,0,calibrator_ani_feedback,NULL,PennController,102,_Trial_,End,1738783435509,undefined,624,computer,undefined,inanimate,animate,inanimate,A,NULL
1738784013,8bd1c33a009945a307d4777b43c240c3,PennController,92,0,calibrator_ani_feedback,NULL,PennController,103,_Trial_,Start,1738783435510,undefined,915,bottle,undefined,inanimate,animate,inanimate,A,NULL
1738784013,8bd1c33a009945a307d4777b43c240c3,PennController,92,0,calibrator_ani_feedback,NULL,PennController,103,_Header_,Start,1738783435510,undefined,915,bottle,undefined,inanimate,animate,inanimate,A,NULL
1738784013,8bd1c33a009945a307d4777b43c240c3,PennController,92,0,calibrator_ani_feedback,NULL,PennController,103,_Header_,End,1738783435774,undefined,915,bottle,undefined,inanimate,animate,inanimate,A,NULL
1738784013,8bd1c33a009945a307d4777b43c240c3,PennController,92,0,calibrator_ani_feedback,NULL,Selector,Selection,Selection,Option_J,1738783437198,undefined,915,bottle,undefined,inanimate,animate,inanimate,A,Option_F;Option_J
1738784013,8bd1c33a009945a307d4777b43c240c3,PennController,92,0,calibrator_ani_feedback,NULL,PennController,103,_Trial_,End,1738783439218,undefined,915,bottle,undefined,inanimate,animate,inanimate,A,NULL
1738784013,8bd1c33a009945a307d4777b43c240c3,PennController,84,0,calibrator_ani_feedback,NULL,PennController,95,_Trial_,Start,1738783439219,undefined,1198,elephant,undefined,inanimate,animate,inanimate,A,NULL
1738784013,8bd1c33a009945a307d4777b43c240c3,PennController,84,0,calibrator_ani_feedback,NULL,PennController,95,_Header_,Start,1738783439219,undefined,1198,elephant,undefined,inanimate,animate,inanimate,A,NULL
1738784013,8bd1c33a009945a307d4777b43c240c3,PennController,84,0,calibrator_ani_feedback,NULL,PennController,95,_Header_,End,1738783439483,undefined,1198,elephant,undefined,inanimate,animate,inanimate,A,NULL
1738784013,8bd1c33a009945a307d4777b43c240c3,PennController,84,0,calibrator_ani_feedback,NULL,Selector,Selection,Selection,Option_F,1738783441191,undefined,1198,elephant,undefined,inanimate,animate,inanimate,A,Option_F;Option_J
1738784013,8bd1c33a009945a307d4777b43c240c3,PennController,84,0,calibrator_ani_feedback,NULL,PennController,95,_Trial_,End,1738783443211,undefined,1198,elephant,undefined,inanimate,animate,inanimate,A,NULL
1738784013,8bd1c33a009945a307d4777b43c240c3,PennController,90,0,calibrator_ani_feedback,NULL,PennController,101,_Trial_,Start,1738783443212,undefined,765,table,undefined,inanimate,animate,inanimate,A,NULL
1738784013,8bd1c33a009945a307d4777b43c240c3,PennController,90,0,calibrator_ani_feedback,NULL,PennController,101,_Header_,Start,1738783443212,undefined,765,table,undefined,inanimate,animate,inanimate,A,NULL
1738784013,8bd1c33a009945a307d4777b43c240c3,PennController,90,0,calibrator_ani_feedback,NULL,PennController,101,_Header_,End,1738783443476,undefined,765,table,undefined,inanimate,animate,inanimate,A,NULL
1738784013,8bd1c33a009945a307d4777b43c240c3,PennController,90,0,calibrator_ani_feedback,NULL,Selector,Selection,Selection,Option_J,1738783444750,undefined,765,table,undefined,inanimate,animate,inanimate,A,Option_F;Option_J
1738784013,8bd1c33a009945a307d4777b43c240c3,PennController,90,0,calibrator_ani_feedback,NULL,PennController,101,_Trial_,End,1738783446766,undefined,765,table,undefined,inanimate,animate,inanimate,A,NULL
1738784013,8bd1c33a009945a307d4777b43c240c3,PennController,85,0,calibrator_ani_feedback,NULL,PennController,96,_Trial_,Start,1738783446767,undefined,683,human,undefined,inanimate,animate,inanimate,A,NULL
1738784013,8bd1c33a009945a307d4777b43c240c3,PennController,85,0,calibrator_ani_feedback,NULL,PennController,96,_Header_,Start,1738783446767,undefined,683,human,undefined,inanimate,animate,inanimate,A,NULL
1738784013,8bd1c33a009945a307d4777b43c240c3,PennController,85,0,calibrator_ani_feedback,NULL,PennController,96,_Header_,End,1738783447031,undefined,683,human,undefined,inanimate,animate,inanimate,A,NULL
1738784013,8bd1c33a009945a307d4777b43c240c3,PennController,85,0,calibrator_ani_feedback,NULL,Selector,Selection,Selection,Option_F,1738783448222,undefined,683,human,undefined,inanimate,animate,inanimate,A,Option_F;Option_J
1738784013,8bd1c33a009945a307d4777b43c240c3,PennController,85,0,calibrator_ani_feedback,NULL,PennController,96,_Trial_,End,1738783450229,undefined,683,human,undefined,inanimate,animate,inanimate,A,NULL
1738784013,8bd1c33a009945a307d4777b43c240c3,PennController,89,0,calibrator_ani_feedback,NULL,PennController,100,_Trial_,Start,1738783450230,undefined,649,chair,undefined,inanimate,animate,inanimate,A,NULL
1738784013,8bd1c33a009945a307d4777b43c240c3,PennController,89,0,calibrator_ani_feedback,NULL,PennController,100,_Header_,Start,1738783450230,undefined,649,chair,undefined,inanimate,animate,inanimate,A,NULL
1738784013,8bd1c33a009945a307d4777b43c240c3,PennController,89,0,calibrator_ani_feedback,NULL,PennController,100,_Header_,End,1738783450494,undefined,649,chair,undefined,inanimate,animate,inanimate,A,NULL
1738784013,8bd1c33a009945a307d4777b43c240c3,PennController,89,0,calibrator_ani_feedback,NULL,Selector,Selection,Selection,Option_J,1738783451663,undefined,649,chair,undefined,inanimate,animate,inanimate,A,Option_F;Option_J
1738784013,8bd1c33a009945a307d4777b43c240c3,PennController,89,0,calibrator_ani_feedback,NULL,PennController,100,_Trial_,End,1738783453675,undefined,649,chair,undefined,inanimate,animate,inanimate,A,NULL
# 16. Key_value_F.
# 17. Key_value_J.
# 18. Group.
# 19. Comments.
1738784013,8bd1c33a009945a307d4777b43c240c3,PennController,96,0,calibrator_ani_no_feedback,NULL,PennController,107,_Trial_,Start,1738783453675,undefined,645,teenager,animate,inanimate,A,NULL
1738784013,8bd1c33a009945a307d4777b43c240c3,PennController,96,0,calibrator_ani_no_feedback,NULL,PennController,107,_Header_,Start,1738783453675,undefined,645,teenager,animate,inanimate,A,NULL
1738784013,8bd1c33a009945a307d4777b43c240c3,PennController,96,0,calibrator_ani_no_feedback,NULL,PennController,107,_Header_,End,1738783453939,undefined,645,teenager,animate,inanimate,A,NULL
1738784013,8bd1c33a009945a307d4777b43c240c3,PennController,96,0,calibrator_ani_no_feedback,NULL,Selector,unnamed-Selector,Selection,animate,1738783455094,undefined,645,teenager,animate,inanimate,A,animate;inanimate
1738784013,8bd1c33a009945a307d4777b43c240c3,PennController,96,0,calibrator_ani_no_feedback,NULL,PennController,107,_Trial_,End,1738783455095,undefined,645,teenager,animate,inanimate,A,NULL
1738784013,8bd1c33a009945a307d4777b43c240c3,PennController,97,0,calibrator_ani_no_feedback,NULL,PennController,108,_Trial_,Start,1738783455096,undefined,880,horse,animate,inanimate,A,NULL
1738784013,8bd1c33a009945a307d4777b43c240c3,PennController,97,0,calibrator_ani_no_feedback,NULL,PennController,108,_Header_,Start,1738783455096,undefined,880,horse,animate,inanimate,A,NULL
1738784013,8bd1c33a009945a307d4777b43c240c3,PennController,97,0,calibrator_ani_no_feedback,NULL,PennController,108,_Header_,End,1738783455346,undefined,880,horse,animate,inanimate,A,NULL
1738784013,8bd1c33a009945a307d4777b43c240c3,PennController,97,0,calibrator_ani_no_feedback,NULL,Selector,unnamed-Selector,Selection,animate,1738783456735,undefined,880,horse,animate,inanimate,A,animate;inanimate
1738784013,8bd1c33a009945a307d4777b43c240c3,PennController,97,0,calibrator_ani_no_feedback,NULL,PennController,108,_Trial_,End,1738783456735,undefined,880,horse,animate,inanimate,A,NULL
1738784013,8bd1c33a009945a307d4777b43c240c3,PennController,99,0,calibrator_ani_no_feedback,NULL,PennController,110,_Trial_,Start,1738783456736,undefined,781,chair,animate,inanimate,A,NULL
1738784013,8bd1c33a009945a307d4777b43c240c3,PennController,99,0,calibrator_ani_no_feedback,NULL,PennController,110,_Header_,Start,1738783456736,undefined,781,chair,animate,inanimate,A,NULL
1738784013,8bd1c33a009945a307d4777b43c240c3,PennController,99,0,calibrator_ani_no_feedback,NULL,PennController,110,_Header_,End,1738783456996,undefined,781,chair,animate,inanimate,A,NULL
1738784013,8bd1c33a009945a307d4777b43c240c3,PennController,99,0,calibrator_ani_no_feedback,NULL,Selector,unnamed-Selector,Selection,inanimate,1738783458287,undefined,781,chair,animate,inanimate,A,animate;inanimate
1738784013,8bd1c33a009945a307d4777b43c240c3,PennController,99,0,calibrator_ani_no_feedback,NULL,PennController,110,_Trial_,End,1738783458287,undefined,781,chair,animate,inanimate,A,NULL
1738784013,8bd1c33a009945a307d4777b43c240c3,PennController,101,0,calibrator_ani_no_feedback,NULL,PennController,112,_Trial_,Start,1738783458288,undefined,717,computer,animate,inanimate,A,NULL
1738784013,8bd1c33a009945a307d4777b43c240c3,PennController,101,0,calibrator_ani_no_feedback,NULL,PennController,112,_Header_,Start,1738783458288,undefined,717,computer,animate,inanimate,A,NULL
1738784013,8bd1c33a009945a307d4777b43c240c3,PennController,101,0,calibrator_ani_no_feedback,NULL,PennController,112,_Header_,End,1738783458546,undefined,717,computer,animate,inanimate,A,NULL
1738784013,8bd1c33a009945a307d4777b43c240c3,PennController,101,0,calibrator_ani_no_feedback,NULL,Selector,unnamed-Selector,Selection,inanimate,1738783459783,undefined,717,computer,animate,inanimate,A,animate;inanimate
1738784013,8bd1c33a009945a307d4777b43c240c3,PennController,101,0,calibrator_ani_no_feedback,NULL,PennController,112,_Trial_,End,1738783459783,undefined,717,computer,animate,inanimate,A,NULL
1738784013,8bd1c33a009945a307d4777b43c240c3,PennController,102,0,calibrator_ani_no_feedback,NULL,PennController,113,_Trial_,Start,1738783459783,undefined,621,bottle,animate,inanimate,A,NULL
1738784013,8bd1c33a009945a307d4777b43c240c3,PennController,102,0,calibrator_ani_no_feedback,NULL,PennController,113,_Header_,Start,1738783459783,undefined,621,bottle,animate,inanimate,A,NULL
1738784013,8bd1c33a009945a307d4777b43c240c3,PennController,102,0,calibrator_ani_no_feedback,NULL,PennController,113,_Header_,End,1738783460045,undefined,621,bottle,animate,inanimate,A,NULL
1738784013,8bd1c33a009945a307d4777b43c240c3,PennController,102,0,calibrator_ani_no_feedback,NULL,Selector,unnamed-Selector,Selection,inanimate,1738783461175,undefined,621,bottle,animate,inanimate,A,animate;inanimate
1738784013,8bd1c33a009945a307d4777b43c240c3,PennController,102,0,calibrator_ani_no_feedback,NULL,PennController,113,_Trial_,End,1738783461176,undefined,621,bottle,animate,inanimate,A,NULL
1738784013,8bd1c33a009945a307d4777b43c240c3,PennController,100,0,calibrator_ani_no_feedback,NULL,PennController,111,_Trial_,Start,1738783461176,undefined,756,table,animate,inanimate,A,NULL
1738784013,8bd1c33a009945a307d4777b43c240c3,PennController,100,0,calibrator_ani_no_feedback,NULL,PennController,111,_Header_,Start,1738783461176,undefined,756,table,animate,inanimate,A,NULL
1738784013,8bd1c33a009945a307d4777b43c240c3,PennController,100,0,calibrator_ani_no_feedback,NULL,PennController,111,_Header_,End,1738783461428,undefined,756,table,animate,inanimate,A,NULL
1738784013,8bd1c33a009945a307d4777b43c240c3,PennController,100,0,calibrator_ani_no_feedback,NULL,Selector,unnamed-Selector,Selection,inanimate,1738783462695,undefined,756,table,animate,inanimate,A,animate;inanimate
1738784013,8bd1c33a009945a307d4777b43c240c3,PennController,100,0,calibrator_ani_no_feedback,NULL,PennController,111,_Trial_,End,1738783462695,undefined,756,table,animate,inanimate,A,NULL
1738784013,8bd1c33a009945a307d4777b43c240c3,PennController,95,0,calibrator_ani_no_feedback,NULL,PennController,106,_Trial_,Start,1738783462695,undefined,602,human,animate,inanimate,A,NULL
1738784013,8bd1c33a009945a307d4777b43c240c3,PennController,95,0,calibrator_ani_no_feedback,NULL,PennController,106,_Header_,Start,1738783462695,undefined,602,human,animate,inanimate,A,NULL
1738784013,8bd1c33a009945a307d4777b43c240c3,PennController,95,0,calibrator_ani_no_feedback,NULL,PennController,106,_Header_,End,1738783462948,undefined,602,human,animate,inanimate,A,NULL
1738784013,8bd1c33a009945a307d4777b43c240c3,PennController,95,0,calibrator_ani_no_feedback,NULL,Selector,unnamed-Selector,Selection,animate,1738783464071,undefined,602,human,animate,inanimate,A,animate;inanimate
1738784013,8bd1c33a009945a307d4777b43c240c3,PennController,95,0,calibrator_ani_no_feedback,NULL,PennController,106,_Trial_,End,1738783464071,undefined,602,human,animate,inanimate,A,NULL
1738784013,8bd1c33a009945a307d4777b43c240c3,PennController,103,0,calibrator_ani_no_feedback,NULL,PennController,114,_Trial_,Start,1738783464071,undefined,773,clock,animate,inanimate,A,NULL
1738784013,8bd1c33a009945a307d4777b43c240c3,PennController,103,0,calibrator_ani_no_feedback,NULL,PennController,114,_Header_,Start,1738783464071,undefined,773,clock,animate,inanimate,A,NULL
1738784013,8bd1c33a009945a307d4777b43c240c3,PennController,103,0,calibrator_ani_no_feedback,NULL,PennController,114,_Header_,End,1738783464324,undefined,773,clock,animate,inanimate,A,NULL
1738784013,8bd1c33a009945a307d4777b43c240c3,PennController,103,0,calibrator_ani_no_feedback,NULL,Selector,unnamed-Selector,Selection,inanimate,1738783465607,undefined,773,clock,animate,inanimate,A,animate;inanimate
1738784013,8bd1c33a009945a307d4777b43c240c3,PennController,103,0,calibrator_ani_no_feedback,NULL,PennController,114,_Trial_,End,1738783465607,undefined,773,clock,animate,inanimate,A,NULL
1738784013,8bd1c33a009945a307d4777b43c240c3,PennController,98,0,calibrator_ani_no_feedback,NULL,PennController,109,_Trial_,Start,1738783465608,undefined,760,monkey,animate,inanimate,A,NULL
1738784013,8bd1c33a009945a307d4777b43c240c3,PennController,98,0,calibrator_ani_no_feedback,NULL,PennController,109,_Header_,Start,1738783465608,undefined,760,monkey,animate,inanimate,A,NULL
1738784013,8bd1c33a009945a307d4777b43c240c3,PennController,98,0,calibrator_ani_no_feedback,NULL,PennController,109,_Header_,End,1738783465873,undefined,760,monkey,animate,inanimate,A,NULL
1738784013,8bd1c33a009945a307d4777b43c240c3,PennController,98,0,calibrator_ani_no_feedback,NULL,Selector,unnamed-Selector,Selection,animate,1738783467143,undefined,760,monkey,animate,inanimate,A,animate;inanimate
1738784013,8bd1c33a009945a307d4777b43c240c3,PennController,98,0,calibrator_ani_no_feedback,NULL,PennController,109,_Trial_,End,1738783467143,undefined,760,monkey,animate,inanimate,A,NULL
1738784013,8bd1c33a009945a307d4777b43c240c3,PennController,94,0,calibrator_ani_no_feedback,NULL,PennController,105,_Trial_,Start,1738783467144,undefined,544,elephant,animate,inanimate,A,NULL
1738784013,8bd1c33a009945a307d4777b43c240c3,PennController,94,0,calibrator_ani_no_feedback,NULL,PennController,105,_Header_,Start,1738783467144,undefined,544,elephant,animate,inanimate,A,NULL
1738784013,8bd1c33a009945a307d4777b43c240c3,PennController,94,0,calibrator_ani_no_feedback,NULL,PennController,105,_Header_,End,1738783467401,undefined,544,elephant,animate,inanimate,A,NULL
1738784013,8bd1c33a009945a307d4777b43c240c3,PennController,94,0,calibrator_ani_no_feedback,NULL,Selector,unnamed-Selector,Selection,animate,1738783468455,undefined,544,elephant,animate,inanimate,A,animate;inanimate
1738784013,8bd1c33a009945a307d4777b43c240c3,PennController,94,0,calibrator_ani_no_feedback,NULL,PennController,105,_Trial_,End,1738783468455,undefined,544,elephant,animate,inanimate,A,NULL
# 13. Comments.
1738784013,8bd1c33a009945a307d4777b43c240c3,PennController,130,0,endinstructions_ani,NULL,PennController,8,_Trial_,Start,1738783468456,NULL
1738784013,8bd1c33a009945a307d4777b43c240c3,PennController,130,0,endinstructions_ani,NULL,PennController,8,_Header_,Start,1738783468456,NULL
1738784013,8bd1c33a009945a307d4777b43c240c3,PennController,130,0,endinstructions_ani,NULL,PennController,8,_Header_,End,1738783468706,NULL
1738784013,8bd1c33a009945a307d4777b43c240c3,PennController,130,0,endinstructions_ani,NULL,PennController,8,_Trial_,End,1738783473015,NULL
# 13. ID.
# 14. ReactionTime.
# 15. Word.
# 16. Key_value_F.
# 17. Key_value_J.
# 18. Group.
# 19. Comments.
1738784013,8bd1c33a009945a307d4777b43c240c3,PennController,34,0,test_ani,NULL,PennController,45,_Trial_,Start,1738783473015,undefined,904,comedian,animate,inanimate,A,NULL
1738784013,8bd1c33a009945a307d4777b43c240c3,PennController,34,0,test_ani,NULL,PennController,45,_Header_,Start,1738783473015,undefined,904,comedian,animate,inanimate,A,NULL
1738784013,8bd1c33a009945a307d4777b43c240c3,PennController,34,0,test_ani,NULL,PennController,45,_Header_,End,1738783473274,undefined,904,comedian,animate,inanimate,A,NULL
1738784013,8bd1c33a009945a307d4777b43c240c3,PennController,34,0,test_ani,NULL,Selector,unnamed-Selector,Selection,animate,1738783474687,undefined,904,comedian,animate,inanimate,A,animate;inanimate
1738784013,8bd1c33a009945a307d4777b43c240c3,PennController,34,0,test_ani,NULL,PennController,45,_Trial_,End,1738783474687,undefined,904,comedian,animate,inanimate,A,NULL
1738784013,8bd1c33a009945a307d4777b43c240c3,PennController,35,0,test_ani,NULL,PennController,46,_Trial_,Start,1738783474688,undefined,816,puppy,animate,inanimate,A,NULL
1738784013,8bd1c33a009945a307d4777b43c240c3,PennController,35,0,test_ani,NULL,PennController,46,_Header_,Start,1738783474688,undefined,816,puppy,animate,inanimate,A,NULL
1738784013,8bd1c33a009945a307d4777b43c240c3,PennController,35,0,test_ani,NULL,PennController,46,_Header_,End,1738783474944,undefined,816,puppy,animate,inanimate,A,NULL
1738784013,8bd1c33a009945a307d4777b43c240c3,PennController,35,0,test_ani,NULL,Selector,unnamed-Selector,Selection,animate,1738783476270,undefined,816,puppy,animate,inanimate,A,animate;inanimate
1738784013,8bd1c33a009945a307d4777b43c240c3,PennController,35,0,test_ani,NULL,PennController,46,_Trial_,End,1738783476271,undefined,816,puppy,animate,inanimate,A,NULL
1738784013,8bd1c33a009945a307d4777b43c240c3,PennController,9,0,test_ani,NULL,PennController,20,_Trial_,Start,1738783476271,undefined,900,poison,animate,inanimate,A,NULL
1738784013,8bd1c33a009945a307d4777b43c240c3,PennController,9,0,test_ani,NULL,PennController,20,_Header_,Start,1738783476271,undefined,900,poison,animate,inanimate,A,NULL
1738784013,8bd1c33a009945a307d4777b43c240c3,PennController,9,0,test_ani,NULL,PennController,20,_Header_,End,1738783476534,undefined,900,poison,animate,inanimate,A,NULL
1738784013,8bd1c33a009945a307d4777b43c240c3,PennController,9,0,test_ani,NULL,Selector,unnamed-Selector,Selection,inanimate,1738783477943,undefined,900,poison,animate,inanimate,A,animate;inanimate
1738784013,8bd1c33a009945a307d4777b43c240c3,PennController,9,0,test_ani,NULL,PennController,20,_Trial_,End,1738783477944,undefined,900,poison,animate,inanimate,A,NULL
1738784013,8bd1c33a009945a307d4777b43c240c3,PennController,39,0,test_ani,NULL,PennController,50,_Trial_,Start,1738783477944,undefined,828,bunny,animate,inanimate,A,NULL
1738784013,8bd1c33a009945a307d4777b43c240c3,PennController,39,0,test_ani,NULL,PennController,50,_Header_,Start,1738783477944,undefined,828,bunny,animate,inanimate,A,NULL
1738784013,8bd1c33a009945a307d4777b43c240c3,PennController,39,0,test_ani,NULL,PennController,50,_Header_,End,1738783478203,undefined,828,bunny,animate,inanimate,A,NULL
1738784013,8bd1c33a009945a307d4777b43c240c3,PennController,39,0,test_ani,NULL,Selector,unnamed-Selector,Selection,animate,1738783479551,undefined,828,bunny,animate,inanimate,A,animate;inanimate
1738784013,8bd1c33a009945a307d4777b43c240c3,PennController,39,0,test_ani,NULL,PennController,50,_Trial_,End,1738783479551,undefined,828,bunny,animate,inanimate,A,NULL
1738784013,8bd1c33a009945a307d4777b43c240c3,PennController,43,0,test_ani,NULL,PennController,54,_Trial_,Start,1738783479552,undefined,636,husband,animate,inanimate,A,NULL
1738784013,8bd1c33a009945a307d4777b43c240c3,PennController,43,0,test_ani,NULL,PennController,54,_Header_,Start,1738783479552,undefined,636,husband,animate,inanimate,A,NULL
1738784013,8bd1c33a009945a307d4777b43c240c3,PennController,43,0,test_ani,NULL,PennController,54,_Header_,End,1738783479813,undefined,636,husband,animate,inanimate,A,NULL
1738784013,8bd1c33a009945a307d4777b43c240c3,PennController,43,0,test_ani,NULL,Selector,unnamed-Selector,Selection,animate,1738783480959,undefined,636,husband,animate,inanimate,A,animate;inanimate
1738784013,8bd1c33a009945a307d4777b43c240c3,PennController,43,0,test_ani,NULL,PennController,54,_Trial_,End,1738783480960,undefined,636,husband,animate,inanimate,A,NULL
1738784013,8bd1c33a009945a307d4777b43c240c3,PennController,12,0,test_ani,NULL,PennController,23,_Trial_,Start,1738783480960,undefined,846,smallpox,animate,inanimate,A,NULL
1738784013,8bd1c33a009945a307d4777b43c240c3,PennController,12,0,test_ani,NULL,PennController,23,_Header_,Start,1738783480960,undefined,846,smallpox,animate,inanimate,A,NULL
1738784013,8bd1c33a009945a307d4777b43c240c3,PennController,12,0,test_ani,NULL,PennController,23,_Header_,End,1738783481219,undefined,846,smallpox,animate,inanimate,A,NULL
1738784013,8bd1c33a009945a307d4777b43c240c3,PennController,12,0,test_ani,NULL,Selector,unnamed-Selector,Selection,inanimate,1738783482575,undefined,846,smallpox,animate,inanimate,A,animate;inanimate
1738784013,8bd1c33a009945a307d4777b43c240c3,PennController,12,0,test_ani,NULL,PennController,23,_Trial_,End,1738783482576,undefined,846,smallpox,animate,inanimate,A,NULL
1738784013,8bd1c33a009945a307d4777b43c240c3,PennController,41,0,test_ani,NULL,PennController,52,_Trial_,Start,1738783482576,undefined,746,princess,animate,inanimate,A,NULL
1738784013,8bd1c33a009945a307d4777b43c240c3,PennController,41,0,test_ani,NULL,PennController,52,_Header_,Start,1738783482576,undefined,746,princess,animate,inanimate,A,NULL
1738784013,8bd1c33a009945a307d4777b43c240c3,PennController,41,0,test_ani,NULL,PennController,52,_Header_,End,1738783482829,undefined,746,princess,animate,inanimate,A,NULL
1738784013,8bd1c33a009945a307d4777b43c240c3,PennController,41,0,test_ani,NULL,Selector,unnamed-Selector,Selection,animate,1738783484095,undefined,746,princess,animate,inanimate,A,animate;inanimate
1738784013,8bd1c33a009945a307d4777b43c240c3,PennController,41,0,test_ani,NULL,PennController,52,_Trial_,End,1738783484095,undefined,746,princess,animate,inanimate,A,NULL
1738784013,8bd1c33a009945a307d4777b43c240c3,PennController,17,0,test_ani,NULL,PennController,28,_Trial_,Start,1738783484096,undefined,879,pizza,animate,inanimate,A,NULL
1738784013,8bd1c33a009945a307d4777b43c240c3,PennController,17,0,test_ani,NULL,PennController,28,_Header_,Start,1738783484096,undefined,879,pizza,animate,inanimate,A,NULL
1738784013,8bd1c33a009945a307d4777b43c240c3,PennController,17,0,test_ani,NULL,PennController,28,_Header_,End,1738783484359,undefined,879,pizza,animate,inanimate,A,NULL
1738784013,8bd1c33a009945a307d4777b43c240c3,PennController,17,0,test_ani,NULL,Selector,unnamed-Selector,Selection,inanimate,1738783485743,undefined,879,pizza,animate,inanimate,A,animate;inanimate
1738784013,8bd1c33a009945a307d4777b43c240c3,PennController,17,0,test_ani,NULL,PennController,28,_Trial_,End,1738783485743,undefined,879,pizza,animate,inanimate,A,NULL
1738784013,8bd1c33a009945a307d4777b43c240c3,PennController,11,0,test_ani,NULL,PennController,22,_Trial_,Start,1738783485744,undefined,1167,flood,animate,inanimate,A,NULL
1738784013,8bd1c33a009945a307d4777b43c240c3,PennController,11,0,test_ani,NULL,PennController,22,_Header_,Start,1738783485744,undefined,1167,flood,animate,inanimate,A,NULL
1738784013,8bd1c33a009945a307d4777b43c240c3,PennController,11,0,test_ani,NULL,PennController,22,_Header_,End,1738783486006,undefined,1167,flood,animate,inanimate,A,NULL
1738784013,8bd1c33a009945a307d4777b43c240c3,PennController,11,0,test_ani,NULL,Selector,unnamed-Selector,Selection,inanimate,1738783487679,undefined,1167,flood,animate,inanimate,A,animate;inanimate
1738784013,8bd1c33a009945a307d4777b43c240c3,PennController,11,0,test_ani,NULL,PennController,22,_Trial_,End,1738783487679,undefined,1167,flood,animate,inanimate,A,NULL
1738784013,8bd1c33a009945a307d4777b43c240c3,PennController,13,0,test_ani,NULL,PennController,24,_Trial_,Start,1738783487680,undefined,2631,corpse,animate,inanimate,A,NULL
1738784013,8bd1c33a009945a307d4777b43c240c3,PennController,13,0,test_ani,NULL,PennController,24,_Header_,Start,1738783487680,undefined,2631,corpse,animate,inanimate,A,NULL
1738784013,8bd1c33a009945a307d4777b43c240c3,PennController,13,0,test_ani,NULL,PennController,24,_Header_,End,1738783487935,undefined,2631,corpse,animate,inanimate,A,NULL
1738784013,8bd1c33a009945a307d4777b43c240c3,PennController,13,0,test_ani,NULL,Selector,unnamed-Selector,Selection,animate,1738783491070,undefined,2631,corpse,animate,inanimate,A,animate;inanimate
1738784013,8bd1c33a009945a307d4777b43c240c3,PennController,13,0,test_ani,NULL,PennController,24,_Trial_,End,1738783491071,undefined,2631,corpse,animate,inanimate,A,NULL
1738784013,8bd1c33a009945a307d4777b43c240c3,PennController,30,0,test_ani,NULL,PennController,41,_Trial_,Start,1738783491071,undefined,1664,leech,animate,inanimate,A,NULL
1738784013,8bd1c33a009945a307d4777b43c240c3,PennController,30,0,test_ani,NULL,PennController,41,_Header_,Start,1738783491071,undefined,1664,leech,animate,inanimate,A,NULL
1738784013,8bd1c33a009945a307d4777b43c240c3,PennController,30,0,test_ani,NULL,PennController,41,_Header_,End,1738783491338,undefined,1664,leech,animate,inanimate,A,NULL
1738784013,8bd1c33a009945a307d4777b43c240c3,PennController,30,0,test_ani,NULL,Selector,unnamed-Selector,Selection,animate,1738783493511,undefined,1664,leech,animate,inanimate,A,animate;inanimate
1738784013,8bd1c33a009945a307d4777b43c240c3,PennController,30,0,test_ani,NULL,PennController,41,_Trial_,End,1738783493511,undefined,1664,leech,animate,inanimate,A,NULL
1738784013,8bd1c33a009945a307d4777b43c240c3,PennController,40,0,test_ani,NULL,PennController,51,_Trial_,Start,1738783493512,undefined,631,child,animate,inanimate,A,NULL
1738784013,8bd1c33a009945a307d4777b43c240c3,PennController,40,0,test_ani,NULL,PennController,51,_Header_,Start,1738783493512,undefined,631,child,animate,inanimate,A,NULL
1738784013,8bd1c33a009945a307d4777b43c240c3,PennController,40,0,test_ani,NULL,PennController,51,_Header_,End,1738783493784,undefined,631,child,animate,inanimate,A,NULL
1738784013,8bd1c33a009945a307d4777b43c240c3,PennController,40,0,test_ani,NULL,Selector,unnamed-Selector,Selection,animate,1738783494935,undefined,631,child,animate,inanimate,A,animate;inanimate
1738784013,8bd1c33a009945a307d4777b43c240c3,PennController,40,0,test_ani,NULL,PennController,51,_Trial_,End,1738783494936,undefined,631,child,animate,inanimate,A,NULL
1738784013,8bd1c33a009945a307d4777b43c240c3,PennController,5,0,test_ani,NULL,PennController,16,_Trial_,Start,1738783494936,undefined,1002,swastika,animate,inanimate,A,NULL
1738784013,8bd1c33a009945a307d4777b43c240c3,PennController,5,0,test_ani,NULL,PennController,16,_Header_,Start,1738783494936,undefined,1002,swastika,animate,inanimate,A,NULL
1738784013,8bd1c33a009945a307d4777b43c240c3,PennController,5,0,test_ani,NULL,PennController,16,_Header_,End,1738783495189,undefined,1002,swastika,animate,inanimate,A,NULL
1738784013,8bd1c33a009945a307d4777b43c240c3,PennController,5,0,test_ani,NULL,Selector,unnamed-Selector,Selection,inanimate,1738783496702,undefined,1002,swastika,animate,inanimate,A,animate;inanimate
1738784013,8bd1c33a009945a307d4777b43c240c3,PennController,5,0,test_ani,NULL,PennController,16,_Trial_,End,1738783496703,undefined,1002,swastika,animate,inanimate,A,NULL
1738784013,8bd1c33a009945a307d4777b43c240c3,PennController,25,0,test_ani,NULL,PennController,36,_Trial_,Start,1738783496703,undefined,2753,asshole,animate,inanimate,A,NULL
1738784013,8bd1c33a009945a307d4777b43c240c3,PennController,25,0,test_ani,NULL,PennController,36,_Header_,Start,1738783496703,undefined,2753,asshole,animate,inanimate,A,NULL
1738784013,8bd1c33a009945a307d4777b43c240c3,PennController,25,0,test_ani,NULL,PennController,36,_Header_,End,1738783496953,undefined,2753,asshole,animate,inanimate,A,NULL
1738784013,8bd1c33a009945a307d4777b43c240c3,PennController,25,0,test_ani,NULL,Selector,unnamed-Selector,Selection,animate,1738783500215,undefined,2753,asshole,animate,inanimate,A,animate;inanimate
1738784013,8bd1c33a009945a307d4777b43c240c3,PennController,25,0,test_ani,NULL,PennController,36,_Trial_,End,1738783500215,undefined,2753,asshole,animate,inanimate,A,NULL
1738784013,8bd1c33a009945a307d4777b43c240c3,PennController,18,0,test_ani,NULL,PennController,29,_Trial_,Start,1738783500216,undefined,847,laughter,animate,inanimate,A,NULL
1738784013,8bd1c33a009945a307d4777b43c240c3,PennController,18,0,test_ani,NULL,PennController,29,_Header_,Start,1738783500216,undefined,847,laughter,animate,inanimate,A,NULL
1738784013,8bd1c33a009945a307d4777b43c240c3,PennController,18,0,test_ani,NULL,PennController,29,_Header_,End,1738783500471,undefined,847,laughter,animate,inanimate,A,NULL
1738784013,8bd1c33a009945a307d4777b43c240c3,PennController,18,0,test_ani,NULL,Selector,unnamed-Selector,Selection,inanimate,1738783501823,undefined,847,laughter,animate,inanimate,A,animate;inanimate
1738784013,8bd1c33a009945a307d4777b43c240c3,PennController,18,0,test_ani,NULL,PennController,29,_Trial_,End,1738783501823,undefined,847,laughter,animate,inanimate,A,NULL
1738784013,8bd1c33a009945a307d4777b43c240c3,PennController,32,0,test_ani,NULL,PennController,43,_Trial_,Start,1738783501824,undefined,1080,intruder,animate,inanimate,A,NULL
1738784013,8bd1c33a009945a307d4777b43c240c3,PennController,32,0,test_ani,NULL,PennController,43,_Header_,Start,1738783501824,undefined,1080,intruder,animate,inanimate,A,NULL
1738784013,8bd1c33a009945a307d4777b43c240c3,PennController,32,0,test_ani,NULL,PennController,43,_Header_,End,1738783502074,undefined,1080,intruder,animate,inanimate,A,NULL
1738784013,8bd1c33a009945a307d4777b43c240c3,PennController,32,0,test_ani,NULL,Selector,unnamed-Selector,Selection,animate,1738783503663,undefined,1080,intruder,animate,inanimate,A,animate;inanimate
1738784013,8bd1c33a009945a307d4777b43c240c3,PennController,32,0,test_ani,NULL,PennController,43,_Trial_,End,1738783503664,undefined,1080,intruder,animate,inanimate,A,NULL
1738784013,8bd1c33a009945a307d4777b43c240c3,PennController,8,0,test_ani,NULL,PennController,19,_Trial_,Start,1738783503664,undefined,1451,excrement,animate,inanimate,A,NULL
1738784013,8bd1c33a009945a307d4777b43c240c3,PennController,8,0,test_ani,NULL,PennController,19,_Header_,Start,1738783503664,undefined,1451,excrement,animate,inanimate,A,NULL
1738784013,8bd1c33a009945a307d4777b43c240c3,PennController,8,0,test_ani,NULL,PennController,19,_Header_,End,1738783503918,undefined,1451,excrement,animate,inanimate,A,NULL
1738784013,8bd1c33a009945a307d4777b43c240c3,PennController,8,0,test_ani,NULL,Selector,unnamed-Selector,Selection,inanimate,1738783505879,undefined,1451,excrement,animate,inanimate,A,animate;inanimate
1738784013,8bd1c33a009945a307d4777b43c240c3,PennController,8,0,test_ani,NULL,PennController,19,_Trial_,End,1738783505879,undefined,1451,excrement,animate,inanimate,A,NULL
1738784013,8bd1c33a009945a307d4777b43c240c3,PennController,6,0,test_ani,NULL,PennController,17,_Trial_,Start,1738783505880,undefined,1070,wiretap,animate,inanimate,A,NULL
1738784013,8bd1c33a009945a307d4777b43c240c3,PennController,6,0,test_ani,NULL,PennController,17,_Header_,Start,1738783505880,undefined,1070,wiretap,animate,inanimate,A,NULL
1738784013,8bd1c33a009945a307d4777b43c240c3,PennController,6,0,test_ani,NULL,PennController,17,_Header_,End,1738783506131,undefined,1070,wiretap,animate,inanimate,A,NULL
1738784013,8bd1c33a009945a307d4777b43c240c3,PennController,6,0,test_ani,NULL,Selector,unnamed-Selector,Selection,inanimate,1738783507710,undefined,1070,wiretap,animate,inanimate,A,animate;inanimate
1738784013,8bd1c33a009945a307d4777b43c240c3,PennController,6,0,test_ani,NULL,PennController,17,_Trial_,End,1738783507712,undefined,1070,wiretap,animate,inanimate,A,NULL
1738784013,8bd1c33a009945a307d4777b43c240c3,PennController,4,0,test_ani,NULL,PennController,15,_Trial_,Start,1738783507712,undefined,716,heroin,animate,inanimate,A,NULL
1738784013,8bd1c33a009945a307d4777b43c240c3,PennController,4,0,test_ani,NULL,PennController,15,_Header_,Start,1738783507712,undefined,716,heroin,animate,inanimate,A,NULL
1738784013,8bd1c33a009945a307d4777b43c240c3,PennController,4,0,test_ani,NULL,PennController,15,_Header_,End,1738783507964,undefined,716,heroin,animate,inanimate,A,NULL
1738784013,8bd1c33a009945a307d4777b43c240c3,PennController,4,0,test_ani,NULL,Selector,unnamed-Selector,Selection,inanimate,1738783509190,undefined,716,heroin,animate,inanimate,A,animate;inanimate
1738784013,8bd1c33a009945a307d4777b43c240c3,PennController,4,0,test_ani,NULL,PennController,15,_Trial_,End,1738783509191,undefined,716,heroin,animate,inanimate,A,NULL
1738784013,8bd1c33a009945a307d4777b43c240c3,PennController,15,0,test_ani,NULL,PennController,26,_Trial_,Start,1738783509191,undefined,846,sunshine,animate,inanimate,A,NULL
1738784013,8bd1c33a009945a307d4777b43c240c3,PennController,15,0,test_ani,NULL,PennController,26,_Header_,Start,1738783509191,undefined,846,sunshine,animate,inanimate,A,NULL
1738784013,8bd1c33a009945a307d4777b43c240c3,PennController,15,0,test_ani,NULL,PennController,26,_Header_,End,1738783509451,undefined,846,sunshine,animate,inanimate,A,NULL
1738784013,8bd1c33a009945a307d4777b43c240c3,PennController,15,0,test_ani,NULL,Selector,unnamed-Selector,Selection,inanimate,1738783510807,undefined,846,sunshine,animate,inanimate,A,animate;inanimate
1738784013,8bd1c33a009945a307d4777b43c240c3,PennController,15,0,test_ani,NULL,PennController,26,_Trial_,End,1738783510807,undefined,846,sunshine,animate,inanimate,A,NULL
1738784013,8bd1c33a009945a307d4777b43c240c3,PennController,33,0,test_ani,NULL,PennController,44,_Trial_,Start,1738783510807,undefined,580,mugger,animate,inanimate,A,NULL
1738784013,8bd1c33a009945a307d4777b43c240c3,PennController,33,0,test_ani,NULL,PennController,44,_Header_,Start,1738783510807,undefined,580,mugger,animate,inanimate,A,NULL
1738784013,8bd1c33a009945a307d4777b43c240c3,PennController,33,0,test_ani,NULL,PennController,44,_Header_,End,1738783511062,undefined,580,mugger,animate,inanimate,A,NULL
1738784013,8bd1c33a009945a307d4777b43c240c3,PennController,33,0,test_ani,NULL,Selector,unnamed-Selector,Selection,inanimate,1738783512151,undefined,580,mugger,animate,inanimate,A,animate;inanimate
1738784013,8bd1c33a009945a307d4777b43c240c3,PennController,33,0,test_ani,NULL,PennController,44,_Trial_,End,1738783512152,undefined,580,mugger,animate,inanimate,A,NULL
1738784013,8bd1c33a009945a307d4777b43c240c3,PennController,19,0,test_ani,NULL,PennController,30,_Trial_,Start,1738783512152,undefined,814,feast,animate,inanimate,A,NULL
1738784013,8bd1c33a009945a307d4777b43c240c3,PennController,19,0,test_ani,NULL,PennController,30,_Header_,Start,1738783512152,undefined,814,feast,animate,inanimate,A,NULL
1738784013,8bd1c33a009945a307d4777b43c240c3,PennController,19,0,test_ani,NULL,PennController,30,_Header_,End,1738783512418,undefined,814,feast,animate,inanimate,A,NULL
1738784013,8bd1c33a009945a307d4777b43c240c3,PennController,19,0,test_ani,NULL,Selector,unnamed-Selector,Selection,inanimate,1738783513742,undefined,814,feast,animate,inanimate,A,animate;inanimate
1738784013,8bd1c33a009945a307d4777b43c240c3,PennController,19,0,test_ani,NULL,PennController,30,_Trial_,End,1738783513743,undefined,814,feast,animate,inanimate,A,NULL
1738784013,8bd1c33a009945a307d4777b43c240c3,PennController,31,0,test_ani,NULL,PennController,42,_Trial_,Start,1738783513743,undefined,897,tapeworm,animate,inanimate,A,NULL
1738784013,8bd1c33a009945a307d4777b43c240c3,PennController,31,0,test_ani,NULL,PennController,42,_Header_,Start,1738783513743,undefined,897,tapeworm,animate,inanimate,A,NULL
1738784013,8bd1c33a009945a307d4777b43c240c3,PennController,31,0,test_ani,NULL,PennController,42,_Header_,End,1738783514008,undefined,897,tapeworm,animate,inanimate,A,NULL
1738784013,8bd1c33a009945a307d4777b43c240c3,PennController,31,0,test_ani,NULL,Selector,unnamed-Selector,Selection,animate,1738783515415,undefined,897,tapeworm,animate,inanimate,A,animate;inanimate
1738784013,8bd1c33a009945a307d4777b43c240c3,PennController,31,0,test_ani,NULL,PennController,42,_Trial_,End,1738783515416,undefined,897,tapeworm,animate,inanimate,A,NULL
1738784013,8bd1c33a009945a307d4777b43c240c3,PennController,7,0,test_ani,NULL,PennController,18,_Trial_,Start,1738783515416,undefined,689,cocaine,animate,inanimate,A,NULL
1738784013,8bd1c33a009945a307d4777b43c240c3,PennController,7,0,test_ani,NULL,PennController,18,_Header_,Start,1738783515416,undefined,689,cocaine,animate,inanimate,A,NULL
1738784013,8bd1c33a009945a307d4777b43c240c3,PennController,7,0,test_ani,NULL,PennController,18,_Header_,End,1738783515678,undefined,689,cocaine,animate,inanimate,A,NULL
1738784013,8bd1c33a009945a307d4777b43c240c3,PennController,7,0,test_ani,NULL,Selector,unnamed-Selector,Selection,inanimate,1738783516878,undefined,689,cocaine,animate,inanimate,A,animate;inanimate
1738784013,8bd1c33a009945a307d4777b43c240c3,PennController,7,0,test_ani,NULL,PennController,18,_Trial_,End,1738783516879,undefined,689,cocaine,animate,inanimate,A,NULL
1738784013,8bd1c33a009945a307d4777b43c240c3,PennController,36,0,test_ani,NULL,PennController,47,_Trial_,Start,1738783516879,undefined,735,sibling,animate,inanimate,A,NULL
1738784013,8bd1c33a009945a307d4777b43c240c3,PennController,36,0,test_ani,NULL,PennController,47,_Header_,Start,1738783516879,undefined,735,sibling,animate,inanimate,A,NULL
1738784013,8bd1c33a009945a307d4777b43c240c3,PennController,36,0,test_ani,NULL,PennController,47,_Header_,End,1738783517146,undefined,735,sibling,animate,inanimate,A,NULL
1738784013,8bd1c33a009945a307d4777b43c240c3,PennController,36,0,test_ani,NULL,Selector,unnamed-Selector,Selection,animate,1738783518391,undefined,735,sibling,animate,inanimate,A,animate;inanimate
1738784013,8bd1c33a009945a307d4777b43c240c3,PennController,36,0,test_ani,NULL,PennController,47,_Trial_,End,1738783518391,undefined,735,sibling,animate,inanimate,A,NULL
1738784013,8bd1c33a009945a307d4777b43c240c3,PennController,10,0,test_ani,NULL,PennController,21,_Trial_,Start,1738783518391,undefined,706,gunshot,animate,inanimate,A,NULL
1738784013,8bd1c33a009945a307d4777b43c240c3,PennController,10,0,test_ani,NULL,PennController,21,_Header_,Start,1738783518391,undefined,706,gunshot,animate,inanimate,A,NULL
1738784013,8bd1c33a009945a307d4777b43c240c3,PennController,10,0,test_ani,NULL,PennController,21,_Header_,End,1738783518655,undefined,706,gunshot,animate,inanimate,A,NULL
1738784013,8bd1c33a009945a307d4777b43c240c3,PennController,10,0,test_ani,NULL,Selector,unnamed-Selector,Selection,inanimate,1738783519871,undefined,706,gunshot,animate,inanimate,A,animate;inanimate
1738784013,8bd1c33a009945a307d4777b43c240c3,PennController,10,0,test_ani,NULL,PennController,21,_Trial_,End,1738783519871,undefined,706,gunshot,animate,inanimate,A,NULL
1738784013,8bd1c33a009945a307d4777b43c240c3,PennController,20,0,test_ani,NULL,PennController,31,_Trial_,Start,1738783519871,undefined,642,doughnut,animate,inanimate,A,NULL
1738784013,8bd1c33a009945a307d4777b43c240c3,PennController,20,0,test_ani,NULL,PennController,31,_Header_,Start,1738783519871,undefined,642,doughnut,animate,inanimate,A,NULL
1738784013,8bd1c33a009945a307d4777b43c240c3,PennController,20,0,test_ani,NULL,PennController,31,_Header_,End,1738783520124,undefined,642,doughnut,animate,inanimate,A,NULL
1738784013,8bd1c33a009945a307d4777b43c240c3,PennController,20,0,test_ani,NULL,Selector,unnamed-Selector,Selection,inanimate,1738783521279,undefined,642,doughnut,animate,inanimate,A,animate;inanimate
1738784013,8bd1c33a009945a307d4777b43c240c3,PennController,20,0,test_ani,NULL,PennController,31,_Trial_,End,1738783521279,undefined,642,doughnut,animate,inanimate,A,NULL
1738784013,8bd1c33a009945a307d4777b43c240c3,PennController,14,0,test_ani,NULL,PennController,25,_Trial_,Start,1738783521280,undefined,620,prize,animate,inanimate,A,NULL
1738784013,8bd1c33a009945a307d4777b43c240c3,PennController,14,0,test_ani,NULL,PennController,25,_Header_,Start,1738783521280,undefined,620,prize,animate,inanimate,A,NULL
1738784013,8bd1c33a009945a307d4777b43c240c3,PennController,14,0,test_ani,NULL,PennController,25,_Header_,End,1738783521542,undefined,620,prize,animate,inanimate,A,NULL
1738784013,8bd1c33a009945a307d4777b43c240c3,PennController,14,0,test_ani,NULL,Selector,unnamed-Selector,Selection,inanimate,1738783522670,undefined,620,prize,animate,inanimate,A,animate;inanimate
1738784013,8bd1c33a009945a307d4777b43c240c3,PennController,14,0,test_ani,NULL,PennController,25,_Trial_,End,1738783522671,undefined,620,prize,animate,inanimate,A,NULL
1738784013,8bd1c33a009945a307d4777b43c240c3,PennController,23,0,test_ani,NULL,PennController,34,_Trial_,Start,1738783522671,undefined,505,meadow,animate,inanimate,A,NULL
1738784013,8bd1c33a009945a307d4777b43c240c3,PennController,23,0,test_ani,NULL,PennController,34,_Header_,Start,1738783522671,undefined,505,meadow,animate,inanimate,A,NULL
1738784013,8bd1c33a009945a307d4777b43c240c3,PennController,23,0,test_ani,NULL,PennController,34,_Header_,End,1738783522932,undefined,505,meadow,animate,inanimate,A,NULL
1738784013,8bd1c33a009945a307d4777b43c240c3,PennController,23,0,test_ani,NULL,Selector,unnamed-Selector,Selection,inanimate,1738783523951,undefined,505,meadow,animate,inanimate,A,animate;inanimate
1738784013,8bd1c33a009945a307d4777b43c240c3,PennController,23,0,test_ani,NULL,PennController,34,_Trial_,End,1738783523951,undefined,505,meadow,animate,inanimate,A,NULL
1738784013,8bd1c33a009945a307d4777b43c240c3,PennController,42,0,test_ani,NULL,PennController,53,_Trial_,Start,1738783523952,undefined,747,chipmunk,animate,inanimate,A,NULL
1738784013,8bd1c33a009945a307d4777b43c240c3,PennController,42,0,test_ani,NULL,PennController,53,_Header_,Start,1738783523952,undefined,747,chipmunk,animate,inanimate,A,NULL
1738784013,8bd1c33a009945a307d4777b43c240c3,PennController,42,0,test_ani,NULL,PennController,53,_Header_,End,1738783524206,undefined,747,chipmunk,animate,inanimate,A,NULL
1738784013,8bd1c33a009945a307d4777b43c240c3,PennController,42,0,test_ani,NULL,Selector,unnamed-Selector,Selection,animate,1738783525454,undefined,747,chipmunk,animate,inanimate,A,animate;inanimate
1738784013,8bd1c33a009945a307d4777b43c240c3,PennController,42,0,test_ani,NULL,PennController,53,_Trial_,End,1738783525455,undefined,747,chipmunk,animate,inanimate,A,NULL
1738784013,8bd1c33a009945a307d4777b43c240c3,PennController,38,0,test_ani,NULL,PennController,49,_Trial_,Start,1738783525455,undefined,629,kitten,animate,inanimate,A,NULL
1738784013,8bd1c33a009945a307d4777b43c240c3,PennController,38,0,test_ani,NULL,PennController,49,_Header_,Start,1738783525455,undefined,629,kitten,animate,inanimate,A,NULL
1738784013,8bd1c33a009945a307d4777b43c240c3,PennController,38,0,test_ani,NULL,PennController,49,_Header_,End,1738783525708,undefined,629,kitten,animate,inanimate,A,NULL
1738784013,8bd1c33a009945a307d4777b43c240c3,PennController,38,0,test_ani,NULL,Selector,unnamed-Selector,Selection,animate,1738783526847,undefined,629,kitten,animate,inanimate,A,animate;inanimate
1738784013,8bd1c33a009945a307d4777b43c240c3,PennController,38,0,test_ani,NULL,PennController,49,_Trial_,End,1738783526848,undefined,629,kitten,animate,inanimate,A,NULL
1738784013,8bd1c33a009945a307d4777b43c240c3,PennController,28,0,test_ani,NULL,PennController,39,_Trial_,Start,1738783526848,undefined,1181,inmate,animate,inanimate,A,NULL
1738784013,8bd1c33a009945a307d4777b43c240c3,PennController,28,0,test_ani,NULL,PennController,39,_Header_,Start,1738783526848,undefined,1181,inmate,animate,inanimate,A,NULL
1738784013,8bd1c33a009945a307d4777b43c240c3,PennController,28,0,test_ani,NULL,PennController,39,_Header_,End,1738783527109,undefined,1181,inmate,animate,inanimate,A,NULL
1738784013,8bd1c33a009945a307d4777b43c240c3,PennController,28,0,test_ani,NULL,Selector,unnamed-Selector,Selection,inanimate,1738783528799,undefined,1181,inmate,animate,inanimate,A,animate;inanimate
1738784013,8bd1c33a009945a307d4777b43c240c3,PennController,28,0,test_ani,NULL,PennController,39,_Trial_,End,1738783528800,undefined,1181,inmate,animate,inanimate,A,NULL
1738784013,8bd1c33a009945a307d4777b43c240c3,PennController,24,0,test_ani,NULL,PennController,35,_Trial_,Start,1738783528800,undefined,875,slave,animate,inanimate,A,NULL
1738784013,8bd1c33a009945a307d4777b43c240c3,PennController,24,0,test_ani,NULL,PennController,35,_Header_,Start,1738783528800,undefined,875,slave,animate,inanimate,A,NULL
1738784013,8bd1c33a009945a307d4777b43c240c3,PennController,24,0,test_ani,NULL,PennController,35,_Header_,End,1738783529057,undefined,875,slave,animate,inanimate,A,NULL
1738784013,8bd1c33a009945a307d4777b43c240c3,PennController,24,0,test_ani,NULL,Selector,unnamed-Selector,Selection,animate,1738783530439,undefined,875,slave,animate,inanimate,A,animate;inanimate
1738784013,8bd1c33a009945a307d4777b43c240c3,PennController,24,0,test_ani,NULL,PennController,35,_Trial_,End,1738783530439,undefined,875,slave,animate,inanimate,A,NULL
1738784013,8bd1c33a009945a307d4777b43c240c3,PennController,27,0,test_ani,NULL,PennController,38,_Trial_,Start,1738783530440,undefined,650,widow,animate,inanimate,A,NULL
1738784013,8bd1c33a009945a307d4777b43c240c3,PennController,27,0,test_ani,NULL,PennController,38,_Header_,Start,1738783530440,undefined,650,widow,animate,inanimate,A,NULL
1738784013,8bd1c33a009945a307d4777b43c240c3,PennController,27,0,test_ani,NULL,PennController,38,_Header_,End,1738783530691,undefined,650,widow,animate,inanimate,A,NULL
1738784013,8bd1c33a009945a307d4777b43c240c3,PennController,27,0,test_ani,NULL,Selector,unnamed-Selector,Selection,animate,1738783531855,undefined,650,widow,animate,inanimate,A,animate;inanimate
1738784013,8bd1c33a009945a307d4777b43c240c3,PennController,27,0,test_ani,NULL,PennController,38,_Trial_,End,1738783531855,undefined,650,widow,animate,inanimate,A,NULL
1738784013,8bd1c33a009945a307d4777b43c240c3,PennController,29,0,test_ani,NULL,PennController,40,_Trial_,Start,1738783531856,undefined,983,dictator,animate,inanimate,A,NULL
1738784013,8bd1c33a009945a307d4777b43c240c3,PennController,29,0,test_ani,NULL,PennController,40,_Header_,Start,1738783531856,undefined,983,dictator,animate,inanimate,A,NULL
1738784013,8bd1c33a009945a307d4777b43c240c3,PennController,29,0,test_ani,NULL,PennController,40,_Header_,End,1738783532117,undefined,983,dictator,animate,inanimate,A,NULL
1738784013,8bd1c33a009945a307d4777b43c240c3,PennController,29,0,test_ani,NULL,Selector,unnamed-Selector,Selection,animate,1738783533607,undefined,983,dictator,animate,inanimate,A,animate;inanimate
1738784013,8bd1c33a009945a307d4777b43c240c3,PennController,29,0,test_ani,NULL,PennController,40,_Trial_,End,1738783533608,undefined,983,dictator,animate,inanimate,A,NULL
1738784013,8bd1c33a009945a307d4777b43c240c3,PennController,22,0,test_ani,NULL,PennController,33,_Trial_,Start,1738783533608,undefined,690,sandwich,animate,inanimate,A,NULL
1738784013,8bd1c33a009945a307d4777b43c240c3,PennController,22,0,test_ani,NULL,PennController,33,_Header_,Start,1738783533608,undefined,690,sandwich,animate,inanimate,A,NULL
1738784013,8bd1c33a009945a307d4777b43c240c3,PennController,22,0,test_ani,NULL,PennController,33,_Header_,End,1738783533861,undefined,690,sandwich,animate,inanimate,A,NULL
1738784013,8bd1c33a009945a307d4777b43c240c3,PennController,22,0,test_ani,NULL,Selector,unnamed-Selector,Selection,inanimate,1738783535062,undefined,690,sandwich,animate,inanimate,A,animate;inanimate
1738784013,8bd1c33a009945a307d4777b43c240c3,PennController,22,0,test_ani,NULL,PennController,33,_Trial_,End,1738783535063,undefined,690,sandwich,animate,inanimate,A,NULL
1738784013,8bd1c33a009945a307d4777b43c240c3,PennController,21,0,test_ani,NULL,PennController,32,_Trial_,Start,1738783535063,undefined,1252,dollar,animate,inanimate,A,NULL
1738784013,8bd1c33a009945a307d4777b43c240c3,PennController,21,0,test_ani,NULL,PennController,32,_Header_,Start,1738783535063,undefined,1252,dollar,animate,inanimate,A,NULL
1738784013,8bd1c33a009945a307d4777b43c240c3,PennController,21,0,test_ani,NULL,PennController,32,_Header_,End,1738783535328,undefined,1252,dollar,animate,inanimate,A,NULL
1738784013,8bd1c33a009945a307d4777b43c240c3,PennController,21,0,test_ani,NULL,Selector,unnamed-Selector,Selection,inanimate,1738783537094,undefined,1252,dollar,animate,inanimate,A,animate;inanimate
1738784013,8bd1c33a009945a307d4777b43c240c3,PennController,21,0,test_ani,NULL,PennController,32,_Trial_,End,1738783537095,undefined,1252,dollar,animate,inanimate,A,NULL
1738784013,8bd1c33a009945a307d4777b43c240c3,PennController,16,0,test_ani,NULL,PennController,27,_Trial_,Start,1738783537095,undefined,928,award,animate,inanimate,A,NULL
1738784013,8bd1c33a009945a307d4777b43c240c3,PennController,16,0,test_ani,NULL,PennController,27,_Header_,Start,1738783537095,undefined,928,award,animate,inanimate,A,NULL
1738784013,8bd1c33a009945a307d4777b43c240c3,PennController,16,0,test_ani,NULL,PennController,27,_Header_,End,1738783537353,undefined,928,award,animate,inanimate,A,NULL
1738784013,8bd1c33a009945a307d4777b43c240c3,PennController,16,0,test_ani,NULL,Selector,unnamed-Selector,Selection,inanimate,1738783538782,undefined,928,award,animate,inanimate,A,animate;inanimate
1738784013,8bd1c33a009945a307d4777b43c240c3,PennController,16,0,test_ani,NULL,PennController,27,_Trial_,End,1738783538783,undefined,928,award,animate,inanimate,A,NULL
1738784013,8bd1c33a009945a307d4777b43c240c3,PennController,26,0,test_ani,NULL,PennController,37,_Trial_,Start,1738783538783,undefined,877,maggot,animate,inanimate,A,NULL
1738784013,8bd1c33a009945a307d4777b43c240c3,PennController,26,0,test_ani,NULL,PennController,37,_Header_,Start,1738783538783,undefined,877,maggot,animate,inanimate,A,NULL
1738784013,8bd1c33a009945a307d4777b43c240c3,PennController,26,0,test_ani,NULL,PennController,37,_Header_,End,1738783539037,undefined,877,maggot,animate,inanimate,A,NULL
1738784013,8bd1c33a009945a307d4777b43c240c3,PennController,26,0,test_ani,NULL,Selector,unnamed-Selector,Selection,animate,1738783540423,undefined,877,maggot,animate,inanimate,A,animate;inanimate
1738784013,8bd1c33a009945a307d4777b43c240c3,PennController,26,0,test_ani,NULL,PennController,37,_Trial_,End,1738783540423,undefined,877,maggot,animate,inanimate,A,NULL
1738784013,8bd1c33a009945a307d4777b43c240c3,PennController,37,0,test_ani,NULL,PennController,48,_Trial_,Start,1738783540424,undefined,718,duckling,animate,inanimate,A,NULL
1738784013,8bd1c33a009945a307d4777b43c240c3,PennController,37,0,test_ani,NULL,PennController,48,_Header_,Start,1738783540424,undefined,718,duckling,animate,inanimate,A,NULL
1738784013,8bd1c33a009945a307d4777b43c240c3,PennController,37,0,test_ani,NULL,PennController,48,_Header_,End,1738783540680,undefined,718,duckling,animate,inanimate,A,NULL
1738784013,8bd1c33a009945a307d4777b43c240c3,PennController,37,0,test_ani,NULL,Selector,unnamed-Selector,Selection,animate,1738783541903,undefined,718,duckling,animate,inanimate,A,animate;inanimate
1738784013,8bd1c33a009945a307d4777b43c240c3,PennController,37,0,test_ani,NULL,PennController,48,_Trial_,End,1738783541904,undefined,718,duckling,animate,inanimate,A,NULL
1738784013,8bd1c33a009945a307d4777b43c240c3,PennController,39,0,test_ani,NULL,PennController,50,_Trial_,Start,1738783541904,undefined,499,bunny,animate,inanimate,A,NULL
1738784013,8bd1c33a009945a307d4777b43c240c3,PennController,39,0,test_ani,NULL,PennController,50,_Header_,Start,1738783541904,undefined,499,bunny,animate,inanimate,A,NULL
1738784013,8bd1c33a009945a307d4777b43c240c3,PennController,39,0,test_ani,NULL,PennController,50,_Header_,End,1738783542161,undefined,499,bunny,animate,inanimate,A,NULL
1738784013,8bd1c33a009945a307d4777b43c240c3,PennController,39,0,test_ani,NULL,Selector,unnamed-Selector,Selection,animate,1738783543175,undefined,499,bunny,animate,inanimate,A,animate;inanimate
1738784013,8bd1c33a009945a307d4777b43c240c3,PennController,39,0,test_ani,NULL,PennController,50,_Trial_,End,1738783543175,undefined,499,bunny,animate,inanimate,A,NULL
1738784013,8bd1c33a009945a307d4777b43c240c3,PennController,8,0,test_ani,NULL,PennController,19,_Trial_,Start,1738783543176,undefined,966,excrement,animate,inanimate,A,NULL
1738784013,8bd1c33a009945a307d4777b43c240c3,PennController,8,0,test_ani,NULL,PennController,19,_Header_,Start,1738783543176,undefined,966,excrement,animate,inanimate,A,NULL
1738784013,8bd1c33a009945a307d4777b43c240c3,PennController,8,0,test_ani,NULL,PennController,19,_Header_,End,1738783543433,undefined,966,excrement,animate,inanimate,A,NULL
1738784013,8bd1c33a009945a307d4777b43c240c3,PennController,8,0,test_ani,NULL,Selector,unnamed-Selector,Selection,inanimate,1738783544911,undefined,966,excrement,animate,inanimate,A,animate;inanimate
1738784013,8bd1c33a009945a307d4777b43c240c3,PennController,8,0,test_ani,NULL,PennController,19,_Trial_,End,1738783544911,undefined,966,excrement,animate,inanimate,A,NULL
1738784013,8bd1c33a009945a307d4777b43c240c3,PennController,17,0,test_ani,NULL,PennController,28,_Trial_,Start,1738783544912,undefined,701,pizza,animate,inanimate,A,NULL
1738784013,8bd1c33a009945a307d4777b43c240c3,PennController,17,0,test_ani,NULL,PennController,28,_Header_,Start,1738783544912,undefined,701,pizza,animate,inanimate,A,NULL
1738784013,8bd1c33a009945a307d4777b43c240c3,PennController,17,0,test_ani,NULL,PennController,28,_Header_,End,1738783545169,undefined,701,pizza,animate,inanimate,A,NULL
1738784013,8bd1c33a009945a307d4777b43c240c3,PennController,17,0,test_ani,NULL,Selector,unnamed-Selector,Selection,inanimate,1738783546383,undefined,701,pizza,animate,inanimate,A,animate;inanimate
1738784013,8bd1c33a009945a307d4777b43c240c3,PennController,17,0,test_ani,NULL,PennController,28,_Trial_,End,1738783546383,undefined,701,pizza,animate,inanimate,A,NULL
1738784013,8bd1c33a009945a307d4777b43c240c3,PennController,31,0,test_ani,NULL,PennController,42,_Trial_,Start,1738783546384,undefined,672,tapeworm,animate,inanimate,A,NULL
1738784013,8bd1c33a009945a307d4777b43c240c3,PennController,31,0,test_ani,NULL,PennController,42,_Header_,Start,1738783546384,undefined,672,tapeworm,animate,inanimate,A,NULL
1738784013,8bd1c33a009945a307d4777b43c240c3,PennController,31,0,test_ani,NULL,PennController,42,_Header_,End,1738783546638,undefined,672,tapeworm,animate,inanimate,A,NULL
1738784013,8bd1c33a009945a307d4777b43c240c3,PennController,31,0,test_ani,NULL,Selector,unnamed-Selector,Selection,animate,1738783547822,undefined,672,tapeworm,animate,inanimate,A,animate;inanimate
1738784013,8bd1c33a009945a307d4777b43c240c3,PennController,31,0,test_ani,NULL,PennController,42,_Trial_,End,1738783547823,undefined,672,tapeworm,animate,inanimate,A,NULL
1738784013,8bd1c33a009945a307d4777b43c240c3,PennController,24,0,test_ani,NULL,PennController,35,_Trial_,Start,1738783547823,undefined,679,slave,animate,inanimate,A,NULL
1738784013,8bd1c33a009945a307d4777b43c240c3,PennController,24,0,test_ani,NULL,PennController,35,_Header_,Start,1738783547823,undefined,679,slave,animate,inanimate,A,NULL
1738784013,8bd1c33a009945a307d4777b43c240c3,PennController,24,0,test_ani,NULL,PennController,35,_Header_,End,1738783548081,undefined,679,slave,animate,inanimate,A,NULL
1738784013,8bd1c33a009945a307d4777b43c240c3,PennController,24,0,test_ani,NULL,Selector,unnamed-Selector,Selection,animate,1738783549270,undefined,679,slave,animate,inanimate,A,animate;inanimate
1738784013,8bd1c33a009945a307d4777b43c240c3,PennController,24,0,test_ani,NULL,PennController,35,_Trial_,End,1738783549271,undefined,679,slave,animate,inanimate,A,NULL
1738784013,8bd1c33a009945a307d4777b43c240c3,PennController,15,0,test_ani,NULL,PennController,26,_Trial_,Start,1738783549271,undefined,831,sunshine,animate,inanimate,A,NULL
1738784013,8bd1c33a009945a307d4777b43c240c3,PennController,15,0,test_ani,NULL,PennController,26,_Header_,Start,1738783549271,undefined,831,sunshine,animate,inanimate,A,NULL
1738784013,8bd1c33a009945a307d4777b43c240c3,PennController,15,0,test_ani,NULL,PennController,26,_Header_,End,1738783549535,undefined,831,sunshine,animate,inanimate,A,NULL
1738784013,8bd1c33a009945a307d4777b43c240c3,PennController,15,0,test_ani,NULL,Selector,unnamed-Selector,Selection,animate,1738783550870,undefined,831,sunshine,animate,inanimate,A,animate;inanimate
1738784013,8bd1c33a009945a307d4777b43c240c3,PennController,15,0,test_ani,NULL,PennController,26,_Trial_,End,1738783550871,undefined,831,sunshine,animate,inanimate,A,NULL
1738784013,8bd1c33a009945a307d4777b43c240c3,PennController,12,0,test_ani,NULL,PennController,23,_Trial_,Start,1738783550871,undefined,848,smallpox,animate,inanimate,A,NULL
1738784013,8bd1c33a009945a307d4777b43c240c3,PennController,12,0,test_ani,NULL,PennController,23,_Header_,Start,1738783550871,undefined,848,smallpox,animate,inanimate,A,NULL
1738784013,8bd1c33a009945a307d4777b43c240c3,PennController,12,0,test_ani,NULL,PennController,23,_Header_,End,1738783551121,undefined,848,smallpox,animate,inanimate,A,NULL
1738784013,8bd1c33a009945a307d4777b43c240c3,PennController,12,0,test_ani,NULL,Selector,unnamed-Selector,Selection,inanimate,1738783552479,undefined,848,smallpox,animate,inanimate,A,animate;inanimate
1738784013,8bd1c33a009945a307d4777b43c240c3,PennController,12,0,test_ani,NULL,PennController,23,_Trial_,End,1738783552479,undefined,848,smallpox,animate,inanimate,A,NULL
1738784013,8bd1c33a009945a307d4777b43c240c3,PennController,34,0,test_ani,NULL,PennController,45,_Trial_,Start,1738783552479,undefined,701,comedian,animate,inanimate,A,NULL
1738784013,8bd1c33a009945a307d4777b43c240c3,PennController,34,0,test_ani,NULL,PennController,45,_Header_,Start,1738783552479,undefined,701,comedian,animate,inanimate,A,NULL
1738784013,8bd1c33a009945a307d4777b43c240c3,PennController,34,0,test_ani,NULL,PennController,45,_Header_,End,1738783552741,undefined,701,comedian,animate,inanimate,A,NULL
1738784013,8bd1c33a009945a307d4777b43c240c3,PennController,34,0,test_ani,NULL,Selector,unnamed-Selector,Selection,animate,1738783553951,undefined,701,comedian,animate,inanimate,A,animate;inanimate
1738784013,8bd1c33a009945a307d4777b43c240c3,PennController,34,0,test_ani,NULL,PennController,45,_Trial_,End,1738783553951,undefined,701,comedian,animate,inanimate,A,NULL
1738784013,8bd1c33a009945a307d4777b43c240c3,PennController,35,0,test_ani,NULL,PennController,46,_Trial_,Start,1738783553952,undefined,718,puppy,animate,inanimate,A,NULL
1738784013,8bd1c33a009945a307d4777b43c240c3,PennController,35,0,test_ani,NULL,PennController,46,_Header_,Start,1738783553952,undefined,718,puppy,animate,inanimate,A,NULL
1738784013,8bd1c33a009945a307d4777b43c240c3,PennController,35,0,test_ani,NULL,PennController,46,_Header_,End,1738783554219,undefined,718,puppy,animate,inanimate,A,NULL
1738784013,8bd1c33a009945a307d4777b43c240c3,PennController,35,0,test_ani,NULL,Selector,unnamed-Selector,Selection,animate,1738783555446,undefined,718,puppy,animate,inanimate,A,animate;inanimate
1738784013,8bd1c33a009945a307d4777b43c240c3,PennController,35,0,test_ani,NULL,PennController,46,_Trial_,End,1738783555447,undefined,718,puppy,animate,inanimate,A,NULL
1738784013,8bd1c33a009945a307d4777b43c240c3,PennController,9,0,test_ani,NULL,PennController,20,_Trial_,Start,1738783555447,undefined,710,poison,animate,inanimate,A,NULL
1738784013,8bd1c33a009945a307d4777b43c240c3,PennController,9,0,test_ani,NULL,PennController,20,_Header_,Start,1738783555447,undefined,710,poison,animate,inanimate,A,NULL
1738784013,8bd1c33a009945a307d4777b43c240c3,PennController,9,0,test_ani,NULL,PennController,20,_Header_,End,1738783555706,undefined,710,poison,animate,inanimate,A,NULL
1738784013,8bd1c33a009945a307d4777b43c240c3,PennController,9,0,test_ani,NULL,Selector,unnamed-Selector,Selection,inanimate,1738783556927,undefined,710,poison,animate,inanimate,A,animate;inanimate
1738784013,8bd1c33a009945a307d4777b43c240c3,PennController,9,0,test_ani,NULL,PennController,20,_Trial_,End,1738783556927,undefined,710,poison,animate,inanimate,A,NULL
1738784013,8bd1c33a009945a307d4777b43c240c3,PennController,41,0,test_ani,NULL,PennController,52,_Trial_,Start,1738783556928,undefined,833,princess,animate,inanimate,A,NULL
1738784013,8bd1c33a009945a307d4777b43c240c3,PennController,41,0,test_ani,NULL,PennController,52,_Header_,Start,1738783556928,undefined,833,princess,animate,inanimate,A,NULL
1738784013,8bd1c33a009945a307d4777b43c240c3,PennController,41,0,test_ani,NULL,PennController,52,_Header_,End,1738783557184,undefined,833,princess,animate,inanimate,A,NULL
1738784013,8bd1c33a009945a307d4777b43c240c3,PennController,41,0,test_ani,NULL,Selector,unnamed-Selector,Selection,animate,1738783558526,undefined,833,princess,animate,inanimate,A,animate;inanimate
1738784013,8bd1c33a009945a307d4777b43c240c3,PennController,41,0,test_ani,NULL,PennController,52,_Trial_,End,1738783558527,undefined,833,princess,animate,inanimate,A,NULL
1738784013,8bd1c33a009945a307d4777b43c240c3,PennController,11,0,test_ani,NULL,PennController,22,_Trial_,Start,1738783558527,undefined,912,flood,animate,inanimate,A,NULL
1738784013,8bd1c33a009945a307d4777b43c240c3,PennController,11,0,test_ani,NULL,PennController,22,_Header_,Start,1738783558527,undefined,912,flood,animate,inanimate,A,NULL
1738784013,8bd1c33a009945a307d4777b43c240c3,PennController,11,0,test_ani,NULL,PennController,22,_Header_,End,1738783558793,undefined,912,flood,animate,inanimate,A,NULL
1738784013,8bd1c33a009945a307d4777b43c240c3,PennController,11,0,test_ani,NULL,Selector,unnamed-Selector,Selection,inanimate,1738783560215,undefined,912,flood,animate,inanimate,A,animate;inanimate
1738784013,8bd1c33a009945a307d4777b43c240c3,PennController,11,0,test_ani,NULL,PennController,22,_Trial_,End,1738783560215,undefined,912,flood,animate,inanimate,A,NULL
1738784013,8bd1c33a009945a307d4777b43c240c3,PennController,30,0,test_ani,NULL,PennController,41,_Trial_,Start,1738783560216,undefined,765,leech,animate,inanimate,A,NULL
1738784013,8bd1c33a009945a307d4777b43c240c3,PennController,30,0,test_ani,NULL,PennController,41,_Header_,Start,1738783560216,undefined,765,leech,animate,inanimate,A,NULL
1738784013,8bd1c33a009945a307d4777b43c240c3,PennController,30,0,test_ani,NULL,PennController,41,_Header_,End,1738783560485,undefined,765,leech,animate,inanimate,A,NULL
1738784013,8bd1c33a009945a307d4777b43c240c3,PennController,30,0,test_ani,NULL,Selector,unnamed-Selector,Selection,animate,1738783561750,undefined,765,leech,animate,inanimate,A,animate;inanimate
1738784013,8bd1c33a009945a307d4777b43c240c3,PennController,30,0,test_ani,NULL,PennController,41,_Trial_,End,1738783561751,undefined,765,leech,animate,inanimate,A,NULL
1738784013,8bd1c33a009945a307d4777b43c240c3,PennController,20,0,test_ani,NULL,PennController,31,_Trial_,Start,1738783561751,undefined,753,doughnut,animate,inanimate,A,NULL
1738784013,8bd1c33a009945a307d4777b43c240c3,PennController,20,0,test_ani,NULL,PennController,31,_Header_,Start,1738783561751,undefined,753,doughnut,animate,inanimate,A,NULL
1738784013,8bd1c33a009945a307d4777b43c240c3,PennController,20,0,test_ani,NULL,PennController,31,_Header_,End,1738783562004,undefined,753,doughnut,animate,inanimate,A,NULL
1738784013,8bd1c33a009945a307d4777b43c240c3,PennController,20,0,test_ani,NULL,Selector,unnamed-Selector,Selection,inanimate,1738783563262,undefined,753,doughnut,animate,inanimate,A,animate;inanimate
1738784013,8bd1c33a009945a307d4777b43c240c3,PennController,20,0,test_ani,NULL,PennController,31,_Trial_,End,1738783563263,undefined,753,doughnut,animate,inanimate,A,NULL
1738784013,8bd1c33a009945a307d4777b43c240c3,PennController,40,0,test_ani,NULL,PennController,51,_Trial_,Start,1738783563263,undefined,624,child,animate,inanimate,A,NULL
1738784013,8bd1c33a009945a307d4777b43c240c3,PennController,40,0,test_ani,NULL,PennController,51,_Header_,Start,1738783563263,undefined,624,child,animate,inanimate,A,NULL
1738784013,8bd1c33a009945a307d4777b43c240c3,PennController,40,0,test_ani,NULL,PennController,51,_Header_,End,1738783563530,undefined,624,child,animate,inanimate,A,NULL
1738784013,8bd1c33a009945a307d4777b43c240c3,PennController,40,0,test_ani,NULL,Selector,unnamed-Selector,Selection,animate,1738783564654,undefined,624,child,animate,inanimate,A,animate;inanimate
1738784013,8bd1c33a009945a307d4777b43c240c3,PennController,40,0,test_ani,NULL,PennController,51,_Trial_,End,1738783564655,undefined,624,child,animate,inanimate,A,NULL
1738784013,8bd1c33a009945a307d4777b43c240c3,PennController,7,0,test_ani,NULL,PennController,18,_Trial_,Start,1738783564655,undefined,837,cocaine,animate,inanimate,A,NULL
1738784013,8bd1c33a009945a307d4777b43c240c3,PennController,7,0,test_ani,NULL,PennController,18,_Header_,Start,1738783564655,undefined,837,cocaine,animate,inanimate,A,NULL
1738784013,8bd1c33a009945a307d4777b43c240c3,PennController,7,0,test_ani,NULL,PennController,18,_Header_,End,1738783564912,undefined,837,cocaine,animate,inanimate,A,NULL
1738784013,8bd1c33a009945a307d4777b43c240c3,PennController,7,0,test_ani,NULL,Selector,unnamed-Selector,Selection,inanimate,1738783566254,undefined,837,cocaine,animate,inanimate,A,animate;inanimate
1738784013,8bd1c33a009945a307d4777b43c240c3,PennController,7,0,test_ani,NULL,PennController,18,_Trial_,End,1738783566254,undefined,837,cocaine,animate,inanimate,A,NULL
1738784013,8bd1c33a009945a307d4777b43c240c3,PennController,10,0,test_ani,NULL,PennController,21,_Trial_,Start,1738783566255,undefined,817,gunshot,animate,inanimate,A,NULL
1738784013,8bd1c33a009945a307d4777b43c240c3,PennController,10,0,test_ani,NULL,PennController,21,_Header_,Start,1738783566255,undefined,817,gunshot,animate,inanimate,A,NULL
1738784013,8bd1c33a009945a307d4777b43c240c3,PennController,10,0,test_ani,NULL,PennController,21,_Header_,End,1738783566518,undefined,817,gunshot,animate,inanimate,A,NULL
1738784013,8bd1c33a009945a307d4777b43c240c3,PennController,10,0,test_ani,NULL,Selector,unnamed-Selector,Selection,inanimate,1738783567846,undefined,817,gunshot,animate,inanimate,A,animate;inanimate
1738784013,8bd1c33a009945a307d4777b43c240c3,PennController,10,0,test_ani,NULL,PennController,21,_Trial_,End,1738783567848,undefined,817,gunshot,animate,inanimate,A,NULL
1738784013,8bd1c33a009945a307d4777b43c240c3,PennController,42,0,test_ani,NULL,PennController,53,_Trial_,Start,1738783567848,undefined,745,chipmunk,animate,inanimate,A,NULL
1738784013,8bd1c33a009945a307d4777b43c240c3,PennController,42,0,test_ani,NULL,PennController,53,_Header_,Start,1738783567848,undefined,745,chipmunk,animate,inanimate,A,NULL
1738784013,8bd1c33a009945a307d4777b43c240c3,PennController,42,0,test_ani,NULL,PennController,53,_Header_,End,1738783568111,undefined,745,chipmunk,animate,inanimate,A,NULL
1738784013,8bd1c33a009945a307d4777b43c240c3,PennController,42,0,test_ani,NULL,Selector,unnamed-Selector,Selection,animate,1738783569359,undefined,745,chipmunk,animate,inanimate,A,animate;inanimate
1738784013,8bd1c33a009945a307d4777b43c240c3,PennController,42,0,test_ani,NULL,PennController,53,_Trial_,End,1738783569359,undefined,745,chipmunk,animate,inanimate,A,NULL
1738784013,8bd1c33a009945a307d4777b43c240c3,PennController,28,0,test_ani,NULL,PennController,39,_Trial_,Start,1738783569360,undefined,885,inmate,animate,inanimate,A,NULL
1738784013,8bd1c33a009945a307d4777b43c240c3,PennController,28,0,test_ani,NULL,PennController,39,_Header_,Start,1738783569360,undefined,885,inmate,animate,inanimate,A,NULL
1738784013,8bd1c33a009945a307d4777b43c240c3,PennController,28,0,test_ani,NULL,PennController,39,_Header_,End,1738783569612,undefined,885,inmate,animate,inanimate,A,NULL
1738784013,8bd1c33a009945a307d4777b43c240c3,PennController,28,0,test_ani,NULL,Selector,unnamed-Selector,Selection,animate,1738783570999,undefined,885,inmate,animate,inanimate,A,animate;inanimate
1738784013,8bd1c33a009945a307d4777b43c240c3,PennController,28,0,test_ani,NULL,PennController,39,_Trial_,End,1738783570999,undefined,885,inmate,animate,inanimate,A,NULL
1738784013,8bd1c33a009945a307d4777b43c240c3,PennController,14,0,test_ani,NULL,PennController,25,_Trial_,Start,1738783571000,undefined,816,prize,animate,inanimate,A,NULL
1738784013,8bd1c33a009945a307d4777b43c240c3,PennController,14,0,test_ani,NULL,PennController,25,_Header_,Start,1738783571000,undefined,816,prize,animate,inanimate,A,NULL
1738784013,8bd1c33a009945a307d4777b43c240c3,PennController,14,0,test_ani,NULL,PennController,25,_Header_,End,1738783571256,undefined,816,prize,animate,inanimate,A,NULL
1738784013,8bd1c33a009945a307d4777b43c240c3,PennController,14,0,test_ani,NULL,Selector,unnamed-Selector,Selection,inanimate,1738783572574,undefined,816,prize,animate,inanimate,A,animate;inanimate
1738784013,8bd1c33a009945a307d4777b43c240c3,PennController,14,0,test_ani,NULL,PennController,25,_Trial_,End,1738783572575,undefined,816,prize,animate,inanimate,A,NULL
1738784013,8bd1c33a009945a307d4777b43c240c3,PennController,37,0,test_ani,NULL,PennController,48,_Trial_,Start,1738783572576,undefined,612,duckling,animate,inanimate,A,NULL
1738784013,8bd1c33a009945a307d4777b43c240c3,PennController,37,0,test_ani,NULL,PennController,48,_Header_,Start,1738783572576,undefined,612,duckling,animate,inanimate,A,NULL
1738784013,8bd1c33a009945a307d4777b43c240c3,PennController,37,0,test_ani,NULL,PennController,48,_Header_,End,1738783572833,undefined,612,duckling,animate,inanimate,A,NULL
1738784013,8bd1c33a009945a307d4777b43c240c3,PennController,37,0,test_ani,NULL,Selector,unnamed-Selector,Selection,animate,1738783573951,undefined,612,duckling,animate,inanimate,A,animate;inanimate
1738784013,8bd1c33a009945a307d4777b43c240c3,PennController,37,0,test_ani,NULL,PennController,48,_Trial_,End,1738783573951,undefined,612,duckling,animate,inanimate,A,NULL
1738784013,8bd1c33a009945a307d4777b43c240c3,PennController,36,0,test_ani,NULL,PennController,47,_Trial_,Start,1738783573951,undefined,707,sibling,animate,inanimate,A,NULL
1738784013,8bd1c33a009945a307d4777b43c240c3,PennController,36,0,test_ani,NULL,PennController,47,_Header_,Start,1738783573951,undefined,707,sibling,animate,inanimate,A,NULL
1738784013,8bd1c33a009945a307d4777b43c240c3,PennController,36,0,test_ani,NULL,PennController,47,_Header_,End,1738783574208,undefined,707,sibling,animate,inanimate,A,NULL
1738784013,8bd1c33a009945a307d4777b43c240c3,PennController,36,0,test_ani,NULL,Selector,unnamed-Selector,Selection,animate,1738783575415,undefined,707,sibling,animate,inanimate,A,animate;inanimate
1738784013,8bd1c33a009945a307d4777b43c240c3,PennController,36,0,test_ani,NULL,PennController,47,_Trial_,End,1738783575415,undefined,707,sibling,animate,inanimate,A,NULL
1738784013,8bd1c33a009945a307d4777b43c240c3,PennController,16,0,test_ani,NULL,PennController,27,_Trial_,Start,1738783575415,undefined,887,award,animate,inanimate,A,NULL
1738784013,8bd1c33a009945a307d4777b43c240c3,PennController,16,0,test_ani,NULL,PennController,27,_Header_,Start,1738783575415,undefined,887,award,animate,inanimate,A,NULL
1738784013,8bd1c33a009945a307d4777b43c240c3,PennController,16,0,test_ani,NULL,PennController,27,_Header_,End,1738783575674,undefined,887,award,animate,inanimate,A,NULL
1738784013,8bd1c33a009945a307d4777b43c240c3,PennController,16,0,test_ani,NULL,Selector,unnamed-Selector,Selection,inanimate,1738783577063,undefined,887,award,animate,inanimate,A,animate;inanimate
1738784013,8bd1c33a009945a307d4777b43c240c3,PennController,16,0,test_ani,NULL,PennController,27,_Trial_,End,1738783577063,undefined,887,award,animate,inanimate,A,NULL
1738784013,8bd1c33a009945a307d4777b43c240c3,PennController,23,0,test_ani,NULL,PennController,34,_Trial_,Start,1738783577063,undefined,947,meadow,animate,inanimate,A,NULL
1738784013,8bd1c33a009945a307d4777b43c240c3,PennController,23,0,test_ani,NULL,PennController,34,_Header_,Start,1738783577063,undefined,947,meadow,animate,inanimate,A,NULL
1738784013,8bd1c33a009945a307d4777b43c240c3,PennController,23,0,test_ani,NULL,PennController,34,_Header_,End,1738783577315,undefined,947,meadow,animate,inanimate,A,NULL
1738784013,8bd1c33a009945a307d4777b43c240c3,PennController,23,0,test_ani,NULL,Selector,unnamed-Selector,Selection,inanimate,1738783578767,undefined,947,meadow,animate,inanimate,A,animate;inanimate
1738784013,8bd1c33a009945a307d4777b43c240c3,PennController,23,0,test_ani,NULL,PennController,34,_Trial_,End,1738783578768,undefined,947,meadow,animate,inanimate,A,NULL
1738784013,8bd1c33a009945a307d4777b43c240c3,PennController,19,0,test_ani,NULL,PennController,30,_Trial_,Start,1738783578768,undefined,939,feast,animate,inanimate,A,NULL
1738784013,8bd1c33a009945a307d4777b43c240c3,PennController,19,0,test_ani,NULL,PennController,30,_Header_,Start,1738783578768,undefined,939,feast,animate,inanimate,A,NULL
1738784013,8bd1c33a009945a307d4777b43c240c3,PennController,19,0,test_ani,NULL,PennController,30,_Header_,End,1738783579022,undefined,939,feast,animate,inanimate,A,NULL
1738784013,8bd1c33a009945a307d4777b43c240c3,PennController,19,0,test_ani,NULL,Selector,unnamed-Selector,Selection,inanimate,1738783580471,undefined,939,feast,animate,inanimate,A,animate;inanimate
1738784013,8bd1c33a009945a307d4777b43c240c3,PennController,19,0,test_ani,NULL,PennController,30,_Trial_,End,1738783580471,undefined,939,feast,animate,inanimate,A,NULL
1738784013,8bd1c33a009945a307d4777b43c240c3,PennController,18,0,test_ani,NULL,PennController,29,_Trial_,Start,1738783580472,undefined,606,laughter,animate,inanimate,A,NULL
1738784013,8bd1c33a009945a307d4777b43c240c3,PennController,18,0,test_ani,NULL,PennController,29,_Header_,Start,1738783580472,undefined,606,laughter,animate,inanimate,A,NULL
1738784013,8bd1c33a009945a307d4777b43c240c3,PennController,18,0,test_ani,NULL,PennController,29,_Header_,End,1738783580739,undefined,606,laughter,animate,inanimate,A,NULL
1738784013,8bd1c33a009945a307d4777b43c240c3,PennController,18,0,test_ani,NULL,Selector,unnamed-Selector,Selection,inanimate,1738783581846,undefined,606,laughter,animate,inanimate,A,animate;inanimate
1738784013,8bd1c33a009945a307d4777b43c240c3,PennController,18,0,test_ani,NULL,PennController,29,_Trial_,End,1738783581847,undefined,606,laughter,animate,inanimate,A,NULL
1738784013,8bd1c33a009945a307d4777b43c240c3,PennController,32,0,test_ani,NULL,PennController,43,_Trial_,Start,1738783581847,undefined,767,intruder,animate,inanimate,A,NULL
1738784013,8bd1c33a009945a307d4777b43c240c3,PennController,32,0,test_ani,NULL,PennController,43,_Header_,Start,1738783581847,undefined,767,intruder,animate,inanimate,A,NULL
1738784013,8bd1c33a009945a307d4777b43c240c3,PennController,32,0,test_ani,NULL,PennController,43,_Header_,End,1738783582100,undefined,767,intruder,animate,inanimate,A,NULL
1738784013,8bd1c33a009945a307d4777b43c240c3,PennController,32,0,test_ani,NULL,Selector,unnamed-Selector,Selection,animate,1738783583375,undefined,767,intruder,animate,inanimate,A,animate;inanimate
1738784013,8bd1c33a009945a307d4777b43c240c3,PennController,32,0,test_ani,NULL,PennController,43,_Trial_,End,1738783583375,undefined,767,intruder,animate,inanimate,A,NULL
1738784013,8bd1c33a009945a307d4777b43c240c3,PennController,33,0,test_ani,NULL,PennController,44,_Trial_,Start,1738783583376,undefined,665,mugger,animate,inanimate,A,NULL
1738784013,8bd1c33a009945a307d4777b43c240c3,PennController,33,0,test_ani,NULL,PennController,44,_Header_,Start,1738783583376,undefined,665,mugger,animate,inanimate,A,NULL
1738784013,8bd1c33a009945a307d4777b43c240c3,PennController,33,0,test_ani,NULL,PennController,44,_Header_,End,1738783583628,undefined,665,mugger,animate,inanimate,A,NULL
1738784013,8bd1c33a009945a307d4777b43c240c3,PennController,33,0,test_ani,NULL,Selector,unnamed-Selector,Selection,animate,1738783584806,undefined,665,mugger,animate,inanimate,A,animate;inanimate
1738784013,8bd1c33a009945a307d4777b43c240c3,PennController,33,0,test_ani,NULL,PennController,44,_Trial_,End,1738783584807,undefined,665,mugger,animate,inanimate,A,NULL
1738784013,8bd1c33a009945a307d4777b43c240c3,PennController,13,0,test_ani,NULL,PennController,24,_Trial_,Start,1738783584807,undefined,712,corpse,animate,inanimate,A,NULL
1738784013,8bd1c33a009945a307d4777b43c240c3,PennController,13,0,test_ani,NULL,PennController,24,_Header_,Start,1738783584807,undefined,712,corpse,animate,inanimate,A,NULL
1738784013,8bd1c33a009945a307d4777b43c240c3,PennController,13,0,test_ani,NULL,PennController,24,_Header_,End,1738783585058,undefined,712,corpse,animate,inanimate,A,NULL
1738784013,8bd1c33a009945a307d4777b43c240c3,PennController,13,0,test_ani,NULL,Selector,unnamed-Selector,Selection,animate,1738783586278,undefined,712,corpse,animate,inanimate,A,animate;inanimate
1738784013,8bd1c33a009945a307d4777b43c240c3,PennController,13,0,test_ani,NULL,PennController,24,_Trial_,End,1738783586279,undefined,712,corpse,animate,inanimate,A,NULL
1738784013,8bd1c33a009945a307d4777b43c240c3,PennController,22,0,test_ani,NULL,PennController,33,_Trial_,Start,1738783586279,undefined,1552,sandwich,animate,inanimate,A,NULL
1738784013,8bd1c33a009945a307d4777b43c240c3,PennController,22,0,test_ani,NULL,PennController,33,_Header_,Start,1738783586279,undefined,1552,sandwich,animate,inanimate,A,NULL
1738784013,8bd1c33a009945a307d4777b43c240c3,PennController,22,0,test_ani,NULL,PennController,33,_Header_,End,1738783586529,undefined,1552,sandwich,animate,inanimate,A,NULL
1738784013,8bd1c33a009945a307d4777b43c240c3,PennController,22,0,test_ani,NULL,Selector,unnamed-Selector,Selection,inanimate,1738783588599,undefined,1552,sandwich,animate,inanimate,A,animate;inanimate
1738784013,8bd1c33a009945a307d4777b43c240c3,PennController,22,0,test_ani,NULL,PennController,33,_Trial_,End,1738783588599,undefined,1552,sandwich,animate,inanimate,A,NULL
1738784013,8bd1c33a009945a307d4777b43c240c3,PennController,27,0,test_ani,NULL,PennController,38,_Trial_,Start,1738783588599,undefined,710,widow,animate,inanimate,A,NULL
1738784013,8bd1c33a009945a307d4777b43c240c3,PennController,27,0,test_ani,NULL,PennController,38,_Header_,Start,1738783588599,undefined,710,widow,animate,inanimate,A,NULL
1738784013,8bd1c33a009945a307d4777b43c240c3,PennController,27,0,test_ani,NULL,PennController,38,_Header_,End,1738783588865,undefined,710,widow,animate,inanimate,A,NULL
1738784013,8bd1c33a009945a307d4777b43c240c3,PennController,27,0,test_ani,NULL,Selector,unnamed-Selector,Selection,animate,1738783590078,undefined,710,widow,animate,inanimate,A,animate;inanimate
1738784013,8bd1c33a009945a307d4777b43c240c3,PennController,27,0,test_ani,NULL,PennController,38,_Trial_,End,1738783590079,undefined,710,widow,animate,inanimate,A,NULL
1738784013,8bd1c33a009945a307d4777b43c240c3,PennController,38,0,test_ani,NULL,PennController,49,_Trial_,Start,1738783590079,undefined,651,kitten,animate,inanimate,A,NULL
1738784013,8bd1c33a009945a307d4777b43c240c3,PennController,38,0,test_ani,NULL,PennController,49,_Header_,Start,1738783590079,undefined,651,kitten,animate,inanimate,A,NULL
1738784013,8bd1c33a009945a307d4777b43c240c3,PennController,38,0,test_ani,NULL,PennController,49,_Header_,End,1738783590329,undefined,651,kitten,animate,inanimate,A,NULL
1738784013,8bd1c33a009945a307d4777b43c240c3,PennController,38,0,test_ani,NULL,Selector,unnamed-Selector,Selection,animate,1738783591494,undefined,651,kitten,animate,inanimate,A,animate;inanimate
1738784013,8bd1c33a009945a307d4777b43c240c3,PennController,38,0,test_ani,NULL,PennController,49,_Trial_,End,1738783591495,undefined,651,kitten,animate,inanimate,A,NULL
1738784013,8bd1c33a009945a307d4777b43c240c3,PennController,26,0,test_ani,NULL,PennController,37,_Trial_,Start,1738783591495,undefined,560,maggot,animate,inanimate,A,NULL
1738784013,8bd1c33a009945a307d4777b43c240c3,PennController,26,0,test_ani,NULL,PennController,37,_Header_,Start,1738783591495,undefined,560,maggot,animate,inanimate,A,NULL
1738784013,8bd1c33a009945a307d4777b43c240c3,PennController,26,0,test_ani,NULL,PennController,37,_Header_,End,1738783591749,undefined,560,maggot,animate,inanimate,A,NULL
1738784013,8bd1c33a009945a307d4777b43c240c3,PennController,26,0,test_ani,NULL,Selector,unnamed-Selector,Selection,animate,1738783592822,undefined,560,maggot,animate,inanimate,A,animate;inanimate
1738784013,8bd1c33a009945a307d4777b43c240c3,PennController,26,0,test_ani,NULL,PennController,37,_Trial_,End,1738783592823,undefined,560,maggot,animate,inanimate,A,NULL
1738784013,8bd1c33a009945a307d4777b43c240c3,PennController,5,0,test_ani,NULL,PennController,16,_Trial_,Start,1738783592823,undefined,722,swastika,animate,inanimate,A,NULL
1738784013,8bd1c33a009945a307d4777b43c240c3,PennController,5,0,test_ani,NULL,PennController,16,_Header_,Start,1738783592823,undefined,722,swastika,animate,inanimate,A,NULL
1738784013,8bd1c33a009945a307d4777b43c240c3,PennController,5,0,test_ani,NULL,PennController,16,_Header_,End,1738783593079,undefined,722,swastika,animate,inanimate,A,NULL
1738784013,8bd1c33a009945a307d4777b43c240c3,PennController,5,0,test_ani,NULL,Selector,unnamed-Selector,Selection,inanimate,1738783594311,undefined,722,swastika,animate,inanimate,A,animate;inanimate
1738784013,8bd1c33a009945a307d4777b43c240c3,PennController,5,0,test_ani,NULL,PennController,16,_Trial_,End,1738783594311,undefined,722,swastika,animate,inanimate,A,NULL
1738784013,8bd1c33a009945a307d4777b43c240c3,PennController,21,0,test_ani,NULL,PennController,32,_Trial_,Start,1738783594311,undefined,557,dollar,animate,inanimate,A,NULL
1738784013,8bd1c33a009945a307d4777b43c240c3,PennController,21,0,test_ani,NULL,PennController,32,_Header_,Start,1738783594311,undefined,557,dollar,animate,inanimate,A,NULL
1738784013,8bd1c33a009945a307d4777b43c240c3,PennController,21,0,test_ani,NULL,PennController,32,_Header_,End,1738783594572,undefined,557,dollar,animate,inanimate,A,NULL
1738784013,8bd1c33a009945a307d4777b43c240c3,PennController,21,0,test_ani,NULL,Selector,unnamed-Selector,Selection,animate,1738783595638,undefined,557,dollar,animate,inanimate,A,animate;inanimate
1738784013,8bd1c33a009945a307d4777b43c240c3,PennController,21,0,test_ani,NULL,PennController,32,_Trial_,End,1738783595639,undefined,557,dollar,animate,inanimate,A,NULL
1738784013,8bd1c33a009945a307d4777b43c240c3,PennController,29,0,test_ani,NULL,PennController,40,_Trial_,Start,1738783595640,undefined,914,dictator,animate,inanimate,A,NULL
1738784013,8bd1c33a009945a307d4777b43c240c3,PennController,29,0,test_ani,NULL,PennController,40,_Header_,Start,1738783595640,undefined,914,dictator,animate,inanimate,A,NULL
1738784013,8bd1c33a009945a307d4777b43c240c3,PennController,29,0,test_ani,NULL,PennController,40,_Header_,End,1738783595894,undefined,914,dictator,animate,inanimate,A,NULL
1738784013,8bd1c33a009945a307d4777b43c240c3,PennController,29,0,test_ani,NULL,Selector,unnamed-Selector,Selection,animate,1738783597327,undefined,914,dictator,animate,inanimate,A,animate;inanimate
1738784013,8bd1c33a009945a307d4777b43c240c3,PennController,29,0,test_ani,NULL,PennController,40,_Trial_,End,1738783597327,undefined,914,dictator,animate,inanimate,A,NULL
1738784013,8bd1c33a009945a307d4777b43c240c3,PennController,25,0,test_ani,NULL,PennController,36,_Trial_,Start,1738783597327,undefined,2671,asshole,animate,inanimate,A,NULL
1738784013,8bd1c33a009945a307d4777b43c240c3,PennController,25,0,test_ani,NULL,PennController,36,_Header_,Start,1738783597327,undefined,2671,asshole,animate,inanimate,A,NULL
1738784013,8bd1c33a009945a307d4777b43c240c3,PennController,25,0,test_ani,NULL,PennController,36,_Header_,End,1738783597584,undefined,2671,asshole,animate,inanimate,A,NULL
1738784013,8bd1c33a009945a307d4777b43c240c3,PennController,25,0,test_ani,NULL,Selector,unnamed-Selector,Selection,inanimate,1738783600759,undefined,2671,asshole,animate,inanimate,A,animate;inanimate
1738784013,8bd1c33a009945a307d4777b43c240c3,PennController,25,0,test_ani,NULL,PennController,36,_Trial_,End,1738783600759,undefined,2671,asshole,animate,inanimate,A,NULL
1738784013,8bd1c33a009945a307d4777b43c240c3,PennController,4,0,test_ani,NULL,PennController,15,_Trial_,Start,1738783600759,undefined,672,heroin,animate,inanimate,A,NULL
1738784013,8bd1c33a009945a307d4777b43c240c3,PennController,4,0,test_ani,NULL,PennController,15,_Header_,Start,1738783600759,undefined,672,heroin,animate,inanimate,A,NULL
1738784013,8bd1c33a009945a307d4777b43c240c3,PennController,4,0,test_ani,NULL,PennController,15,_Header_,End,1738783601015,undefined,672,heroin,animate,inanimate,A,NULL
1738784013,8bd1c33a009945a307d4777b43c240c3,PennController,4,0,test_ani,NULL,Selector,unnamed-Selector,Selection,inanimate,1738783602207,undefined,672,heroin,animate,inanimate,A,animate;inanimate
1738784013,8bd1c33a009945a307d4777b43c240c3,PennController,4,0,test_ani,NULL,PennController,15,_Trial_,End,1738783602207,undefined,672,heroin,animate,inanimate,A,NULL
1738784013,8bd1c33a009945a307d4777b43c240c3,PennController,6,0,test_ani,NULL,PennController,17,_Trial_,Start,1738783602208,undefined,752,wiretap,animate,inanimate,A,NULL
1738784013,8bd1c33a009945a307d4777b43c240c3,PennController,6,0,test_ani,NULL,PennController,17,_Header_,Start,1738783602208,undefined,752,wiretap,animate,inanimate,A,NULL
1738784013,8bd1c33a009945a307d4777b43c240c3,PennController,6,0,test_ani,NULL,PennController,17,_Header_,End,1738783602472,undefined,752,wiretap,animate,inanimate,A,NULL
1738784013,8bd1c33a009945a307d4777b43c240c3,PennController,6,0,test_ani,NULL,Selector,unnamed-Selector,Selection,inanimate,1738783603734,undefined,752,wiretap,animate,inanimate,A,animate;inanimate
1738784013,8bd1c33a009945a307d4777b43c240c3,PennController,6,0,test_ani,NULL,PennController,17,_Trial_,End,1738783603735,undefined,752,wiretap,animate,inanimate,A,NULL
1738784013,8bd1c33a009945a307d4777b43c240c3,PennController,43,0,test_ani,NULL,PennController,54,_Trial_,Start,1738783603735,undefined,587,husband,animate,inanimate,A,NULL
1738784013,8bd1c33a009945a307d4777b43c240c3,PennController,43,0,test_ani,NULL,PennController,54,_Header_,Start,1738783603735,undefined,587,husband,animate,inanimate,A,NULL
1738784013,8bd1c33a009945a307d4777b43c240c3,PennController,43,0,test_ani,NULL,PennController,54,_Header_,End,1738783603995,undefined,587,husband,animate,inanimate,A,NULL
1738784013,8bd1c33a009945a307d4777b43c240c3,PennController,43,0,test_ani,NULL,Selector,unnamed-Selector,Selection,animate,1738783605087,undefined,587,husband,animate,inanimate,A,animate;inanimate
1738784013,8bd1c33a009945a307d4777b43c240c3,PennController,43,0,test_ani,NULL,PennController,54,_Trial_,End,1738783605087,undefined,587,husband,animate,inanimate,A,NULL
1738784013,8bd1c33a009945a307d4777b43c240c3,PennController,33,0,test_ani,NULL,PennController,44,_Trial_,Start,1738783605088,undefined,735,mugger,animate,inanimate,A,NULL
1738784013,8bd1c33a009945a307d4777b43c240c3,PennController,33,0,test_ani,NULL,PennController,44,_Header_,Start,1738783605088,undefined,735,mugger,animate,inanimate,A,NULL
1738784013,8bd1c33a009945a307d4777b43c240c3,PennController,33,0,test_ani,NULL,PennController,44,_Header_,End,1738783605339,undefined,735,mugger,animate,inanimate,A,NULL
1738784013,8bd1c33a009945a307d4777b43c240c3,PennController,33,0,test_ani,NULL,Selector,unnamed-Selector,Selection,animate,1738783606590,undefined,735,mugger,animate,inanimate,A,animate;inanimate
1738784013,8bd1c33a009945a307d4777b43c240c3,PennController,33,0,test_ani,NULL,PennController,44,_Trial_,End,1738783606590,undefined,735,mugger,animate,inanimate,A,NULL
1738784013,8bd1c33a009945a307d4777b43c240c3,PennController,32,0,test_ani,NULL,PennController,43,_Trial_,Start,1738783606591,undefined,746,intruder,animate,inanimate,A,NULL
1738784013,8bd1c33a009945a307d4777b43c240c3,PennController,32,0,test_ani,NULL,PennController,43,_Header_,Start,1738783606591,undefined,746,intruder,animate,inanimate,A,NULL
1738784013,8bd1c33a009945a307d4777b43c240c3,PennController,32,0,test_ani,NULL,PennController,43,_Header_,End,1738783606843,undefined,746,intruder,animate,inanimate,A,NULL
1738784013,8bd1c33a009945a307d4777b43c240c3,PennController,32,0,test_ani,NULL,Selector,unnamed-Selector,Selection,animate,1738783608094,undefined,746,intruder,animate,inanimate,A,animate;inanimate
1738784013,8bd1c33a009945a307d4777b43c240c3,PennController,32,0,test_ani,NULL,PennController,43,_Trial_,End,1738783608096,undefined,746,intruder,animate,inanimate,A,NULL
1738784013,8bd1c33a009945a307d4777b43c240c3,PennController,17,0,test_ani,NULL,PennController,28,_Trial_,Start,1738783608096,undefined,815,pizza,animate,inanimate,A,NULL
1738784013,8bd1c33a009945a307d4777b43c240c3,PennController,17,0,test_ani,NULL,PennController,28,_Header_,Start,1738783608096,undefined,815,pizza,animate,inanimate,A,NULL
1738784013,8bd1c33a009945a307d4777b43c240c3,PennController,17,0,test_ani,NULL,PennController,28,_Header_,End,1738783608359,undefined,815,pizza,animate,inanimate,A,NULL
1738784013,8bd1c33a009945a307d4777b43c240c3,PennController,17,0,test_ani,NULL,Selector,unnamed-Selector,Selection,inanimate,1738783609679,undefined,815,pizza,animate,inanimate,A,animate;inanimate
1738784013,8bd1c33a009945a307d4777b43c240c3,PennController,17,0,test_ani,NULL,PennController,28,_Trial_,End,1738783609679,undefined,815,pizza,animate,inanimate,A,NULL
1738784013,8bd1c33a009945a307d4777b43c240c3,PennController,22,0,test_ani,NULL,PennController,33,_Trial_,Start,1738783609680,undefined,645,sandwich,animate,inanimate,A,NULL
1738784013,8bd1c33a009945a307d4777b43c240c3,PennController,22,0,test_ani,NULL,PennController,33,_Header_,Start,1738783609680,undefined,645,sandwich,animate,inanimate,A,NULL
1738784013,8bd1c33a009945a307d4777b43c240c3,PennController,22,0,test_ani,NULL,PennController,33,_Header_,End,1738783609934,undefined,645,sandwich,animate,inanimate,A,NULL
1738784013,8bd1c33a009945a307d4777b43c240c3,PennController,22,0,test_ani,NULL,Selector,unnamed-Selector,Selection,inanimate,1738783611094,undefined,645,sandwich,animate,inanimate,A,animate;inanimate
1738784013,8bd1c33a009945a307d4777b43c240c3,PennController,22,0,test_ani,NULL,PennController,33,_Trial_,End,1738783611096,undefined,645,sandwich,animate,inanimate,A,NULL
1738784013,8bd1c33a009945a307d4777b43c240c3,PennController,15,0,test_ani,NULL,PennController,26,_Trial_,Start,1738783611096,undefined,795,sunshine,animate,inanimate,A,NULL
1738784013,8bd1c33a009945a307d4777b43c240c3,PennController,15,0,test_ani,NULL,PennController,26,_Header_,Start,1738783611096,undefined,795,sunshine,animate,inanimate,A,NULL
1738784013,8bd1c33a009945a307d4777b43c240c3,PennController,15,0,test_ani,NULL,PennController,26,_Header_,End,1738783611365,undefined,795,sunshine,animate,inanimate,A,NULL
1738784013,8bd1c33a009945a307d4777b43c240c3,PennController,15,0,test_ani,NULL,Selector,unnamed-Selector,Selection,animate,1738783612670,undefined,795,sunshine,animate,inanimate,A,animate;inanimate
1738784013,8bd1c33a009945a307d4777b43c240c3,PennController,15,0,test_ani,NULL,PennController,26,_Trial_,End,1738783612671,undefined,795,sunshine,animate,inanimate,A,NULL
1738784013,8bd1c33a009945a307d4777b43c240c3,PennController,5,0,test_ani,NULL,PennController,16,_Trial_,Start,1738783612671,undefined,852,swastika,animate,inanimate,A,NULL
