"","ID.true","Word","Label","Task","BlockOrder","EventTime","Value","ReactionTime","Key_value_F","Key_value_J","Comments","Group","LogReactionTime","TrialNumber"
"1","63fcf7251ace1792db0941b0","invader","calibrator_val_feedback","Valence","VA",1738770080386,"negative",1633,"positive","negative","positive;negative","A",7.39817409297047,1
"2","63fcf7251ace1792db0941b0","insecure","calibrator_val_feedback","Valence","VA",1738770084458,"negative",2320,"positive","negative","positive;negative","A",7.74932246466036,2
"3","63fcf7251ace1792db0941b0","industry","calibrator_val_feedback","Valence","VA",1738770089898,"negative",2679,"positive","negative","positive;negative","A",7.89319886954461,3
"4","63fcf7251ace1792db0941b0","jail","calibrator_val_feedback","Valence","VA",1738770093714,"negative",1049,"positive","negative","positive;negative","A",6.9555926083963,4
"5","63fcf7251ace1792db0941b0","free","calibrator_val_feedback","Valence","VA",1738770097474,"positive",998,"positive","negative","positive;negative","A",6.90575327631146,5
"6","63fcf7251ace1792db0941b0","icebox","calibrator_val_feedback","Valence","VA",1738770101882,"positive",1645,"positive","negative","positive;negative","A",7.40549566319947,6
"7","63fcf7251ace1792db0941b0","kitten","calibrator_val_feedback","Valence","VA",1738770105450,"positive",803,"positive","negative","positive;negative","A",6.68835471394676,7
"8","63fcf7251ace1792db0941b0","hat","calibrator_val_feedback","Valence","VA",1738770109466,"positive",1254,"positive","negative","positive;negative","A",7.13409372119287,8
"9","63fcf7251ace1792db0941b0","joke","calibrator_val_feedback","Valence","VA",1738770113011,"positive",780,"positive","negative","positive;negative","A",6.65929391968364,9
"10","63fcf7251ace1792db0941b0","grin","calibrator_val_feedback","Valence","VA",1738770116482,"positive",709,"positive","negative","positive;negative","A",6.56385552653213,10
"11","63fcf7251ace1792db0941b0","hat","calibrator_val_no_feedback","Valence","VA",1738770120058,"positive",813,"A","positive;negative","","",6.70073110954781,11
"12","63fcf7251ace1792db0941b0","joke","calibrator_val_no_feedback","Valence","VA",1738770121355,"positive",534,"A","positive;negative","","",6.2803958389602,12
"13","63fcf7251ace1792db0941b0","free","calibrator_val_no_feedback","Valence","VA",1738770122658,"positive",545,"A","positive;negative","","",6.30078579466324,13
"14","63fcf7251ace1792db0941b0","invader","calibrator_val_no_feedback","Valence","VA",1738770124050,"negative",633,"A","positive;negative","","",6.45047042214418,14
"15","63fcf7251ace1792db0941b0","icebox","calibrator_val_no_feedback","Valence","VA",1738770125482,"positive",672,"A","positive;negative","","",6.51025834052315,15
"16","63fcf7251ace1792db0941b0","industry","calibrator_val_no_feedback","Valence","VA",1738770127865,"positive",1623,"A","positive;negative","","",7.39203156751459,16
"17","63fcf7251ace1792db0941b0","grin","calibrator_val_no_feedback","Valence","VA",1738770129530,"positive",901,"A","positive;negative","","",6.80350525760834,17
"18","63fcf7251ace1792db0941b0","jail","calibrator_val_no_feedback","Valence","VA",1738770131129,"negative",841,"A","positive;negative","","",6.73459165997295,18
"19","63fcf7251ace1792db0941b0","kitten","calibrator_val_no_feedback","Valence","VA",1738770132858,"positive",967,"A","positive;negative","","",6.87419849545329,19
"20","63fcf7251ace1792db0941b0","insecure","calibrator_val_no_feedback","Valence","VA",1738770134538,"negative",923,"A","positive;negative","","",6.82762923450285,20
"21","63fcf7251ace1792db0941b0","human","calibrator_ani_feedback","Animacy","VA",1738770393258,"Option_J",1859,"inanimate","animate","Option_F;Option_J","B",7.52779398772144,21
"22","63fcf7251ace1792db0941b0","horse","calibrator_ani_feedback","Animacy","VA",1738770396986,"Option_J",964,"inanimate","animate","Option_F;Option_J","B",6.87109129461055,22
"23","63fcf7251ace1792db0941b0","monkey","calibrator_ani_feedback","Animacy","VA",1738770400514,"Option_J",761,"inanimate","animate","Option_F;Option_J","B",6.63463335786169,23
"24","63fcf7251ace1792db0941b0","elephant","calibrator_ani_feedback","Animacy","VA",1738770403955,"Option_J",681,"inanimate","animate","Option_F;Option_J","B",6.52356230614951,24
"25","63fcf7251ace1792db0941b0","chair","calibrator_ani_feedback","Animacy","VA",1738770407618,"Option_F",904,"inanimate","animate","Option_F;Option_J","B",6.80682936039218,25
"26","63fcf7251ace1792db0941b0","bottle","calibrator_ani_feedback","Animacy","VA",1738770411090,"Option_F",705,"inanimate","animate","Option_F;Option_J","B",6.55819780281227,26
"27","63fcf7251ace1792db0941b0","computer","calibrator_ani_feedback","Animacy","VA",1738770414610,"Option_F",760,"inanimate","animate","Option_F;Option_J","B",6.63331843328038,27
"28","63fcf7251ace1792db0941b0","teenager","calibrator_ani_feedback","Animacy","VA",1738770418306,"Option_J",931,"inanimate","animate","Option_F;Option_J","B",6.83625927727707,28
"29","63fcf7251ace1792db0941b0","clock","calibrator_ani_feedback","Animacy","VA",1738770421874,"Option_F",806,"inanimate","animate","Option_F;Option_J","B",6.69208374250663,29
"30","63fcf7251ace1792db0941b0","table","calibrator_ani_feedback","Animacy","VA",1738770425404,"Option_F",769,"inanimate","animate","Option_F;Option_J","B",6.64509096950564,30
"31","63fcf7251ace1792db0941b0","bottle","calibrator_ani_no_feedback","Animacy","VA",1738770428842,"inanimate",676,"B","inanimate;animate","","",6.51619307604296,31
"32","63fcf7251ace1792db0941b0","monkey","calibrator_ani_no_feedback","Animacy","VA",1738770430507,"animate",902,"B","inanimate;animate","","",6.80461452006262,32
"33","63fcf7251ace1792db0941b0","computer","calibrator_ani_no_feedback","Animacy","VA",1738770431906,"inanimate",643,"B","inanimate;animate","","",6.46614472423762,33
"34","63fcf7251ace1792db0941b0","table","calibrator_ani_no_feedback","Animacy","VA",1738770433530,"inanimate",863,"B","inanimate;animate","","",6.76041469108343,34
"35","63fcf7251ace1792db0941b0","clock","calibrator_ani_no_feedback","Animacy","VA",1738770434914,"inanimate",623,"B","inanimate;animate","","",6.43454651878745,35
"36","63fcf7251ace1792db0941b0","human","calibrator_ani_no_feedback","Animacy","VA",1738770436307,"animate",632,"B","inanimate;animate","","",6.44888939414686,36
"37","63fcf7251ace1792db0941b0","horse","calibrator_ani_no_feedback","Animacy","VA",1738770437642,"animate",576,"B","inanimate;animate","","",6.35610766069589,37
"38","63fcf7251ace1792db0941b0","teenager","calibrator_ani_no_feedback","Animacy","VA",1738770439154,"animate",756,"B","inanimate;animate","","",6.62804137617953,38
"39","63fcf7251ace1792db0941b0","chair","calibrator_ani_no_feedback","Animacy","VA",1738770440562,"inanimate",648,"B","inanimate;animate","","",6.47389069635227,39
"40","63fcf7251ace1792db0941b0","elephant","calibrator_ani_no_feedback","Animacy","VA",1738770441986,"animate",661,"B","inanimate;animate","","",6.49375383985169,40
"41","5a7f42215292b8000122c84a","teenager","calibrator_ani_feedback","Animacy","AV",1742985595732,"Option_F",992,"animate","inanimate","Option_F;Option_J","A",6.89972310728487,1
"42","5a7f42215292b8000122c84a","chair","calibrator_ani_feedback","Animacy","AV",1742985599469,"Option_J",957,"animate","inanimate","Option_F;Option_J","A",6.86380339145295,2
"43","5a7f42215292b8000122c84a","human","calibrator_ani_feedback","Animacy","AV",1742985603165,"Option_F",916,"animate","inanimate","Option_F;Option_J","A",6.82001636467413,3
"44","5a7f42215292b8000122c84a","horse","calibrator_ani_feedback","Animacy","AV",1742985606612,"Option_F",672,"animate","inanimate","Option_F;Option_J","A",6.51025834052315,4
"45","5a7f42215292b8000122c84a","computer","calibrator_ani_feedback","Animacy","AV",1742985609858,"Option_J",460,"animate","inanimate","Option_F;Option_J","A",6.13122648948314,5
"46","5a7f42215292b8000122c84a","table","calibrator_ani_feedback","Animacy","AV",1742985613368,"Option_J",725,"animate","inanimate","Option_F;Option_J","A",6.58617165485467,6
"47","5a7f42215292b8000122c84a","bottle","calibrator_ani_feedback","Animacy","AV",1742985617128,"Option_J",985,"animate","inanimate","Option_F;Option_J","A",6.89264164117209,7
"48","5a7f42215292b8000122c84a","monkey","calibrator_ani_feedback","Animacy","AV",1742985621008,"Option_F",582,"animate","inanimate","Option_F;Option_J","A",6.36647044773144,8
"49","5a7f42215292b8000122c84a","clock","calibrator_ani_feedback","Animacy","AV",1742985623989,"Option_J",701,"animate","inanimate","Option_F;Option_J","A",6.55250788703459,9
"50","5a7f42215292b8000122c84a","elephant","calibrator_ani_feedback","Animacy","AV",1742985627486,"Option_F",710,"animate","inanimate","Option_F;Option_J","A",6.56526497003536,10
"51","5a7f42215292b8000122c84a","clock","calibrator_ani_no_feedback","Animacy","AV",1742985631093,"inanimate",827,"A","animate;inanimate","","",6.71780469502369,11
"52","5a7f42215292b8000122c84a","bottle","calibrator_ani_no_feedback","Animacy","AV",1742985632656,"inanimate",802,"A","animate;inanimate","","",6.68710860786651,12
"53","5a7f42215292b8000122c84a","monkey","calibrator_ani_no_feedback","Animacy","AV",1742985634009,"animate",576,"A","animate;inanimate","","",6.35610766069589,13
"54","5a7f42215292b8000122c84a","teenager","calibrator_ani_no_feedback","Animacy","AV",1742985635551,"inanimate",765,"A","animate;inanimate","","",6.63987583382654,14
"55","5a7f42215292b8000122c84a","computer","calibrator_ani_no_feedback","Animacy","AV",1742985637020,"inanimate",700,"A","animate;inanimate","","",6.5510803350434,15
"56","5a7f42215292b8000122c84a","chair","calibrator_ani_no_feedback","Animacy","AV",1742985638507,"inanimate",717,"A","animate;inanimate","","",6.57507584059962,16
"57","5a7f42215292b8000122c84a","elephant","calibrator_ani_no_feedback","Animacy","AV",1742985639735,"animate",456,"A","animate;inanimate","","",6.12249280951439,17
"58","5a7f42215292b8000122c84a","table","calibrator_ani_no_feedback","Animacy","AV",1742985641064,"inanimate",550,"A","animate;inanimate","","",6.30991827822652,18
"59","5a7f42215292b8000122c84a","horse","calibrator_ani_no_feedback","Animacy","AV",1742985642380,"animate",542,"A","animate;inanimate","","",6.29526600143965,19
"60","5a7f42215292b8000122c84a","human","calibrator_ani_no_feedback","Animacy","AV",1742985643718,"animate",563,"A","animate;inanimate","","",6.33327962813969,20
"61","5a7f42215292b8000122c84a","hat","calibrator_val_feedback","Valence","AV",1742985860728,"positive",864,"positive","negative","positive;negative","A",6.76157276880406,21
"62","5a7f42215292b8000122c84a","kitten","calibrator_val_feedback","Valence","AV",1742985862961,"positive",863,"positive","negative","positive;negative","A",6.76041469108343,22
"63","5a7f42215292b8000122c84a","free","calibrator_val_feedback","Valence","AV",1742985866543,"positive",801,"positive","negative","positive;negative","A",6.68586094706836,23
"64","5a7f42215292b8000122c84a","jail","calibrator_val_feedback","Valence","AV",1742985870164,"negative",858,"positive","negative","positive;negative","A",6.75460409948796,24
"65","5a7f42215292b8000122c84a","invader","calibrator_val_feedback","Valence","AV",1742985874518,"negative",1582,"positive","negative","positive;negative","A",7.3664451483276,25
"66","5a7f42215292b8000122c84a","industry","calibrator_val_feedback","Valence","AV",1742985878157,"negative",862,"positive","negative","positive;negative","A",6.75925527066369,26
"67","5a7f42215292b8000122c84a","grin","calibrator_val_feedback","Valence","AV",1742985881791,"positive",841,"positive","negative","positive;negative","A",6.73459165997295,27
"68","5a7f42215292b8000122c84a","insecure","calibrator_val_feedback","Valence","AV",1742985885411,"negative",838,"positive","negative","positive;negative","A",6.73101810048208,28
"69","5a7f42215292b8000122c84a","icebox","calibrator_val_feedback","Valence","AV",1742985889359,"negative",1165,"positive","negative","positive;negative","A",7.0604763659998,29
"70","5a7f42215292b8000122c84a","joke","calibrator_val_feedback","Valence","AV",1742985893156,"positive",1014,"positive","negative","positive;negative","A",6.92165818415113,30
"71","5a7f42215292b8000122c84a","invader","calibrator_val_no_feedback","Valence","AV",1742985896714,"negative",780,"A","positive;negative","","",6.65929391968364,31
"72","5a7f42215292b8000122c84a","icebox","calibrator_val_no_feedback","Valence","AV",1742985898286,"negative",801,"A","positive;negative","","",6.68586094706836,32
"73","5a7f42215292b8000122c84a","grin","calibrator_val_no_feedback","Valence","AV",1742985899695,"positive",640,"A","positive;negative","","",6.46146817635372,33
"74","5a7f42215292b8000122c84a","insecure","calibrator_val_no_feedback","Valence","AV",1742985901583,"negative",1115,"A","positive;negative","","",7.01660968389422,34
"75","5a7f42215292b8000122c84a","kitten","calibrator_val_no_feedback","Valence","AV",1742985902937,"positive",569,"A","positive;negative","","",6.34388043412633,35
"76","5a7f42215292b8000122c84a","free","calibrator_val_no_feedback","Valence","AV",1742985904281,"positive",573,"A","positive;negative","","",6.35088571671474,36
"77","5a7f42215292b8000122c84a","joke","calibrator_val_no_feedback","Valence","AV",1742985905658,"positive",596,"A","positive;negative","","",6.39024066706535,37
"78","5a7f42215292b8000122c84a","jail","calibrator_val_no_feedback","Valence","AV",1742985907026,"negative",602,"A","positive;negative","","",6.40025744530882,38
"79","5a7f42215292b8000122c84a","hat","calibrator_val_no_feedback","Valence","AV",1742985908640,"negative",849,"A","positive;negative","","",6.74405918631135,39
"80","5a7f42215292b8000122c84a","industry","calibrator_val_no_feedback","Valence","AV",1742985910211,"negative",794,"A","positive;negative","","",6.67708346124714,40
"81","6111216b74cfd482d05ac02b","industry","calibrator_val_feedback","Valence","VA",1743012534696,"negative",2033,"negative","positive","negative;positive","B",7.61726781362835,1
"82","6111216b74cfd482d05ac02b","invader","calibrator_val_feedback","Valence","VA",1743012538011,"negative",853,"negative","positive","negative;positive","B",6.74875954749168,2
"83","6111216b74cfd482d05ac02b","grin","calibrator_val_feedback","Valence","VA",1743012540371,"positive",841,"negative","positive","negative;positive","B",6.73459165997295,3
"84","6111216b74cfd482d05ac02b","kitten","calibrator_val_feedback","Valence","VA",1743012543781,"positive",647,"negative","positive","negative;positive","B",6.4723462945009,4
"85","6111216b74cfd482d05ac02b","free","calibrator_val_feedback","Valence","VA",1743012547257,"positive",715,"negative","positive","negative;positive","B",6.57228254269401,5
"86","6111216b74cfd482d05ac02b","joke","calibrator_val_feedback","Valence","VA",1743012550746,"positive",729,"negative","positive","negative;positive","B",6.59167373200866,6
"87","6111216b74cfd482d05ac02b","icebox","calibrator_val_feedback","Valence","VA",1743012554265,"positive",761,"negative","positive","negative;positive","B",6.63463335786169,7
"88","6111216b74cfd482d05ac02b","hat","calibrator_val_feedback","Valence","VA",1743012557950,"positive",924,"negative","positive","negative;positive","B",6.82871207164168,8
"89","6111216b74cfd482d05ac02b","insecure","calibrator_val_feedback","Valence","VA",1743012561606,"negative",898,"negative","positive","negative;positive","B",6.8001700683022,9
"90","6111216b74cfd482d05ac02b","jail","calibrator_val_feedback","Valence","VA",1743012565442,"negative",1073,"negative","positive","negative;positive","B",6.9782137426307,10
"91","6111216b74cfd482d05ac02b","joke","calibrator_val_no_feedback","Valence","VA",1743012569122,"positive",920,"B","negative;positive","","",6.82437367004309,11
"92","6111216b74cfd482d05ac02b","insecure","calibrator_val_no_feedback","Valence","VA",1743012570580,"negative",701,"B","negative;positive","","",6.55250788703459,12
"93","6111216b74cfd482d05ac02b","kitten","calibrator_val_no_feedback","Valence","VA",1743012571899,"positive",558,"B","negative;positive","","",6.32435896238131,13
"94","6111216b74cfd482d05ac02b","industry","calibrator_val_no_feedback","Valence","VA",1743012573407,"negative",749,"B","negative;positive","","",6.61873898351722,14
"95","6111216b74cfd482d05ac02b","icebox","calibrator_val_no_feedback","Valence","VA",1743012574809,"positive",642,"B","negative;positive","","",6.46458830368996,15
"96","6111216b74cfd482d05ac02b","grin","calibrator_val_no_feedback","Valence","VA",1743012576109,"positive",539,"B","negative;positive","","",6.289715570909,16
"97","6111216b74cfd482d05ac02b","jail","calibrator_val_no_feedback","Valence","VA",1743012577369,"negative",503,"B","negative;positive","","",6.22059017009974,17
"98","6111216b74cfd482d05ac02b","invader","calibrator_val_no_feedback","Valence","VA",1743012578639,"negative",508,"B","negative;positive","","",6.23048144757848,18
"99","6111216b74cfd482d05ac02b","hat","calibrator_val_no_feedback","Valence","VA",1743012579953,"positive",560,"B","negative;positive","","",6.32793678372919,19
"100","6111216b74cfd482d05ac02b","free","calibrator_val_no_feedback","Valence","VA",1743012581211,"negative",496,"B","negative;positive","","",6.20657592672493,20
"101","6111216b74cfd482d05ac02b","table","calibrator_ani_feedback","Animacy","VA",1743012758952,"Option_F",835,"inanimate","animate","Option_F;Option_J","B",6.72743172485086,21
"102","6111216b74cfd482d05ac02b","monkey","calibrator_ani_feedback","Animacy","VA",1743012762598,"Option_J",889,"inanimate","animate","Option_F;Option_J","B",6.7900972355139,22
"103","6111216b74cfd482d05ac02b","chair","calibrator_ani_feedback","Animacy","VA",1743012765965,"Option_F",605,"inanimate","animate","Option_F;Option_J","B",6.40522845803084,23
"104","6111216b74cfd482d05ac02b","teenager","calibrator_ani_feedback","Animacy","VA",1743012769446,"Option_J",723,"inanimate","animate","Option_F;Option_J","B",6.58340922215876,24
"105","6111216b74cfd482d05ac02b","horse","calibrator_ani_feedback","Animacy","VA",1743012772792,"Option_J",584,"inanimate","animate","Option_F;Option_J","B",6.36990098282823,25
"106","6111216b74cfd482d05ac02b","human","calibrator_ani_feedback","Animacy","VA",1743012776152,"Option_J",598,"inanimate","animate","Option_F;Option_J","B",6.39359075395063,26
"107","6111216b74cfd482d05ac02b","computer","calibrator_ani_feedback","Animacy","VA",1743012779603,"Option_F",690,"inanimate","animate","Option_F;Option_J","B",6.5366915975913,27
"108","6111216b74cfd482d05ac02b","bottle","calibrator_ani_feedback","Animacy","VA",1743012782977,"Option_F",610,"inanimate","animate","Option_F;Option_J","B",6.41345895716736,28
"109","6111216b74cfd482d05ac02b","clock","calibrator_ani_feedback","Animacy","VA",1743012786295,"Option_F",559,"inanimate","animate","Option_F;Option_J","B",6.3261494731551,29
"110","6111216b74cfd482d05ac02b","elephant","calibrator_ani_feedback","Animacy","VA",1743012789755,"Option_J",697,"inanimate","animate","Option_F;Option_J","B",6.54678541076052,30
"111","6111216b74cfd482d05ac02b","bottle","calibrator_ani_no_feedback","Animacy","VA",1743012793169,"inanimate",654,"B","inanimate;animate","","",6.4831073514572,31
"112","6111216b74cfd482d05ac02b","clock","calibrator_ani_no_feedback","Animacy","VA",1743012794549,"inanimate",621,"B","inanimate;animate","","",6.43133108193348,32
"113","6111216b74cfd482d05ac02b","monkey","calibrator_ani_no_feedback","Animacy","VA",1743012796008,"animate",705,"B","inanimate;animate","","",6.55819780281227,33
"114","6111216b74cfd482d05ac02b","table","calibrator_ani_no_feedback","Animacy","VA",1743012797263,"inanimate",497,"B","inanimate;animate","","",6.20859002609663,34
"115","6111216b74cfd482d05ac02b","computer","calibrator_ani_no_feedback","Animacy","VA",1743012798615,"inanimate",595,"B","inanimate;animate","","",6.38856140554563,35
"116","6111216b74cfd482d05ac02b","elephant","calibrator_ani_no_feedback","Animacy","VA",1743012799920,"animate",547,"B","inanimate;animate","","",6.30444880242198,36
"117","6111216b74cfd482d05ac02b","teenager","calibrator_ani_no_feedback","Animacy","VA",1743012801179,"animate",505,"B","inanimate;animate","","",6.22455842927536,37
"118","6111216b74cfd482d05ac02b","human","calibrator_ani_no_feedback","Animacy","VA",1743012802411,"animate",475,"B","inanimate;animate","","",6.16331480403464,38
"119","6111216b74cfd482d05ac02b","chair","calibrator_ani_no_feedback","Animacy","VA",1743012803668,"inanimate",497,"B","inanimate;animate","","",6.20859002609663,39
"120","6111216b74cfd482d05ac02b","horse","calibrator_ani_no_feedback","Animacy","VA",1743012804832,"inanimate",405,"B","inanimate;animate","","",6.00388706710654,40
"121","60fe22beeb612ead4d261590","monkey","calibrator_ani_feedback","Animacy","AV",1738785972066,"Option_F",806,"animate","inanimate","Option_F;Option_J","A",6.69208374250663,1
"122","60fe22beeb612ead4d261590","clock","calibrator_ani_feedback","Animacy","AV",1738785975573,"Option_J",744,"animate","inanimate","Option_F;Option_J","A",6.61204103483309,2
"123","60fe22beeb612ead4d261590","computer","calibrator_ani_feedback","Animacy","AV",1738785979122,"Option_J",785,"animate","inanimate","Option_F;Option_J","A",6.66568371778241,3
"124","60fe22beeb612ead4d261590","bottle","calibrator_ani_feedback","Animacy","AV",1738785982539,"Option_J",652,"animate","inanimate","Option_F;Option_J","A",6.48004456192665,4
"125","60fe22beeb612ead4d261590","human","calibrator_ani_feedback","Animacy","AV",1738785985876,"Option_F",570,"animate","inanimate","Option_F;Option_J","A",6.3456363608286,5
"126","60fe22beeb612ead4d261590","elephant","calibrator_ani_feedback","Animacy","AV",1738785989371,"Option_F",728,"animate","inanimate","Option_F;Option_J","A",6.59030104819669,6
"127","60fe22beeb612ead4d261590","chair","calibrator_ani_feedback","Animacy","AV",1738785992707,"Option_J",573,"animate","inanimate","Option_F;Option_J","A",6.35088571671474,7
"128","60fe22beeb612ead4d261590","teenager","calibrator_ani_feedback","Animacy","AV",1738785996181,"Option_F",714,"animate","inanimate","Option_F;Option_J","A",6.57088296233958,8
"129","60fe22beeb612ead4d261590","horse","calibrator_ani_feedback","Animacy","AV",1738785999657,"Option_F",708,"animate","inanimate","Option_F;Option_J","A",6.56244409369372,9
"130","60fe22beeb612ead4d261590","table","calibrator_ani_feedback","Animacy","AV",1738786002947,"Option_J",532,"animate","inanimate","Option_F;Option_J","A",6.27664348934164,10
"131","60fe22beeb612ead4d261590","elephant","calibrator_ani_no_feedback","Animacy","AV",1738786006281,"animate",572,"A","animate;inanimate","","",6.3491389913798,11
"132","60fe22beeb612ead4d261590","monkey","calibrator_ani_no_feedback","Animacy","AV",1738786007653,"animate",611,"A","animate;inanimate","","",6.4150969591716,12
"133","60fe22beeb612ead4d261590","teenager","calibrator_ani_no_feedback","Animacy","AV",1738786008917,"animate",508,"A","animate;inanimate","","",6.23048144757848,13
"134","60fe22beeb612ead4d261590","clock","calibrator_ani_no_feedback","Animacy","AV",1738786010188,"inanimate",511,"A","animate;inanimate","","",6.2363695902037,14
"135","60fe22beeb612ead4d261590","human","calibrator_ani_no_feedback","Animacy","AV",1738786011406,"animate",464,"A","animate;inanimate","","",6.13988455222626,15
"136","60fe22beeb612ead4d261590","bottle","calibrator_ani_no_feedback","Animacy","AV",1738786012635,"inanimate",470,"A","animate;inanimate","","",6.1527326947041,16
"137","60fe22beeb612ead4d261590","computer","calibrator_ani_no_feedback","Animacy","AV",1738786013866,"inanimate",475,"A","animate;inanimate","","",6.16331480403464,17
"138","60fe22beeb612ead4d261590","horse","calibrator_ani_no_feedback","Animacy","AV",1738786015091,"animate",469,"A","animate;inanimate","","",6.15060276844628,18
"139","60fe22beeb612ead4d261590","table","calibrator_ani_no_feedback","Animacy","AV",1738786016401,"inanimate",550,"A","animate;inanimate","","",6.30991827822652,19
"140","60fe22beeb612ead4d261590","chair","calibrator_ani_no_feedback","Animacy","AV",1738786017684,"inanimate",523,"A","animate;inanimate","","",6.25958146406492,20
"141","60fe22beeb612ead4d261590","insecure","calibrator_val_feedback","Valence","AV",1738786232724,"negative",752,"positive","negative","positive;negative","A",6.62273632394984,21
"142","60fe22beeb612ead4d261590","joke","calibrator_val_feedback","Valence","AV",1738786234736,"positive",933,"positive","negative","positive;negative","A",6.83840520084734,22
"143","60fe22beeb612ead4d261590","invader","calibrator_val_feedback","Valence","AV",1738786238507,"negative",1009,"positive","negative","positive;negative","A",6.91671502035361,23
"144","60fe22beeb612ead4d261590","kitten","calibrator_val_feedback","Valence","AV",1738786241988,"positive",720,"positive","negative","positive;negative","A",6.5792512120101,24
"145","60fe22beeb612ead4d261590","hat","calibrator_val_feedback","Valence","AV",1738786246029,"positive",1274,"positive","negative","positive;negative","A",7.14991683613211,25
"146","60fe22beeb612ead4d261590","grin","calibrator_val_feedback","Valence","AV",1738786249630,"positive",840,"positive","negative","positive;negative","A",6.73340189183736,26
"147","60fe22beeb612ead4d261590","industry","calibrator_val_feedback","Valence","AV",1738786253469,"negative",1077,"positive","negative","positive;negative","A",6.98193467715639,27
"148","60fe22beeb612ead4d261590","icebox","calibrator_val_feedback","Valence","AV",1738786257421,"positive",1194,"positive","negative","positive;negative","A",7.08506429395255,28
"149","60fe22beeb612ead4d261590","jail","calibrator_val_feedback","Valence","AV",1738786260984,"negative",801,"positive","negative","positive;negative","A",6.68586094706836,29
"150","60fe22beeb612ead4d261590","free","calibrator_val_feedback","Valence","AV",1738786264709,"positive",964,"positive","negative","positive;negative","A",6.87109129461055,30
"151","60fe22beeb612ead4d261590","hat","calibrator_val_no_feedback","Valence","AV",1738786268393,"positive",927,"A","positive;negative","","",6.83195356556585,31
"152","60fe22beeb612ead4d261590","invader","calibrator_val_no_feedback","Valence","AV",1738786269932,"negative",780,"A","positive;negative","","",6.65929391968364,32
"153","60fe22beeb612ead4d261590","grin","calibrator_val_no_feedback","Valence","AV",1738786271323,"positive",633,"A","positive;negative","","",6.45047042214418,33
"154","60fe22beeb612ead4d261590","kitten","calibrator_val_no_feedback","Valence","AV",1738786272647,"positive",568,"A","positive;negative","","",6.34212141872115,34
"155","60fe22beeb612ead4d261590","jail","calibrator_val_no_feedback","Valence","AV",1738786273914,"negative",508,"A","positive;negative","","",6.23048144757848,35
"156","60fe22beeb612ead4d261590","joke","calibrator_val_no_feedback","Valence","AV",1738786275200,"positive",525,"A","positive;negative","","",6.26339826259162,36
"157","60fe22beeb612ead4d261590","icebox","calibrator_val_no_feedback","Valence","AV",1738786277193,"positive",1239,"A","positive;negative","","",7.12205988162914,37
"158","60fe22beeb612ead4d261590","industry","calibrator_val_no_feedback","Valence","AV",1738786278806,"negative",853,"A","positive;negative","","",6.74875954749168,38
"159","60fe22beeb612ead4d261590","insecure","calibrator_val_no_feedback","Valence","AV",1738786280217,"negative",652,"A","positive;negative","","",6.48004456192665,39
"160","60fe22beeb612ead4d261590","free","calibrator_val_no_feedback","Valence","AV",1738786281706,"positive",735,"A","positive;negative","","",6.59987049921284,40
"161","6126c68385863fa349a80305","jail","calibrator_val_feedback","Valence","VA",1743013277994,"negative",891,"negative","positive","negative;positive","B",6.79234442747081,1
"162","6126c68385863fa349a80305","hat","calibrator_val_feedback","Valence","VA",1743013281930,"positive",1289,"negative","positive","negative;positive","B",7.16162200293919,2
"163","6126c68385863fa349a80305","kitten","calibrator_val_feedback","Valence","VA",1743013283666,"positive",823,"negative","positive","negative;positive","B",6.71295620067707,3
"164","6126c68385863fa349a80305","insecure","calibrator_val_feedback","Valence","VA",1743013287323,"negative",895,"negative","positive","negative;positive","B",6.79682371827486,4
"165","6126c68385863fa349a80305","grin","calibrator_val_feedback","Valence","VA",1743013291018,"positive",937,"negative","positive","negative;positive","B",6.84268328223842,5
"166","6126c68385863fa349a80305","joke","calibrator_val_feedback","Valence","VA",1743013294930,"positive",1145,"negative","positive","negative;positive","B",7.04315991598834,6
"167","6126c68385863fa349a80305","free","calibrator_val_feedback","Valence","VA",1743013298770,"positive",1075,"negative","positive","negative;positive","B",6.98007594056176,7
"168","6126c68385863fa349a80305","icebox","calibrator_val_feedback","Valence","VA",1743013302898,"positive",1361,"negative","positive","negative;positive","B",7.21597500265147,8
"169","6126c68385863fa349a80305","invader","calibrator_val_feedback","Valence","VA",1743013306618,"negative",963,"negative","positive","negative;positive","B",6.87005341179813,9
"170","6126c68385863fa349a80305","industry","calibrator_val_feedback","Valence","VA",1743013310786,"positive",1409,"negative","positive","negative;positive","B",7.25063551189868,10
"171","6126c68385863fa349a80305","invader","calibrator_val_no_feedback","Valence","VA",1743013314362,"negative",815,"B","negative;positive","","",6.70318811324086,11
"172","6126c68385863fa349a80305","hat","calibrator_val_no_feedback","Valence","VA",1743013315851,"positive",735,"B","negative;positive","","",6.59987049921284,12
"173","6126c68385863fa349a80305","free","calibrator_val_no_feedback","Valence","VA",1743013317410,"positive",800,"B","negative;positive","","",6.68461172766793,13
"174","6126c68385863fa349a80305","industry","calibrator_val_no_feedback","Valence","VA",1743013319298,"positive",1135,"B","negative;positive","","",7.0343879299155,14
"175","6126c68385863fa349a80305","joke","calibrator_val_no_feedback","Valence","VA",1743013321218,"positive",1162,"B","negative;positive","","",7.05789793741186,15
"176","6126c68385863fa349a80305","grin","calibrator_val_no_feedback","Valence","VA",1743013322634,"positive",662,"B","negative;positive","","",6.49526555593701,16
"177","6126c68385863fa349a80305","jail","calibrator_val_no_feedback","Valence","VA",1743013324178,"negative",785,"B","negative;positive","","",6.66568371778241,17
"178","6126c68385863fa349a80305","insecure","calibrator_val_no_feedback","Valence","VA",1743013325634,"negative",699,"B","negative;positive","","",6.54965074223381,18
"179","6126c68385863fa349a80305","icebox","calibrator_val_no_feedback","Valence","VA",1743013327155,"positive",761,"B","negative;positive","","",6.63463335786169,19
"180","6126c68385863fa349a80305","kitten","calibrator_val_no_feedback","Valence","VA",1743013328594,"positive",687,"B","negative;positive","","",6.53233429222235,20
"181","6126c68385863fa349a80305","table","calibrator_ani_feedback","Animacy","VA",1743013552514,"Option_F",1441,"inanimate","animate","Option_F;Option_J","B",7.27309259599952,21
"182","6126c68385863fa349a80305","computer","calibrator_ani_feedback","Animacy","VA",1743013558082,"Option_F",1449,"inanimate","animate","Option_F;Option_J","B",7.27862894232068,22
"183","6126c68385863fa349a80305","chair","calibrator_ani_feedback","Animacy","VA",1743013560515,"Option_F",1031,"inanimate","animate","Option_F;Option_J","B",6.93828448401696,23
"184","6126c68385863fa349a80305","human","calibrator_ani_feedback","Animacy","VA",1743013564099,"Option_J",826,"inanimate","animate","Option_F;Option_J","B",6.71659477352098,24
"185","6126c68385863fa349a80305","monkey","calibrator_ani_feedback","Animacy","VA",1743013567722,"Option_J",863,"inanimate","animate","Option_F;Option_J","B",6.76041469108343,25
"186","6126c68385863fa349a80305","clock","calibrator_ani_feedback","Animacy","VA",1743013571426,"Option_F",940,"inanimate","animate","Option_F;Option_J","B",6.84587987526405,26
"187","6126c68385863fa349a80305","teenager","calibrator_ani_feedback","Animacy","VA",1743013575331,"Option_J",1149,"inanimate","animate","Option_F;Option_J","B",7.04664727784876,27
"188","6126c68385863fa349a80305","elephant","calibrator_ani_feedback","Animacy","VA",1743013578978,"Option_J",883,"inanimate","animate","Option_F;Option_J","B",6.78332520060396,28
"189","6126c68385863fa349a80305","horse","calibrator_ani_feedback","Animacy","VA",1743013582754,"Option_J",1015,"inanimate","animate","Option_F;Option_J","B",6.92264389147589,29
"190","6126c68385863fa349a80305","bottle","calibrator_ani_feedback","Animacy","VA",1743013586394,"Option_F",883,"inanimate","animate","Option_F;Option_J","B",6.78332520060396,30
"191","6126c68385863fa349a80305","monkey","calibrator_ani_no_feedback","Animacy","VA",1743013589818,"animate",664,"B","inanimate;animate","","",6.49828214947643,31
"192","6126c68385863fa349a80305","elephant","calibrator_ani_no_feedback","Animacy","VA",1743013591610,"animate",1031,"B","inanimate;animate","","",6.93828448401696,32
"193","6126c68385863fa349a80305","computer","calibrator_ani_no_feedback","Animacy","VA",1743013593346,"inanimate",977,"B","inanimate;animate","","",6.88448665204278,33
"194","6126c68385863fa349a80305","bottle","calibrator_ani_no_feedback","Animacy","VA",1743013594883,"inanimate",780,"B","inanimate;animate","","",6.65929391968364,34
"195","6126c68385863fa349a80305","table","calibrator_ani_no_feedback","Animacy","VA",1743013596315,"inanimate",670,"B","inanimate;animate","","",6.50727771238501,35
"196","6126c68385863fa349a80305","human","calibrator_ani_no_feedback","Animacy","VA",1743013597962,"animate",893,"B","inanimate;animate","","",6.7945865808765,36
"197","6126c68385863fa349a80305","chair","calibrator_ani_no_feedback","Animacy","VA",1743013599338,"inanimate",618,"B","inanimate;animate","","",6.42648845745769,37
"198","6126c68385863fa349a80305","clock","calibrator_ani_no_feedback","Animacy","VA",1743013600779,"inanimate",679,"B","inanimate;animate","","",6.5206211275587,38
"199","6126c68385863fa349a80305","horse","calibrator_ani_no_feedback","Animacy","VA",1743013602122,"animate",589,"B","inanimate;animate","","",6.37842618365159,39
"200","6126c68385863fa349a80305","teenager","calibrator_ani_no_feedback","Animacy","VA",1743013603618,"inanimate",740,"B","inanimate;animate","","",6.60665018619822,40
"201","6526ba5706ea8e4e5cafde48","icebox","calibrator_val_feedback","Valence","VA",1743009269657,"positive",1954,"positive","negative","positive;negative","A",7.57763383260273,1
"202","6526ba5706ea8e4e5cafde48","insecure","calibrator_val_feedback","Valence","VA",1743009273292,"negative",2264,"positive","negative","positive;negative","A",7.72488843932307,2
"203","6526ba5706ea8e4e5cafde48","grin","calibrator_val_feedback","Valence","VA",1743009277675,"positive",1619,"positive","negative","positive;negative","A",7.38956395367764,3
"204","6526ba5706ea8e4e5cafde48","hat","calibrator_val_feedback","Valence","VA",1743009282184,"positive",1745,"positive","negative","positive;negative","A",7.46450983463653,4
"205","6526ba5706ea8e4e5cafde48","invader","calibrator_val_feedback","Valence","VA",1743009287117,"negative",2171,"positive","negative","positive;negative","A",7.68294316987829,5
"206","6526ba5706ea8e4e5cafde48","jail","calibrator_val_feedback","Valence","VA",1743009291288,"negative",1409,"positive","negative","positive;negative","A",7.25063551189868,6
"207","6526ba5706ea8e4e5cafde48","kitten","calibrator_val_feedback","Valence","VA",1743009295543,"positive",1495,"positive","negative","positive;negative","A",7.30988148582479,7
"208","6526ba5706ea8e4e5cafde48","joke","calibrator_val_feedback","Valence","VA",1743009299678,"positive",1375,"positive","negative","positive;negative","A",7.22620901010067,8
"209","6526ba5706ea8e4e5cafde48","industry","calibrator_val_feedback","Valence","VA",1743009304304,"positive",1863,"positive","negative","positive;negative","A",7.52994337060159,9
"210","6526ba5706ea8e4e5cafde48","free","calibrator_val_feedback","Valence","VA",1743009307967,"positive",905,"positive","negative","positive;negative","A",6.80793494369993,10
"211","6526ba5706ea8e4e5cafde48","jail","calibrator_val_no_feedback","Valence","VA",1743009311727,"negative",993,"A","positive;negative","","",6.90073066404517,11
"212","6526ba5706ea8e4e5cafde48","industry","calibrator_val_no_feedback","Valence","VA",1743009313949,"positive",1466,"A","positive;negative","","",7.2902928824466,12
"213","6526ba5706ea8e4e5cafde48","insecure","calibrator_val_no_feedback","Valence","VA",1743009315879,"negative",1171,"A","positive;negative","","",7.06561336359772,13
"214","6526ba5706ea8e4e5cafde48","free","calibrator_val_no_feedback","Valence","VA",1743009317491,"positive",853,"A","positive;negative","","",6.74875954749168,14
"215","6526ba5706ea8e4e5cafde48","hat","calibrator_val_no_feedback","Valence","VA",1743009319080,"positive",836,"A","positive;negative","","",6.7286286130847,15
"216","6526ba5706ea8e4e5cafde48","icebox","calibrator_val_no_feedback","Valence","VA",1743009320781,"positive",942,"A","positive;negative","","",6.84800527457636,16
"217","6526ba5706ea8e4e5cafde48","invader","calibrator_val_no_feedback","Valence","VA",1743009322289,"negative",751,"A","positive;negative","","",6.62140565176413,17
"218","6526ba5706ea8e4e5cafde48","grin","calibrator_val_no_feedback","Valence","VA",1743009323807,"positive",763,"A","positive;negative","","",6.63725803128446,18
"219","6526ba5706ea8e4e5cafde48","joke","calibrator_val_no_feedback","Valence","VA",1743009325250,"positive",684,"A","positive;negative","","",6.52795791762255,19
"220","6526ba5706ea8e4e5cafde48","kitten","calibrator_val_no_feedback","Valence","VA",1743009326684,"positive",677,"A","positive;negative","","",6.51767127291227,20
"221","6526ba5706ea8e4e5cafde48","monkey","calibrator_ani_feedback","Animacy","VA",1743009546715,"Option_F",2797,"animate","inanimate","Option_F;Option_J","A",7.93630269320196,21
"222","6526ba5706ea8e4e5cafde48","bottle","calibrator_ani_feedback","Animacy","VA",1743009551119,"Option_F",1644,"animate","inanimate","Option_F;Option_J","A",7.40488757561612,22
"223","6526ba5706ea8e4e5cafde48","chair","calibrator_ani_feedback","Animacy","VA",1743009554883,"Option_J",1000,"animate","inanimate","Option_F;Option_J","A",6.90775527898214,23
"224","6526ba5706ea8e4e5cafde48","human","calibrator_ani_feedback","Animacy","VA",1743009558394,"Option_F",749,"animate","inanimate","Option_F;Option_J","A",6.61873898351722,24
"225","6526ba5706ea8e4e5cafde48","computer","calibrator_ani_feedback","Animacy","VA",1743009562388,"Option_J",1232,"animate","inanimate","Option_F;Option_J","A",7.11639414409346,25
"226","6526ba5706ea8e4e5cafde48","clock","calibrator_ani_feedback","Animacy","VA",1743009565899,"Option_J",752,"animate","inanimate","Option_F;Option_J","A",6.62273632394984,26
"227","6526ba5706ea8e4e5cafde48","teenager","calibrator_ani_feedback","Animacy","VA",1743009569629,"Option_F",970,"animate","inanimate","Option_F;Option_J","A",6.87729607149743,27
"228","6526ba5706ea8e4e5cafde48","table","calibrator_ani_feedback","Animacy","VA",1743009573435,"Option_J",1042,"animate","inanimate","Option_F;Option_J","A",6.94889722231331,28
"229","6526ba5706ea8e4e5cafde48","elephant","calibrator_ani_feedback","Animacy","VA",1743009576974,"Option_F",776,"animate","inanimate","Option_F;Option_J","A",6.65415252018322,29
"230","6526ba5706ea8e4e5cafde48","horse","calibrator_ani_feedback","Animacy","VA",1743009580523,"Option_F",792,"animate","inanimate","Option_F;Option_J","A",6.67456139181443,30
"231","6526ba5706ea8e4e5cafde48","human","calibrator_ani_no_feedback","Animacy","VA",1743009584150,"animate",869,"A","animate;inanimate","","",6.76734312526539,31
"232","6526ba5706ea8e4e5cafde48","teenager","calibrator_ani_no_feedback","Animacy","VA",1743009586024,"animate",1115,"A","animate;inanimate","","",7.01660968389422,32
"233","6526ba5706ea8e4e5cafde48","horse","calibrator_ani_no_feedback","Animacy","VA",1743009587610,"animate",830,"A","animate;inanimate","","",6.72142570079064,33
"234","6526ba5706ea8e4e5cafde48","computer","calibrator_ani_no_feedback","Animacy","VA",1743009589059,"inanimate",693,"A","animate;inanimate","","",6.5410299991899,34
"235","6526ba5706ea8e4e5cafde48","table","calibrator_ani_no_feedback","Animacy","VA",1743009590581,"inanimate",763,"A","animate;inanimate","","",6.63725803128446,35
"236","6526ba5706ea8e4e5cafde48","chair","calibrator_ani_no_feedback","Animacy","VA",1743009593000,"inanimate",1659,"A","animate;inanimate","","",7.41397029019044,36
"237","6526ba5706ea8e4e5cafde48","bottle","calibrator_ani_no_feedback","Animacy","VA",1743009594817,"animate",1057,"A","animate;inanimate","","",6.96318998587024,37
"238","6526ba5706ea8e4e5cafde48","monkey","calibrator_ani_no_feedback","Animacy","VA",1743009598011,"inanimate",2437,"A","animate;inanimate","","",7.79852305362521,38
"239","6526ba5706ea8e4e5cafde48","clock","calibrator_ani_no_feedback","Animacy","VA",1743009619635,"inanimate",20867,"A","animate;inanimate","","",9.94592424273339,39
"240","6526ba5706ea8e4e5cafde48","elephant","calibrator_ani_no_feedback","Animacy","VA",1743009622667,"animate",2273,"A","animate;inanimate","","",7.72885582385254,40
"241","62a8c0c093226bb856654f11","bottle","calibrator_ani_feedback","Animacy","AV",1743000271903,"Option_F",126,"inanimate","animate","Option_F;Option_J","B",4.83628190695148,1
"242","62a8c0c093226bb856654f11","elephant","calibrator_ani_feedback","Animacy","AV",1743000275863,"Option_F",1193,"inanimate","animate","Option_F;Option_J","B",7.08422642209792,2
"243","62a8c0c093226bb856654f11","teenager","calibrator_ani_feedback","Animacy","AV",1743000279830,"Option_F",1204,"inanimate","animate","Option_F;Option_J","B",7.09340462586877,3
"244","62a8c0c093226bb856654f11","chair","calibrator_ani_feedback","Animacy","AV",1743000283319,"Option_F",728,"inanimate","animate","Option_F;Option_J","B",6.59030104819669,4
"245","62a8c0c093226bb856654f11","horse","calibrator_ani_feedback","Animacy","AV",1743000287327,"Option_J",1246,"inanimate","animate","Option_F;Option_J","B",7.1276936993474,5
"246","62a8c0c093226bb856654f11","monkey","calibrator_ani_feedback","Animacy","AV",1743000290853,"Option_J",762,"inanimate","animate","Option_F;Option_J","B",6.63594655568665,6
"247","62a8c0c093226bb856654f11","human","calibrator_ani_feedback","Animacy","AV",1743000294407,"Option_J",796,"inanimate","animate","Option_F;Option_J","B",6.67959918584438,7
"248","62a8c0c093226bb856654f11","table","calibrator_ani_feedback","Animacy","AV",1743000297831,"Option_F",658,"inanimate","animate","Option_F;Option_J","B",6.48920493132532,8
"249","62a8c0c093226bb856654f11","computer","calibrator_ani_feedback","Animacy","AV",1743000313369,"Option_F",12775,"inanimate","animate","Option_F;Option_J","B",9.45524541507191,9
"250","62a8c0c093226bb856654f11","clock","calibrator_ani_feedback","Animacy","AV",1743000317080,"Option_F",951,"inanimate","animate","Option_F;Option_J","B",6.85751406254539,10
"251","62a8c0c093226bb856654f11","chair","calibrator_ani_no_feedback","Animacy","AV",1743000320399,"inanimate",562,"B","inanimate;animate","","",6.33150184989369,11
"252","62a8c0c093226bb856654f11","elephant","calibrator_ani_no_feedback","Animacy","AV",1743000321800,"animate",644,"B","inanimate;animate","","",6.46769872610435,12
"253","62a8c0c093226bb856654f11","bottle","calibrator_ani_no_feedback","Animacy","AV",1743000323524,"inanimate",968,"B","inanimate;animate","","",6.87523208727658,13
"254","62a8c0c093226bb856654f11","teenager","calibrator_ani_no_feedback","Animacy","AV",1743000325063,"animate",782,"B","inanimate;animate","","",6.66185474054531,14
"255","62a8c0c093226bb856654f11","clock","calibrator_ani_no_feedback","Animacy","AV",1743000326631,"inanimate",811,"B","inanimate;animate","","",6.69826805411541,15
"256","62a8c0c093226bb856654f11","horse","calibrator_ani_no_feedback","Animacy","AV",1743000327959,"animate",566,"B","inanimate;animate","","",6.33859407820318,16
"257","62a8c0c093226bb856654f11","monkey","calibrator_ani_no_feedback","Animacy","AV",1743000329343,"animate",624,"B","inanimate;animate","","",6.43615036836943,17
"258","62a8c0c093226bb856654f11","computer","calibrator_ani_no_feedback","Animacy","AV",1743000330751,"inanimate",653,"B","inanimate;animate","","",6.48157712927643,18
"259","62a8c0c093226bb856654f11","table","calibrator_ani_no_feedback","Animacy","AV",1743000331982,"inanimate",472,"B","inanimate;animate","","",6.15697898558556,19
"260","62a8c0c093226bb856654f11","human","calibrator_ani_no_feedback","Animacy","AV",1743000333167,"animate",430,"B","inanimate;animate","","",6.06378520868761,20
"261","62a8c0c093226bb856654f11","industry","calibrator_val_feedback","Valence","AV",1743001491788,"negative",1656,"positive","negative","positive;negative","A",7.4121603349452,21
"262","62a8c0c093226bb856654f11","jail","calibrator_val_feedback","Valence","AV",1743001496300,"negative",1748,"positive","negative","positive;negative","A",7.46622755621548,22
"263","62a8c0c093226bb856654f11","insecure","calibrator_val_feedback","Valence","AV",1743001500002,"negative",938,"positive","negative","positive;negative","A",6.84374994900622,23
"264","62a8c0c093226bb856654f11","hat","calibrator_val_feedback","Valence","AV",1743001503692,"positive",928,"positive","negative","positive;negative","A",6.8330317327862,24
"265","62a8c0c093226bb856654f11","joke","calibrator_val_feedback","Valence","AV",1743001507564,"positive",1109,"positive","negative","positive;negative","A",7.01121398735037,25
"266","62a8c0c093226bb856654f11","invader","calibrator_val_feedback","Valence","AV",1743001512189,"negative",1865,"positive","negative","positive;negative","A",7.53101633207792,26
"267","62a8c0c093226bb856654f11","kitten","calibrator_val_feedback","Valence","AV",1743001515604,"positive",652,"positive","negative","positive;negative","A",6.48004456192665,27
"268","62a8c0c093226bb856654f11","grin","calibrator_val_feedback","Valence","AV",1743001519635,"positive",1270,"positive","negative","positive;negative","A",7.14677217945264,28
"269","62a8c0c093226bb856654f11","icebox","calibrator_val_feedback","Valence","AV",1743001523462,"negative",1067,"positive","negative","positive;negative","A",6.97260625130175,29
"270","62a8c0c093226bb856654f11","free","calibrator_val_feedback","Valence","AV",1743001528812,"negative",2590,"positive","negative","positive;negative","A",7.85941315469358,30
"271","62a8c0c093226bb856654f11","industry","calibrator_val_no_feedback","Valence","AV",1743001535537,"negative",3961,"A","positive;negative","","",8.28425179762192,31
"272","62a8c0c093226bb856654f11","hat","calibrator_val_no_feedback","Valence","AV",1743001538347,"positive",2054,"A","positive;negative","","",7.6275443904885,32
"273","62a8c0c093226bb856654f11","grin","calibrator_val_no_feedback","Valence","AV",1743001542220,"positive",3117,"A","positive;negative","","",8.04462627976734,33
"274","62a8c0c093226bb856654f11","jail","calibrator_val_no_feedback","Valence","AV",1743001543900,"negative",921,"A","positive;negative","","",6.82546003625531,34
"275","62a8c0c093226bb856654f11","kitten","calibrator_val_no_feedback","Valence","AV",1743001545284,"positive",625,"A","positive;negative","","",6.4377516497364,35
"276","62a8c0c093226bb856654f11","free","calibrator_val_no_feedback","Valence","AV",1743001546642,"positive",598,"A","positive;negative","","",6.39359075395063,36
"277","62a8c0c093226bb856654f11","insecure","calibrator_val_no_feedback","Valence","AV",1743001548012,"negative",613,"A","positive;negative","","",6.41836493593621,37
"278","62a8c0c093226bb856654f11","icebox","calibrator_val_no_feedback","Valence","AV",1743001549830,"negative",1057,"A","positive;negative","","",6.96318998587024,38
"279","62a8c0c093226bb856654f11","joke","calibrator_val_no_feedback","Valence","AV",1743001551220,"positive",633,"A","positive;negative","","",6.45047042214418,39
"280","62a8c0c093226bb856654f11","invader","calibrator_val_no_feedback","Valence","AV",1743001552748,"negative",769,"A","positive;negative","","",6.64509096950564,40
"281","5f17821d53d8590009cfc951","joke","calibrator_val_feedback","Valence","VA",1743014173062,"positive",1759,"negative","positive","negative;positive","B",7.47250074473756,1
"282","5f17821d53d8590009cfc951","grin","calibrator_val_feedback","Valence","VA",1743014177119,"positive",1289,"negative","positive","negative;positive","B",7.16162200293919,2
"283","5f17821d53d8590009cfc951","industry","calibrator_val_feedback","Valence","VA",1743014181223,"positive",1339,"negative","positive","negative;positive","B",7.19967834569117,3
"284","5f17821d53d8590009cfc951","free","calibrator_val_feedback","Valence","VA",1743014185747,"positive",1755,"negative","positive","negative;positive","B",7.47022413589997,4
"285","5f17821d53d8590009cfc951","hat","calibrator_val_feedback","Valence","VA",1743014195980,"positive",7476,"negative","positive","negative;positive","B",8.91945316857545,5
"286","5f17821d53d8590009cfc951","icebox","calibrator_val_feedback","Valence","VA",1743014201581,"positive",2839,"negative","positive","negative;positive","B",7.95120715647297,6
"287","5f17821d53d8590009cfc951","invader","calibrator_val_feedback","Valence","VA",1743014205925,"negative",1581,"negative","positive","negative;positive","B",7.36581283720947,7
"288","5f17821d53d8590009cfc951","insecure","calibrator_val_feedback","Valence","VA",1743014209829,"negative",1144,"negative","positive","negative;positive","B",7.04228617193974,8
"289","5f17821d53d8590009cfc951","kitten","calibrator_val_feedback","Valence","VA",1743014213790,"positive",1204,"negative","positive","negative;positive","B",7.09340462586877,9
"290","5f17821d53d8590009cfc951","jail","calibrator_val_feedback","Valence","VA",1743014217730,"negative",1178,"negative","positive","negative;positive","B",7.07157336421153,10
"291","5f17821d53d8590009cfc951","grin","calibrator_val_no_feedback","Valence","VA",1743014221843,"positive",1349,"B","negative;positive","","",7.20711885620776,11
"292","5f17821d53d8590009cfc951","free","calibrator_val_no_feedback","Valence","VA",1743014223749,"positive",1149,"B","negative;positive","","",7.04664727784876,12
"293","5f17821d53d8590009cfc951","invader","calibrator_val_no_feedback","Valence","VA",1743014225807,"negative",1299,"B","negative;positive","","",7.1693500166706,13
"294","5f17821d53d8590009cfc951","icebox","calibrator_val_no_feedback","Valence","VA",1743014228748,"positive",2181,"B","negative;positive","","",7.68753876620163,14
"295","5f17821d53d8590009cfc951","insecure","calibrator_val_no_feedback","Valence","VA",1743014230730,"negative",1223,"B","negative;positive","","",7.10906213568717,15
"296","5f17821d53d8590009cfc951","jail","calibrator_val_no_feedback","Valence","VA",1743014232565,"negative",1082,"B","negative;positive","","",6.98656645940643,16
"297","5f17821d53d8590009cfc951","joke","calibrator_val_no_feedback","Valence","VA",1743014234472,"positive",1150,"B","negative;positive","","",7.0475172213573,17
"298","5f17821d53d8590009cfc951","industry","calibrator_val_no_feedback","Valence","VA",1743014236389,"positive",1156,"B","negative;positive","","",7.05272104923232,18
"299","5f17821d53d8590009cfc951","kitten","calibrator_val_no_feedback","Valence","VA",1743014238226,"positive",1073,"B","negative;positive","","",6.9782137426307,19
"300","5f17821d53d8590009cfc951","hat","calibrator_val_no_feedback","Valence","VA",1743014239746,"positive",764,"B","negative;positive","","",6.63856778916652,20
"301","5f17821d53d8590009cfc951","table","calibrator_ani_feedback","Animacy","VA",1743014500499,"Option_F",935,"inanimate","animate","Option_F;Option_J","B",6.84054652928869,21
"302","5f17821d53d8590009cfc951","teenager","calibrator_ani_feedback","Animacy","VA",1743014504228,"Option_J",975,"inanimate","animate","Option_F;Option_J","B",6.88243747099785,22
"303","5f17821d53d8590009cfc951","monkey","calibrator_ani_feedback","Animacy","VA",1743014507633,"Option_J",643,"inanimate","animate","Option_F;Option_J","B",6.46614472423762,23
"304","5f17821d53d8590009cfc951","computer","calibrator_ani_feedback","Animacy","VA",1743014511428,"Option_F",1035,"inanimate","animate","Option_F;Option_J","B",6.94215670569947,24
"305","5f17821d53d8590009cfc951","human","calibrator_ani_feedback","Animacy","VA",1743014515028,"Option_J",835,"inanimate","animate","Option_F;Option_J","B",6.72743172485086,25
"306","5f17821d53d8590009cfc951","clock","calibrator_ani_feedback","Animacy","VA",1743014518856,"Option_F",1066,"inanimate","animate","Option_F;Option_J","B",6.97166860472579,26
"307","5f17821d53d8590009cfc951","elephant","calibrator_ani_feedback","Animacy","VA",1743014522348,"Option_J",731,"inanimate","animate","Option_F;Option_J","B",6.59441345974978,27
"308","5f17821d53d8590009cfc951","bottle","calibrator_ani_feedback","Animacy","VA",1743014525876,"Option_F",768,"inanimate","animate","Option_F;Option_J","B",6.64378973314767,28
"309","5f17821d53d8590009cfc951","chair","calibrator_ani_feedback","Animacy","VA",1743014529533,"Option_F",893,"inanimate","animate","Option_F;Option_J","B",6.7945865808765,29
"310","5f17821d53d8590009cfc951","horse","calibrator_ani_feedback","Animacy","VA",1743014533108,"Option_J",812,"inanimate","animate","Option_F;Option_J","B",6.69950034016168,30
"311","5f17821d53d8590009cfc951","teenager","calibrator_ani_no_feedback","Animacy","VA",1743014536739,"animate",877,"B","inanimate;animate","","",6.77650699237218,31
"312","5f17821d53d8590009cfc951","elephant","calibrator_ani_no_feedback","Animacy","VA",1743014538122,"animate",624,"B","inanimate;animate","","",6.43615036836943,32
"313","5f17821d53d8590009cfc951","horse","calibrator_ani_no_feedback","Animacy","VA",1743014539439,"animate",561,"B","inanimate;animate","","",6.3297209055227,33
"314","5f17821d53d8590009cfc951","computer","calibrator_ani_no_feedback","Animacy","VA",1743014540788,"inanimate",590,"B","inanimate;animate","","",6.38012253689976,34
"315","5f17821d53d8590009cfc951","bottle","calibrator_ani_no_feedback","Animacy","VA",1743014542522,"inanimate",975,"B","inanimate;animate","","",6.88243747099785,35
"316","5f17821d53d8590009cfc951","monkey","calibrator_ani_no_feedback","Animacy","VA",1743014544028,"animate",750,"B","inanimate;animate","","",6.62007320653036,36
"317","5f17821d53d8590009cfc951","human","calibrator_ani_no_feedback","Animacy","VA",1743014545642,"animate",855,"B","inanimate;animate","","",6.75110146893676,37
"318","5f17821d53d8590009cfc951","table","calibrator_ani_no_feedback","Animacy","VA",1743014547105,"inanimate",707,"B","inanimate;animate","","",6.56103066589657,38
"319","5f17821d53d8590009cfc951","chair","calibrator_ani_no_feedback","Animacy","VA",1743014548721,"animate",859,"B","inanimate;animate","","",6.75576892198425,39
"320","5f17821d53d8590009cfc951","clock","calibrator_ani_no_feedback","Animacy","VA",1743014550338,"inanimate",863,"B","inanimate;animate","","",6.76041469108343,40
"321","6535d3f1b4ff80adff474548","hat","calibrator_val_feedback","Valence","VA",1738776598015,"positive",1386,"positive","negative","positive;negative","A",7.23417717974985,1
"322","6535d3f1b4ff80adff474548","grin","calibrator_val_feedback","Valence","VA",1738776600182,"positive",960,"positive","negative","positive;negative","A",6.86693328446188,2
"323","6535d3f1b4ff80adff474548","kitten","calibrator_val_feedback","Valence","VA",1738776603633,"positive",684,"positive","negative","positive;negative","A",6.52795791762255,3
"324","6535d3f1b4ff80adff474548","industry","calibrator_val_feedback","Valence","VA",1738776607537,"negative",1136,"positive","negative","positive;negative","A",7.0352685992811,4
"325","6535d3f1b4ff80adff474548","joke","calibrator_val_feedback","Valence","VA",1738776611088,"positive",785,"positive","negative","positive;negative","A",6.66568371778241,5
"326","6535d3f1b4ff80adff474548","free","calibrator_val_feedback","Valence","VA",1738776615173,"positive",1321,"positive","negative","positive;negative","A",7.18614430452233,6
"327","6535d3f1b4ff80adff474548","insecure","calibrator_val_feedback","Valence","VA",1738776618607,"negative",669,"positive","negative","positive;negative","A",6.50578406012823,7
"328","6535d3f1b4ff80adff474548","invader","calibrator_val_feedback","Valence","VA",1738776623642,"negative",767,"positive","negative","positive;negative","A",6.64248680136726,8
"329","6535d3f1b4ff80adff474548","icebox","calibrator_val_feedback","Valence","VA",1738776625876,"positive",970,"positive","negative","positive;negative","A",6.87729607149743,9
"330","6535d3f1b4ff80adff474548","jail","calibrator_val_feedback","Valence","VA",1738776629328,"negative",683,"positive","negative","positive;negative","A",6.52649485957079,10
"331","6535d3f1b4ff80adff474548","hat","calibrator_val_no_feedback","Valence","VA",1738776632778,"positive",687,"A","positive;negative","","",6.53233429222235,11
"332","6535d3f1b4ff80adff474548","invader","calibrator_val_no_feedback","Valence","VA",1738776634246,"negative",710,"A","positive;negative","","",6.56526497003536,12
"333","6535d3f1b4ff80adff474548","kitten","calibrator_val_no_feedback","Valence","VA",1738776635613,"positive",604,"A","positive;negative","","",6.40357419793482,13
"334","6535d3f1b4ff80adff474548","free","calibrator_val_no_feedback","Valence","VA",1738776637031,"positive",658,"A","positive;negative","","",6.48920493132532,14
"335","6535d3f1b4ff80adff474548","icebox","calibrator_val_no_feedback","Valence","VA",1738776638747,"positive",956,"A","positive;negative","","",6.8627579130514,15
"336","6535d3f1b4ff80adff474548","jail","calibrator_val_no_feedback","Valence","VA",1738776640148,"negative",644,"A","positive;negative","","",6.46769872610435,16
"337","6535d3f1b4ff80adff474548","grin","calibrator_val_no_feedback","Valence","VA",1738776641565,"positive",658,"A","positive;negative","","",6.48920493132532,17
"338","6535d3f1b4ff80adff474548","joke","calibrator_val_no_feedback","Valence","VA",1738776643233,"positive",909,"A","positive;negative","","",6.81234509417748,18
"339","6535d3f1b4ff80adff474548","industry","calibrator_val_no_feedback","Valence","VA",1738776644651,"negative",659,"A","positive;negative","","",6.49072353450251,19
"340","6535d3f1b4ff80adff474548","insecure","calibrator_val_no_feedback","Valence","VA",1738776646101,"negative",694,"A","positive;negative","","",6.5424719605068,20
"341","6535d3f1b4ff80adff474548","horse","calibrator_ani_feedback","Animacy","VA",1738776861496,"Option_J",1196,"inanimate","animate","Option_F;Option_J","B",7.08673793451058,21
"342","6535d3f1b4ff80adff474548","clock","calibrator_ani_feedback","Animacy","VA",1738776864330,"Option_F",819,"inanimate","animate","Option_F;Option_J","B",6.70808408385307,22
"343","6535d3f1b4ff80adff474548","elephant","calibrator_ani_feedback","Animacy","VA",1738776867983,"Option_J",839,"inanimate","animate","Option_F;Option_J","B",6.73221070646721,23
"344","6535d3f1b4ff80adff474548","computer","calibrator_ani_feedback","Animacy","VA",1738776870467,"Option_F",839,"inanimate","animate","Option_F;Option_J","B",6.73221070646721,24
"345","6535d3f1b4ff80adff474548","table","calibrator_ani_feedback","Animacy","VA",1738776873968,"Option_F",739,"inanimate","animate","Option_F;Option_J","B",6.6052979209482,25
"346","6535d3f1b4ff80adff474548","chair","calibrator_ani_feedback","Animacy","VA",1738776877352,"Option_F",619,"inanimate","animate","Option_F;Option_J","B",6.4281052726846,26
"347","6535d3f1b4ff80adff474548","monkey","calibrator_ani_feedback","Animacy","VA",1738776880839,"Option_J",726,"inanimate","animate","Option_F;Option_J","B",6.5875500148248,27
"348","6535d3f1b4ff80adff474548","bottle","calibrator_ani_feedback","Animacy","VA",1738776884355,"Option_F",755,"inanimate","animate","Option_F;Option_J","B",6.62671774924902,28
"349","6535d3f1b4ff80adff474548","teenager","calibrator_ani_feedback","Animacy","VA",1738776887877,"Option_J",758,"inanimate","animate","Option_F;Option_J","B",6.63068338564237,29
"350","6535d3f1b4ff80adff474548","human","calibrator_ani_feedback","Animacy","VA",1738776891159,"Option_J",519,"inanimate","animate","Option_F;Option_J","B",6.25190388316589,30
"351","6535d3f1b4ff80adff474548","chair","calibrator_ani_no_feedback","Animacy","VA",1738776894476,"inanimate",549,"B","inanimate;animate","","",6.30809844150953,31
"352","6535d3f1b4ff80adff474548","teenager","calibrator_ani_no_feedback","Animacy","VA",1738776896013,"animate",781,"B","inanimate;animate","","",6.66057514983969,32
"353","6535d3f1b4ff80adff474548","human","calibrator_ani_no_feedback","Animacy","VA",1738776897544,"animate",771,"B","inanimate;animate","","",6.64768837356333,33
"354","6535d3f1b4ff80adff474548","elephant","calibrator_ani_no_feedback","Animacy","VA",1738776899094,"animate",790,"B","inanimate;animate","","",6.67203294546107,34
"355","6535d3f1b4ff80adff474548","horse","calibrator_ani_no_feedback","Animacy","VA",1738776900449,"animate",593,"B","inanimate;animate","","",6.38519439899773,35
"356","6535d3f1b4ff80adff474548","computer","calibrator_ani_no_feedback","Animacy","VA",1738776901912,"inanimate",701,"B","inanimate;animate","","",6.55250788703459,36
"357","6535d3f1b4ff80adff474548","bottle","calibrator_ani_no_feedback","Animacy","VA",1738776903430,"inanimate",755,"B","inanimate;animate","","",6.62671774924902,37
"358","6535d3f1b4ff80adff474548","monkey","calibrator_ani_no_feedback","Animacy","VA",1738776904847,"animate",660,"B","inanimate;animate","","",6.49223983502047,38
"359","6535d3f1b4ff80adff474548","table","calibrator_ani_no_feedback","Animacy","VA",1738776906197,"inanimate",590,"B","inanimate;animate","","",6.38012253689976,39
"360","6535d3f1b4ff80adff474548","clock","calibrator_ani_no_feedback","Animacy","VA",1738776907597,"inanimate",643,"B","inanimate;animate","","",6.46614472423762,40
"361","64136adc3a40777bfe518cc0","grin","calibrator_val_feedback","Valence","VA",1743005050418,"positive",996,"positive","negative","positive;negative","A",6.9037472575846,1
"362","64136adc3a40777bfe518cc0","kitten","calibrator_val_feedback","Valence","VA",1743005054753,"positive",1572,"positive","negative","positive;negative","A",7.36010397298915,2
"363","64136adc3a40777bfe518cc0","insecure","calibrator_val_feedback","Valence","VA",1743005059209,"negative",1698,"positive","negative","positive;negative","A",7.43720636687129,3
"364","64136adc3a40777bfe518cc0","joke","calibrator_val_feedback","Valence","VA",1743005063153,"positive",1180,"positive","negative","positive;negative","A",7.07326971745971,4
"365","64136adc3a40777bfe518cc0","icebox","calibrator_val_feedback","Valence","VA",1743005067673,"positive",1763,"positive","negative","positive;negative","A",7.47477218239787,5
"366","64136adc3a40777bfe518cc0","free","calibrator_val_feedback","Valence","VA",1743005071160,"positive",728,"positive","negative","positive;negative","A",6.59030104819669,6
"367","64136adc3a40777bfe518cc0","invader","calibrator_val_feedback","Valence","VA",1743005074864,"negative",946,"positive","negative","positive;negative","A",6.85224256905188,7
"368","64136adc3a40777bfe518cc0","hat","calibrator_val_feedback","Valence","VA",1743005078944,"positive",1319,"positive","negative","positive;negative","A",7.18462915271731,8
"369","64136adc3a40777bfe518cc0","jail","calibrator_val_feedback","Valence","VA",1743005082432,"negative",725,"positive","negative","positive;negative","A",6.58617165485467,9
"370","64136adc3a40777bfe518cc0","industry","calibrator_val_feedback","Valence","VA",1743005086703,"negative",1512,"positive","negative","positive;negative","A",7.32118855673948,10
"371","64136adc3a40777bfe518cc0","free","calibrator_val_no_feedback","Valence","VA",1743005090599,"positive",1134,"A","positive;negative","","",7.0335064842877,11
"372","64136adc3a40777bfe518cc0","invader","calibrator_val_no_feedback","Valence","VA",1743005092878,"negative",1520,"A","positive;negative","","",7.32646561384032,12
"373","64136adc3a40777bfe518cc0","jail","calibrator_val_no_feedback","Valence","VA",1743005094383,"negative",750,"A","positive;negative","","",6.62007320653036,13
"374","64136adc3a40777bfe518cc0","joke","calibrator_val_no_feedback","Valence","VA",1743005095870,"positive",731,"A","positive;negative","","",6.59441345974978,14
"375","64136adc3a40777bfe518cc0","grin","calibrator_val_no_feedback","Valence","VA",1743005097429,"positive",805,"A","positive;negative","","",6.69084227741856,15
"376","64136adc3a40777bfe518cc0","industry","calibrator_val_no_feedback","Valence","VA",1743005099182,"negative",997,"A","positive;negative","","",6.90475076996184,16
"377","64136adc3a40777bfe518cc0","kitten","calibrator_val_no_feedback","Valence","VA",1743005100447,"positive",504,"A","positive;negative","","",6.22257626807137,17
"378","64136adc3a40777bfe518cc0","icebox","calibrator_val_no_feedback","Valence","VA",1743005101847,"positive",643,"A","positive;negative","","",6.46614472423762,18
"379","64136adc3a40777bfe518cc0","insecure","calibrator_val_no_feedback","Valence","VA",1743005103263,"negative",660,"A","positive;negative","","",6.49223983502047,19
"380","64136adc3a40777bfe518cc0","hat","calibrator_val_no_feedback","Valence","VA",1743005104614,"positive",592,"A","positive;negative","","",6.38350663488401,20
"381","64136adc3a40777bfe518cc0","human","calibrator_ani_feedback","Animacy","VA",1743005371822,"Option_F",881,"animate","inanimate","Option_F;Option_J","A",6.78105762593618,21
"382","64136adc3a40777bfe518cc0","clock","calibrator_ani_feedback","Animacy","VA",1743005375591,"Option_J",1003,"animate","inanimate","Option_F;Option_J","A",6.91075078796194,22
"383","64136adc3a40777bfe518cc0","table","calibrator_ani_feedback","Animacy","VA",1743005379511,"Option_J",1160,"animate","inanimate","Option_F;Option_J","A",7.05617528410041,23
"384","64136adc3a40777bfe518cc0","computer","calibrator_ani_feedback","Animacy","VA",1743005383510,"Option_J",1239,"animate","inanimate","Option_F;Option_J","A",7.12205988162914,24
"385","64136adc3a40777bfe518cc0","teenager","calibrator_ani_feedback","Animacy","VA",1743005387054,"Option_F",782,"animate","inanimate","Option_F;Option_J","A",6.66185474054531,25
"386","64136adc3a40777bfe518cc0","elephant","calibrator_ani_feedback","Animacy","VA",1743005391165,"Option_J",1353,"animate","inanimate","Option_F;Option_J","A",7.21007962817079,26
"387","64136adc3a40777bfe518cc0","chair","calibrator_ani_feedback","Animacy","VA",1743005394646,"Option_J",725,"animate","inanimate","Option_F;Option_J","A",6.58617165485467,27
"388","64136adc3a40777bfe518cc0","horse","calibrator_ani_feedback","Animacy","VA",1743005398229,"Option_F",824,"animate","inanimate","Option_F;Option_J","A",6.71417052990947,28
"389","64136adc3a40777bfe518cc0","monkey","calibrator_ani_feedback","Animacy","VA",1743005401517,"Option_F",533,"animate","inanimate","Option_F;Option_J","A",6.27852142416584,29
"390","64136adc3a40777bfe518cc0","bottle","calibrator_ani_feedback","Animacy","VA",1743005405173,"Option_J",893,"animate","inanimate","Option_F;Option_J","A",6.7945865808765,30
"391","64136adc3a40777bfe518cc0","chair","calibrator_ani_no_feedback","Animacy","VA",1743005408789,"inanimate",853,"A","animate;inanimate","","",6.74875954749168,31
"392","64136adc3a40777bfe518cc0","horse","calibrator_ani_no_feedback","Animacy","VA",1743005410565,"animate",1020,"A","animate;inanimate","","",6.92755790627832,32
"393","64136adc3a40777bfe518cc0","clock","calibrator_ani_no_feedback","Animacy","VA",1743005411885,"inanimate",562,"A","animate;inanimate","","",6.33150184989369,33
"394","64136adc3a40777bfe518cc0","bottle","calibrator_ani_no_feedback","Animacy","VA",1743005413260,"inanimate",615,"A","animate;inanimate","","",6.42162226780652,34
"395","64136adc3a40777bfe518cc0","computer","calibrator_ani_no_feedback","Animacy","VA",1743005414492,"inanimate",476,"A","animate;inanimate","","",6.16541785423142,35
"396","64136adc3a40777bfe518cc0","monkey","calibrator_ani_no_feedback","Animacy","VA",1743005415764,"animate",514,"A","animate;inanimate","","",6.24222326545517,36
"397","64136adc3a40777bfe518cc0","table","calibrator_ani_no_feedback","Animacy","VA",1743005416940,"inanimate",421,"A","animate;inanimate","","",6.04263283368238,37
"398","64136adc3a40777bfe518cc0","human","calibrator_ani_no_feedback","Animacy","VA",1743005418324,"animate",625,"A","animate;inanimate","","",6.4377516497364,38
"399","64136adc3a40777bfe518cc0","elephant","calibrator_ani_no_feedback","Animacy","VA",1743005419684,"animate",607,"A","animate;inanimate","","",6.4085287910595,39
"400","64136adc3a40777bfe518cc0","teenager","calibrator_ani_no_feedback","Animacy","VA",1743005420836,"animate",394,"A","animate;inanimate","","",5.97635090929793,40
"401","63d5cbb3c8e15d4cd611bee1","kitten","calibrator_val_feedback","Valence","VA",1743007097094,"positive",997,"positive","negative","positive;negative","A",6.90475076996184,1
"402","63d5cbb3c8e15d4cd611bee1","industry","calibrator_val_feedback","Valence","VA",1743007101180,"positive",1319,"positive","negative","positive;negative","A",7.18462915271731,2
"403","63d5cbb3c8e15d4cd611bee1","invader","calibrator_val_feedback","Valence","VA",1743007105278,"negative",1333,"positive","negative","positive;negative","A",7.19518732017871,3
"404","63d5cbb3c8e15d4cd611bee1","joke","calibrator_val_feedback","Valence","VA",1743007109128,"positive",1087,"positive","negative","positive;negative","A",6.99117688712121,4
"405","63d5cbb3c8e15d4cd611bee1","insecure","calibrator_val_feedback","Valence","VA",1743007112757,"negative",864,"positive","negative","positive;negative","A",6.76157276880406,5
"406","63d5cbb3c8e15d4cd611bee1","grin","calibrator_val_feedback","Valence","VA",1743007116361,"positive",842,"positive","negative","positive;negative","A",6.73578001424233,6
"407","63d5cbb3c8e15d4cd611bee1","icebox","calibrator_val_feedback","Valence","VA",1743007120387,"positive",1260,"positive","negative","positive;negative","A",7.13886699994552,7
"408","63d5cbb3c8e15d4cd611bee1","hat","calibrator_val_feedback","Valence","VA",1743007124002,"positive",851,"positive","negative","positive;negative","A",6.74641212857337,8
"409","63d5cbb3c8e15d4cd611bee1","jail","calibrator_val_feedback","Valence","VA",1743007127520,"negative",751,"positive","negative","positive;negative","A",6.62140565176413,9
"410","63d5cbb3c8e15d4cd611bee1","free","calibrator_val_feedback","Valence","VA",1743007131069,"positive",785,"positive","negative","positive;negative","A",6.66568371778241,10
"411","63d5cbb3c8e15d4cd611bee1","insecure","calibrator_val_no_feedback","Valence","VA",1743007134840,"negative",1007,"A","positive;negative","","",6.91473089271856,11
"412","63d5cbb3c8e15d4cd611bee1","jail","calibrator_val_no_feedback","Valence","VA",1743007136548,"negative",950,"A","positive;negative","","",6.85646198459459,12
"413","63d5cbb3c8e15d4cd611bee1","invader","calibrator_val_no_feedback","Valence","VA",1743007138150,"negative",840,"A","positive;negative","","",6.73340189183736,13
"414","63d5cbb3c8e15d4cd611bee1","grin","calibrator_val_no_feedback","Valence","VA",1743007139602,"positive",693,"A","positive;negative","","",6.5410299991899,14
"415","63d5cbb3c8e15d4cd611bee1","industry","calibrator_val_no_feedback","Valence","VA",1743007141244,"positive",879,"A","positive;negative","","",6.77878489768518,15
"416","63d5cbb3c8e15d4cd611bee1","kitten","calibrator_val_no_feedback","Valence","VA",1743007142699,"positive",692,"A","positive;negative","","",6.53958595561767,16
"417","63d5cbb3c8e15d4cd611bee1","joke","calibrator_val_no_feedback","Valence","VA",1743007144202,"positive",738,"A","positive;negative","","",6.60394382460047,17
"418","63d5cbb3c8e15d4cd611bee1","icebox","calibrator_val_no_feedback","Valence","VA",1743007145738,"positive",774,"A","positive;negative","","",6.65157187358973,18
"419","63d5cbb3c8e15d4cd611bee1","free","calibrator_val_no_feedback","Valence","VA",1743007147417,"positive",921,"A","positive;negative","","",6.82546003625531,19
"420","63d5cbb3c8e15d4cd611bee1","hat","calibrator_val_no_feedback","Valence","VA",1743007148990,"positive",814,"A","positive;negative","","",6.70196036600254,20
"421","63d5cbb3c8e15d4cd611bee1","human","calibrator_ani_feedback","Animacy","VA",1743007382109,"Option_F",921,"animate","inanimate","Option_F;Option_J","A",6.82546003625531,21
"422","63d5cbb3c8e15d4cd611bee1","horse","calibrator_ani_feedback","Animacy","VA",1743007386579,"Option_F",1707,"animate","inanimate","Option_F;Option_J","A",7.44249272279444,22
"423","63d5cbb3c8e15d4cd611bee1","clock","calibrator_ani_feedback","Animacy","VA",1743007390935,"Option_F",1594,"animate","inanimate","Option_F;Option_J","A",7.37400185935016,23
"424","63d5cbb3c8e15d4cd611bee1","computer","calibrator_ani_feedback","Animacy","VA",1743007395508,"Option_J",1809,"animate","inanimate","Option_F;Option_J","A",7.50052948539529,24
"425","63d5cbb3c8e15d4cd611bee1","elephant","calibrator_ani_feedback","Animacy","VA",1743007399657,"Option_F",1382,"animate","inanimate","Option_F;Option_J","A",7.23128700432762,25
"426","63d5cbb3c8e15d4cd611bee1","table","calibrator_ani_feedback","Animacy","VA",1743007403313,"Option_J",896,"animate","inanimate","Option_F;Option_J","A",6.79794041297493,26
"427","63d5cbb3c8e15d4cd611bee1","monkey","calibrator_ani_feedback","Animacy","VA",1743007406748,"Option_F",669,"animate","inanimate","Option_F;Option_J","A",6.50578406012823,27
"428","63d5cbb3c8e15d4cd611bee1","chair","calibrator_ani_feedback","Animacy","VA",1743007410286,"Option_J",774,"animate","inanimate","Option_F;Option_J","A",6.65157187358973,28
"429","63d5cbb3c8e15d4cd611bee1","bottle","calibrator_ani_feedback","Animacy","VA",1743007413780,"Option_J",732,"animate","inanimate","Option_F;Option_J","A",6.59578051396131,29
"430","63d5cbb3c8e15d4cd611bee1","teenager","calibrator_ani_feedback","Animacy","VA",1743007417191,"Option_F",645,"animate","inanimate","Option_F;Option_J","A",6.46925031679577,30
"431","63d5cbb3c8e15d4cd611bee1","bottle","calibrator_ani_no_feedback","Animacy","VA",1743007420775,"inanimate",820,"A","animate;inanimate","","",6.7093043402583,31
"432","63d5cbb3c8e15d4cd611bee1","horse","calibrator_ani_no_feedback","Animacy","VA",1743007422362,"animate",825,"A","animate;inanimate","","",6.71538338633468,32
"433","63d5cbb3c8e15d4cd611bee1","teenager","calibrator_ani_no_feedback","Animacy","VA",1743007423723,"animate",601,"A","animate;inanimate","","",6.39859493453521,33
"434","63d5cbb3c8e15d4cd611bee1","computer","calibrator_ani_no_feedback","Animacy","VA",1743007425186,"inanimate",707,"A","animate;inanimate","","",6.56103066589657,34
"435","63d5cbb3c8e15d4cd611bee1","elephant","calibrator_ani_no_feedback","Animacy","VA",1743007426726,"animate",776,"A","animate;inanimate","","",6.65415252018322,35
"436","63d5cbb3c8e15d4cd611bee1","table","calibrator_ani_no_feedback","Animacy","VA",1743007428163,"inanimate",681,"A","animate;inanimate","","",6.52356230614951,36
"437","63d5cbb3c8e15d4cd611bee1","monkey","calibrator_ani_no_feedback","Animacy","VA",1743007429561,"animate",638,"A","animate;inanimate","","",6.45833828334479,37
"438","63d5cbb3c8e15d4cd611bee1","chair","calibrator_ani_no_feedback","Animacy","VA",1743007430998,"inanimate",675,"A","animate;inanimate","","",6.51471269087253,38
"439","63d5cbb3c8e15d4cd611bee1","human","calibrator_ani_no_feedback","Animacy","VA",1743007432754,"animate",997,"A","animate;inanimate","","",6.90475076996184,39
"440","63d5cbb3c8e15d4cd611bee1","clock","calibrator_ani_no_feedback","Animacy","VA",1743007434208,"inanimate",694,"A","animate;inanimate","","",6.5424719605068,40
"441","6665b26a49d9b1071a67babe","hat","calibrator_val_feedback","Valence","VA",1738770551236,"positive",1311,"positive","negative","positive;negative","A",7.1785454837637,1
"442","6665b26a49d9b1071a67babe","kitten","calibrator_val_feedback","Valence","VA",1738770555017,"positive",998,"positive","negative","positive;negative","A",6.90575327631146,2
"443","6665b26a49d9b1071a67babe","invader","calibrator_val_feedback","Valence","VA",1738770558849,"negative",1057,"positive","negative","positive;negative","A",6.96318998587024,3
"444","6665b26a49d9b1071a67babe","jail","calibrator_val_feedback","Valence","VA",1738770562702,"negative",1073,"positive","negative","positive;negative","A",6.9782137426307,4
"445","6665b26a49d9b1071a67babe","industry","calibrator_val_feedback","Valence","VA",1738770566875,"positive",1400,"positive","negative","positive;negative","A",7.24422751560335,5
"446","6665b26a49d9b1071a67babe","joke","calibrator_val_feedback","Valence","VA",1738770570396,"positive",747,"positive","negative","positive;negative","A",6.61606518513282,6
"447","6665b26a49d9b1071a67babe","free","calibrator_val_feedback","Valence","VA",1738770573968,"positive",796,"positive","negative","positive;negative","A",6.67959918584438,7
"448","6665b26a49d9b1071a67babe","grin","calibrator_val_feedback","Valence","VA",1738770577398,"positive",660,"positive","negative","positive;negative","A",6.49223983502047,8
"449","6665b26a49d9b1071a67babe","icebox","calibrator_val_feedback","Valence","VA",1738770581388,"positive",1218,"positive","negative","positive;negative","A",7.10496544826984,9
"450","6665b26a49d9b1071a67babe","insecure","calibrator_val_feedback","Valence","VA",1738770585105,"negative",947,"positive","negative","positive;negative","A",6.85329909318608,10
"451","6665b26a49d9b1071a67babe","invader","calibrator_val_no_feedback","Valence","VA",1738770588697,"negative",820,"A","positive;negative","","",6.7093043402583,11
"452","6665b26a49d9b1071a67babe","hat","calibrator_val_no_feedback","Valence","VA",1738770590199,"positive",738,"A","positive;negative","","",6.60394382460047,12
"453","6665b26a49d9b1071a67babe","icebox","calibrator_val_no_feedback","Valence","VA",1738770591855,"negative",886,"A","positive;negative","","",6.78671695060508,13
"454","6665b26a49d9b1071a67babe","insecure","calibrator_val_no_feedback","Valence","VA",1738770593852,"negative",1232,"A","positive;negative","","",7.11639414409346,14
"455","6665b26a49d9b1071a67babe","free","calibrator_val_no_feedback","Valence","VA",1738770595370,"positive",751,"A","positive;negative","","",6.62140565176413,15
"456","6665b26a49d9b1071a67babe","kitten","calibrator_val_no_feedback","Valence","VA",1738770596777,"positive",636,"A","positive;negative","","",6.45519856334012,16
"457","6665b26a49d9b1071a67babe","jail","calibrator_val_no_feedback","Valence","VA",1738770598251,"negative",701,"A","positive;negative","","",6.55250788703459,17
"458","6665b26a49d9b1071a67babe","industry","calibrator_val_no_feedback","Valence","VA",1738770599772,"positive",758,"A","positive;negative","","",6.63068338564237,18
"459","6665b26a49d9b1071a67babe","joke","calibrator_val_no_feedback","Valence","VA",1738770601058,"positive",518,"A","positive;negative","","",6.24997524225948,19
"460","6665b26a49d9b1071a67babe","grin","calibrator_val_no_feedback","Valence","VA",1738770602477,"positive",657,"A","positive;negative","","",6.48768401848461,20
"461","6665b26a49d9b1071a67babe","clock","calibrator_ani_feedback","Animacy","VA",1738770819958,"Option_J",3109,"inanimate","animate","Option_F;Option_J","B",8.04205641005875,21
"462","6665b26a49d9b1071a67babe","teenager","calibrator_ani_feedback","Animacy","VA",1738770825083,"Option_J",2358,"inanimate","animate","Option_F;Option_J","B",7.76556908109732,22
"463","6665b26a49d9b1071a67babe","horse","calibrator_ani_feedback","Animacy","VA",1738770830025,"Option_J",2174,"inanimate","animate","Option_F;Option_J","B",7.68432406768116,23
"464","6665b26a49d9b1071a67babe","computer","calibrator_ani_feedback","Animacy","VA",1738770835187,"Option_F",2392,"inanimate","animate","Option_F;Option_J","B",7.77988511507052,24
"465","6665b26a49d9b1071a67babe","bottle","calibrator_ani_feedback","Animacy","VA",1738770840080,"Option_F",2122,"inanimate","animate","Option_F;Option_J","B",7.66011431917393,25
"466","6665b26a49d9b1071a67babe","table","calibrator_ani_feedback","Animacy","VA",1738770843813,"Option_F",968,"inanimate","animate","Option_F;Option_J","B",6.87523208727658,26
"467","6665b26a49d9b1071a67babe","chair","calibrator_ani_feedback","Animacy","VA",1738770847794,"Option_F",1205,"inanimate","animate","Option_F;Option_J","B",7.09423484592476,27
"468","6665b26a49d9b1071a67babe","elephant","calibrator_ani_feedback","Animacy","VA",1738770851507,"Option_J",950,"inanimate","animate","Option_F;Option_J","B",6.85646198459459,28
"469","6665b26a49d9b1071a67babe","human","calibrator_ani_feedback","Animacy","VA",1738770854921,"Option_J",634,"inanimate","animate","Option_F;Option_J","B",6.45204895443723,29
"470","6665b26a49d9b1071a67babe","monkey","calibrator_ani_feedback","Animacy","VA",1738770859239,"Option_J",1552,"inanimate","animate","Option_F;Option_J","B",7.34729970074316,30
"471","6665b26a49d9b1071a67babe","elephant","calibrator_ani_no_feedback","Animacy","VA",1738770862579,"animate",570,"B","inanimate;animate","","",6.3456363608286,31
"472","6665b26a49d9b1071a67babe","teenager","calibrator_ani_no_feedback","Animacy","VA",1738770864555,"animate",1204,"B","inanimate;animate","","",7.09340462586877,32
"473","6665b26a49d9b1071a67babe","horse","calibrator_ani_no_feedback","Animacy","VA",1738770865909,"animate",589,"B","inanimate;animate","","",6.37842618365159,33
"474","6665b26a49d9b1071a67babe","chair","calibrator_ani_no_feedback","Animacy","VA",1738770867290,"inanimate",618,"B","inanimate;animate","","",6.42648845745769,34
"475","6665b26a49d9b1071a67babe","clock","calibrator_ani_no_feedback","Animacy","VA",1738770868789,"inanimate",731,"B","inanimate;animate","","",6.59441345974978,35
"476","6665b26a49d9b1071a67babe","monkey","calibrator_ani_no_feedback","Animacy","VA",1738770870239,"animate",679,"B","inanimate;animate","","",6.5206211275587,36
"477","6665b26a49d9b1071a67babe","table","calibrator_ani_no_feedback","Animacy","VA",1738770871589,"inanimate",578,"B","inanimate;animate","","",6.35957386867238,37
"478","6665b26a49d9b1071a67babe","human","calibrator_ani_no_feedback","Animacy","VA",1738770873082,"animate",726,"B","inanimate;animate","","",6.5875500148248,38
"479","6665b26a49d9b1071a67babe","computer","calibrator_ani_no_feedback","Animacy","VA",1738770874537,"inanimate",694,"B","inanimate;animate","","",6.5424719605068,39
"480","6665b26a49d9b1071a67babe","bottle","calibrator_ani_no_feedback","Animacy","VA",1738770876054,"inanimate",749,"B","inanimate;animate","","",6.61873898351722,40
"481","5d829da97f572900184a7cb1","teenager","calibrator_ani_feedback","Animacy","AV",1742998873665,"Option_J",1397,"inanimate","animate","Option_F;Option_J","B",7.24208235925696,1
"482","5d829da97f572900184a7cb1","bottle","calibrator_ani_feedback","Animacy","AV",1742998877701,"Option_F",1272,"inanimate","animate","Option_F;Option_J","B",7.14834574390007,2
"483","5d829da97f572900184a7cb1","monkey","calibrator_ani_feedback","Animacy","AV",1742998881241,"Option_J",777,"inanimate","animate","Option_F;Option_J","B",6.65544035036765,3
"484","5d829da97f572900184a7cb1","elephant","calibrator_ani_feedback","Animacy","AV",1742998884711,"Option_J",703,"inanimate","animate","Option_F;Option_J","B",6.55535689181067,4
"485","5d829da97f572900184a7cb1","clock","calibrator_ani_feedback","Animacy","AV",1742998888813,"Option_F",1340,"inanimate","animate","Option_F;Option_J","B",7.20042489294496,5
"486","5d829da97f572900184a7cb1","human","calibrator_ani_feedback","Animacy","AV",1742998892173,"Option_J",600,"inanimate","animate","Option_F;Option_J","B",6.39692965521615,6
"487","5d829da97f572900184a7cb1","computer","calibrator_ani_feedback","Animacy","AV",1742998895825,"Option_F",884,"inanimate","animate","Option_F;Option_J","B",6.78445706263764,7
"488","5d829da97f572900184a7cb1","table","calibrator_ani_feedback","Animacy","AV",1742998900006,"Option_F",1416,"inanimate","animate","Option_F;Option_J","B",7.25559127425367,8
"489","5d829da97f572900184a7cb1","horse","calibrator_ani_feedback","Animacy","AV",1742998903382,"Option_J",607,"inanimate","animate","Option_F;Option_J","B",6.4085287910595,9
"490","5d829da97f572900184a7cb1","chair","calibrator_ani_feedback","Animacy","AV",1742998906918,"Option_F",775,"inanimate","animate","Option_F;Option_J","B",6.65286302935335,10
"491","5d829da97f572900184a7cb1","horse","calibrator_ani_no_feedback","Animacy","AV",1742998910403,"animate",722,"B","inanimate;animate","","",6.58202513889283,11
"492","5d829da97f572900184a7cb1","computer","calibrator_ani_no_feedback","Animacy","AV",1742998912745,"inanimate",1581,"B","inanimate;animate","","",7.36581283720947,12
"493","5d829da97f572900184a7cb1","bottle","calibrator_ani_no_feedback","Animacy","AV",1742998914351,"inanimate",845,"B","inanimate;animate","","",6.73933662735717,13
"494","5d829da97f572900184a7cb1","elephant","calibrator_ani_no_feedback","Animacy","AV",1742998915647,"animate",540,"B","inanimate;animate","","",6.29156913955832,14
"495","5d829da97f572900184a7cb1","teenager","calibrator_ani_no_feedback","Animacy","AV",1742998917127,"animate",715,"B","inanimate;animate","","",6.57228254269401,15
"496","5d829da97f572900184a7cb1","chair","calibrator_ani_no_feedback","Animacy","AV",1742998918510,"inanimate",623,"B","inanimate;animate","","",6.43454651878745,16
"497","5d829da97f572900184a7cb1","human","calibrator_ani_no_feedback","Animacy","AV",1742998919896,"animate",628,"B","inanimate;animate","","",6.4425401664682,17
"498","5d829da97f572900184a7cb1","table","calibrator_ani_no_feedback","Animacy","AV",1742998921268,"inanimate",608,"B","inanimate;animate","","",6.41017488196617,18
"499","5d829da97f572900184a7cb1","clock","calibrator_ani_no_feedback","Animacy","AV",1742998922654,"inanimate",626,"B","inanimate;animate","","",6.4393503711001,19
"500","5d829da97f572900184a7cb1","monkey","calibrator_ani_no_feedback","Animacy","AV",1742998924068,"animate",650,"B","inanimate;animate","","",6.47697236288968,20
"501","5d829da97f572900184a7cb1","free","calibrator_val_feedback","Valence","AV",1742999209184,"positive",2597,"positive","negative","positive;negative","A",7.86211221166275,21
"502","5d829da97f572900184a7cb1","invader","calibrator_val_feedback","Valence","AV",1742999219464,"negative",1545,"positive","negative","positive;negative","A",7.34277918933185,22
"503","5d829da97f572900184a7cb1","icebox","calibrator_val_feedback","Valence","AV",1742999221610,"positive",1230,"positive","negative","positive;negative","A",7.11476944836646,23
"504","5d829da97f572900184a7cb1","hat","calibrator_val_feedback","Valence","AV",1742999225596,"positive",1219,"positive","negative","positive;negative","A",7.10578612948127,24
"505","5d829da97f572900184a7cb1","kitten","calibrator_val_feedback","Valence","AV",1742999229507,"positive",1144,"positive","negative","positive;negative","A",7.04228617193974,25
"506","5d829da97f572900184a7cb1","joke","calibrator_val_feedback","Valence","AV",1742999233465,"positive",1184,"positive","negative","positive;negative","A",7.07665381544395,26
"507","5d829da97f572900184a7cb1","grin","calibrator_val_feedback","Valence","AV",1742999237794,"positive",1566,"positive","negative","positive;negative","A",7.35627987655075,27
"508","5d829da97f572900184a7cb1","insecure","calibrator_val_feedback","Valence","AV",1742999241609,"negative",1046,"positive","negative","positive;negative","A",6.95272864462487,28
"509","5d829da97f572900184a7cb1","industry","calibrator_val_feedback","Valence","AV",1742999245892,"positive",1518,"positive","negative","positive;negative","A",7.32514895795557,29
"510","5d829da97f572900184a7cb1","jail","calibrator_val_feedback","Valence","AV",1742999251172,"negative",1205,"positive","negative","positive;negative","A",7.09423484592476,30
"511","5d829da97f572900184a7cb1","insecure","calibrator_val_no_feedback","Valence","AV",1742999253270,"negative",631,"A","positive;negative","","",6.44730586254121,31
"512","5d829da97f572900184a7cb1","industry","calibrator_val_no_feedback","Valence","AV",1742999255338,"positive",1307,"A","positive;negative","","",7.17548971362422,32
"513","5d829da97f572900184a7cb1","invader","calibrator_val_no_feedback","Valence","AV",1742999257487,"negative",1392,"A","positive;negative","","",7.23849684089437,33
"514","5d829da97f572900184a7cb1","grin","calibrator_val_no_feedback","Valence","AV",1742999259347,"positive",1098,"A","positive;negative","","",7.00124562206948,34
"515","5d829da97f572900184a7cb1","free","calibrator_val_no_feedback","Valence","AV",1742999260883,"positive",774,"A","positive;negative","","",6.65157187358973,35
"516","5d829da97f572900184a7cb1","joke","calibrator_val_no_feedback","Valence","AV",1742999263684,"positive",2037,"A","positive;negative","","",7.61923341622681,36
"517","5d829da97f572900184a7cb1","jail","calibrator_val_no_feedback","Valence","AV",1742999265291,"negative",850,"A","positive;negative","","",6.74523634948436,37
"518","5d829da97f572900184a7cb1","hat","calibrator_val_no_feedback","Valence","AV",1742999266675,"positive",625,"A","positive;negative","","",6.4377516497364,38
"519","5d829da97f572900184a7cb1","kitten","calibrator_val_no_feedback","Valence","AV",1742999268227,"positive",796,"A","positive;negative","","",6.67959918584438,39
"520","5d829da97f572900184a7cb1","icebox","calibrator_val_no_feedback","Valence","AV",1742999269603,"positive",611,"A","positive;negative","","",6.4150969591716,40
"521","62c84ca82b03c9aedbca4a2a","horse","calibrator_ani_feedback","Animacy","AV",1743002384027,"Option_J",2603,"inanimate","animate","Option_F;Option_J","B",7.86441990499457,1
"522","62c84ca82b03c9aedbca4a2a","elephant","calibrator_ani_feedback","Animacy","AV",1743002388137,"Option_J",1288,"inanimate","animate","Option_F;Option_J","B",7.1608459066643,2
"523","62c84ca82b03c9aedbca4a2a","computer","calibrator_ani_feedback","Animacy","AV",1743002392226,"Option_F",1317,"inanimate","animate","Option_F;Option_J","B",7.18311170174328,3
"524","62c84ca82b03c9aedbca4a2a","bottle","calibrator_ani_feedback","Animacy","AV",1743002395781,"Option_F",785,"inanimate","animate","Option_F;Option_J","B",6.66568371778241,4
"525","62c84ca82b03c9aedbca4a2a","monkey","calibrator_ani_feedback","Animacy","AV",1743002399359,"Option_J",810,"inanimate","animate","Option_F;Option_J","B",6.69703424766648,5
"526","62c84ca82b03c9aedbca4a2a","teenager","calibrator_ani_feedback","Animacy","AV",1743002403607,"Option_J",843,"inanimate","animate","Option_F;Option_J","B",6.73696695800186,6
"527","62c84ca82b03c9aedbca4a2a","human","calibrator_ani_feedback","Animacy","AV",1743002406705,"Option_J",967,"inanimate","animate","Option_F;Option_J","B",6.87419849545329,7
"528","62c84ca82b03c9aedbca4a2a","table","calibrator_ani_feedback","Animacy","AV",1743002410513,"Option_F",1035,"inanimate","animate","Option_F;Option_J","B",6.94215670569947,8
"529","62c84ca82b03c9aedbca4a2a","clock","calibrator_ani_feedback","Animacy","AV",1743002414397,"Option_F",1106,"inanimate","animate","Option_F;Option_J","B",7.00850518208228,9
"530","62c84ca82b03c9aedbca4a2a","chair","calibrator_ani_feedback","Animacy","AV",1743002417964,"Option_F",805,"inanimate","animate","Option_F;Option_J","B",6.69084227741856,10
"531","62c84ca82b03c9aedbca4a2a","teenager","calibrator_ani_no_feedback","Animacy","AV",1743002421771,"animate",1043,"B","inanimate;animate","","",6.94985645500077,11
"532","62c84ca82b03c9aedbca4a2a","elephant","calibrator_ani_no_feedback","Animacy","AV",1743002423509,"animate",972,"B","inanimate;animate","","",6.87935580446044,12
"533","62c84ca82b03c9aedbca4a2a","table","calibrator_ani_no_feedback","Animacy","AV",1743002425164,"inanimate",891,"B","inanimate;animate","","",6.79234442747081,13
"534","62c84ca82b03c9aedbca4a2a","computer","calibrator_ani_no_feedback","Animacy","AV",1743002426769,"inanimate",843,"B","inanimate;animate","","",6.73696695800186,14
"535","62c84ca82b03c9aedbca4a2a","human","calibrator_ani_no_feedback","Animacy","AV",1743002428371,"animate",839,"B","inanimate;animate","","",6.73221070646721,15
"536","62c84ca82b03c9aedbca4a2a","bottle","calibrator_ani_no_feedback","Animacy","AV",1743002430229,"inanimate",1095,"B","inanimate;animate","","",6.9985096422506,16
"537","62c84ca82b03c9aedbca4a2a","monkey","calibrator_ani_no_feedback","Animacy","AV",1743002431854,"animate",866,"B","inanimate;animate","","",6.76388490856244,17
"538","62c84ca82b03c9aedbca4a2a","chair","calibrator_ani_no_feedback","Animacy","AV",1743002433624,"inanimate",904,"B","inanimate;animate","","",6.80682936039218,18
"539","62c84ca82b03c9aedbca4a2a","clock","calibrator_ani_no_feedback","Animacy","AV",1743002435138,"inanimate",749,"B","inanimate;animate","","",6.61873898351722,19
"540","62c84ca82b03c9aedbca4a2a","horse","calibrator_ani_no_feedback","Animacy","AV",1743002436611,"animate",712,"B","inanimate;animate","","",6.56807791141198,20
"541","62c84ca82b03c9aedbca4a2a","grin","calibrator_val_feedback","Valence","AV",1743002722675,"positive",3981,"positive","negative","positive;negative","A",8.28928832300032,21
"542","62c84ca82b03c9aedbca4a2a","free","calibrator_val_feedback","Valence","AV",1743002726668,"positive",1195,"positive","negative","positive;negative","A",7.08590146436561,22
"543","62c84ca82b03c9aedbca4a2a","invader","calibrator_val_feedback","Valence","AV",1743002730624,"negative",1181,"positive","negative","positive;negative","A",7.07411681619736,23
"544","62c84ca82b03c9aedbca4a2a","icebox","calibrator_val_feedback","Valence","AV",1743002735591,"positive",2203,"positive","negative","positive;negative","A",7.69757534680234,24
"545","62c84ca82b03c9aedbca4a2a","insecure","calibrator_val_feedback","Valence","AV",1743002739634,"negative",1244,"positive","negative","positive;negative","A",7.12608727329912,25
"546","62c84ca82b03c9aedbca4a2a","hat","calibrator_val_feedback","Valence","AV",1743002744119,"positive",1722,"positive","negative","positive;negative","A",7.45124168498768,26
"547","62c84ca82b03c9aedbca4a2a","joke","calibrator_val_feedback","Valence","AV",1743002748433,"positive",1536,"positive","negative","positive;negative","A",7.33693691370762,27
"548","62c84ca82b03c9aedbca4a2a","jail","calibrator_val_feedback","Valence","AV",1743002752327,"negative",1122,"positive","negative","positive;negative","A",7.02286808608264,28
"549","62c84ca82b03c9aedbca4a2a","industry","calibrator_val_feedback","Valence","AV",1743002757082,"positive",1990,"positive","negative","positive;negative","A",7.59588991771854,29
"550","62c84ca82b03c9aedbca4a2a","kitten","calibrator_val_feedback","Valence","AV",1743002761260,"positive",1397,"positive","negative","positive;negative","A",7.24208235925696,30
"551","62c84ca82b03c9aedbca4a2a","insecure","calibrator_val_no_feedback","Valence","AV",1743002765144,"negative",1120,"A","positive;negative","","",7.02108396428914,31
"552","62c84ca82b03c9aedbca4a2a","invader","calibrator_val_no_feedback","Valence","AV",1743002766859,"negative",943,"A","positive;negative","","",6.84906628263346,32
"553","62c84ca82b03c9aedbca4a2a","kitten","calibrator_val_no_feedback","Valence","AV",1743002768558,"positive",911,"A","positive;negative","","",6.81454289725996,33
"554","62c84ca82b03c9aedbca4a2a","joke","calibrator_val_no_feedback","Valence","AV",1743002770414,"positive",1093,"A","positive;negative","","",6.99668148817654,34
"555","62c84ca82b03c9aedbca4a2a","jail","calibrator_val_no_feedback","Valence","AV",1743002772122,"negative",945,"A","positive;negative","","",6.85118492749374,35
"556","62c84ca82b03c9aedbca4a2a","hat","calibrator_val_no_feedback","Valence","AV",1743002774008,"positive",1125,"A","positive;negative","","",7.02553831463852,36
"557","62c84ca82b03c9aedbca4a2a","free","calibrator_val_no_feedback","Valence","AV",1743002775748,"positive",974,"A","positive;negative","","",6.88141130364254,37
"558","62c84ca82b03c9aedbca4a2a","grin","calibrator_val_no_feedback","Valence","AV",1743002777507,"positive",983,"A","positive;negative","","",6.89060912014717,38
"559","62c84ca82b03c9aedbca4a2a","icebox","calibrator_val_no_feedback","Valence","AV",1743002779477,"positive",1205,"A","positive;negative","","",7.09423484592476,39
"560","62c84ca82b03c9aedbca4a2a","industry","calibrator_val_no_feedback","Valence","AV",1743002781344,"positive",1098,"A","positive;negative","","",7.00124562206948,40
"561","5e2f5b28129198070e2996db","industry","calibrator_val_feedback","Valence","VA",1743007680735,"positive",1731,"positive","negative","positive;negative","A",7.45645455517621,1
"562","5e2f5b28129198070e2996db","insecure","calibrator_val_feedback","Valence","VA",1743007695811,"negative",12306,"positive","negative","positive;negative","A",9.41784222730043,2
"563","5e2f5b28129198070e2996db","kitten","calibrator_val_feedback","Valence","VA",1743007699586,"positive",1014,"positive","negative","positive;negative","A",6.92165818415113,3
"564","5e2f5b28129198070e2996db","icebox","calibrator_val_feedback","Valence","VA",1743007703619,"positive",1275,"positive","negative","positive;negative","A",7.15070145759253,4
"565","5e2f5b28129198070e2996db","hat","calibrator_val_feedback","Valence","VA",1743007707115,"positive",737,"positive","negative","positive;negative","A",6.60258789218934,5
"566","5e2f5b28129198070e2996db","invader","calibrator_val_feedback","Valence","VA",1743007710915,"negative",1038,"positive","negative","positive;negative","A",6.94505106372583,6
"567","5e2f5b28129198070e2996db","joke","calibrator_val_feedback","Valence","VA",1743007714675,"positive",1002,"positive","negative","positive;negative","A",6.90975328164481,7
"568","5e2f5b28129198070e2996db","jail","calibrator_val_feedback","Valence","VA",1743007718347,"negative",906,"positive","negative","positive;negative","A",6.80903930604298,8
"569","5e2f5b28129198070e2996db","free","calibrator_val_feedback","Valence","VA",1743007722199,"positive",1090,"positive","negative","positive;negative","A",6.99393297522319,9
"570","5e2f5b28129198070e2996db","grin","calibrator_val_feedback","Valence","VA",1743007725752,"positive",790,"positive","negative","positive;negative","A",6.67203294546107,10
"571","5e2f5b28129198070e2996db","kitten","calibrator_val_no_feedback","Valence","VA",1743007730647,"positive",2135,"A","positive;negative","","",7.66622192566273,11
"572","5e2f5b28129198070e2996db","hat","calibrator_val_no_feedback","Valence","VA",1743007732495,"positive",1086,"A","positive;negative","","",6.99025650049388,12
"573","5e2f5b28129198070e2996db","insecure","calibrator_val_no_feedback","Valence","VA",1743007734351,"negative",1097,"A","positive;negative","","",7.00033446027523,13
"574","5e2f5b28129198070e2996db","jail","calibrator_val_no_feedback","Valence","VA",1743007735831,"negative",724,"A","positive;negative","","",6.58479139238572,14
"575","5e2f5b28129198070e2996db","industry","calibrator_val_no_feedback","Valence","VA",1743007738110,"positive",1523,"A","positive;negative","","",7.32843735289516,15
"576","5e2f5b28129198070e2996db","joke","calibrator_val_no_feedback","Valence","VA",1743007739574,"positive",704,"A","positive;negative","","",6.55677835615804,16
"577","5e2f5b28129198070e2996db","free","calibrator_val_no_feedback","Valence","VA",1743007741159,"positive",825,"A","positive;negative","","",6.71538338633468,17
"578","5e2f5b28129198070e2996db","invader","calibrator_val_no_feedback","Valence","VA",1743007743095,"negative",1180,"A","positive;negative","","",7.07326971745971,18
"579","5e2f5b28129198070e2996db","grin","calibrator_val_no_feedback","Valence","VA",1743007744863,"positive",1006,"A","positive;negative","","",6.91373735065968,19
"580","5e2f5b28129198070e2996db","icebox","calibrator_val_no_feedback","Valence","VA",1743007746743,"positive",1123,"A","positive;negative","","",7.02375895473844,20
"581","5e2f5b28129198070e2996db","clock","calibrator_ani_feedback","Animacy","VA",1743008029778,"Option_J",2255,"animate","inanimate","Option_F;Option_J","A",7.72090525193678,21
"582","5e2f5b28129198070e2996db","teenager","calibrator_ani_feedback","Animacy","VA",1743008033618,"Option_F",1079,"animate","inanimate","Option_F;Option_J","A",6.98378996525813,22
"583","5e2f5b28129198070e2996db","monkey","calibrator_ani_feedback","Animacy","VA",1743008037078,"Option_F",698,"animate","inanimate","Option_F;Option_J","A",6.54821910276237,23
