"","ID.true","Word","Label","Task","BlockOrder","EventTime","Value","ReactionTime","Key_value_F","Key_value_J","Comments","Group","LogReactionTime","TrialNumber"
"1","62f975cbc3507ecf77180d00","hat","calibrator_val_feedback","Valence","VC",1736771360178,"positive",1762,"negative","positive","negative;positive","B",7.47420480649612,1
"2","62f975cbc3507ecf77180d00","invader","calibrator_val_feedback","Valence","VC",1736771364130,"negative",1188,"negative","positive","negative;positive","B",7.08002649992259,2
"3","62f975cbc3507ecf77180d00","jail","calibrator_val_feedback","Valence","VC",1736771367881,"negative",990,"negative","positive","negative;positive","B",6.89770494312864,3
"4","62f975cbc3507ecf77180d00","joke","calibrator_val_feedback","Valence","VC",1736771371624,"positive",980,"negative","positive","negative;positive","B",6.88755257166462,4
"5","62f975cbc3507ecf77180d00","grin","calibrator_val_feedback","Valence","VC",1736771375167,"positive",786,"negative","positive","negative;positive","B",6.66695679242921,5
"6","62f975cbc3507ecf77180d00","free","calibrator_val_feedback","Valence","VC",1736771379312,"positive",1388,"negative","positive","negative;positive","B",7.23561914106675,6
"7","62f975cbc3507ecf77180d00","icebox","calibrator_val_feedback","Valence","VC",1736771383070,"negative",991,"negative","positive","negative;positive","B",6.89871453432999,7
"8","62f975cbc3507ecf77180d00","industry","calibrator_val_feedback","Valence","VC",1736771393125,"positive",7272,"negative","positive","negative;positive","B",8.89178663585731,8
"9","62f975cbc3507ecf77180d00","kitten","calibrator_val_feedback","Valence","VC",1736771396683,"positive",818,"negative","positive","negative;positive","B",6.70686233660275,9
"10","62f975cbc3507ecf77180d00","insecure","calibrator_val_feedback","Valence","VC",1736771400231,"negative",789,"negative","positive","negative;positive","B",6.67076632084587,10
"11","62f975cbc3507ecf77180d00","insecure","calibrator_val_no_feedback","Valence","VC",1736771403577,"negative",583,"A","negative;positive","","B",6.36818718635049,11
"12","62f975cbc3507ecf77180d00","joke","calibrator_val_no_feedback","Valence","VC",1736771404905,"positive",569,"A","negative;positive","","B",6.34388043412633,12
"13","62f975cbc3507ecf77180d00","invader","calibrator_val_no_feedback","Valence","VC",1736771406215,"negative",552,"A","negative;positive","","B",6.31354804627709,13
"14","62f975cbc3507ecf77180d00","grin","calibrator_val_no_feedback","Valence","VC",1736771407568,"positive",592,"A","negative;positive","","B",6.38350663488401,14
"15","62f975cbc3507ecf77180d00","kitten","calibrator_val_no_feedback","Valence","VC",1736771408862,"positive",541,"A","negative;positive","","B",6.29341927884648,15
"16","62f975cbc3507ecf77180d00","jail","calibrator_val_no_feedback","Valence","VC",1736771410171,"negative",554,"A","negative;positive","","B",6.31716468674728,16
"17","62f975cbc3507ecf77180d00","free","calibrator_val_no_feedback","Valence","VC",1736771411539,"positive",610,"A","negative;positive","","B",6.41345895716736,17
"18","62f975cbc3507ecf77180d00","icebox","calibrator_val_no_feedback","Valence","VC",1736771413776,"positive",1477,"A","negative;positive","","B",7.29776828253138,18
"19","62f975cbc3507ecf77180d00","industry","calibrator_val_no_feedback","Valence","VC",1736771417022,"negative",2487,"A","negative;positive","","B",7.8188324438034,19
"20","62f975cbc3507ecf77180d00","hat","calibrator_val_no_feedback","Valence","VC",1736771418421,"positive",636,"A","negative;positive","","B",6.45519856334012,20
"21","62f975cbc3507ecf77180d00","polite","calibrator_conc_feedback","Concrete","VC",1736771609377,"concrete",1378,"abstract","concrete","abstract;concrete","B",7.2283884515736,21
"22","62f975cbc3507ecf77180d00","shirt","calibrator_conc_feedback","Concrete","VC",1736771612822,"concrete",684,"abstract","concrete","abstract;concrete","B",6.52795791762255,22
"23","62f975cbc3507ecf77180d00","grasshopper","calibrator_conc_feedback","Concrete","VC",1736771616272,"concrete",692,"abstract","concrete","abstract;concrete","B",6.53958595561767,23
"24","62f975cbc3507ecf77180d00","theory","calibrator_conc_feedback","Concrete","VC",1736771619594,"abstract",560,"abstract","concrete","abstract;concrete","B",6.32793678372919,24
"25","62f975cbc3507ecf77180d00","gas","calibrator_conc_feedback","Concrete","VC",1736771623834,"concrete",1477,"abstract","concrete","abstract;concrete","B",7.29776828253138,25
"26","62f975cbc3507ecf77180d00","kick","calibrator_conc_feedback","Concrete","VC",1736771627752,"concrete",1156,"abstract","concrete","abstract;concrete","B",7.05272104923232,26
"27","62f975cbc3507ecf77180d00","whistle","calibrator_conc_feedback","Concrete","VC",1736771631581,"concrete",1072,"abstract","concrete","abstract;concrete","B",6.97728134163075,27
"28","62f975cbc3507ecf77180d00","insecure","calibrator_conc_feedback","Concrete","VC",1736771635599,"abstract",1259,"abstract","concrete","abstract;concrete","B",7.13807303404435,28
"29","62f975cbc3507ecf77180d00","sugar","calibrator_conc_feedback","Concrete","VC",1736771639219,"concrete",856,"abstract","concrete","abstract;concrete","B",6.75227037614174,29
"30","62f975cbc3507ecf77180d00","marriage","calibrator_conc_feedback","Concrete","VC",1736771644095,"concrete",2111,"abstract","concrete","abstract;concrete","B",7.65491704784832,30
"31","62f975cbc3507ecf77180d00","kick","calibrator_conc_no_feedback","Concrete","VC",1736771647566,"concrete",715,"A","abstract;concrete","","B",6.57228254269401,31
"32","62f975cbc3507ecf77180d00","whistle","calibrator_conc_no_feedback","Concrete","VC",1736771650772,"abstract",2450,"A","abstract;concrete","","B",7.80384330353877,32
"33","62f975cbc3507ecf77180d00","insecure","calibrator_conc_no_feedback","Concrete","VC",1736771652535,"abstract",1006,"A","abstract;concrete","","B",6.91373735065968,33
"34","62f975cbc3507ecf77180d00","theory","calibrator_conc_no_feedback","Concrete","VC",1736771654012,"abstract",721,"A","abstract;concrete","","B",6.58063913728495,34
"35","62f975cbc3507ecf77180d00","shirt","calibrator_conc_no_feedback","Concrete","VC",1736771655615,"concrete",847,"A","abstract;concrete","","B",6.74170069465205,35
"36","62f975cbc3507ecf77180d00","gas","calibrator_conc_no_feedback","Concrete","VC",1736771656830,"concrete",459,"A","abstract;concrete","","B",6.12905021006055,36
"37","62f975cbc3507ecf77180d00","sugar","calibrator_conc_no_feedback","Concrete","VC",1736771658078,"concrete",494,"A","abstract;concrete","","B",6.20253551718792,37
"38","62f975cbc3507ecf77180d00","marriage","calibrator_conc_no_feedback","Concrete","VC",1736771659763,"concrete",930,"A","abstract;concrete","","B",6.8351845861473,38
"39","62f975cbc3507ecf77180d00","polite","calibrator_conc_no_feedback","Concrete","VC",1736771663515,"abstract",3001,"A","abstract;concrete","","B",8.00670084544037,39
"40","62f975cbc3507ecf77180d00","grasshopper","calibrator_conc_no_feedback","Concrete","VC",1736771664883,"concrete",609,"A","abstract;concrete","","B",6.4118182677099,40
"41","60fc95600f99ca0c01626792","insecure","calibrator_val_feedback","Valence","VC",1736948134500,"negative",1539,"negative","positive","negative;positive","A",7.33888813383888,1
"42","60fc95600f99ca0c01626792","hat","calibrator_val_feedback","Valence","VC",1736948136769,"positive",1406,"negative","positive","negative;positive","A",7.24850407237061,2
"43","60fc95600f99ca0c01626792","grin","calibrator_val_feedback","Valence","VC",1736948141895,"positive",2332,"negative","positive","negative;positive","A",7.75448154747038,3
"44","60fc95600f99ca0c01626792","industry","calibrator_val_feedback","Valence","VC",1736948146622,"negative",1929,"negative","positive","negative;positive","A",7.56475701290573,4
"45","60fc95600f99ca0c01626792","invader","calibrator_val_feedback","Valence","VC",1736948150189,"negative",756,"negative","positive","negative;positive","A",6.62804137617953,5
"46","60fc95600f99ca0c01626792","icebox","calibrator_val_feedback","Valence","VC",1736948153735,"positive",763,"negative","positive","negative;positive","A",6.63725803128446,6
"47","60fc95600f99ca0c01626792","jail","calibrator_val_feedback","Valence","VC",1736948157456,"negative",914,"negative","positive","negative;positive","A",6.81783057145415,7
"48","60fc95600f99ca0c01626792","free","calibrator_val_feedback","Valence","VC",1736948162725,"positive",1046,"negative","positive","negative;positive","A",6.95272864462487,8
"49","60fc95600f99ca0c01626792","kitten","calibrator_val_feedback","Valence","VC",1736948165197,"positive",1095,"negative","positive","negative;positive","A",6.9985096422506,9
"50","60fc95600f99ca0c01626792","joke","calibrator_val_feedback","Valence","VC",1736948171320,"negative",1599,"negative","positive","negative;positive","A",7.37713371283395,10
"51","60fc95600f99ca0c01626792","insecure","calibrator_val_no_feedback","Valence","VC",1736948173856,"negative",1444,"A","negative;positive","","A",7.27517231945277,11
"52","60fc95600f99ca0c01626792","industry","calibrator_val_no_feedback","Valence","VC",1736948175468,"negative",833,"A","negative;positive","","A",6.72503364216684,12
"53","60fc95600f99ca0c01626792","joke","calibrator_val_no_feedback","Valence","VC",1736948177311,"positive",1060,"A","negative;positive","","A",6.96602418710611,13
"54","60fc95600f99ca0c01626792","invader","calibrator_val_no_feedback","Valence","VC",1736948179174,"negative",1090,"A","negative;positive","","A",6.99393297522319,14
"55","60fc95600f99ca0c01626792","free","calibrator_val_no_feedback","Valence","VC",1736948180677,"positive",735,"A","negative;positive","","A",6.59987049921284,15
"56","60fc95600f99ca0c01626792","hat","calibrator_val_no_feedback","Valence","VC",1736948182021,"positive",579,"A","negative;positive","","A",6.361302477573,16
"57","60fc95600f99ca0c01626792","icebox","calibrator_val_no_feedback","Valence","VC",1736948183423,"positive",630,"A","negative;positive","","A",6.44571981938558,17
"58","60fc95600f99ca0c01626792","jail","calibrator_val_no_feedback","Valence","VC",1736948184708,"negative",507,"A","negative;positive","","A",6.22851100359118,18
"59","60fc95600f99ca0c01626792","grin","calibrator_val_no_feedback","Valence","VC",1736948186145,"positive",653,"A","negative;positive","","A",6.48157712927643,19
"60","60fc95600f99ca0c01626792","kitten","calibrator_val_no_feedback","Valence","VC",1736948187509,"positive",578,"A","negative;positive","","A",6.35957386867238,20
"61","60fc95600f99ca0c01626792","marriage","calibrator_conc_feedback","Concrete","VC",1736948390625,"abstract",2758,"abstract","concrete","abstract;concrete","A",7.92226105835325,21
"62","60fc95600f99ca0c01626792","whistle","calibrator_conc_feedback","Concrete","VC",1736948394946,"concrete",1532,"abstract","concrete","abstract;concrete","A",7.33432935030054,22
"63","60fc95600f99ca0c01626792","sugar","calibrator_conc_feedback","Concrete","VC",1736948402986,"concrete",4527,"abstract","concrete","abstract;concrete","A",8.41781474743596,23
"64","60fc95600f99ca0c01626792","kick","calibrator_conc_feedback","Concrete","VC",1736948407393,"concrete",2339,"abstract","concrete","abstract;concrete","A",7.75747876658418,24
"65","60fc95600f99ca0c01626792","insecure","calibrator_conc_feedback","Concrete","VC",1736948415723,"concrete",3976,"abstract","concrete","abstract;concrete","A",8.28803156777646,25
"66","60fc95600f99ca0c01626792","theory","calibrator_conc_feedback","Concrete","VC",1736948418120,"abstract",643,"abstract","concrete","abstract;concrete","A",6.46614472423762,26
"67","60fc95600f99ca0c01626792","polite","calibrator_conc_feedback","Concrete","VC",1736948422330,"abstract",1201,"abstract","concrete","abstract;concrete","A",7.09090982207998,27
"68","60fc95600f99ca0c01626792","grasshopper","calibrator_conc_feedback","Concrete","VC",1736948438127,"concrete",13724,"abstract","concrete","abstract;concrete","A",9.52690140397834,28
"69","60fc95600f99ca0c01626792","shirt","calibrator_conc_feedback","Concrete","VC",1736948443605,"concrete",1474,"abstract","concrete","abstract;concrete","A",7.29573507274928,29
"70","60fc95600f99ca0c01626792","gas","calibrator_conc_feedback","Concrete","VC",1736948446101,"concrete",909,"abstract","concrete","abstract;concrete","A",6.81234509417748,30
"71","60fc95600f99ca0c01626792","grasshopper","calibrator_conc_no_feedback","Concrete","VC",1736948450045,"concrete",1132,"A","abstract;concrete","","A",7.03174125876313,31
"72","60fc95600f99ca0c01626792","polite","calibrator_conc_no_feedback","Concrete","VC",1736948451474,"concrete",641,"A","abstract;concrete","","A",6.46302945692067,32
"73","60fc95600f99ca0c01626792","kick","calibrator_conc_no_feedback","Concrete","VC",1736948453646,"concrete",1403,"A","abstract;concrete","","A",7.24636808010246,33
"74","60fc95600f99ca0c01626792","theory","calibrator_conc_no_feedback","Concrete","VC",1736948455034,"concrete",601,"A","abstract;concrete","","A",6.39859493453521,34
"75","60fc95600f99ca0c01626792","insecure","calibrator_conc_no_feedback","Concrete","VC",1736948456368,"concrete",552,"A","abstract;concrete","","A",6.31354804627709,35
"76","60fc95600f99ca0c01626792","sugar","calibrator_conc_no_feedback","Concrete","VC",1736948459667,"concrete",2532,"A","abstract;concrete","","A",7.83676478326407,36
"77","60fc95600f99ca0c01626792","shirt","calibrator_conc_no_feedback","Concrete","VC",1736948461218,"concrete",786,"A","abstract;concrete","","A",6.66695679242921,37
"78","60fc95600f99ca0c01626792","marriage","calibrator_conc_no_feedback","Concrete","VC",1736948462678,"abstract",685,"A","abstract;concrete","","A",6.52941883826223,38
"79","60fc95600f99ca0c01626792","whistle","calibrator_conc_no_feedback","Concrete","VC",1736948465444,"concrete",1982,"A","abstract;concrete","","A",7.59186171488993,39
"80","60fc95600f99ca0c01626792","gas","calibrator_conc_no_feedback","Concrete","VC",1736948467057,"abstract",835,"A","abstract;concrete","","A",6.72743172485086,40
"81","643c5a145909cc6ac7e6d62c","invader","calibrator_val_feedback","Valence","VC",1736948337428,"negative",2634,"negative","positive","negative;positive","A",7.87625888230323,1
"82","643c5a145909cc6ac7e6d62c","icebox","calibrator_val_feedback","Valence","VC",1736948341018,"positive",2300,"negative","positive","negative;positive","A",7.74066440191724,2
"83","643c5a145909cc6ac7e6d62c","joke","calibrator_val_feedback","Valence","VC",1736948346204,"positive",2373,"negative","positive","negative;positive","A",7.77191025643576,3
"84","643c5a145909cc6ac7e6d62c","hat","calibrator_val_feedback","Valence","VC",1736948351429,"positive",2418,"negative","positive","negative;positive","A",7.79069603117474,4
"85","643c5a145909cc6ac7e6d62c","free","calibrator_val_feedback","Valence","VC",1736948356328,"positive",2099,"negative","positive","negative;positive","A",7.64921631982063,5
"86","643c5a145909cc6ac7e6d62c","industry","calibrator_val_feedback","Valence","VC",1736948361409,"positive",2286,"negative","positive","negative;positive","A",7.73455884435476,6
"87","643c5a145909cc6ac7e6d62c","insecure","calibrator_val_feedback","Valence","VC",1736948365414,"negative",1186,"negative","positive","negative;positive","A",7.07834157955767,7
"88","643c5a145909cc6ac7e6d62c","grin","calibrator_val_feedback","Valence","VC",1736948371455,"negative",3241,"negative","positive","negative;positive","A",8.08363720314155,8
"89","643c5a145909cc6ac7e6d62c","kitten","calibrator_val_feedback","Valence","VC",1736948376107,"positive",1406,"negative","positive","negative;positive","A",7.24850407237061,9
"90","643c5a145909cc6ac7e6d62c","jail","calibrator_val_feedback","Valence","VC",1736948380247,"negative",1775,"negative","positive","negative;positive","A",7.48155570190952,10
"91","643c5a145909cc6ac7e6d62c","free","calibrator_val_no_feedback","Valence","VC",1736948385174,"positive",2123,"A","negative;positive","","A",7.66058546170326,11
"92","643c5a145909cc6ac7e6d62c","industry","calibrator_val_no_feedback","Valence","VC",1736948386999,"positive",1043,"A","negative;positive","","A",6.94985645500077,12
"93","643c5a145909cc6ac7e6d62c","kitten","calibrator_val_no_feedback","Valence","VC",1736948389684,"positive",1884,"A","negative;positive","","A",7.54115245513631,13
"94","643c5a145909cc6ac7e6d62c","joke","calibrator_val_no_feedback","Valence","VC",1736948391613,"positive",1142,"A","negative;positive","","A",7.04053639021596,14
"95","643c5a145909cc6ac7e6d62c","insecure","calibrator_val_no_feedback","Valence","VC",1736948393990,"negative",1591,"A","negative;positive","","A",7.37211802833779,15
"96","643c5a145909cc6ac7e6d62c","icebox","calibrator_val_no_feedback","Valence","VC",1736948398641,"positive",3880,"A","negative;positive","","A",8.26359043261732,16
"97","643c5a145909cc6ac7e6d62c","jail","calibrator_val_no_feedback","Valence","VC",1736948400273,"negative",856,"A","negative;positive","","A",6.75227037614174,17
"98","643c5a145909cc6ac7e6d62c","hat","calibrator_val_no_feedback","Valence","VC",1736948401815,"positive",750,"A","negative;positive","","A",6.62007320653036,18
"99","643c5a145909cc6ac7e6d62c","invader","calibrator_val_no_feedback","Valence","VC",1736948403653,"negative",1055,"A","negative;positive","","A",6.96129604591017,19
"100","643c5a145909cc6ac7e6d62c","grin","calibrator_val_no_feedback","Valence","VC",1736948406757,"negative",2305,"A","negative;positive","","A",7.74283595543075,20
"101","643c5a145909cc6ac7e6d62c","polite","calibrator_conc_feedback","Concrete","VC",1736948669938,"concrete",3902,"abstract","concrete","abstract;concrete","A",8.26924452118306,21
"102","643c5a145909cc6ac7e6d62c","whistle","calibrator_conc_feedback","Concrete","VC",1736948676898,"concrete",4507,"abstract","concrete","abstract;concrete","A",8.41338702269065,22
"103","643c5a145909cc6ac7e6d62c","grasshopper","calibrator_conc_feedback","Concrete","VC",1736948679865,"concrete",1060,"abstract","concrete","abstract;concrete","A",6.96602418710611,23
"104","643c5a145909cc6ac7e6d62c","sugar","calibrator_conc_feedback","Concrete","VC",1736948683190,"concrete",1219,"abstract","concrete","abstract;concrete","A",7.10578612948127,24
"105","643c5a145909cc6ac7e6d62c","shirt","calibrator_conc_feedback","Concrete","VC",1736948687289,"concrete",1318,"abstract","concrete","abstract;concrete","A",7.18387071506245,25
"106","643c5a145909cc6ac7e6d62c","insecure","calibrator_conc_feedback","Concrete","VC",1736948692450,"abstract",2357,"abstract","concrete","abstract;concrete","A",7.76514490293613,26
"107","643c5a145909cc6ac7e6d62c","marriage","calibrator_conc_feedback","Concrete","VC",1736948697430,"abstract",2177,"abstract","concrete","abstract;concrete","A",7.68570306123455,27
"108","643c5a145909cc6ac7e6d62c","gas","calibrator_conc_feedback","Concrete","VC",1736948702661,"abstract",2427,"abstract","concrete","abstract;concrete","A",7.7944112057266,28
"109","643c5a145909cc6ac7e6d62c","kick","calibrator_conc_feedback","Concrete","VC",1736948706625,"concrete",1140,"abstract","concrete","abstract;concrete","A",7.03878354138854,29
"110","643c5a145909cc6ac7e6d62c","theory","calibrator_conc_feedback","Concrete","VC",1736948712779,"abstract",2049,"abstract","concrete","abstract;concrete","A",7.6251071482389,30
"111","643c5a145909cc6ac7e6d62c","marriage","calibrator_conc_no_feedback","Concrete","VC",1736948717051,"concrete",2779,"A","abstract;concrete","","A",7.9298464297425,31
"112","643c5a145909cc6ac7e6d62c","sugar","calibrator_conc_no_feedback","Concrete","VC",1736948718655,"concrete",834,"A","abstract;concrete","","A",6.72623340235875,32
"113","643c5a145909cc6ac7e6d62c","whistle","calibrator_conc_no_feedback","Concrete","VC",1736948720157,"concrete",716,"A","abstract;concrete","","A",6.57368016696065,33
"114","643c5a145909cc6ac7e6d62c","gas","calibrator_conc_no_feedback","Concrete","VC",1736948721782,"abstract",864,"A","abstract;concrete","","A",6.76157276880406,34
"115","643c5a145909cc6ac7e6d62c","theory","calibrator_conc_no_feedback","Concrete","VC",1736948723389,"abstract",835,"A","abstract;concrete","","A",6.72743172485086,35
"116","643c5a145909cc6ac7e6d62c","polite","calibrator_conc_no_feedback","Concrete","VC",1736948724816,"abstract",649,"A","abstract;concrete","","A",6.47543271670409,36
"117","643c5a145909cc6ac7e6d62c","kick","calibrator_conc_no_feedback","Concrete","VC",1736948726776,"concrete",1195,"A","abstract;concrete","","A",7.08590146436561,37
"118","643c5a145909cc6ac7e6d62c","insecure","calibrator_conc_no_feedback","Concrete","VC",1736948728266,"abstract",719,"A","abstract;concrete","","A",6.57786135772105,38
"119","643c5a145909cc6ac7e6d62c","grasshopper","calibrator_conc_no_feedback","Concrete","VC",1736948729986,"concrete",949,"A","abstract;concrete","","A",6.85540879860993,39
"120","643c5a145909cc6ac7e6d62c","shirt","calibrator_conc_no_feedback","Concrete","VC",1736948731328,"concrete",573,"A","abstract;concrete","","A",6.35088571671474,40
"121","62fe6312269d0e4ae894297b","grin","calibrator_val_feedback","Valence","VC",1736770313791,"positive",890,"negative","positive","negative;positive","B",6.79122146272619,1
"122","62fe6312269d0e4ae894297b","insecure","calibrator_val_feedback","Valence","VC",1736770316816,"negative",1334,"negative","positive","negative;positive","B",7.19593722647557,2
"123","62fe6312269d0e4ae894297b","hat","calibrator_val_feedback","Valence","VC",1736770321104,"positive",1511,"negative","positive","negative;positive","B",7.32052696227274,3
"124","62fe6312269d0e4ae894297b","joke","calibrator_val_feedback","Valence","VC",1736770324792,"positive",906,"negative","positive","negative;positive","B",6.80903930604298,4
"125","62fe6312269d0e4ae894297b","icebox","calibrator_val_feedback","Valence","VC",1736770328735,"positive",1160,"negative","positive","negative;positive","B",7.05617528410041,5
"126","62fe6312269d0e4ae894297b","kitten","calibrator_val_feedback","Valence","VC",1736770332368,"positive",858,"negative","positive","negative;positive","B",6.75460409948796,6
"127","62fe6312269d0e4ae894297b","invader","calibrator_val_feedback","Valence","VC",1736770335960,"negative",809,"negative","positive","negative;positive","B",6.69579891705849,7
"128","62fe6312269d0e4ae894297b","jail","calibrator_val_feedback","Valence","VC",1736770339383,"negative",643,"negative","positive","negative;positive","B",6.46614472423762,8
"129","62fe6312269d0e4ae894297b","industry","calibrator_val_feedback","Valence","VC",1736770343360,"positive",1204,"negative","positive","negative;positive","B",7.09340462586877,9
"130","62fe6312269d0e4ae894297b","free","calibrator_val_feedback","Valence","VC",1736770346919,"positive",786,"negative","positive","negative;positive","B",6.66695679242921,10
"131","62fe6312269d0e4ae894297b","industry","calibrator_val_no_feedback","Valence","VC",1736770350441,"positive",754,"A","negative;positive","","B",6.62539236800796,11
"132","62fe6312269d0e4ae894297b","insecure","calibrator_val_no_feedback","Valence","VC",1736770352064,"negative",856,"A","negative;positive","","B",6.75227037614174,12
"133","62fe6312269d0e4ae894297b","invader","calibrator_val_no_feedback","Valence","VC",1736770353575,"negative",747,"A","negative;positive","","B",6.61606518513282,13
"134","62fe6312269d0e4ae894297b","icebox","calibrator_val_no_feedback","Valence","VC",1736770354928,"positive",587,"A","negative;positive","","B",6.3750248198281,14
"135","62fe6312269d0e4ae894297b","jail","calibrator_val_no_feedback","Valence","VC",1736770356447,"negative",751,"A","negative;positive","","B",6.62140565176413,15
"136","62fe6312269d0e4ae894297b","kitten","calibrator_val_no_feedback","Valence","VC",1736770357824,"positive",603,"A","negative;positive","","B",6.40191719672719,16
"137","62fe6312269d0e4ae894297b","grin","calibrator_val_no_feedback","Valence","VC",1736770359272,"positive",678,"A","negative;positive","","B",6.5191472879404,17
"138","62fe6312269d0e4ae894297b","hat","calibrator_val_no_feedback","Valence","VC",1736770360792,"positive",751,"A","negative;positive","","B",6.62140565176413,18
"139","62fe6312269d0e4ae894297b","free","calibrator_val_no_feedback","Valence","VC",1736770362096,"positive",532,"A","negative;positive","","B",6.27664348934164,19
"140","62fe6312269d0e4ae894297b","joke","calibrator_val_no_feedback","Valence","VC",1736770363599,"positive",738,"A","negative;positive","","B",6.60394382460047,20
"141","62fe6312269d0e4ae894297b","shirt","calibrator_conc_feedback","Concrete","VC",1736770549464,"concrete",1094,"abstract","concrete","abstract;concrete","B",6.99759598298193,21
"142","62fe6312269d0e4ae894297b","grasshopper","calibrator_conc_feedback","Concrete","VC",1736770553575,"concrete",1327,"abstract","concrete","abstract;concrete","B",7.19067603433221,22
"143","62fe6312269d0e4ae894297b","marriage","calibrator_conc_feedback","Concrete","VC",1736770557856,"abstract",1500,"abstract","concrete","abstract;concrete","B",7.3132203870903,23
"144","62fe6312269d0e4ae894297b","theory","calibrator_conc_feedback","Concrete","VC",1736770561881,"abstract",1242,"abstract","concrete","abstract;concrete","B",7.12447826249342,24
"145","62fe6312269d0e4ae894297b","polite","calibrator_conc_feedback","Concrete","VC",1736770565688,"abstract",1026,"abstract","concrete","abstract;concrete","B",6.93342302573071,25
"146","62fe6312269d0e4ae894297b","sugar","calibrator_conc_feedback","Concrete","VC",1736770569448,"concrete",986,"abstract","concrete","abstract;concrete","B",6.89365635460264,26
"147","62fe6312269d0e4ae894297b","kick","calibrator_conc_feedback","Concrete","VC",1736770573463,"concrete",1243,"abstract","concrete","abstract;concrete","B",7.12528309151071,27
"148","62fe6312269d0e4ae894297b","whistle","calibrator_conc_feedback","Concrete","VC",1736770577216,"concrete",972,"abstract","concrete","abstract;concrete","B",6.87935580446044,28
"149","62fe6312269d0e4ae894297b","insecure","calibrator_conc_feedback","Concrete","VC",1736770580727,"abstract",745,"abstract","concrete","abstract;concrete","B",6.61338421837956,29
"150","62fe6312269d0e4ae894297b","gas","calibrator_conc_feedback","Concrete","VC",1736770584704,"concrete",1198,"abstract","concrete","abstract;concrete","B",7.08840877867539,30
"151","62fe6312269d0e4ae894297b","polite","calibrator_conc_no_feedback","Concrete","VC",1736770588359,"abstract",878,"A","abstract;concrete","","B",6.77764659363512,31
"152","62fe6312269d0e4ae894297b","theory","calibrator_conc_no_feedback","Concrete","VC",1736770589879,"abstract",752,"A","abstract;concrete","","B",6.62273632394984,32
"153","62fe6312269d0e4ae894297b","shirt","calibrator_conc_no_feedback","Concrete","VC",1736770591256,"concrete",617,"A","abstract;concrete","","B",6.42486902390539,33
"154","62fe6312269d0e4ae894297b","grasshopper","calibrator_conc_no_feedback","Concrete","VC",1736770592607,"concrete",587,"A","abstract;concrete","","B",6.3750248198281,34
"155","62fe6312269d0e4ae894297b","insecure","calibrator_conc_no_feedback","Concrete","VC",1736770594064,"abstract",684,"A","abstract;concrete","","B",6.52795791762255,35
"156","62fe6312269d0e4ae894297b","marriage","calibrator_conc_no_feedback","Concrete","VC",1736770595527,"abstract",699,"A","abstract;concrete","","B",6.54965074223381,36
"157","62fe6312269d0e4ae894297b","sugar","calibrator_conc_no_feedback","Concrete","VC",1736770596920,"concrete",627,"A","abstract;concrete","","B",6.44094654063292,37
"158","62fe6312269d0e4ae894297b","whistle","calibrator_conc_no_feedback","Concrete","VC",1736770598280,"concrete",595,"A","abstract;concrete","","B",6.38856140554563,38
"159","62fe6312269d0e4ae894297b","gas","calibrator_conc_no_feedback","Concrete","VC",1736770599880,"concrete",843,"A","abstract;concrete","","B",6.73696695800186,39
"160","62fe6312269d0e4ae894297b","kick","calibrator_conc_no_feedback","Concrete","VC",1736770601079,"concrete",439,"A","abstract;concrete","","B",6.08449941307517,40
"161","60e1e2e5bf8cfa6e08a411cb","grasshopper","calibrator_conc_feedback","Concrete","CV",1736943685039,"concrete",1566,"abstract","concrete","abstract;concrete","A",7.35627987655075,1
"162","60e1e2e5bf8cfa6e08a411cb","marriage","calibrator_conc_feedback","Concrete","CV",1736943689376,"abstract",1574,"abstract","concrete","abstract;concrete","A",7.36137542897735,2
"163","60e1e2e5bf8cfa6e08a411cb","polite","calibrator_conc_feedback","Concrete","CV",1736943693727,"abstract",1588,"abstract","concrete","abstract;concrete","A",7.37023064180708,3
"164","60e1e2e5bf8cfa6e08a411cb","sugar","calibrator_conc_feedback","Concrete","CV",1736943697559,"concrete",1064,"abstract","concrete","abstract;concrete","A",6.96979066990159,4
"165","60e1e2e5bf8cfa6e08a411cb","gas","calibrator_conc_feedback","Concrete","CV",1736943701846,"concrete",1527,"abstract","concrete","abstract;concrete","A",7.33106030521863,5
"166","60e1e2e5bf8cfa6e08a411cb","insecure","calibrator_conc_feedback","Concrete","CV",1736943705846,"abstract",1240,"abstract","concrete","abstract;concrete","A",7.12286665859908,6
"167","60e1e2e5bf8cfa6e08a411cb","theory","calibrator_conc_feedback","Concrete","CV",1736943709935,"abstract",1329,"abstract","concrete","abstract;concrete","A",7.19218205871325,7
"168","60e1e2e5bf8cfa6e08a411cb","kick","calibrator_conc_feedback","Concrete","CV",1736943715366,"abstract",2666,"abstract","concrete","abstract;concrete","A",7.88833450073865,8
"169","60e1e2e5bf8cfa6e08a411cb","shirt","calibrator_conc_feedback","Concrete","CV",1736943718943,"concrete",814,"abstract","concrete","abstract;concrete","A",6.70196036600254,9
"170","60e1e2e5bf8cfa6e08a411cb","whistle","calibrator_conc_feedback","Concrete","CV",1736943722831,"concrete",1129,"abstract","concrete","abstract;concrete","A",7.02908756414966,10
"171","60e1e2e5bf8cfa6e08a411cb","insecure","calibrator_conc_no_feedback","Concrete","CV",1736943726398,"abstract",803,"A","abstract;concrete","","A",6.68835471394676,11
"172","60e1e2e5bf8cfa6e08a411cb","kick","calibrator_conc_no_feedback","Concrete","CV",1736943728542,"concrete",1386,"A","abstract;concrete","","A",7.23417717974985,12
"173","60e1e2e5bf8cfa6e08a411cb","sugar","calibrator_conc_no_feedback","Concrete","CV",1736943730094,"concrete",796,"A","abstract;concrete","","A",6.67959918584438,13
"174","60e1e2e5bf8cfa6e08a411cb","theory","calibrator_conc_no_feedback","Concrete","CV",1736943731647,"abstract",795,"A","abstract;concrete","","A",6.67834211465433,14
"175","60e1e2e5bf8cfa6e08a411cb","grasshopper","calibrator_conc_no_feedback","Concrete","CV",1736943733143,"concrete",735,"A","abstract;concrete","","A",6.59987049921284,15
"176","60e1e2e5bf8cfa6e08a411cb","marriage","calibrator_conc_no_feedback","Concrete","CV",1736943735550,"abstract",1651,"A","abstract;concrete","","A",7.40913644392013,16
"177","60e1e2e5bf8cfa6e08a411cb","whistle","calibrator_conc_no_feedback","Concrete","CV",1736943736959,"concrete",650,"A","abstract;concrete","","A",6.47697236288968,17
"178","60e1e2e5bf8cfa6e08a411cb","polite","calibrator_conc_no_feedback","Concrete","CV",1736943738462,"abstract",750,"A","abstract;concrete","","A",6.62007320653036,18
"179","60e1e2e5bf8cfa6e08a411cb","shirt","calibrator_conc_no_feedback","Concrete","CV",1736943739838,"concrete",619,"A","abstract;concrete","","A",6.4281052726846,19
"180","60e1e2e5bf8cfa6e08a411cb","gas","calibrator_conc_no_feedback","Concrete","CV",1736943741526,"concrete",932,"A","abstract;concrete","","A",6.83733281468559,20
"181","60e1e2e5bf8cfa6e08a411cb","insecure","calibrator_val_feedback","Valence","CV",1736943959630,"negative",1591,"negative","positive","negative;positive","A",7.37211802833779,21
"182","60e1e2e5bf8cfa6e08a411cb","industry","calibrator_val_feedback","Valence","CV",1736943964318,"positive",1927,"negative","positive","negative;positive","A",7.56371966841437,22
"183","60e1e2e5bf8cfa6e08a411cb","hat","calibrator_val_feedback","Valence","CV",1736943970557,"positive",3482,"negative","positive","negative;positive","A",8.15536212032814,23
"184","60e1e2e5bf8cfa6e08a411cb","jail","calibrator_val_feedback","Valence","CV",1736943974214,"negative",898,"negative","positive","negative;positive","A",6.8001700683022,24
"185","60e1e2e5bf8cfa6e08a411cb","free","calibrator_val_feedback","Valence","CV",1736943977982,"positive",1006,"negative","positive","negative;positive","A",6.91373735065968,25
"186","60e1e2e5bf8cfa6e08a411cb","kitten","calibrator_val_feedback","Valence","CV",1736943981814,"positive",1067,"negative","positive","negative;positive","A",6.97260625130175,26
"187","60e1e2e5bf8cfa6e08a411cb","icebox","calibrator_val_feedback","Valence","CV",1736943988214,"positive",3636,"negative","positive","negative;positive","A",8.19863945529737,27
"188","60e1e2e5bf8cfa6e08a411cb","joke","calibrator_val_feedback","Valence","CV",1736943992310,"positive",1337,"negative","positive","negative;positive","A",7.19818357710194,28
"189","60e1e2e5bf8cfa6e08a411cb","grin","calibrator_val_feedback","Valence","CV",1736943997318,"positive",2251,"negative","positive","negative;positive","A",7.71912984090673,29
"190","60e1e2e5bf8cfa6e08a411cb","invader","calibrator_val_feedback","Valence","CV",1736944000797,"negative",717,"negative","positive","negative;positive","A",6.57507584059962,30
"191","60e1e2e5bf8cfa6e08a411cb","free","calibrator_val_no_feedback","Valence","CV",1736944004541,"positive",978,"A","negative;positive","","A",6.88550967003482,31
"192","60e1e2e5bf8cfa6e08a411cb","jail","calibrator_val_no_feedback","Valence","CV",1736944006207,"negative",910,"A","negative;positive","","A",6.8134445995109,32
"193","60e1e2e5bf8cfa6e08a411cb","invader","calibrator_val_no_feedback","Valence","CV",1736944007646,"negative",678,"A","negative;positive","","A",6.5191472879404,33
"194","60e1e2e5bf8cfa6e08a411cb","hat","calibrator_val_no_feedback","Valence","CV",1736944009398,"positive",996,"A","negative;positive","","A",6.9037472575846,34
"195","60e1e2e5bf8cfa6e08a411cb","grin","calibrator_val_no_feedback","Valence","CV",1736944010950,"positive",791,"A","negative;positive","","A",6.67329796776765,35
"196","60e1e2e5bf8cfa6e08a411cb","joke","calibrator_val_no_feedback","Valence","CV",1736944012280,"positive",573,"A","negative;positive","","A",6.35088571671474,36
"197","60e1e2e5bf8cfa6e08a411cb","industry","calibrator_val_no_feedback","Valence","CV",1736944013830,"positive",794,"A","negative;positive","","A",6.67708346124714,37
"198","60e1e2e5bf8cfa6e08a411cb","kitten","calibrator_val_no_feedback","Valence","CV",1736944015534,"positive",949,"A","negative;positive","","A",6.85540879860993,38
"199","60e1e2e5bf8cfa6e08a411cb","insecure","calibrator_val_no_feedback","Valence","CV",1736944016853,"negative",564,"A","negative;positive","","A",6.33505425149806,39
"200","60e1e2e5bf8cfa6e08a411cb","icebox","calibrator_val_no_feedback","Valence","CV",1736944018622,"positive",1009,"A","negative;positive","","A",6.91671502035361,40
"201","65327a954fb10f7a6e444ae6","hat","calibrator_val_feedback","Valence","VC",1736771340236,"positive",2087,"negative","positive","negative;positive","B",7.6434829070772,1
"202","65327a954fb10f7a6e444ae6","joke","calibrator_val_feedback","Valence","VC",1736771344086,"positive",1080,"negative","positive","negative;positive","B",6.98471632011827,2
"203","65327a954fb10f7a6e444ae6","icebox","calibrator_val_feedback","Valence","VC",1736771348111,"positive",1257,"negative","positive","negative;positive","B",7.13648320859025,3
"204","65327a954fb10f7a6e444ae6","jail","calibrator_val_feedback","Valence","VC",1736771352679,"negative",1800,"negative","positive","negative;positive","B",7.49554194388426,4
"205","65327a954fb10f7a6e444ae6","insecure","calibrator_val_feedback","Valence","VC",1736771356297,"negative",848,"negative","positive","negative;positive","B",6.7428806357919,5
"206","65327a954fb10f7a6e444ae6","free","calibrator_val_feedback","Valence","VC",1736771360190,"negative",1128,"negative","positive","negative;positive","B",7.028201432058,6
"207","65327a954fb10f7a6e444ae6","grin","calibrator_val_feedback","Valence","VC",1736771364314,"positive",1351,"negative","positive","negative;positive","B",7.2086003379602,7
"208","65327a954fb10f7a6e444ae6","industry","calibrator_val_feedback","Valence","VC",1736771368265,"negative",1185,"negative","positive","negative;positive","B",7.07749805356923,8
"209","65327a954fb10f7a6e444ae6","kitten","calibrator_val_feedback","Valence","VC",1736771372185,"positive",1155,"negative","positive","negative;positive","B",7.05185562295589,9
"210","65327a954fb10f7a6e444ae6","invader","calibrator_val_feedback","Valence","VC",1736771375733,"negative",782,"negative","positive","negative;positive","B",6.66185474054531,10
"211","65327a954fb10f7a6e444ae6","industry","calibrator_val_no_feedback","Valence","VC",1736771379860,"negative",1362,"A","negative;positive","","B",7.21670948670946,11
"212","65327a954fb10f7a6e444ae6","grin","calibrator_val_no_feedback","Valence","VC",1736771381533,"positive",907,"A","negative;positive","","B",6.81014245011514,12
"213","65327a954fb10f7a6e444ae6","invader","calibrator_val_no_feedback","Valence","VC",1736771382993,"negative",699,"A","negative;positive","","B",6.54965074223381,13
"214","65327a954fb10f7a6e444ae6","icebox","calibrator_val_no_feedback","Valence","VC",1736771384725,"positive",966,"A","negative;positive","","B",6.87316383421252,14
"215","65327a954fb10f7a6e444ae6","insecure","calibrator_val_no_feedback","Valence","VC",1736771386143,"negative",648,"A","negative;positive","","B",6.47389069635227,15
"216","65327a954fb10f7a6e444ae6","jail","calibrator_val_no_feedback","Valence","VC",1736771387644,"negative",744,"A","negative;positive","","B",6.61204103483309,16
"217","65327a954fb10f7a6e444ae6","kitten","calibrator_val_no_feedback","Valence","VC",1736771389143,"positive",736,"A","negative;positive","","B",6.60123011872888,17
"218","65327a954fb10f7a6e444ae6","hat","calibrator_val_no_feedback","Valence","VC",1736771390916,"positive",1009,"A","negative;positive","","B",6.91671502035361,18
"219","65327a954fb10f7a6e444ae6","joke","calibrator_val_no_feedback","Valence","VC",1736771392264,"positive",584,"A","negative;positive","","B",6.36990098282823,19
"220","65327a954fb10f7a6e444ae6","free","calibrator_val_no_feedback","Valence","VC",1736771393735,"positive",710,"A","negative;positive","","B",6.56526497003536,20
"221","65327a954fb10f7a6e444ae6","gas","calibrator_conc_feedback","Concrete","VC",1736771610225,"concrete",5749,"abstract","concrete","abstract;concrete","B",8.65678120562329,21
"222","65327a954fb10f7a6e444ae6","marriage","calibrator_conc_feedback","Concrete","VC",1736771615149,"abstract",2159,"abstract","concrete","abstract;concrete","B",7.67740043051481,22
"223","65327a954fb10f7a6e444ae6","insecure","calibrator_conc_feedback","Concrete","VC",1736771619316,"abstract",1399,"abstract","concrete","abstract;concrete","B",7.24351297466548,23
"224","65327a954fb10f7a6e444ae6","theory","calibrator_conc_feedback","Concrete","VC",1736771623459,"abstract",1377,"abstract","concrete","abstract;concrete","B",7.22766249872865,24
"225","65327a954fb10f7a6e444ae6","grasshopper","calibrator_conc_feedback","Concrete","VC",1736771627362,"concrete",1135,"abstract","concrete","abstract;concrete","B",7.0343879299155,25
"226","65327a954fb10f7a6e444ae6","sugar","calibrator_conc_feedback","Concrete","VC",1736771631110,"concrete",984,"abstract","concrete","abstract;concrete","B",6.89162589705225,26
"227","65327a954fb10f7a6e444ae6","shirt","calibrator_conc_feedback","Concrete","VC",1736771675839,"concrete",41962,"abstract","concrete","abstract;concrete","B",10.6445197258166,27
"228","65327a954fb10f7a6e444ae6","kick","calibrator_conc_feedback","Concrete","VC",1736771679943,"concrete",1333,"abstract","concrete","abstract;concrete","B",7.19518732017871,28
"229","65327a954fb10f7a6e444ae6","whistle","calibrator_conc_feedback","Concrete","VC",1736771683755,"concrete",1043,"abstract","concrete","abstract;concrete","B",6.94985645500077,29
"230","65327a954fb10f7a6e444ae6","polite","calibrator_conc_feedback","Concrete","VC",1736771692594,"abstract",6073,"abstract","concrete","abstract;concrete","B",8.71160799589757,30
"231","65327a954fb10f7a6e444ae6","whistle","calibrator_conc_no_feedback","Concrete","VC",1736771698298,"concrete",2942,"A","abstract;concrete","","B",7.98684490116138,31
"232","65327a954fb10f7a6e444ae6","insecure","calibrator_conc_no_feedback","Concrete","VC",1736771700142,"abstract",1080,"A","abstract;concrete","","B",6.98471632011827,32
"233","65327a954fb10f7a6e444ae6","theory","calibrator_conc_no_feedback","Concrete","VC",1736771702342,"abstract",1440,"A","abstract;concrete","","B",7.27239839257005,33
"234","65327a954fb10f7a6e444ae6","sugar","calibrator_conc_no_feedback","Concrete","VC",1736771703874,"concrete",772,"A","abstract;concrete","","B",6.64898455002478,34
"235","65327a954fb10f7a6e444ae6","grasshopper","calibrator_conc_no_feedback","Concrete","VC",1736771705474,"concrete",840,"A","abstract;concrete","","B",6.73340189183736,35
"236","65327a954fb10f7a6e444ae6","marriage","calibrator_conc_no_feedback","Concrete","VC",1736771707552,"abstract",1318,"A","abstract;concrete","","B",7.18387071506245,36
"237","65327a954fb10f7a6e444ae6","kick","calibrator_conc_no_feedback","Concrete","VC",1736771709234,"concrete",923,"A","abstract;concrete","","B",6.82762923450285,37
"238","65327a954fb10f7a6e444ae6","gas","calibrator_conc_no_feedback","Concrete","VC",1736771710778,"concrete",780,"A","abstract;concrete","","B",6.65929391968364,38
"239","65327a954fb10f7a6e444ae6","polite","calibrator_conc_no_feedback","Concrete","VC",1736771712317,"concrete",778,"A","abstract;concrete","","B",6.65672652417839,39
"240","65327a954fb10f7a6e444ae6","shirt","calibrator_conc_no_feedback","Concrete","VC",1736771713767,"concrete",686,"A","abstract;concrete","","B",6.53087762772588,40
"241","5fab34d5e971f1617667232e","insecure","calibrator_conc_feedback","Concrete","CV",1736774009352,"abstract",1354,"abstract","concrete","abstract;concrete","B",7.21081845347222,1
"242","5fab34d5e971f1617667232e","kick","calibrator_conc_feedback","Concrete","CV",1736774012465,"concrete",883,"abstract","concrete","abstract;concrete","B",6.78332520060396,2
"243","5fab34d5e971f1617667232e","theory","calibrator_conc_feedback","Concrete","CV",1736774016147,"abstract",923,"abstract","concrete","abstract;concrete","B",6.82762923450285,3
"244","5fab34d5e971f1617667232e","shirt","calibrator_conc_feedback","Concrete","CV",1736774019722,"concrete",816,"abstract","concrete","abstract;concrete","B",6.70441435496411,4
"245","5fab34d5e971f1617667232e","whistle","calibrator_conc_feedback","Concrete","CV",1736774023369,"abstract",887,"abstract","concrete","abstract;concrete","B",6.78784498230958,5
"246","5fab34d5e971f1617667232e","marriage","calibrator_conc_feedback","Concrete","CV",1736774027261,"abstract",1129,"abstract","concrete","abstract;concrete","B",7.02908756414966,6
"247","5fab34d5e971f1617667232e","sugar","calibrator_conc_feedback","Concrete","CV",1736774030599,"concrete",580,"abstract","concrete","abstract;concrete","B",6.36302810354046,7
"248","5fab34d5e971f1617667232e","polite","calibrator_conc_feedback","Concrete","CV",1736774034381,"abstract",1024,"abstract","concrete","abstract;concrete","B",6.93147180559945,8
"249","5fab34d5e971f1617667232e","gas","calibrator_conc_feedback","Concrete","CV",1736774037979,"abstract",839,"abstract","concrete","abstract;concrete","B",6.73221070646721,9
"250","5fab34d5e971f1617667232e","grasshopper","calibrator_conc_feedback","Concrete","CV",1736774041537,"concrete",798,"abstract","concrete","abstract;concrete","B",6.68210859744981,10
"251","5fab34d5e971f1617667232e","theory","calibrator_conc_no_feedback","Concrete","CV",1736774044936,"abstract",645,"A","abstract;concrete","","B",6.46925031679577,11
"252","5fab34d5e971f1617667232e","polite","calibrator_conc_no_feedback","Concrete","CV",1736774046286,"abstract",594,"A","abstract;concrete","","B",6.38687931936265,12
"253","5fab34d5e971f1617667232e","shirt","calibrator_conc_no_feedback","Concrete","CV",1736774047544,"concrete",501,"A","abstract;concrete","","B",6.21660610108486,13
"254","5fab34d5e971f1617667232e","whistle","calibrator_conc_no_feedback","Concrete","CV",1736774048874,"abstract",573,"A","abstract;concrete","","B",6.35088571671474,14
"255","5fab34d5e971f1617667232e","sugar","calibrator_conc_no_feedback","Concrete","CV",1736774050167,"concrete",536,"A","abstract;concrete","","B",6.2841341610708,15
"256","5fab34d5e971f1617667232e","kick","calibrator_conc_no_feedback","Concrete","CV",1736774051371,"abstract",449,"A","abstract;concrete","","B",6.10702288774225,16
"257","5fab34d5e971f1617667232e","marriage","calibrator_conc_no_feedback","Concrete","CV",1736774052735,"abstract",608,"A","abstract;concrete","","B",6.41017488196617,17
"258","5fab34d5e971f1617667232e","insecure","calibrator_conc_no_feedback","Concrete","CV",1736774054638,"abstract",1150,"A","abstract;concrete","","B",7.0475172213573,18
"259","5fab34d5e971f1617667232e","gas","calibrator_conc_no_feedback","Concrete","CV",1736774055996,"concrete",600,"A","abstract;concrete","","B",6.39692965521615,19
"260","5fab34d5e971f1617667232e","grasshopper","calibrator_conc_no_feedback","Concrete","CV",1736774057338,"concrete",584,"A","abstract;concrete","","B",6.36990098282823,20
"261","5fab34d5e971f1617667232e","kitten","calibrator_val_feedback","Valence","CV",1736774254882,"positive",1222,"negative","positive","negative;positive","B",7.10824413973154,21
"262","5fab34d5e971f1617667232e","jail","calibrator_val_feedback","Valence","CV",1736774258396,"negative",759,"negative","positive","negative;positive","B",6.63200177739563,22
"263","5fab34d5e971f1617667232e","icebox","calibrator_val_feedback","Valence","CV",1736774261943,"positive",787,"negative","positive","negative;positive","B",6.6682282484174,23
"264","5fab34d5e971f1617667232e","insecure","calibrator_val_feedback","Valence","CV",1736774265380,"negative",677,"negative","positive","negative;positive","B",6.51767127291227,24
"265","5fab34d5e971f1617667232e","grin","calibrator_val_feedback","Valence","CV",1736774269520,"positive",1380,"negative","positive","negative;positive","B",7.22983877815125,25
"266","5fab34d5e971f1617667232e","free","calibrator_val_feedback","Valence","CV",1736774272927,"positive",648,"negative","positive","negative;positive","B",6.47389069635227,26
"267","5fab34d5e971f1617667232e","joke","calibrator_val_feedback","Valence","CV",1736774276265,"positive",582,"negative","positive","negative;positive","B",6.36647044773144,27
"268","5fab34d5e971f1617667232e","industry","calibrator_val_feedback","Valence","CV",1736774279779,"positive",755,"negative","positive","negative;positive","B",6.62671774924902,28
"269","5fab34d5e971f1617667232e","hat","calibrator_val_feedback","Valence","CV",1736774283094,"positive",555,"negative","positive","negative;positive","B",6.31896811374643,29
"270","5fab34d5e971f1617667232e","invader","calibrator_val_feedback","Valence","CV",1736774286430,"negative",580,"negative","positive","negative;positive","B",6.36302810354046,30
"271","5fab34d5e971f1617667232e","industry","calibrator_val_no_feedback","Valence","CV",1736774289873,"positive",683,"A","negative;positive","","B",6.52649485957079,31
"272","5fab34d5e971f1617667232e","grin","calibrator_val_no_feedback","Valence","CV",1736774291248,"positive",620,"A","negative;positive","","B",6.42971947803914,32
"273","5fab34d5e971f1617667232e","invader","calibrator_val_no_feedback","Valence","CV",1736774292594,"negative",590,"A","negative;positive","","B",6.38012253689976,33
"274","5fab34d5e971f1617667232e","icebox","calibrator_val_no_feedback","Valence","CV",1736774293818,"positive",469,"A","negative;positive","","B",6.15060276844628,34
"275","5fab34d5e971f1617667232e","kitten","calibrator_val_no_feedback","Valence","CV",1736774294987,"positive",412,"A","negative;positive","","B",6.02102334934953,35
"276","5fab34d5e971f1617667232e","hat","calibrator_val_no_feedback","Valence","CV",1736774296184,"positive",443,"A","negative;positive","","B",6.09356977004514,36
"277","5fab34d5e971f1617667232e","insecure","calibrator_val_no_feedback","Valence","CV",1736774297367,"negative",427,"A","negative;positive","","B",6.05678401322862,37
"278","5fab34d5e971f1617667232e","jail","calibrator_val_no_feedback","Valence","CV",1736774298557,"positive",437,"A","negative;positive","","B",6.07993319509559,38
"279","5fab34d5e971f1617667232e","joke","calibrator_val_no_feedback","Valence","CV",1736774299824,"positive",512,"A","negative;positive","","B",6.23832462503951,39
"280","5fab34d5e971f1617667232e","free","calibrator_val_no_feedback","Valence","CV",1736774300991,"positive",410,"A","negative;positive","","B",6.01615715969835,40
"281","6312c4daeb7e0f890b0b6a7f","kick","calibrator_conc_feedback","Concrete","CV",1736773530802,"concrete",1976,"abstract","concrete","abstract;concrete","B",7.58882987830781,1
"282","6312c4daeb7e0f890b0b6a7f","grasshopper","calibrator_conc_feedback","Concrete","CV",1736773534492,"concrete",929,"abstract","concrete","abstract;concrete","B",6.83410873881384,2
"283","6312c4daeb7e0f890b0b6a7f","theory","calibrator_conc_feedback","Concrete","CV",1736773537984,"abstract",736,"abstract","concrete","abstract;concrete","B",6.60123011872888,3
"284","6312c4daeb7e0f890b0b6a7f","sugar","calibrator_conc_feedback","Concrete","CV",1736773541507,"concrete",767,"abstract","concrete","abstract;concrete","B",6.64248680136726,4
"285","6312c4daeb7e0f890b0b6a7f","gas","calibrator_conc_feedback","Concrete","CV",1736773545370,"concrete",1107,"abstract","concrete","abstract;concrete","B",7.00940893270864,5
"286","6312c4daeb7e0f890b0b6a7f","shirt","calibrator_conc_feedback","Concrete","CV",1736773549468,"concrete",1346,"abstract","concrete","abstract;concrete","B",7.20489251020467,6
"287","6312c4daeb7e0f890b0b6a7f","marriage","calibrator_conc_feedback","Concrete","CV",1736773554780,"concrete",862,"abstract","concrete","abstract;concrete","B",6.75925527066369,7
"288","6312c4daeb7e0f890b0b6a7f","polite","calibrator_conc_feedback","Concrete","CV",1736773556842,"abstract",999,"abstract","concrete","abstract;concrete","B",6.90675477864855,8
"289","6312c4daeb7e0f890b0b6a7f","whistle","calibrator_conc_feedback","Concrete","CV",1736773560687,"concrete",1087,"abstract","concrete","abstract;concrete","B",6.99117688712121,9
"290","6312c4daeb7e0f890b0b6a7f","insecure","calibrator_conc_feedback","Concrete","CV",1736773563964,"abstract",521,"abstract","concrete","abstract;concrete","B",6.25575004175337,10
"291","6312c4daeb7e0f890b0b6a7f","insecure","calibrator_conc_no_feedback","Concrete","CV",1736773567413,"abstract",690,"A","abstract;concrete","","B",6.5366915975913,11
"292","6312c4daeb7e0f890b0b6a7f","marriage","calibrator_conc_no_feedback","Concrete","CV",1736773569115,"abstract",947,"A","abstract;concrete","","B",6.85329909318608,12
"293","6312c4daeb7e0f890b0b6a7f","shirt","calibrator_conc_no_feedback","Concrete","CV",1736773570673,"concrete",806,"A","abstract;concrete","","B",6.69208374250663,13
"294","6312c4daeb7e0f890b0b6a7f","polite","calibrator_conc_no_feedback","Concrete","CV",1736773572533,"abstract",1106,"A","abstract;concrete","","B",7.00850518208228,14
"295","6312c4daeb7e0f890b0b6a7f","kick","calibrator_conc_no_feedback","Concrete","CV",1736773574040,"concrete",752,"A","abstract;concrete","","B",6.62273632394984,15
"296","6312c4daeb7e0f890b0b6a7f","whistle","calibrator_conc_no_feedback","Concrete","CV",1736773575569,"abstract",774,"A","abstract;concrete","","B",6.65157187358973,16
"297","6312c4daeb7e0f890b0b6a7f","sugar","calibrator_conc_no_feedback","Concrete","CV",1736773577296,"concrete",969,"A","abstract;concrete","","B",6.87626461189077,17
"298","6312c4daeb7e0f890b0b6a7f","grasshopper","calibrator_conc_no_feedback","Concrete","CV",1736773578737,"concrete",687,"A","abstract;concrete","","B",6.53233429222235,18
"299","6312c4daeb7e0f890b0b6a7f","theory","calibrator_conc_no_feedback","Concrete","CV",1736773580088,"abstract",596,"A","abstract;concrete","","B",6.39024066706535,19
"300","6312c4daeb7e0f890b0b6a7f","gas","calibrator_conc_no_feedback","Concrete","CV",1736773581391,"concrete",547,"A","abstract;concrete","","B",6.30444880242198,20
"301","6312c4daeb7e0f890b0b6a7f","jail","calibrator_val_feedback","Valence","CV",1736773793385,"negative",889,"negative","positive","negative;positive","B",6.7900972355139,21
"302","6312c4daeb7e0f890b0b6a7f","icebox","calibrator_val_feedback","Valence","CV",1736773795934,"positive",1086,"negative","positive","negative;positive","B",6.99025650049388,22
"303","6312c4daeb7e0f890b0b6a7f","industry","calibrator_val_feedback","Valence","CV",1736773799080,"negative",1003,"negative","positive","negative;positive","B",6.91075078796194,23
"304","6312c4daeb7e0f890b0b6a7f","invader","calibrator_val_feedback","Valence","CV",1736773802819,"negative",984,"negative","positive","negative;positive","B",6.89162589705225,24
"305","6312c4daeb7e0f890b0b6a7f","kitten","calibrator_val_feedback","Valence","CV",1736773806310,"positive",738,"negative","positive","negative;positive","B",6.60394382460047,25
"306","6312c4daeb7e0f890b0b6a7f","hat","calibrator_val_feedback","Valence","CV",1736773809721,"positive",656,"negative","positive","negative;positive","B",6.48616078894409,26
"307","6312c4daeb7e0f890b0b6a7f","free","calibrator_val_feedback","Valence","CV",1736773813287,"positive",810,"negative","positive","negative;positive","B",6.69703424766648,27
"308","6312c4daeb7e0f890b0b6a7f","joke","calibrator_val_feedback","Valence","CV",1736773816870,"positive",828,"negative","positive","negative;positive","B",6.71901315438526,28
"309","6312c4daeb7e0f890b0b6a7f","insecure","calibrator_val_feedback","Valence","CV",1736773820532,"negative",905,"negative","positive","negative;positive","B",6.80793494369993,29
"310","6312c4daeb7e0f890b0b6a7f","grin","calibrator_val_feedback","Valence","CV",1736773824583,"positive",1296,"negative","positive","negative;positive","B",7.16703787691222,30
"311","6312c4daeb7e0f890b0b6a7f","hat","calibrator_val_no_feedback","Valence","CV",1736773829166,"negative",1824,"A","negative;positive","","B",7.50878717063428,31
"312","6312c4daeb7e0f890b0b6a7f","free","calibrator_val_no_feedback","Valence","CV",1736773831408,"positive",1487,"A","negative;positive","","B",7.30451594646016,32
"313","6312c4daeb7e0f890b0b6a7f","industry","calibrator_val_no_feedback","Valence","CV",1736773833071,"positive",907,"A","negative;positive","","B",6.81014245011514,33
"314","6312c4daeb7e0f890b0b6a7f","jail","calibrator_val_no_feedback","Valence","CV",1736773834362,"negative",533,"A","negative;positive","","B",6.27852142416584,34
"315","6312c4daeb7e0f890b0b6a7f","icebox","calibrator_val_no_feedback","Valence","CV",1736773837094,"negative",1981,"A","negative;positive","","B",7.59135704669855,35
"316","6312c4daeb7e0f890b0b6a7f","joke","calibrator_val_no_feedback","Valence","CV",1736773838520,"positive",670,"A","negative;positive","","B",6.50727771238501,36
"317","6312c4daeb7e0f890b0b6a7f","kitten","calibrator_val_no_feedback","Valence","CV",1736773839764,"positive",489,"A","negative;positive","","B",6.19236248947487,37
"318","6312c4daeb7e0f890b0b6a7f","invader","calibrator_val_no_feedback","Valence","CV",1736773842149,"negative",1629,"A","negative;positive","","B",7.39572160860205,38
"319","6312c4daeb7e0f890b0b6a7f","insecure","calibrator_val_no_feedback","Valence","CV",1736773844324,"negative",1420,"A","negative;positive","","B",7.25841215059531,39
"320","6312c4daeb7e0f890b0b6a7f","grin","calibrator_val_no_feedback","Valence","CV",1736773845970,"positive",891,"A","negative;positive","","B",6.79234442747081,40
"321","60e7739644eb45bfddedf039","marriage","calibrator_conc_feedback","Concrete","CV",1736944187664,"abstract",1656,"abstract","concrete","abstract;concrete","A",7.4121603349452,1
"322","60e7739644eb45bfddedf039","whistle","calibrator_conc_feedback","Concrete","CV",1736944192394,"concrete",1429,"abstract","concrete","abstract;concrete","A",7.26473017792987,2
"323","60e7739644eb45bfddedf039","kick","calibrator_conc_feedback","Concrete","CV",1736944195848,"abstract",2124,"abstract","concrete","abstract;concrete","A",7.66105638236183,3
"324","60e7739644eb45bfddedf039","theory","calibrator_conc_feedback","Concrete","CV",1736944200536,"abstract",1897,"abstract","concrete","abstract;concrete","A",7.54802896993501,4
"325","60e7739644eb45bfddedf039","insecure","calibrator_conc_feedback","Concrete","CV",1736944205242,"abstract",1894,"abstract","concrete","abstract;concrete","A",7.54644627374602,5
"326","60e7739644eb45bfddedf039","shirt","calibrator_conc_feedback","Concrete","CV",1736944209363,"concrete",1342,"abstract","concrete","abstract;concrete","A",7.20191631753163,6
"327","60e7739644eb45bfddedf039","polite","calibrator_conc_feedback","Concrete","CV",1736944213327,"abstract",1174,"abstract","concrete","abstract;concrete","A",7.06817200038804,7
"328","60e7739644eb45bfddedf039","grasshopper","calibrator_conc_feedback","Concrete","CV",1736944217707,"concrete",1590,"abstract","concrete","abstract;concrete","A",7.37148929521428,8
"329","60e7739644eb45bfddedf039","sugar","calibrator_conc_feedback","Concrete","CV",1736944221560,"concrete",1060,"abstract","concrete","abstract;concrete","A",6.96602418710611,9
"330","60e7739644eb45bfddedf039","gas","calibrator_conc_feedback","Concrete","CV",1736944226685,"abstract",1604,"abstract","concrete","abstract;concrete","A",7.38025578842646,10
"331","60e7739644eb45bfddedf039","marriage","calibrator_conc_no_feedback","Concrete","CV",1736944230440,"abstract",1698,"A","abstract;concrete","","A",7.43720636687129,11
"332","60e7739644eb45bfddedf039","grasshopper","calibrator_conc_no_feedback","Concrete","CV",1736944232431,"concrete",1215,"A","abstract;concrete","","A",7.10249935577465,12
"333","60e7739644eb45bfddedf039","shirt","calibrator_conc_no_feedback","Concrete","CV",1736944234099,"concrete",900,"A","abstract;concrete","","A",6.80239476332431,13
"334","60e7739644eb45bfddedf039","kick","calibrator_conc_no_feedback","Concrete","CV",1736944236439,"concrete",1557,"A","abstract;concrete","","A",7.350516171834,14
"335","60e7739644eb45bfddedf039","insecure","calibrator_conc_no_feedback","Concrete","CV",1736944238323,"abstract",1103,"A","abstract;concrete","","A",7.0057890192535,15
"336","60e7739644eb45bfddedf039","gas","calibrator_conc_no_feedback","Concrete","CV",1736944240074,"concrete",954,"A","abstract;concrete","","A",6.86066367144829,16
"337","60e7739644eb45bfddedf039","sugar","calibrator_conc_no_feedback","Concrete","CV",1736944241948,"concrete",1090,"A","abstract;concrete","","A",6.99393297522319,17
"338","60e7739644eb45bfddedf039","whistle","calibrator_conc_no_feedback","Concrete","CV",1736944243945,"abstract",1224,"A","abstract;concrete","","A",7.10987946307227,18
"339","60e7739644eb45bfddedf039","polite","calibrator_conc_no_feedback","Concrete","CV",1736944245715,"abstract",996,"A","abstract;concrete","","A",6.9037472575846,19
"340","60e7739644eb45bfddedf039","theory","calibrator_conc_no_feedback","Concrete","CV",1736944248043,"abstract",1548,"A","abstract;concrete","","A",7.34471905414967,20
"341","60e7739644eb45bfddedf039","invader","calibrator_val_feedback","Valence","CV",1736944619625,"positive",1789,"negative","positive","negative;positive","A",7.48941208350872,21
"342","60e7739644eb45bfddedf039","joke","calibrator_val_feedback","Valence","CV",1736944622626,"positive",1206,"negative","positive","negative;positive","A",7.09506437728713,22
"343","60e7739644eb45bfddedf039","icebox","calibrator_val_feedback","Valence","CV",1736944629847,"positive",2521,"negative","positive","negative;positive","A",7.83241092718792,23
"344","60e7739644eb45bfddedf039","industry","calibrator_val_feedback","Valence","CV",1736944632786,"positive",1131,"negative","positive","negative;positive","A",7.03085747611612,24
"345","60e7739644eb45bfddedf039","grin","calibrator_val_feedback","Valence","CV",1736944636441,"positive",1235,"negative","positive","negative;positive","A",7.11882624906208,25
"346","60e7739644eb45bfddedf039","jail","calibrator_val_feedback","Valence","CV",1736944640568,"negative",1133,"negative","positive","negative;positive","A",7.03262426102801,26
"347","60e7739644eb45bfddedf039","kitten","calibrator_val_feedback","Valence","CV",1736944645011,"positive",1670,"negative","positive","negative;positive","A",7.4205789054108,27
"348","60e7739644eb45bfddedf039","insecure","calibrator_val_feedback","Valence","CV",1736944649481,"negative",1423,"negative","positive","negative;positive","A",7.26052259808985,28
"349","60e7739644eb45bfddedf039","hat","calibrator_val_feedback","Valence","CV",1736944652582,"positive",1318,"negative","positive","negative;positive","A",7.18387071506245,29
"350","60e7739644eb45bfddedf039","free","calibrator_val_feedback","Valence","CV",1736944656732,"positive",1362,"negative","positive","negative;positive","A",7.21670948670946,30
"351","60e7739644eb45bfddedf039","icebox","calibrator_val_no_feedback","Valence","CV",1736944661055,"positive",1527,"A","negative;positive","","A",7.33106030521863,31
"352","60e7739644eb45bfddedf039","industry","calibrator_val_no_feedback","Valence","CV",1736944662705,"positive",880,"A","negative;positive","","A",6.77992190747225,32
"353","60e7739644eb45bfddedf039","invader","calibrator_val_no_feedback","Valence","CV",1736944664398,"negative",912,"A","negative;positive","","A",6.81563999007433,33
"354","60e7739644eb45bfddedf039","jail","calibrator_val_no_feedback","Valence","CV",1736944665977,"negative",789,"A","negative;positive","","A",6.67076632084587,34
"355","60e7739644eb45bfddedf039","joke","calibrator_val_no_feedback","Valence","CV",1736944667635,"positive",882,"A","negative;positive","","A",6.78219205600679,35
"356","60e7739644eb45bfddedf039","hat","calibrator_val_no_feedback","Valence","CV",1736944669788,"positive",1387,"A","negative;positive","","A",7.23489842031483,36
"357","60e7739644eb45bfddedf039","insecure","calibrator_val_no_feedback","Valence","CV",1736944671463,"negative",880,"A","negative;positive","","A",6.77992190747225,37
"358","60e7739644eb45bfddedf039","kitten","calibrator_val_no_feedback","Valence","CV",1736944673104,"positive",868,"A","negative;positive","","A",6.76619171466035,38
"359","60e7739644eb45bfddedf039","free","calibrator_val_no_feedback","Valence","CV",1736944674696,"positive",812,"A","negative;positive","","A",6.69950034016168,39
"360","60e7739644eb45bfddedf039","grin","calibrator_val_no_feedback","Valence","CV",1736944676236,"positive",765,"A","negative;positive","","A",6.63987583382654,40
"361","665de165057136a924eda46a","marriage","calibrator_conc_feedback","Concrete","CV",1736775071469,"concrete",1476,"abstract","concrete","abstract;concrete","B",7.29709100516042,1
"362","665de165057136a924eda46a","polite","calibrator_conc_feedback","Concrete","CV",1736775077715,"abstract",2406,"abstract","concrete","abstract;concrete","B",7.78572089653462,2
"363","665de165057136a924eda46a","insecure","calibrator_conc_feedback","Concrete","CV",1736775081427,"concrete",2488,"abstract","concrete","abstract;concrete","B",7.81923445385907,3
"364","665de165057136a924eda46a","sugar","calibrator_conc_feedback","Concrete","CV",1736775087565,"concrete",1576,"abstract","concrete","abstract;concrete","B",7.36264527041782,4
"365","665de165057136a924eda46a","whistle","calibrator_conc_feedback","Concrete","CV",1736775092256,"concrete",1929,"abstract","concrete","abstract;concrete","B",7.56475701290573,5
"366","665de165057136a924eda46a","grasshopper","calibrator_conc_feedback","Concrete","CV",1736775096183,"concrete",1036,"abstract","concrete","abstract;concrete","B",6.94312242281943,6
"367","665de165057136a924eda46a","gas","calibrator_conc_feedback","Concrete","CV",1736775099865,"abstract",972,"abstract","concrete","abstract;concrete","B",6.87935580446044,7
"368","665de165057136a924eda46a","shirt","calibrator_conc_feedback","Concrete","CV",1736775103980,"concrete",1240,"abstract","concrete","abstract;concrete","B",7.12286665859908,8
"369","665de165057136a924eda46a","theory","calibrator_conc_feedback","Concrete","CV",1736775107941,"abstract",1354,"abstract","concrete","abstract;concrete","B",7.21081845347222,9
"370","665de165057136a924eda46a","kick","calibrator_conc_feedback","Concrete","CV",1736775112962,"abstract",2403,"abstract","concrete","abstract;concrete","B",7.78447323573647,10
"371","665de165057136a924eda46a","theory","calibrator_conc_no_feedback","Concrete","CV",1736775115662,"abstract",1639,"A","abstract;concrete","","B",7.40184157874383,11
"372","665de165057136a924eda46a","sugar","calibrator_conc_no_feedback","Concrete","CV",1736775118218,"concrete",1795,"A","abstract;concrete","","B",7.49276030092238,12
"373","665de165057136a924eda46a","polite","calibrator_conc_no_feedback","Concrete","CV",1736775120021,"abstract",1045,"A","abstract;concrete","","B",6.95177216439891,13
"374","665de165057136a924eda46a","grasshopper","calibrator_conc_no_feedback","Concrete","CV",1736775121589,"concrete",813,"A","abstract;concrete","","B",6.70073110954781,14
"375","665de165057136a924eda46a","gas","calibrator_conc_no_feedback","Concrete","CV",1736775123330,"abstract",984,"A","abstract;concrete","","B",6.89162589705225,15
"376","665de165057136a924eda46a","kick","calibrator_conc_no_feedback","Concrete","CV",1736775124884,"abstract",796,"A","abstract;concrete","","B",6.67959918584438,16
"377","665de165057136a924eda46a","insecure","calibrator_conc_no_feedback","Concrete","CV",1736775126633,"abstract",990,"A","abstract;concrete","","B",6.89770494312864,17
"378","665de165057136a924eda46a","shirt","calibrator_conc_no_feedback","Concrete","CV",1736775128397,"concrete",1006,"A","abstract;concrete","","B",6.91373735065968,18
"379","665de165057136a924eda46a","marriage","calibrator_conc_no_feedback","Concrete","CV",1736775130456,"concrete",1297,"A","abstract;concrete","","B",7.16780918431644,19
"380","665de165057136a924eda46a","whistle","calibrator_conc_no_feedback","Concrete","CV",1736775131946,"concrete",731,"A","abstract;concrete","","B",6.59441345974978,20
"381","665de165057136a924eda46a","grin","calibrator_val_feedback","Valence","CV",1736775406842,"negative",976,"negative","positive","negative;positive","B",6.88346258641309,21
"382","665de165057136a924eda46a","hat","calibrator_val_feedback","Valence","CV",1736775410011,"positive",684,"negative","positive","negative;positive","B",6.52795791762255,22
"383","665de165057136a924eda46a","icebox","calibrator_val_feedback","Valence","CV",1736775414866,"positive",1843,"negative","positive","negative;positive","B",7.51914995766982,23
"384","665de165057136a924eda46a","kitten","calibrator_val_feedback","Valence","CV",1736775418178,"positive",668,"negative","positive","negative;positive","B",6.50428817353665,24
"385","665de165057136a924eda46a","insecure","calibrator_val_feedback","Valence","CV",1736775421750,"negative",935,"negative","positive","negative;positive","B",6.84054652928869,25
"386","665de165057136a924eda46a","jail","calibrator_val_feedback","Valence","CV",1736775425272,"negative",697,"negative","positive","negative;positive","B",6.54678541076052,26
"387","665de165057136a924eda46a","invader","calibrator_val_feedback","Valence","CV",1736775428571,"negative",709,"negative","positive","negative;positive","B",6.56385552653213,27
"388","665de165057136a924eda46a","industry","calibrator_val_feedback","Valence","CV",1736775431925,"positive",735,"negative","positive","negative;positive","B",6.59987049921284,28
"389","665de165057136a924eda46a","free","calibrator_val_feedback","Valence","CV",1736775436939,"positive",2084,"negative","positive","negative;positive","B",7.64204440287326,29
"390","665de165057136a924eda46a","joke","calibrator_val_feedback","Valence","CV",1736775440136,"positive",518,"negative","positive","negative;positive","B",6.24997524225948,30
"391","665de165057136a924eda46a","kitten","calibrator_val_no_feedback","Valence","CV",1736775442039,"positive",614,"A","negative;positive","","B",6.41999492814714,31
"392","665de165057136a924eda46a","free","calibrator_val_no_feedback","Valence","CV",1736775443586,"positive",792,"A","negative;positive","","B",6.67456139181443,32
"393","665de165057136a924eda46a","industry","calibrator_val_no_feedback","Valence","CV",1736775444862,"positive",519,"A","negative;positive","","B",6.25190388316589,33
"394","665de165057136a924eda46a","insecure","calibrator_val_no_feedback","Valence","CV",1736775446314,"negative",692,"A","negative;positive","","B",6.53958595561767,34
"395","665de165057136a924eda46a","icebox","calibrator_val_no_feedback","Valence","CV",1736775447714,"positive",642,"A","negative;positive","","B",6.46458830368996,35
"396","665de165057136a924eda46a","invader","calibrator_val_no_feedback","Valence","CV",1736775449173,"negative",701,"A","negative;positive","","B",6.55250788703459,36
"397","665de165057136a924eda46a","grin","calibrator_val_no_feedback","Valence","CV",1736775450608,"negative",681,"A","negative;positive","","B",6.52356230614951,37
"398","665de165057136a924eda46a","jail","calibrator_val_no_feedback","Valence","CV",1736775451947,"negative",579,"A","negative;positive","","B",6.361302477573,38
"399","665de165057136a924eda46a","joke","calibrator_val_no_feedback","Valence","CV",1736775453432,"negative",724,"A","negative;positive","","B",6.58479139238572,39
"400","665de165057136a924eda46a","hat","calibrator_val_no_feedback","Valence","CV",1736775454913,"positive",722,"A","negative;positive","","B",6.58202513889283,40
"401","63f77fef0855adb7fa65873d","shirt","calibrator_conc_feedback","Concrete","CV",1736774816120,"concrete",1604,"abstract","concrete","abstract;concrete","B",7.38025578842646,1
"402","63f77fef0855adb7fa65873d","sugar","calibrator_conc_feedback","Concrete","CV",1736774820125,"concrete",2665,"abstract","concrete","abstract;concrete","B",7.88795933659994,2
"403","63f77fef0855adb7fa65873d","whistle","calibrator_conc_feedback","Concrete","CV",1736774824428,"concrete",1539,"abstract","concrete","abstract;concrete","B",7.33888813383888,3
"404","63f77fef0855adb7fa65873d","theory","calibrator_conc_feedback","Concrete","CV",1736774828828,"abstract",1643,"abstract","concrete","abstract;concrete","B",7.40427911803727,4
"405","63f77fef0855adb7fa65873d","marriage","calibrator_conc_feedback","Concrete","CV",1736774834181,"abstract",2588,"abstract","concrete","abstract;concrete","B",7.85864065562079,5
"406","63f77fef0855adb7fa65873d","polite","calibrator_conc_feedback","Concrete","CV",1736774839342,"abstract",2399,"abstract","concrete","abstract;concrete","B",7.78280726283969,6
"407","63f77fef0855adb7fa65873d","grasshopper","calibrator_conc_feedback","Concrete","CV",1736774843494,"concrete",1392,"abstract","concrete","abstract;concrete","B",7.23849684089437,7
"408","63f77fef0855adb7fa65873d","insecure","calibrator_conc_feedback","Concrete","CV",1736774847666,"abstract",1411,"abstract","concrete","abstract;concrete","B",7.25205395185281,8
"409","63f77fef0855adb7fa65873d","gas","calibrator_conc_feedback","Concrete","CV",1736774852363,"abstract",1932,"abstract","concrete","abstract;concrete","B",7.56631101477246,9
"410","63f77fef0855adb7fa65873d","kick","calibrator_conc_feedback","Concrete","CV",1736774858993,"abstract",3865,"abstract","concrete","abstract;concrete","B",8.25971696102152,10
"411","63f77fef0855adb7fa65873d","theory","calibrator_conc_no_feedback","Concrete","CV",1736774862818,"abstract",1067,"A","abstract;concrete","","B",6.97260625130175,11
"412","63f77fef0855adb7fa65873d","gas","calibrator_conc_no_feedback","Concrete","CV",1736774864913,"abstract",1337,"A","abstract;concrete","","B",7.19818357710194,12
"413","63f77fef0855adb7fa65873d","grasshopper","calibrator_conc_no_feedback","Concrete","CV",1736774866761,"concrete",1093,"A","abstract;concrete","","B",6.99668148817654,13
"414","63f77fef0855adb7fa65873d","insecure","calibrator_conc_no_feedback","Concrete","CV",1736774868637,"abstract",1121,"A","abstract;concrete","","B",7.02197642307216,14
"415","63f77fef0855adb7fa65873d","kick","calibrator_conc_no_feedback","Concrete","CV",1736774870736,"abstract",1342,"A","abstract;concrete","","B",7.20191631753163,15
"416","63f77fef0855adb7fa65873d","shirt","calibrator_conc_no_feedback","Concrete","CV",1736774872477,"concrete",984,"A","abstract;concrete","","B",6.89162589705225,16
"417","63f77fef0855adb7fa65873d","marriage","calibrator_conc_no_feedback","Concrete","CV",1736774874141,"abstract",905,"A","abstract;concrete","","B",6.80793494369993,17
"418","63f77fef0855adb7fa65873d","polite","calibrator_conc_no_feedback","Concrete","CV",1736774875911,"abstract",1011,"A","abstract;concrete","","B",6.91869521902047,18
"419","63f77fef0855adb7fa65873d","whistle","calibrator_conc_no_feedback","Concrete","CV",1736774877488,"concrete",820,"A","abstract;concrete","","B",6.7093043402583,19
"420","63f77fef0855adb7fa65873d","sugar","calibrator_conc_no_feedback","Concrete","CV",1736774879391,"concrete",1143,"A","abstract;concrete","","B",7.04141166379481,20
"421","63f77fef0855adb7fa65873d","industry","calibrator_val_feedback","Valence","CV",1736775096933,"positive",1264,"negative","positive","negative;positive","B",7.1420365747068,21
"422","63f77fef0855adb7fa65873d","grin","calibrator_val_feedback","Valence","CV",1736775100249,"positive",1186,"negative","positive","negative;positive","B",7.07834157955767,22
"423","63f77fef0855adb7fa65873d","insecure","calibrator_val_feedback","Valence","CV",1736775103355,"negative",1004,"negative","positive","negative;positive","B",6.91174730025167,23
"424","63f77fef0855adb7fa65873d","kitten","calibrator_val_feedback","Valence","CV",1736775106309,"positive",782,"negative","positive","negative;positive","B",6.66185474054531,24
"425","63f77fef0855adb7fa65873d","jail","calibrator_val_feedback","Valence","CV",1736775110600,"negative",1528,"negative","positive","negative;positive","B",7.33171496972647,25
"426","63f77fef0855adb7fa65873d","joke","calibrator_val_feedback","Valence","CV",1736775114183,"positive",818,"negative","positive","negative;positive","B",6.70686233660275,26
"427","63f77fef0855adb7fa65873d","icebox","calibrator_val_feedback","Valence","CV",1736775118010,"positive",1064,"negative","positive","negative;positive","B",6.96979066990159,27
"428","63f77fef0855adb7fa65873d","free","calibrator_val_feedback","Valence","CV",1736775121716,"positive",945,"negative","positive","negative;positive","B",6.85118492749374,28
"429","63f77fef0855adb7fa65873d","hat","calibrator_val_feedback","Valence","CV",1736775125345,"positive",866,"negative","positive","negative;positive","B",6.76388490856244,29
"430","63f77fef0855adb7fa65873d","invader","calibrator_val_feedback","Valence","CV",1736775129050,"negative",944,"negative","positive","negative;positive","B",6.8501261661455,30
"431","63f77fef0855adb7fa65873d","hat","calibrator_val_no_feedback","Valence","CV",1736775132725,"positive",914,"A","negative;positive","","B",6.81783057145415,31
"432","63f77fef0855adb7fa65873d","jail","calibrator_val_no_feedback","Valence","CV",1736775135709,"negative",2224,"A","negative;positive","","B",7.70706265537047,32
"433","63f77fef0855adb7fa65873d","joke","calibrator_val_no_feedback","Valence","CV",1736775137269,"positive",803,"A","negative;positive","","B",6.68835471394676,33
"434","63f77fef0855adb7fa65873d","industry","calibrator_val_no_feedback","Valence","CV",1736775138949,"positive",923,"A","negative;positive","","B",6.82762923450285,34
"435","63f77fef0855adb7fa65873d","icebox","calibrator_val_no_feedback","Valence","CV",1736775141919,"positive",2213,"A","negative;positive","","B",7.70210434005105,35
"436","63f77fef0855adb7fa65873d","invader","calibrator_val_no_feedback","Valence","CV",1736775143360,"negative",685,"A","negative;positive","","B",6.52941883826223,36
"437","63f77fef0855adb7fa65873d","grin","calibrator_val_no_feedback","Valence","CV",1736775144949,"positive",829,"A","negative;positive","","B",6.7202201551353,37
"438","63f77fef0855adb7fa65873d","free","calibrator_val_no_feedback","Valence","CV",1736775146764,"positive",1058,"A","negative;positive","","B",6.96413561241824,38
"439","63f77fef0855adb7fa65873d","kitten","calibrator_val_no_feedback","Valence","CV",1736775148099,"positive",575,"A","negative;positive","","B",6.35437004079735,39
"440","63f77fef0855adb7fa65873d","insecure","calibrator_val_no_feedback","Valence","CV",1736775149433,"negative",577,"A","negative;positive","","B",6.3578422665081,40
"441","603421c858a3bd213d7c24b2","kitten","calibrator_val_feedback","Valence","VC",1736771834212,"negative",2508,"negative","positive","negative;positive","B",7.82724090175281,1
"442","603421c858a3bd213d7c24b2","grin","calibrator_val_feedback","Valence","VC",1736771837070,"positive",82,"negative","positive","negative;positive","B",4.40671924726425,2
"443","603421c858a3bd213d7c24b2","industry","calibrator_val_feedback","Valence","VC",1736771840345,"negative",386,"negative","positive","negative;positive","B",5.95583736946483,3
"444","603421c858a3bd213d7c24b2","hat","calibrator_val_feedback","Valence","VC",1736771843143,"positive",208,"negative","positive","negative;positive","B",5.33753807970132,4
"445","603421c858a3bd213d7c24b2","insecure","calibrator_val_feedback","Valence","VC",1736771846023,"positive",30,"negative","positive","negative;positive","B",3.40119738166216,5
"446","603421c858a3bd213d7c24b2","free","calibrator_val_feedback","Valence","VC",1736771848863,"negative",106,"negative","positive","negative;positive","B",4.66343909411207,6
"447","603421c858a3bd213d7c24b2","joke","calibrator_val_feedback","Valence","VC",1736771851347,"negative",10,"negative","positive","negative;positive","B",2.30258509299405,7
"448","603421c858a3bd213d7c24b2","icebox","calibrator_val_feedback","Valence","VC",1736771854320,"positive",389,"negative","positive","negative;positive","B",5.96357934361845,8
"449","603421c858a3bd213d7c24b2","jail","calibrator_val_feedback","Valence","VC",1736771857889,"negative",251,"negative","positive","negative;positive","B",5.52545293913178,9
"450","603421c858a3bd213d7c24b2","invader","calibrator_val_feedback","Valence","VC",1736771860690,"negative",88,"negative","positive","negative;positive","B",4.47733681447821,10
"451","603421c858a3bd213d7c24b2","joke","calibrator_val_no_feedback","Valence","VC",1736771861685,"positive",153,"A","negative;positive","","B",5.03043792139244,11
"452","603421c858a3bd213d7c24b2","hat","calibrator_val_no_feedback","Valence","VC",1736771862637,"negative",195,"A","negative;positive","","B",5.27299955856375,12
"453","603421c858a3bd213d7c24b2","grin","calibrator_val_no_feedback","Valence","VC",1736771864350,"negative",956,"A","negative;positive","","B",6.8627579130514,13
"454","603421c858a3bd213d7c24b2","jail","calibrator_val_no_feedback","Valence","VC",1736771865210,"negative",106,"A","negative;positive","","B",4.66343909411207,14
"455","603421c858a3bd213d7c24b2","kitten","calibrator_val_no_feedback","Valence","VC",1736771866245,"positive",280,"A","negative;positive","","B",5.63478960316925,15
"456","603421c858a3bd213d7c24b2","icebox","calibrator_val_no_feedback","Valence","VC",1736771867165,"negative",163,"A","negative;positive","","B",5.09375020080676,16
"457","603421c858a3bd213d7c24b2","industry","calibrator_val_no_feedback","Valence","VC",1736771868090,"negative",168,"A","negative;positive","","B",5.12396397940326,17
"458","603421c858a3bd213d7c24b2","invader","calibrator_val_no_feedback","Valence","VC",1736771868965,"positive",116,"A","negative;positive","","B",4.75359019110636,18
"459","603421c858a3bd213d7c24b2","free","calibrator_val_no_feedback","Valence","VC",1736771869765,"negative",41,"A","negative;positive","","B",3.71357206670431,19
"460","603421c858a3bd213d7c24b2","insecure","calibrator_val_no_feedback","Valence","VC",1736771870741,"positive",219,"A","negative;positive","","B",5.3890717298165,20
"461","603421c858a3bd213d7c24b2","marriage","calibrator_conc_feedback","Concrete","VC",1736772008675,"concrete",73,"abstract","concrete","abstract;concrete","B",4.29045944114839,21
"462","603421c858a3bd213d7c24b2","shirt","calibrator_conc_feedback","Concrete","VC",1736772011240,"concrete",8,"abstract","concrete","abstract;concrete","B",2.07944154167984,22
"463","603421c858a3bd213d7c24b2","polite","calibrator_conc_feedback","Concrete","VC",1736772014031,"abstract",44,"abstract","concrete","abstract;concrete","B",3.78418963391826,23
"464","603421c858a3bd213d7c24b2","theory","calibrator_conc_feedback","Concrete","VC",1736772017081,"concrete",3,"abstract","concrete","abstract;concrete","B",1.09861228866811,24
"465","603421c858a3bd213d7c24b2","gas","calibrator_conc_feedback","Concrete","VC",1736772019746,"abstract",113,"abstract","concrete","abstract;concrete","B",4.72738781871234,25
"466","603421c858a3bd213d7c24b2","whistle","calibrator_conc_feedback","Concrete","VC",1736772022441,"abstract",670,"abstract","concrete","abstract;concrete","B",6.50727771238501,26
"467","603421c858a3bd213d7c24b2","grasshopper","calibrator_conc_feedback","Concrete","VC",1736772026291,"abstract",309,"abstract","concrete","abstract;concrete","B",5.73334127689775,27
"468","603421c858a3bd213d7c24b2","sugar","calibrator_conc_feedback","Concrete","VC",1736772029251,"abstract",194,"abstract","concrete","abstract;concrete","B",5.26785815906333,28
"469","603421c858a3bd213d7c24b2","insecure","calibrator_conc_feedback","Concrete","VC",1736772032340,"concrete",235,"abstract","concrete","abstract;concrete","B",5.45958551414416,29
"470","603421c858a3bd213d7c24b2","kick","calibrator_conc_feedback","Concrete","VC",1736772035270,"concrete",189,"abstract","concrete","abstract;concrete","B",5.24174701505964,30
"471","603421c858a3bd213d7c24b2","whistle","calibrator_conc_no_feedback","Concrete","VC",1736772036200,"abstract",85,"A","abstract;concrete","","B",4.44265125649032,31
"472","603421c858a3bd213d7c24b2","gas","calibrator_conc_no_feedback","Concrete","VC",1736772036958,"abstract",5,"A","abstract;concrete","","B",1.6094379124341,32
"473","603421c858a3bd213d7c24b2","theory","calibrator_conc_no_feedback","Concrete","VC",1736772037875,"abstract",160,"A","abstract;concrete","","B",5.07517381523383,33
"474","603421c858a3bd213d7c24b2","grasshopper","calibrator_conc_no_feedback","Concrete","VC",1736772038755,"concrete",124,"A","abstract;concrete","","B",4.82028156560504,34
"475","603421c858a3bd213d7c24b2","shirt","calibrator_conc_no_feedback","Concrete","VC",1736772039521,"abstract",10,"A","abstract;concrete","","B",2.30258509299405,35
"476","603421c858a3bd213d7c24b2","polite","calibrator_conc_no_feedback","Concrete","VC",1736772040324,"abstract",49,"A","abstract;concrete","","B",3.89182029811063,36
"477","603421c858a3bd213d7c24b2","sugar","calibrator_conc_no_feedback","Concrete","VC",1736772214899,"abstract",173818,"A","abstract;concrete","","B",12.0657640537695,37
"478","603421c858a3bd213d7c24b2","insecure","calibrator_conc_no_feedback","Concrete","VC",1736772215840,"concrete",183,"A","abstract;concrete","","B",5.20948615284142,38
"479","603421c858a3bd213d7c24b2","marriage","calibrator_conc_no_feedback","Concrete","VC",1736772216905,"abstract",310,"A","abstract;concrete","","B",5.73657229747919,39
"480","603421c858a3bd213d7c24b2","kick","calibrator_conc_no_feedback","Concrete","VC",1736772217699,"abstract",41,"A","abstract;concrete","","B",3.71357206670431,40
"481","61560db6a537f0c454b23db0","polite","calibrator_conc_feedback","Concrete","CV",1736943374934,"abstract",3287,"abstract","concrete","abstract;concrete","A",8.09773057366422,1
"482","61560db6a537f0c454b23db0","gas","calibrator_conc_feedback","Concrete","CV",1736943380589,"concrete",2870,"abstract","concrete","abstract;concrete","A",7.96206730875367,2
"483","61560db6a537f0c454b23db0","grasshopper","calibrator_conc_feedback","Concrete","CV",1736943385152,"concrete",1784,"abstract","concrete","abstract;concrete","A",7.48661331313996,3
"484","61560db6a537f0c454b23db0","theory","calibrator_conc_feedback","Concrete","CV",1736943389950,"abstract",2010,"abstract","concrete","abstract;concrete","A",7.60589000105312,4
"485","61560db6a537f0c454b23db0","kick","calibrator_conc_feedback","Concrete","CV",1736943394166,"concrete",1445,"abstract","concrete","abstract;concrete","A",7.27586460054653,5
"486","61560db6a537f0c454b23db0","marriage","calibrator_conc_feedback","Concrete","CV",1736943399469,"concrete",2526,"abstract","concrete","abstract;concrete","A",7.83439230291044,6
"487","61560db6a537f0c454b23db0","shirt","calibrator_conc_feedback","Concrete","CV",1736943404798,"concrete",2542,"abstract","concrete","abstract;concrete","A",7.8407064517494,7
"488","61560db6a537f0c454b23db0","whistle","calibrator_conc_feedback","Concrete","CV",1736943409941,"concrete",2347,"abstract","concrete","abstract;concrete","A",7.76089319585102,8
"489","61560db6a537f0c454b23db0","sugar","calibrator_conc_feedback","Concrete","CV",1736943414302,"concrete",1577,"abstract","concrete","abstract;concrete","A",7.36327958696304,9
"490","61560db6a537f0c454b23db0","insecure","calibrator_conc_feedback","Concrete","CV",1736943418518,"abstract",1434,"abstract","concrete","abstract;concrete","A",7.26822302115957,10
"491","61560db6a537f0c454b23db0","gas","calibrator_conc_no_feedback","Concrete","CV",1736943422774,"concrete",1483,"A","abstract;concrete","","A",7.30182234213793,11
"492","61560db6a537f0c454b23db0","theory","calibrator_conc_no_feedback","Concrete","CV",1736943425526,"abstract",1979,"A","abstract;concrete","","A",7.59034694560257,12
"493","61560db6a537f0c454b23db0","polite","calibrator_conc_no_feedback","Concrete","CV",1736943427526,"abstract",1229,"A","abstract;concrete","","A",7.11395610956603,13
"494","61560db6a537f0c454b23db0","insecure","calibrator_conc_no_feedback","Concrete","CV",1736943429542,"abstract",1249,"A","abstract;concrete","","A",7.13009851012558,14
"495","61560db6a537f0c454b23db0","sugar","calibrator_conc_no_feedback","Concrete","CV",1736943431391,"concrete",1072,"A","abstract;concrete","","A",6.97728134163075,15
"496","61560db6a537f0c454b23db0","shirt","calibrator_conc_no_feedback","Concrete","CV",1736943433352,"concrete",1194,"A","abstract;concrete","","A",7.08506429395255,16
"497","61560db6a537f0c454b23db0","kick","calibrator_conc_no_feedback","Concrete","CV",1736943435342,"concrete",1218,"A","abstract;concrete","","A",7.10496544826984,17
"498","61560db6a537f0c454b23db0","grasshopper","calibrator_conc_no_feedback","Concrete","CV",1736943438438,"concrete",2321,"A","abstract;concrete","","A",7.74975340627444,18
"499","61560db6a537f0c454b23db0","marriage","calibrator_conc_no_feedback","Concrete","CV",1736943441137,"concrete",1939,"A","abstract;concrete","","A",7.56992765524265,19
"500","61560db6a537f0c454b23db0","whistle","calibrator_conc_no_feedback","Concrete","CV",1736943443151,"concrete",1237,"A","abstract;concrete","","A",7.12044437239249,20
"501","61560db6a537f0c454b23db0","hat","calibrator_val_feedback","Valence","CV",1736943737567,"positive",1984,"negative","positive","negative;positive","A",7.59287028784482,21
"502","61560db6a537f0c454b23db0","kitten","calibrator_val_feedback","Valence","CV",1736943741727,"positive",1371,"negative","positive","negative;positive","A",7.22329567956231,22
"503","61560db6a537f0c454b23db0","jail","calibrator_val_feedback","Valence","CV",1736943745790,"negative",1307,"negative","positive","negative;positive","A",7.17548971362422,23
"504","61560db6a537f0c454b23db0","invader","calibrator_val_feedback","Valence","CV",1736943749911,"negative",1349,"negative","positive","negative;positive","A",7.20711885620776,24
"505","61560db6a537f0c454b23db0","insecure","calibrator_val_feedback","Valence","CV",1736943754191,"negative",1487,"negative","positive","negative;positive","A",7.30451594646016,25
"506","61560db6a537f0c454b23db0","joke","calibrator_val_feedback","Valence","CV",1736943758128,"positive",1144,"negative","positive","negative;positive","A",7.04228617193974,26
"507","61560db6a537f0c454b23db0","grin","calibrator_val_feedback","Valence","CV",1736943762470,"positive",1553,"negative","positive","negative;positive","A",7.34794382314869,27
"508","61560db6a537f0c454b23db0","industry","calibrator_val_feedback","Valence","CV",1736943767055,"positive",1802,"negative","positive","negative;positive","A",7.49665243816828,28
"509","61560db6a537f0c454b23db0","free","calibrator_val_feedback","Valence","CV",1736943770878,"positive",1054,"negative","positive","negative;positive","A",6.96034772910131,29
"510","61560db6a537f0c454b23db0","icebox","calibrator_val_feedback","Valence","CV",1736943775105,"positive",1439,"negative","positive","negative;positive","A",7.27170370688737,30
"511","61560db6a537f0c454b23db0","jail","calibrator_val_no_feedback","Valence","CV",1736943778894,"negative",1014,"A","negative;positive","","A",6.92165818415113,31
"512","61560db6a537f0c454b23db0","kitten","calibrator_val_no_feedback","Valence","CV",1736943780951,"positive",1289,"A","negative;positive","","A",7.16162200293919,32
"513","61560db6a537f0c454b23db0","invader","calibrator_val_no_feedback","Valence","CV",1736943782951,"negative",1229,"A","negative;positive","","A",7.11395610956603,33
"514","61560db6a537f0c454b23db0","insecure","calibrator_val_no_feedback","Valence","CV",1736943784701,"negative",980,"A","negative;positive","","A",6.88755257166462,34
"515","61560db6a537f0c454b23db0","grin","calibrator_val_no_feedback","Valence","CV",1736943786759,"positive",1292,"A","negative;positive","","A",7.16394668434255,35
"516","61560db6a537f0c454b23db0","joke","calibrator_val_no_feedback","Valence","CV",1736943788686,"positive",1155,"A","negative;positive","","A",7.05185562295589,36
"517","61560db6a537f0c454b23db0","icebox","calibrator_val_no_feedback","Valence","CV",1736943790373,"positive",924,"A","negative;positive","","A",6.82871207164168,37
"518","61560db6a537f0c454b23db0","hat","calibrator_val_no_feedback","Valence","CV",1736943792054,"positive",912,"A","negative;positive","","A",6.81563999007433,38
"519","61560db6a537f0c454b23db0","free","calibrator_val_no_feedback","Valence","CV",1736943793977,"positive",1146,"A","negative;positive","","A",7.04403289727469,39
"520","61560db6a537f0c454b23db0","industry","calibrator_val_no_feedback","Valence","CV",1736943796605,"positive",1859,"A","negative;positive","","A",7.52779398772144,40
"521","5f0d0bb334aaaf7151fee628","whistle","calibrator_conc_feedback","Concrete","CV",1736943772767,"concrete",2320,"abstract","concrete","abstract;concrete","A",7.74932246466036,1
"522","5f0d0bb334aaaf7151fee628","shirt","calibrator_conc_feedback","Concrete","CV",1736943776819,"concrete",1290,"abstract","concrete","abstract;concrete","A",7.16239749735572,2
"523","5f0d0bb334aaaf7151fee628","polite","calibrator_conc_feedback","Concrete","CV",1736943780468,"abstract",890,"abstract","concrete","abstract;concrete","A",6.79122146272619,3
"524","5f0d0bb334aaaf7151fee628","gas","calibrator_conc_feedback","Concrete","CV",1736943784489,"concrete",1260,"abstract","concrete","abstract;concrete","A",7.13886699994552,4
"525","5f0d0bb334aaaf7151fee628","grasshopper","calibrator_conc_feedback","Concrete","CV",1736943788059,"concrete",814,"abstract","concrete","abstract;concrete","A",6.70196036600254,5
"526","5f0d0bb334aaaf7151fee628","kick","calibrator_conc_feedback","Concrete","CV",1736943792069,"abstract",1253,"abstract","concrete","abstract;concrete","A",7.13329595489607,6
"527","5f0d0bb334aaaf7151fee628","theory","calibrator_conc_feedback","Concrete","CV",1736943795736,"abstract",912,"abstract","concrete","abstract;concrete","A",6.81563999007433,7
"528","5f0d0bb334aaaf7151fee628","marriage","calibrator_conc_feedback","Concrete","CV",1736943799903,"concrete",1410,"abstract","concrete","abstract;concrete","A",7.25134498337221,8
"529","5f0d0bb334aaaf7151fee628","insecure","calibrator_conc_feedback","Concrete","CV",1736943804083,"abstract",1424,"abstract","concrete","abstract;concrete","A",7.26122509197192,9
"530","5f0d0bb334aaaf7151fee628","sugar","calibrator_conc_feedback","Concrete","CV",1736943807512,"concrete",671,"abstract","concrete","abstract;concrete","A",6.50876913697168,10
"531","5f0d0bb334aaaf7151fee628","insecure","calibrator_conc_no_feedback","Concrete","CV",1736943811445,"abstract",1179,"A","abstract;concrete","","A",7.07242190053737,11
"532","5f0d0bb334aaaf7151fee628","marriage","calibrator_conc_no_feedback","Concrete","CV",1736943813101,"concrete",900,"A","abstract;concrete","","A",6.80239476332431,12
"533","5f0d0bb334aaaf7151fee628","grasshopper","calibrator_conc_no_feedback","Concrete","CV",1736943814430,"concrete",573,"A","abstract;concrete","","A",6.35088571671474,13
"534","5f0d0bb334aaaf7151fee628","shirt","calibrator_conc_no_feedback","Concrete","CV",1736943815778,"concrete",591,"A","abstract;concrete","","A",6.3818160174061,14
"535","5f0d0bb334aaaf7151fee628","whistle","calibrator_conc_no_feedback","Concrete","CV",1736943817303,"concrete",769,"A","abstract;concrete","","A",6.64509096950564,15
"536","5f0d0bb334aaaf7151fee628","sugar","calibrator_conc_no_feedback","Concrete","CV",1736943818622,"concrete",566,"A","abstract;concrete","","A",6.33859407820318,16
"537","5f0d0bb334aaaf7151fee628","polite","calibrator_conc_no_feedback","Concrete","CV",1736943820127,"abstract",749,"A","abstract;concrete","","A",6.61873898351722,17
"538","5f0d0bb334aaaf7151fee628","theory","calibrator_conc_no_feedback","Concrete","CV",1736943821494,"abstract",614,"A","abstract;concrete","","A",6.41999492814714,18
"539","5f0d0bb334aaaf7151fee628","gas","calibrator_conc_no_feedback","Concrete","CV",1736943822893,"concrete",641,"A","abstract;concrete","","A",6.46302945692067,19
"540","5f0d0bb334aaaf7151fee628","kick","calibrator_conc_no_feedback","Concrete","CV",1736943824189,"concrete",539,"A","abstract;concrete","","A",6.289715570909,20
"541","5f0d0bb334aaaf7151fee628","grin","calibrator_val_feedback","Valence","CV",1736944039240,"positive",1823,"negative","positive","negative;positive","A",7.50823877467866,21
"542","5f0d0bb334aaaf7151fee628","joke","calibrator_val_feedback","Valence","CV",1736944042704,"positive",711,"negative","positive","negative;positive","A",6.56667242980324,22
"543","5f0d0bb334aaaf7151fee628","icebox","calibrator_val_feedback","Valence","CV",1736944046626,"positive",1163,"negative","positive","negative;positive","A",7.05875815251866,23
"544","5f0d0bb334aaaf7151fee628","invader","calibrator_val_feedback","Valence","CV",1736944049963,"negative",582,"negative","positive","negative;positive","A",6.36647044773144,24
"545","5f0d0bb334aaaf7151fee628","jail","calibrator_val_feedback","Valence","CV",1736944053393,"negative",670,"negative","positive","negative;positive","A",6.50727771238501,25
"546","5f0d0bb334aaaf7151fee628","kitten","calibrator_val_feedback","Valence","CV",1736944056782,"positive",633,"negative","positive","negative;positive","A",6.45047042214418,26
"547","5f0d0bb334aaaf7151fee628","free","calibrator_val_feedback","Valence","CV",1736944060097,"positive",557,"negative","positive","negative;positive","A",6.32256523992728,27
"548","5f0d0bb334aaaf7151fee628","industry","calibrator_val_feedback","Valence","CV",1736944064323,"positive",1469,"negative","positive","negative;positive","A",7.29233717617388,28
"549","5f0d0bb334aaaf7151fee628","insecure","calibrator_val_feedback","Valence","CV",1736944067750,"negative",674,"negative","positive","negative;positive","A",6.51323011091231,29
"550","5f0d0bb334aaaf7151fee628","hat","calibrator_val_feedback","Valence","CV",1736944071429,"positive",922,"negative","positive","negative;positive","A",6.82654522355659,30
"551","5f0d0bb334aaaf7151fee628","insecure","calibrator_val_no_feedback","Valence","CV",1736944074748,"negative",560,"A","negative;positive","","A",6.32793678372919,31
"552","5f0d0bb334aaaf7151fee628","jail","calibrator_val_no_feedback","Valence","CV",1736944076157,"negative",648,"A","negative;positive","","A",6.47389069635227,32
"553","5f0d0bb334aaaf7151fee628","hat","calibrator_val_no_feedback","Valence","CV",1736944077529,"positive",619,"A","negative;positive","","A",6.4281052726846,33
"554","5f0d0bb334aaaf7151fee628","free","calibrator_val_no_feedback","Valence","CV",1736944078795,"positive",512,"A","negative;positive","","A",6.23832462503951,34
"555","5f0d0bb334aaaf7151fee628","icebox","calibrator_val_no_feedback","Valence","CV",1736944080162,"positive",609,"A","negative;positive","","A",6.4118182677099,35
"556","5f0d0bb334aaaf7151fee628","industry","calibrator_val_no_feedback","Valence","CV",1736944081618,"positive",702,"A","negative;positive","","A",6.55393340402581,36
"557","5f0d0bb334aaaf7151fee628","joke","calibrator_val_no_feedback","Valence","CV",1736944082924,"positive",547,"A","negative;positive","","A",6.30444880242198,37
"558","5f0d0bb334aaaf7151fee628","grin","calibrator_val_no_feedback","Valence","CV",1736944084588,"positive",906,"A","negative;positive","","A",6.80903930604298,38
"559","5f0d0bb334aaaf7151fee628","kitten","calibrator_val_no_feedback","Valence","CV",1736944085876,"positive",535,"A","negative;positive","","A",6.28226674689601,39
"560","5f0d0bb334aaaf7151fee628","invader","calibrator_val_no_feedback","Valence","CV",1736944087341,"negative",709,"A","negative;positive","","A",6.56385552653213,40
"561","5ec6df52f52d1111598b1221","joke","calibrator_val_feedback","Valence","VC",1736948435095,"negative",930,"negative","positive","negative;positive","A",6.8351845861473,1
"562","5ec6df52f52d1111598b1221","invader","calibrator_val_feedback","Valence","VC",1736948439110,"positive",1233,"negative","positive","negative;positive","A",7.11720550316434,2
"563","5ec6df52f52d1111598b1221","icebox","calibrator_val_feedback","Valence","VC",1736948442994,"negative",1107,"negative","positive","negative;positive","A",7.00940893270864,3
"564","5ec6df52f52d1111598b1221","hat","calibrator_val_feedback","Valence","VC",1736948446728,"negative",961,"negative","positive","negative;positive","A",6.86797440897029,4
"565","5ec6df52f52d1111598b1221","insecure","calibrator_val_feedback","Valence","VC",1736948450395,"positive",895,"negative","positive","negative;positive","A",6.79682371827486,5
"566","5ec6df52f52d1111598b1221","free","calibrator_val_feedback","Valence","VC",1736948454212,"negative",1049,"negative","positive","negative;positive","A",6.9555926083963,6
"567","5ec6df52f52d1111598b1221","jail","calibrator_val_feedback","Valence","VC",1736948457995,"positive",1010,"negative","positive","negative;positive","A",6.9177056098353,7
"568","5ec6df52f52d1111598b1221","kitten","calibrator_val_feedback","Valence","VC",1736948461646,"negative",884,"negative","positive","negative;positive","A",6.78445706263764,8
"569","5ec6df52f52d1111598b1221","industry","calibrator_val_feedback","Valence","VC",1736948465496,"negative",1081,"negative","positive","negative;positive","A",6.98564181763921,9
"570","5ec6df52f52d1111598b1221","grin","calibrator_val_feedback","Valence","VC",1736948469097,"negative",835,"negative","positive","negative;positive","A",6.72743172485086,10
"571","5ec6df52f52d1111598b1221","hat","calibrator_val_no_feedback","Valence","VC",1736948472582,"negative",713,"A","negative;positive","","A",6.5694814204143,11
"572","5ec6df52f52d1111598b1221","invader","calibrator_val_no_feedback","Valence","VC",1736948474358,"positive",1013,"A","negative;positive","","A",6.92067150424868,12
"573","5ec6df52f52d1111598b1221","jail","calibrator_val_no_feedback","Valence","VC",1736948475882,"positive",761,"A","negative;positive","","A",6.63463335786169,13
"574","5ec6df52f52d1111598b1221","insecure","calibrator_val_no_feedback","Valence","VC",1736948477394,"positive",747,"A","negative;positive","","A",6.61606518513282,14
"575","5ec6df52f52d1111598b1221","industry","calibrator_val_no_feedback","Valence","VC",1736948478986,"negative",833,"A","negative;positive","","A",6.72503364216684,15
"576","5ec6df52f52d1111598b1221","kitten","calibrator_val_no_feedback","Valence","VC",1736948480364,"negative",618,"A","negative;positive","","A",6.42648845745769,16
"577","5ec6df52f52d1111598b1221","icebox","calibrator_val_no_feedback","Valence","VC",1736948481941,"negative",814,"A","negative;positive","","A",6.70196036600254,17
