"","ID.true","Word","Label","ConcValCombo","Task","BlockOrder","Group","Response","Accuracy","EventTime","Value","RT","ReactionTime","Key_value_F","Key_value_J","Comments","LogReactionTime","LogRT","TrialNumber"
"1","5a51ba7676d1c60001aaa660","resentment","test_val","abstract-negative","Valence","VC","A","positive",0,1737994385330,"positive",1432,939,"negative","A","",6.84481547920826,7.26682734752059,1
"2","5a51ba7676d1c60001aaa660","chocolate","test_val","concrete-positive","Valence","VC","A","positive",1,1737994386929,"positive",1398.66666666667,839,"negative","A","",6.73221070646721,7.24327468084808,2
"3","5a51ba7676d1c60001aaa660","sunshine","test_val","concrete-positive","Valence","VC","A","positive",1,1737994388238,"positive",1475.16666666667,551,"negative","A","",6.31173480915291,7.29652625674082,3
"4","5a51ba7676d1c60001aaa660","grief","test_val","abstract-negative","Valence","VC","A","negative",1,1737994389506,"negative",1358.66666666667,512,"negative","A","",6.23832462503951,7.21425910567451,4
"5","5a51ba7676d1c60001aaa660","garbage","test_val","concrete-negative","Valence","VC","A","negative",1,1737994390766,"negative",1375.91666666667,499,"negative","A","",6.21260609575152,7.22687545464383,5
"6","5a51ba7676d1c60001aaa660","failure","test_val","abstract-negative","Valence","VC","A","negative",1,1737994392077,"negative",1329.33333333333,550,"negative","A","",6.30991827822652,7.19243284241362,6
"7","5a51ba7676d1c60001aaa660","gratitude","test_val","abstract-positive","Valence","VC","A","positive",1,1737994393463,"positive",1446.33333333333,630,"negative","A","",6.44571981938558,7.27678689713024,7
"8","5a51ba7676d1c60001aaa660","hug","test_val","concrete-positive","Valence","VC","A","positive",1,1737994394825,"positive",1346.83333333333,604,"negative","A","",6.40357419793482,7.20551143700539,8
"9","5a51ba7676d1c60001aaa660","lonliness","test_val","abstract-negative","Valence","VC","A","negative",1,1737994396335,"negative",1490.83333333333,749,"negative","A","",6.61873898351722,7.30709052671476,9
"10","5a51ba7676d1c60001aaa660","fireplace","test_val","concrete-positive","Valence","VC","A","positive",1,1737994397869,"positive",1396.58333333333,774,"negative","A","",6.65157187358973,7.24178405659687,10
"11","5a51ba7676d1c60001aaa660","envy","test_val","abstract-negative","Valence","VC","A","negative",1,1737994399246,"negative",1380,622,"negative","A","",6.43294009273918,7.22983877815125,11
"12","5a51ba7676d1c60001aaa660","love","test_val","abstract-positive","Valence","VC","A","positive",1,1737994400474,"positive",1345.83333333333,470,"negative","A","",6.1527326947041,7.2047686788628,12
"13","5a51ba7676d1c60001aaa660","rust","test_val","concrete-negative","Valence","VC","A","negative",1,1737994402159,"negative",1500,927,"negative","A","",6.83195356556585,7.3132203870903,13
"14","5a51ba7676d1c60001aaa660","smoke","test_val","concrete-negative","Valence","VC","A","negative",1,1737994403547,"negative",1471.33333333333,631,"negative","A","",6.44730586254121,7.29392429814857,14
"15","5a51ba7676d1c60001aaa660","vomit","test_val","concrete-negative","Valence","VC","A","negative",1,1737994404876,"negative",1385.83333333333,569,"negative","A","",6.34388043412633,7.23405692239897,15
"16","5a51ba7676d1c60001aaa660","mold","test_val","concrete-negative","Valence","VC","A","negative",1,1737994406343,"negative",1458.41666666667,706,"negative","A","",6.55961523749324,7.28510665134816,16
"17","5a51ba7676d1c60001aaa660","freedom","test_val","abstract-positive","Valence","VC","A","positive",1,1737994407603,"positive",1359.5,503,"negative","A","",6.22059017009974,7.21487226407253,17
"18","5a51ba7676d1c60001aaa660","filth","test_val","concrete-negative","Valence","VC","A","negative",1,1737994408985,"negative",1492.83333333333,622,"negative","A","",6.43294009273918,7.30843115924714,18
"19","5a51ba7676d1c60001aaa660","rot","test_val","concrete-negative","Valence","VC","A","negative",1,1737994410338,"negative",1588.16666666667,594,"negative","A","",6.38687931936265,7.37033559012013,19
"20","5a51ba7676d1c60001aaa660","kindness","test_val","abstract-positive","Valence","VC","A","positive",1,1737994411715,"positive",1378.33333333333,616,"negative","A","",6.42324696353352,7.22863031878968,20
"21","5a51ba7676d1c60001aaa660","rain","test_val","concrete-positive","Valence","VC","A","positive",1,1737994413055,"positive",1498.5,582,"negative","A","",6.36647044773144,7.31221988675672,21
"22","5a51ba7676d1c60001aaa660","laughter","test_val","concrete-positive","Valence","VC","A","positive",1,1737994414471,"positive",1649.33333333333,655,"negative","A","",6.48463523563525,7.40812644484427,22
"23","5a51ba7676d1c60001aaa660","home","test_val","concrete-positive","Valence","VC","A","positive",1,1737994415893,"positive",1370.66666666667,666,"negative","A","",6.50128967054039,7.22305251846689,23
"24","5a51ba7676d1c60001aaa660","peace","test_val","abstract-positive","Valence","VC","A","positive",1,1737994417453,"positive",1403.5,799,"negative","A","",6.68336094576627,7.24672439580194,24
"25","5a51ba7676d1c60001aaa660","flowers","test_val","concrete-positive","Valence","VC","A","positive",1,1737994418751,"positive",1319.16666666667,534,"negative","A","",6.2803958389602,7.18475550308706,25
"26","5a51ba7676d1c60001aaa660","mud","test_val","concrete-negative","Valence","VC","A","negative",1,1737994420185,"negative",1411.83333333333,671,"negative","A","",6.50876913697168,7.2526443752035,26
"27","5a51ba7676d1c60001aaa660","guilt","test_val","abstract-negative","Valence","VC","A","negative",1,1737994421481,"negative",1385.83333333333,538,"negative","A","",6.28785856016178,7.23405692239897,27
"28","5a51ba7676d1c60001aaa660","injury","test_val","concrete-negative","Valence","VC","A","negative",1,1737994422886,"negative",1456.33333333333,647,"negative","A","",6.4723462945009,7.28367714028333,28
"29","5a51ba7676d1c60001aaa660","regret","test_val","abstract-negative","Valence","VC","A","negative",1,1737994424278,"negative",1390.16666666667,630,"negative","A","",6.44571981938558,7.23717892301356,29
"30","5a51ba7676d1c60001aaa660","beach","test_val","concrete-positive","Valence","VC","A","positive",1,1737994425664,"positive",1336.33333333333,626,"negative","A","",6.4393503711001,7.1976848239744,30
"31","5a51ba7676d1c60001aaa660","stench","test_val","concrete-negative","Valence","VC","A","negative",1,1737994427170,"negative",1453.5,749,"negative","A","",6.61873898351722,7.28172971999893,31
"32","5a51ba7676d1c60001aaa660","shame","test_val","abstract-negative","Valence","VC","A","negative",1,1737994428521,"negative",1386.5,590,"negative","A","",6.38012253689976,7.23453786505583,32
"33","5a51ba7676d1c60001aaa660","compassion","test_val","abstract-positive","Valence","VC","A","positive",1,1737994429930,"positive",1513.16666666667,652,"negative","A","",6.48004456192665,7.3219598641437,33
"34","5a51ba7676d1c60001aaa660","despair","test_val","abstract-negative","Valence","VC","A","negative",1,1737994431423,"negative",1437.5,736,"negative","A","",6.60123011872888,7.27066077267151,34
"35","5a51ba7676d1c60001aaa660","hope","test_val","abstract-positive","Valence","VC","A","positive",1,1737994432779,"positive",1405.16666666667,594,"negative","A","",6.38687931936265,7.24791119869462,35
"36","5a51ba7676d1c60001aaa660","joy","test_val","abstract-positive","Valence","VC","A","positive",1,1737994434166,"positive",1495.33333333333,628,"negative","A","",6.4425401664682,7.31010442641204,36
"37","5a51ba7676d1c60001aaa660","inspiration","test_val","abstract-positive","Valence","VC","A","negative",0,1737994435494,"negative",1421.33333333333,569,"negative","A","",6.34388043412633,7.25935067717757,37
"38","5a51ba7676d1c60001aaa660","happiness","test_val","abstract-positive","Valence","VC","A","positive",1,1737994436948,"positive",1353.5,696,"negative","A","",6.54534966033442,7.21044910905436,38
"39","5a51ba7676d1c60001aaa660","anxiety","test_val","abstract-negative","Valence","VC","A","negative",1,1737994438410,"negative",1439.16666666667,704,"negative","A","",6.55677835615804,7.27181952135272,39
"40","5a51ba7676d1c60001aaa660","music","test_val","concrete-positive","Valence","VC","A","positive",1,1737994439744,"positive",1627.66666666667,580,"negative","A","",6.36302810354046,7.39490277539355,40
"41","5a51ba7676d1c60001aaa660","envy","test_val","abstract-negative","Valence","VC","A","negative",1,1737994441292,"negative",1380,788,"negative","A","",6.66949808985788,7.22983877815125,41
"42","5a51ba7676d1c60001aaa660","chocolate","test_val","concrete-positive","Valence","VC","A","positive",1,1737994442627,"positive",1398.66666666667,576,"negative","A","",6.35610766069589,7.24327468084808,42
"43","5a51ba7676d1c60001aaa660","injury","test_val","concrete-negative","Valence","VC","A","negative",1,1737994443978,"negative",1456.33333333333,597,"negative","A","",6.3919171133926,7.28367714028333,43
"44","5a51ba7676d1c60001aaa660","freedom","test_val","abstract-positive","Valence","VC","A","positive",1,1737994445398,"positive",1359.5,663,"negative","A","",6.49677499018586,7.21487226407253,44
"45","5a51ba7676d1c60001aaa660","beach","test_val","concrete-positive","Valence","VC","A","positive",1,1737994446748,"positive",1336.33333333333,592,"negative","A","",6.38350663488401,7.1976848239744,45
"46","5a51ba7676d1c60001aaa660","gratitude","test_val","abstract-positive","Valence","VC","A","positive",1,1737994448123,"positive",1446.33333333333,617,"negative","A","",6.42486902390539,7.27678689713024,46
"47","5a51ba7676d1c60001aaa660","kindness","test_val","abstract-positive","Valence","VC","A","positive",1,1737994449408,"positive",1378.33333333333,530,"negative","A","",6.27287700654617,7.22863031878968,47
"48","5a51ba7676d1c60001aaa660","despair","test_val","abstract-negative","Valence","VC","A","negative",1,1737994450861,"negative",1437.5,692,"negative","A","",6.53958595561767,7.27066077267151,48
"49","5a51ba7676d1c60001aaa660","resentment","test_val","abstract-negative","Valence","VC","A","negative",1,1737994452127,"negative",1432,509,"negative","A","",6.23244801655052,7.26682734752059,49
"50","5a51ba7676d1c60001aaa660","shame","test_val","abstract-negative","Valence","VC","A","negative",1,1737994453441,"negative",1386.5,554,"negative","A","",6.31716468674728,7.23453786505583,50
"51","5a51ba7676d1c60001aaa660","happiness","test_val","abstract-positive","Valence","VC","A","positive",1,1737994454782,"positive",1353.5,584,"negative","A","",6.36990098282823,7.21044910905436,51
"52","5a51ba7676d1c60001aaa660","hope","test_val","abstract-positive","Valence","VC","A","positive",1,1737994456172,"positive",1405.16666666667,632,"negative","A","",6.44888939414686,7.24791119869462,52
"53","5a51ba7676d1c60001aaa660","regret","test_val","abstract-negative","Valence","VC","A","negative",1,1737994457574,"negative",1390.16666666667,645,"negative","A","",6.46925031679577,7.23717892301356,53
"54","5a51ba7676d1c60001aaa660","stench","test_val","concrete-negative","Valence","VC","A","negative",1,1737994458952,"negative",1453.5,622,"negative","A","",6.43294009273918,7.28172971999893,54
"55","5a51ba7676d1c60001aaa660","rot","test_val","concrete-negative","Valence","VC","A","negative",1,1737994460284,"negative",1588.16666666667,576,"negative","A","",6.35610766069589,7.37033559012013,55
"56","5a51ba7676d1c60001aaa660","guilt","test_val","abstract-negative","Valence","VC","A","negative",1,1737994461615,"negative",1385.83333333333,572,"negative","A","",6.3491389913798,7.23405692239897,56
"57","5a51ba7676d1c60001aaa660","rust","test_val","concrete-negative","Valence","VC","A","negative",1,1737994462939,"negative",1500,567,"negative","A","",6.34035930372775,7.3132203870903,57
"58","5a51ba7676d1c60001aaa660","music","test_val","concrete-positive","Valence","VC","A","positive",1,1737994464579,"positive",1627.66666666667,884,"negative","A","",6.78445706263764,7.39490277539355,58
"59","5a51ba7676d1c60001aaa660","peace","test_val","abstract-positive","Valence","VC","A","positive",1,1737994466040,"positive",1403.5,690,"negative","A","",6.5366915975913,7.24672439580194,59
"60","5a51ba7676d1c60001aaa660","failure","test_val","abstract-negative","Valence","VC","A","positive",0,1737994467329,"positive",1329.33333333333,530,"negative","A","",6.27287700654617,7.19243284241362,60
"61","5a51ba7676d1c60001aaa660","grief","test_val","abstract-negative","Valence","VC","A","negative",1,1737994468762,"negative",1358.66666666667,672,"negative","A","",6.51025834052315,7.21425910567451,61
"62","5a51ba7676d1c60001aaa660","rain","test_val","concrete-positive","Valence","VC","A","positive",1,1737994470262,"positive",1498.5,738,"negative","A","",6.60394382460047,7.31221988675672,62
"63","5a51ba7676d1c60001aaa660","lonliness","test_val","abstract-negative","Valence","VC","A","negative",1,1737994471873,"negative",1490.83333333333,849,"negative","A","",6.74405918631135,7.30709052671476,63
"64","5a51ba7676d1c60001aaa660","flowers","test_val","concrete-positive","Valence","VC","A","positive",1,1737994473158,"positive",1319.16666666667,523,"negative","A","",6.25958146406492,7.18475550308706,64
"65","5a51ba7676d1c60001aaa660","compassion","test_val","abstract-positive","Valence","VC","A","positive",1,1737994474484,"positive",1513.16666666667,566,"negative","A","",6.33859407820318,7.3219598641437,65
"66","5a51ba7676d1c60001aaa660","love","test_val","abstract-positive","Valence","VC","A","positive",1,1737994475685,"positive",1345.83333333333,443,"negative","A","",6.09356977004514,7.2047686788628,66
"67","5a51ba7676d1c60001aaa660","home","test_val","concrete-positive","Valence","VC","A","positive",1,1737994476858,"positive",1370.66666666667,413,"negative","A","",6.02344759296103,7.22305251846689,67
"68","5a51ba7676d1c60001aaa660","inspiration","test_val","abstract-positive","Valence","VC","A","positive",1,1737994478245,"positive",1421.33333333333,627,"negative","A","",6.44094654063292,7.25935067717757,68
"69","5a51ba7676d1c60001aaa660","vomit","test_val","concrete-negative","Valence","VC","A","negative",1,1737994479590,"negative",1385.83333333333,584,"negative","A","",6.36990098282823,7.23405692239897,69
"70","5a51ba7676d1c60001aaa660","anxiety","test_val","abstract-negative","Valence","VC","A","negative",1,1737994480826,"negative",1439.16666666667,477,"negative","A","",6.16751649088834,7.27181952135272,70
"71","5a51ba7676d1c60001aaa660","fireplace","test_val","concrete-positive","Valence","VC","A","positive",1,1737994482123,"positive",1396.58333333333,537,"negative","A","",6.28599809450886,7.24178405659687,71
"72","5a51ba7676d1c60001aaa660","laughter","test_val","concrete-positive","Valence","VC","A","positive",1,1737994483428,"positive",1649.33333333333,545,"negative","A","",6.30078579466324,7.40812644484427,72
"73","5a51ba7676d1c60001aaa660","mud","test_val","concrete-negative","Valence","VC","A","negative",1,1737994484713,"negative",1411.83333333333,525,"negative","A","",6.26339826259162,7.2526443752035,73
"74","5a51ba7676d1c60001aaa660","mold","test_val","concrete-negative","Valence","VC","A","negative",1,1737994486086,"negative",1458.41666666667,619,"negative","A","",6.4281052726846,7.28510665134816,74
"75","5a51ba7676d1c60001aaa660","garbage","test_val","concrete-negative","Valence","VC","A","negative",1,1737994487474,"negative",1375.91666666667,628,"negative","A","",6.4425401664682,7.22687545464383,75
"76","5a51ba7676d1c60001aaa660","smoke","test_val","concrete-negative","Valence","VC","A","negative",1,1737994488763,"negative",1471.33333333333,532,"negative","A","",6.27664348934164,7.29392429814857,76
"77","5a51ba7676d1c60001aaa660","joy","test_val","abstract-positive","Valence","VC","A","positive",1,1737994490123,"positive",1495.33333333333,604,"negative","A","",6.40357419793482,7.31010442641204,77
"78","5a51ba7676d1c60001aaa660","filth","test_val","concrete-negative","Valence","VC","A","negative",1,1737994491469,"negative",1492.83333333333,590,"negative","A","",6.38012253689976,7.30843115924714,78
"79","5a51ba7676d1c60001aaa660","sunshine","test_val","concrete-positive","Valence","VC","A","positive",1,1737994492740,"positive",1475.16666666667,509,"negative","A","",6.23244801655052,7.29652625674082,79
"80","5a51ba7676d1c60001aaa660","hug","test_val","concrete-positive","Valence","VC","A","positive",1,1737994494020,"positive",1346.83333333333,520,"negative","A","",6.25382881157547,7.20551143700539,80
"81","5a51ba7676d1c60001aaa660","resentment","test_val","abstract-negative","Valence","VC","A","negative",1,1737994495368,"negative",1432,591,"negative","A","",6.3818160174061,7.26682734752059,81
"82","5a51ba7676d1c60001aaa660","rot","test_val","concrete-negative","Valence","VC","A","negative",1,1737994496731,"negative",1588.16666666667,605,"negative","A","",6.40522845803084,7.37033559012013,82
"83","5a51ba7676d1c60001aaa660","flowers","test_val","concrete-positive","Valence","VC","A","positive",1,1737994498016,"positive",1319.16666666667,526,"negative","A","",6.26530121273771,7.18475550308706,83
"84","5a51ba7676d1c60001aaa660","happiness","test_val","abstract-positive","Valence","VC","A","positive",1,1737994499238,"positive",1353.5,465,"negative","A","",6.14203740558736,7.21044910905436,84
"85","5a51ba7676d1c60001aaa660","despair","test_val","abstract-negative","Valence","VC","A","negative",1,1737994500535,"negative",1437.5,535,"negative","A","",6.28226674689601,7.27066077267151,85
"86","5a51ba7676d1c60001aaa660","grief","test_val","abstract-negative","Valence","VC","A","negative",1,1737994501754,"negative",1358.66666666667,463,"negative","A","",6.13772705408623,7.21425910567451,86
"87","5a51ba7676d1c60001aaa660","vomit","test_val","concrete-negative","Valence","VC","A","negative",1,1737994503072,"negative",1385.83333333333,557,"negative","A","",6.32256523992728,7.23405692239897,87
"88","5a51ba7676d1c60001aaa660","freedom","test_val","abstract-positive","Valence","VC","A","positive",1,1737994504284,"positive",1359.5,452,"negative","A","",6.11368217983223,7.21487226407253,88
"89","5a51ba7676d1c60001aaa660","compassion","test_val","abstract-positive","Valence","VC","A","positive",1,1737994505521,"positive",1513.16666666667,478,"negative","A","",6.16961073249146,7.3219598641437,89
"90","5a51ba7676d1c60001aaa660","hope","test_val","abstract-positive","Valence","VC","A","positive",1,1737994506742,"positive",1405.16666666667,463,"negative","A","",6.13772705408623,7.24791119869462,90
"91","5a51ba7676d1c60001aaa660","hug","test_val","concrete-positive","Valence","VC","A","positive",1,1737994507967,"positive",1346.83333333333,468,"negative","A","",6.14846829591765,7.20551143700539,91
"92","5a51ba7676d1c60001aaa660","injury","test_val","concrete-negative","Valence","VC","A","negative",1,1737994509218,"negative",1456.33333333333,494,"negative","A","",6.20253551718792,7.28367714028333,92
"93","5a51ba7676d1c60001aaa660","sunshine","test_val","concrete-positive","Valence","VC","A","positive",1,1737994510518,"positive",1475.16666666667,544,"negative","A","",6.29894924685594,7.29652625674082,93
"94","5a51ba7676d1c60001aaa660","beach","test_val","concrete-positive","Valence","VC","A","positive",1,1737994511761,"positive",1336.33333333333,486,"negative","A","",6.18620862390049,7.1976848239744,94
"95","5a51ba7676d1c60001aaa660","inspiration","test_val","abstract-positive","Valence","VC","A","positive",1,1737994513305,"positive",1421.33333333333,786,"negative","A","",6.66695679242921,7.25935067717757,95
"96","5a51ba7676d1c60001aaa660","stench","test_val","concrete-negative","Valence","VC","A","negative",1,1737994514682,"negative",1453.5,620,"negative","A","",6.42971947803914,7.28172971999893,96
"97","5a51ba7676d1c60001aaa660","fireplace","test_val","concrete-positive","Valence","VC","A","positive",1,1737994516130,"positive",1396.58333333333,687,"negative","A","",6.53233429222235,7.24178405659687,97
"98","5a51ba7676d1c60001aaa660","mold","test_val","concrete-negative","Valence","VC","A","negative",1,1737994517461,"negative",1458.41666666667,573,"negative","A","",6.35088571671474,7.28510665134816,98
"99","5a51ba7676d1c60001aaa660","regret","test_val","abstract-negative","Valence","VC","A","negative",1,1737994518725,"negative",1390.16666666667,502,"negative","A","",6.21860011969173,7.23717892301356,99
"100","5a51ba7676d1c60001aaa660","filth","test_val","concrete-negative","Valence","VC","A","negative",1,1737994520051,"negative",1492.83333333333,568,"negative","A","",6.34212141872115,7.30843115924714,100
"101","5a51ba7676d1c60001aaa660","kindness","test_val","abstract-positive","Valence","VC","A","positive",1,1737994521269,"positive",1378.33333333333,457,"negative","A","",6.12468339089421,7.22863031878968,101
"102","5a51ba7676d1c60001aaa660","lonliness","test_val","abstract-negative","Valence","VC","A","negative",1,1737994522650,"negative",1490.83333333333,621,"negative","A","",6.43133108193348,7.30709052671476,102
"103","5a51ba7676d1c60001aaa660","anxiety","test_val","abstract-negative","Valence","VC","A","negative",1,1737994524011,"negative",1439.16666666667,604,"negative","A","",6.40357419793482,7.27181952135272,103
"104","5a51ba7676d1c60001aaa660","shame","test_val","abstract-negative","Valence","VC","A","negative",1,1737994525590,"negative",1386.5,819,"negative","A","",6.70808408385307,7.23453786505583,104
"105","5a51ba7676d1c60001aaa660","laughter","test_val","concrete-positive","Valence","VC","A","positive",1,1737994526875,"positive",1649.33333333333,525,"negative","A","",6.26339826259162,7.40812644484427,105
"106","5a51ba7676d1c60001aaa660","rain","test_val","concrete-positive","Valence","VC","A","negative",0,1737994528287,"negative",1498.5,658,"negative","A","",6.48920493132532,7.31221988675672,106
"107","5a51ba7676d1c60001aaa660","chocolate","test_val","concrete-positive","Valence","VC","A","positive",1,1737994529649,"positive",1398.66666666667,601,"negative","A","",6.39859493453521,7.24327468084808,107
"108","5a51ba7676d1c60001aaa660","garbage","test_val","concrete-negative","Valence","VC","A","negative",1,1737994531050,"negative",1375.91666666667,643,"negative","A","",6.46614472423762,7.22687545464383,108
"109","5a51ba7676d1c60001aaa660","love","test_val","abstract-positive","Valence","VC","A","positive",1,1737994532597,"positive",1345.83333333333,788,"negative","A","",6.66949808985788,7.2047686788628,109
"110","5a51ba7676d1c60001aaa660","peace","test_val","abstract-positive","Valence","VC","A","positive",1,1737994533912,"positive",1403.5,558,"negative","A","",6.32435896238131,7.24672439580194,110
"111","5a51ba7676d1c60001aaa660","guilt","test_val","abstract-negative","Valence","VC","A","negative",1,1737994535387,"negative",1385.83333333333,719,"negative","A","",6.57786135772105,7.23405692239897,111
"112","5a51ba7676d1c60001aaa660","rust","test_val","concrete-negative","Valence","VC","A","negative",1,1737994536651,"negative",1500,506,"negative","A","",6.22653666928747,7.3132203870903,112
"113","5a51ba7676d1c60001aaa660","home","test_val","concrete-positive","Valence","VC","A","positive",1,1737994537919,"positive",1370.66666666667,513,"negative","A","",6.24027584517077,7.22305251846689,113
"114","5a51ba7676d1c60001aaa660","smoke","test_val","concrete-negative","Valence","VC","A","negative",1,1737994539283,"negative",1471.33333333333,606,"negative","A","",6.40687998606931,7.29392429814857,114
"115","5a51ba7676d1c60001aaa660","failure","test_val","abstract-negative","Valence","VC","A","negative",1,1737994540619,"negative",1329.33333333333,576,"negative","A","",6.35610766069589,7.19243284241362,115
"116","5a51ba7676d1c60001aaa660","music","test_val","concrete-positive","Valence","VC","A","positive",1,1737994542007,"positive",1627.66666666667,626,"negative","A","",6.4393503711001,7.39490277539355,116
"117","5a51ba7676d1c60001aaa660","joy","test_val","abstract-positive","Valence","VC","A","positive",1,1737994543439,"positive",1495.33333333333,677,"negative","A","",6.51767127291227,7.31010442641204,117
"118","5a51ba7676d1c60001aaa660","mud","test_val","concrete-negative","Valence","VC","A","negative",1,1737994544796,"negative",1411.83333333333,598,"negative","A","",6.39359075395063,7.2526443752035,118
"119","5a51ba7676d1c60001aaa660","gratitude","test_val","abstract-positive","Valence","VC","A","positive",1,1737994546139,"positive",1446.33333333333,585,"negative","A","",6.37161184723186,7.27678689713024,119
"120","5a51ba7676d1c60001aaa660","envy","test_val","abstract-negative","Valence","VC","A","negative",1,1737994547510,"negative",1380,611,"negative","A","",6.4150969591716,7.22983877815125,120
"121","5a51ba7676d1c60001aaa660","envy","test_conc","abstract-negative","Concrete","VC","A","concrete",0,1737994657813,"concrete",1380,570,"abstract","A","",6.3456363608286,7.22983877815125,121
"122","5a51ba7676d1c60001aaa660","peace","test_conc","abstract-positive","Concrete","VC","A","abstract",1,1737994659211,"abstract",1403.5,641,"abstract","A","",6.46302945692067,7.24672439580194,122
"123","5a51ba7676d1c60001aaa660","beach","test_conc","concrete-positive","Concrete","VC","A","concrete",1,1737994660606,"concrete",1336.33333333333,637,"abstract","A","",6.45676965557216,7.1976848239744,123
"124","5a51ba7676d1c60001aaa660","garbage","test_conc","concrete-negative","Concrete","VC","A","abstract",0,1737994662012,"abstract",1375.91666666667,650,"abstract","A","",6.47697236288968,7.22687545464383,124
"125","5a51ba7676d1c60001aaa660","joy","test_conc","abstract-positive","Concrete","VC","A","abstract",1,1737994663636,"abstract",1495.33333333333,865,"abstract","A","",6.76272950693188,7.31010442641204,125
"126","5a51ba7676d1c60001aaa660","stench","test_conc","concrete-negative","Concrete","VC","A","abstract",0,1737994665035,"abstract",1453.5,637,"abstract","A","",6.45676965557216,7.28172971999893,126
"127","5a51ba7676d1c60001aaa660","music","test_conc","concrete-positive","Concrete","VC","A","concrete",1,1737994667099,"concrete",1627.66666666667,1306,"abstract","A","",7.17472430983638,7.39490277539355,127
"128","5a51ba7676d1c60001aaa660","guilt","test_conc","abstract-negative","Concrete","VC","A","abstract",1,1737994668687,"abstract",1385.83333333333,829,"abstract","A","",6.7202201551353,7.23405692239897,128
"129","5a51ba7676d1c60001aaa660","filth","test_conc","concrete-negative","Concrete","VC","A","concrete",1,1737994670448,"concrete",1492.83333333333,999,"abstract","A","",6.90675477864855,7.30843115924714,129
"130","5a51ba7676d1c60001aaa660","hope","test_conc","abstract-positive","Concrete","VC","A","abstract",1,1737994672104,"abstract",1405.16666666667,899,"abstract","A","",6.80128303447162,7.24791119869462,130
"131","5a51ba7676d1c60001aaa660","lonliness","test_conc","abstract-negative","Concrete","VC","A","abstract",1,1737994673874,"abstract",1490.83333333333,1008,"abstract","A","",6.91572344863131,7.30709052671476,131
"132","5a51ba7676d1c60001aaa660","vomit","test_conc","concrete-negative","Concrete","VC","A","concrete",1,1737994675519,"concrete",1385.83333333333,888,"abstract","A","",6.78897174299217,7.23405692239897,132
"133","5a51ba7676d1c60001aaa660","fireplace","test_conc","concrete-positive","Concrete","VC","A","concrete",1,1737994676845,"concrete",1396.58333333333,567,"abstract","A","",6.34035930372775,7.24178405659687,133
"134","5a51ba7676d1c60001aaa660","happiness","test_conc","abstract-positive","Concrete","VC","A","concrete",0,1737994678166,"concrete",1353.5,565,"abstract","A","",6.33682573114644,7.21044910905436,134
"135","5a51ba7676d1c60001aaa660","grief","test_conc","abstract-negative","Concrete","VC","A","abstract",1,1737994679730,"abstract",1358.66666666667,807,"abstract","A","",6.69332366826995,7.21425910567451,135
"136","5a51ba7676d1c60001aaa660","freedom","test_conc","abstract-positive","Concrete","VC","A","abstract",1,1737994681115,"abstract",1359.5,625,"abstract","A","",6.4377516497364,7.21487226407253,136
"137","5a51ba7676d1c60001aaa660","shame","test_conc","abstract-negative","Concrete","VC","A","abstract",1,1737994682414,"abstract",1386.5,543,"abstract","A","",6.29710931993394,7.23453786505583,137
"138","5a51ba7676d1c60001aaa660","failure","test_conc","abstract-negative","Concrete","VC","A","abstract",1,1737994683666,"abstract",1329.33333333333,496,"abstract","A","",6.20657592672493,7.19243284241362,138
"139","5a51ba7676d1c60001aaa660","injury","test_conc","concrete-negative","Concrete","VC","A","abstract",0,1737994685384,"abstract",1456.33333333333,963,"abstract","A","",6.87005341179813,7.28367714028333,139
"140","5a51ba7676d1c60001aaa660","rust","test_conc","concrete-negative","Concrete","VC","A","abstract",0,1737994686857,"abstract",1500,715,"abstract","A","",6.57228254269401,7.3132203870903,140
"141","5a51ba7676d1c60001aaa660","gratitude","test_conc","abstract-positive","Concrete","VC","A","abstract",1,1737994688483,"abstract",1446.33333333333,870,"abstract","A","",6.76849321164863,7.27678689713024,141
"142","5a51ba7676d1c60001aaa660","hug","test_conc","concrete-positive","Concrete","VC","A","concrete",1,1737994689908,"concrete",1346.83333333333,669,"abstract","A","",6.50578406012823,7.20551143700539,142
"143","5a51ba7676d1c60001aaa660","kindness","test_conc","abstract-positive","Concrete","VC","A","abstract",1,1737994691562,"abstract",1378.33333333333,897,"abstract","A","",6.7990558620588,7.22863031878968,143
"144","5a51ba7676d1c60001aaa660","chocolate","test_conc","concrete-positive","Concrete","VC","A","concrete",1,1737994692907,"concrete",1398.66666666667,588,"abstract","A","",6.37672694789863,7.24327468084808,144
"145","5a51ba7676d1c60001aaa660","compassion","test_conc","abstract-positive","Concrete","VC","A","abstract",1,1737994694315,"abstract",1513.16666666667,648,"abstract","A","",6.47389069635227,7.3219598641437,145
"146","5a51ba7676d1c60001aaa660","rain","test_conc","concrete-positive","Concrete","VC","A","concrete",1,1737994695797,"concrete",1498.5,724,"abstract","A","",6.58479139238572,7.31221988675672,146
"147","5a51ba7676d1c60001aaa660","flowers","test_conc","concrete-positive","Concrete","VC","A","concrete",1,1737994697204,"concrete",1319.16666666667,647,"abstract","A","",6.4723462945009,7.18475550308706,147
"148","5a51ba7676d1c60001aaa660","anxiety","test_conc","abstract-negative","Concrete","VC","A","abstract",1,1737994698711,"abstract",1439.16666666667,751,"abstract","A","",6.62140565176413,7.27181952135272,148
"149","5a51ba7676d1c60001aaa660","rot","test_conc","concrete-negative","Concrete","VC","A","abstract",0,1737994700911,"abstract",1588.16666666667,1444,"abstract","A","",7.27517231945277,7.37033559012013,149
"150","5a51ba7676d1c60001aaa660","resentment","test_conc","abstract-negative","Concrete","VC","A","abstract",1,1737994702450,"abstract",1432,782,"abstract","A","",6.66185474054531,7.26682734752059,150
"151","5a51ba7676d1c60001aaa660","despair","test_conc","abstract-negative","Concrete","VC","A","abstract",1,1737994704124,"abstract",1437.5,914,"abstract","A","",6.81783057145415,7.27066077267151,151
"152","5a51ba7676d1c60001aaa660","laughter","test_conc","concrete-positive","Concrete","VC","A","concrete",1,1737994707184,"concrete",1649.33333333333,2298,"abstract","A","",7.7397944584087,7.40812644484427,152
"153","5a51ba7676d1c60001aaa660","sunshine","test_conc","concrete-positive","Concrete","VC","A","concrete",1,1737994709415,"concrete",1475.16666666667,1475,"abstract","A","",7.29641326877392,7.29652625674082,153
"154","5a51ba7676d1c60001aaa660","inspiration","test_conc","abstract-positive","Concrete","VC","A","abstract",1,1737994710935,"abstract",1421.33333333333,761,"abstract","A","",6.63463335786169,7.25935067717757,154
"155","5a51ba7676d1c60001aaa660","regret","test_conc","abstract-negative","Concrete","VC","A","abstract",1,1737994712454,"abstract",1390.16666666667,761,"abstract","A","",6.63463335786169,7.23717892301356,155
"156","5a51ba7676d1c60001aaa660","smoke","test_conc","concrete-negative","Concrete","VC","A","concrete",1,1737994714376,"concrete",1471.33333333333,1165,"abstract","A","",7.0604763659998,7.29392429814857,156
"157","5a51ba7676d1c60001aaa660","love","test_conc","abstract-positive","Concrete","VC","A","abstract",1,1737994715914,"abstract",1345.83333333333,782,"abstract","A","",6.66185474054531,7.2047686788628,157
"158","5a51ba7676d1c60001aaa660","mold","test_conc","concrete-negative","Concrete","VC","A","concrete",1,1737994717718,"concrete",1458.41666666667,1046,"abstract","A","",6.95272864462487,7.28510665134816,158
"159","5a51ba7676d1c60001aaa660","mud","test_conc","concrete-negative","Concrete","VC","A","concrete",1,1737994719317,"concrete",1411.83333333333,843,"abstract","A","",6.73696695800186,7.2526443752035,159
"160","5a51ba7676d1c60001aaa660","home","test_conc","concrete-positive","Concrete","VC","A","concrete",1,1737994720766,"concrete",1370.66666666667,691,"abstract","A","",6.53813982376767,7.22305251846689,160
"161","5a51ba7676d1c60001aaa660","rot","test_conc","concrete-negative","Concrete","VC","A","abstract",0,1737994722238,"abstract",1588.16666666667,710,"abstract","A","",6.56526497003536,7.37033559012013,161
"162","5a51ba7676d1c60001aaa660","rust","test_conc","concrete-negative","Concrete","VC","A","concrete",1,1737994723941,"concrete",1500,946,"abstract","A","",6.85224256905188,7.3132203870903,162
"163","5a51ba7676d1c60001aaa660","rain","test_conc","concrete-positive","Concrete","VC","A","concrete",1,1737994725683,"concrete",1498.5,986,"abstract","A","",6.89365635460264,7.31221988675672,163
"164","5a51ba7676d1c60001aaa660","failure","test_conc","abstract-negative","Concrete","VC","A","abstract",1,1737994727109,"abstract",1329.33333333333,670,"abstract","A","",6.50727771238501,7.19243284241362,164
"165","5a51ba7676d1c60001aaa660","kindness","test_conc","abstract-positive","Concrete","VC","A","abstract",1,1737994728534,"abstract",1378.33333333333,663,"abstract","A","",6.49677499018586,7.22863031878968,165
"166","5a51ba7676d1c60001aaa660","regret","test_conc","abstract-negative","Concrete","VC","A","abstract",1,1737994729968,"abstract",1390.16666666667,675,"abstract","A","",6.51471269087253,7.23717892301356,166
"167","5a51ba7676d1c60001aaa660","mud","test_conc","concrete-negative","Concrete","VC","A","concrete",1,1737994731344,"concrete",1411.83333333333,621,"abstract","A","",6.43133108193348,7.2526443752035,167
"168","5a51ba7676d1c60001aaa660","happiness","test_conc","abstract-positive","Concrete","VC","A","abstract",1,1737994732770,"abstract",1353.5,671,"abstract","A","",6.50876913697168,7.21044910905436,168
"169","5a51ba7676d1c60001aaa660","fireplace","test_conc","concrete-positive","Concrete","VC","A","concrete",1,1737994734142,"concrete",1396.58333333333,617,"abstract","A","",6.42486902390539,7.24178405659687,169
"170","5a51ba7676d1c60001aaa660","gratitude","test_conc","abstract-positive","Concrete","VC","A","abstract",1,1737994735561,"abstract",1446.33333333333,659,"abstract","A","",6.49072353450251,7.27678689713024,170
"171","5a51ba7676d1c60001aaa660","injury","test_conc","concrete-negative","Concrete","VC","A","concrete",1,1737994737100,"concrete",1456.33333333333,778,"abstract","A","",6.65672652417839,7.28367714028333,171
"172","5a51ba7676d1c60001aaa660","peace","test_conc","abstract-positive","Concrete","VC","A","abstract",1,1737994738481,"abstract",1403.5,625,"abstract","A","",6.4377516497364,7.24672439580194,172
"173","5a51ba7676d1c60001aaa660","chocolate","test_conc","concrete-positive","Concrete","VC","A","concrete",1,1737994739821,"concrete",1398.66666666667,579,"abstract","A","",6.361302477573,7.24327468084808,173
"174","5a51ba7676d1c60001aaa660","filth","test_conc","concrete-negative","Concrete","VC","A","concrete",1,1737994741437,"concrete",1492.83333333333,857,"abstract","A","",6.75343791859778,7.30843115924714,174
"175","5a51ba7676d1c60001aaa660","shame","test_conc","abstract-negative","Concrete","VC","A","abstract",1,1737994742850,"abstract",1386.5,656,"abstract","A","",6.48616078894409,7.23453786505583,175
"176","5a51ba7676d1c60001aaa660","music","test_conc","concrete-positive","Concrete","VC","A","abstract",0,1737994744644,"abstract",1627.66666666667,1036,"abstract","A","",6.94312242281943,7.39490277539355,176
"177","5a51ba7676d1c60001aaa660","freedom","test_conc","abstract-positive","Concrete","VC","A","abstract",1,1737994746180,"abstract",1359.5,779,"abstract","A","",6.65801104587075,7.21487226407253,177
"178","5a51ba7676d1c60001aaa660","compassion","test_conc","abstract-positive","Concrete","VC","A","abstract",1,1737994748464,"abstract",1513.16666666667,1528,"abstract","A","",7.33171496972647,7.3219598641437,178
"179","5a51ba7676d1c60001aaa660","mold","test_conc","concrete-negative","Concrete","VC","A","concrete",1,1737994749857,"concrete",1458.41666666667,635,"abstract","A","",6.45362499889269,7.28510665134816,179
"180","5a51ba7676d1c60001aaa660","despair","test_conc","abstract-negative","Concrete","VC","A","abstract",1,1737994751236,"abstract",1437.5,623,"abstract","A","",6.43454651878745,7.27066077267151,180
"181","5a51ba7676d1c60001aaa660","hug","test_conc","concrete-positive","Concrete","VC","A","concrete",1,1737994752545,"concrete",1346.83333333333,552,"abstract","A","",6.31354804627709,7.20551143700539,181
"182","5a51ba7676d1c60001aaa660","home","test_conc","concrete-positive","Concrete","VC","A","concrete",1,1737994753996,"concrete",1370.66666666667,695,"abstract","A","",6.54391184556479,7.22305251846689,182
"183","5a51ba7676d1c60001aaa660","vomit","test_conc","concrete-negative","Concrete","VC","A","concrete",1,1737994755389,"concrete",1385.83333333333,633,"abstract","A","",6.45047042214418,7.23405692239897,183
"184","5a51ba7676d1c60001aaa660","flowers","test_conc","concrete-positive","Concrete","VC","A","concrete",1,1737994756731,"concrete",1319.16666666667,583,"abstract","A","",6.36818718635049,7.18475550308706,184
"185","5a51ba7676d1c60001aaa660","resentment","test_conc","abstract-negative","Concrete","VC","A","abstract",1,1737994758048,"abstract",1432,559,"abstract","A","",6.3261494731551,7.26682734752059,185
"186","5a51ba7676d1c60001aaa660","anxiety","test_conc","abstract-negative","Concrete","VC","A","concrete",0,1737994759673,"concrete",1439.16666666667,870,"abstract","A","",6.76849321164863,7.27181952135272,186
"187","5a51ba7676d1c60001aaa660","sunshine","test_conc","concrete-positive","Concrete","VC","A","concrete",1,1737994760939,"concrete",1475.16666666667,504,"abstract","A","",6.22257626807137,7.29652625674082,187
"188","5a51ba7676d1c60001aaa660","inspiration","test_conc","abstract-positive","Concrete","VC","A","abstract",1,1737994762374,"abstract",1421.33333333333,674,"abstract","A","",6.51323011091231,7.25935067717757,188
"189","5a51ba7676d1c60001aaa660","smoke","test_conc","concrete-negative","Concrete","VC","A","concrete",1,1737994763829,"concrete",1471.33333333333,693,"abstract","A","",6.5410299991899,7.29392429814857,189
"190","5a51ba7676d1c60001aaa660","laughter","test_conc","concrete-positive","Concrete","VC","A","abstract",0,1737994765235,"abstract",1649.33333333333,649,"abstract","A","",6.47543271670409,7.40812644484427,190
"191","5a51ba7676d1c60001aaa660","hope","test_conc","abstract-positive","Concrete","VC","A","abstract",1,1737994766694,"abstract",1405.16666666667,703,"abstract","A","",6.55535689181067,7.24791119869462,191
"192","5a51ba7676d1c60001aaa660","garbage","test_conc","concrete-negative","Concrete","VC","A","concrete",1,1737994768121,"concrete",1375.91666666667,666,"abstract","A","",6.50128967054039,7.22687545464383,192
"193","5a51ba7676d1c60001aaa660","beach","test_conc","concrete-positive","Concrete","VC","A","concrete",1,1737994769440,"concrete",1336.33333333333,558,"abstract","A","",6.32435896238131,7.1976848239744,193
"194","5a51ba7676d1c60001aaa660","grief","test_conc","abstract-negative","Concrete","VC","A","abstract",1,1737994770798,"abstract",1358.66666666667,600,"abstract","A","",6.39692965521615,7.21425910567451,194
"195","5a51ba7676d1c60001aaa660","love","test_conc","abstract-positive","Concrete","VC","A","abstract",1,1737994772070,"abstract",1345.83333333333,514,"abstract","A","",6.24222326545517,7.2047686788628,195
"196","5a51ba7676d1c60001aaa660","guilt","test_conc","abstract-negative","Concrete","VC","A","abstract",1,1737994773355,"abstract",1385.83333333333,525,"abstract","A","",6.26339826259162,7.23405692239897,196
"197","5a51ba7676d1c60001aaa660","stench","test_conc","concrete-negative","Concrete","VC","A","concrete",1,1737994774906,"concrete",1453.5,790,"abstract","A","",6.67203294546107,7.28172971999893,197
"198","5a51ba7676d1c60001aaa660","joy","test_conc","abstract-positive","Concrete","VC","A","abstract",1,1737994776631,"abstract",1495.33333333333,967,"abstract","A","",6.87419849545329,7.31010442641204,198
"199","5a51ba7676d1c60001aaa660","lonliness","test_conc","abstract-negative","Concrete","VC","A","abstract",1,1737994778069,"abstract",1490.83333333333,679,"abstract","A","",6.5206211275587,7.30709052671476,199
"200","5a51ba7676d1c60001aaa660","envy","test_conc","abstract-negative","Concrete","VC","A","abstract",1,1737994779407,"abstract",1380,581,"abstract","A","",6.36475075685191,7.22983877815125,200
"201","5a51ba7676d1c60001aaa660","mold","test_conc","concrete-negative","Concrete","VC","A","concrete",1,1737994780807,"concrete",1458.41666666667,643,"abstract","A","",6.46614472423762,7.28510665134816,201
"202","5a51ba7676d1c60001aaa660","peace","test_conc","abstract-positive","Concrete","VC","A","abstract",1,1737994782132,"abstract",1403.5,565,"abstract","A","",6.33682573114644,7.24672439580194,202
"203","5a51ba7676d1c60001aaa660","freedom","test_conc","abstract-positive","Concrete","VC","A","abstract",1,1737994783499,"abstract",1359.5,610,"abstract","A","",6.41345895716736,7.21487226407253,203
"204","5a51ba7676d1c60001aaa660","injury","test_conc","concrete-negative","Concrete","VC","A","concrete",1,1737994784989,"concrete",1456.33333333333,732,"abstract","A","",6.59578051396131,7.28367714028333,204
"205","5a51ba7676d1c60001aaa660","gratitude","test_conc","abstract-positive","Concrete","VC","A","abstract",1,1737994786535,"abstract",1446.33333333333,786,"abstract","A","",6.66695679242921,7.27678689713024,205
"206","5a51ba7676d1c60001aaa660","kindness","test_conc","abstract-positive","Concrete","VC","A","abstract",1,1737994787862,"abstract",1378.33333333333,568,"abstract","A","",6.34212141872115,7.22863031878968,206
"207","5a51ba7676d1c60001aaa660","fireplace","test_conc","concrete-positive","Concrete","VC","A","concrete",1,1737994789285,"concrete",1396.58333333333,662,"abstract","A","",6.49526555593701,7.24178405659687,207
"208","5a51ba7676d1c60001aaa660","grief","test_conc","abstract-negative","Concrete","VC","A","abstract",1,1737994790614,"abstract",1358.66666666667,573,"abstract","A","",6.35088571671474,7.21425910567451,208
"209","5a51ba7676d1c60001aaa660","failure","test_conc","abstract-negative","Concrete","VC","A","abstract",1,1737994791997,"abstract",1329.33333333333,628,"abstract","A","",6.4425401664682,7.19243284241362,209
"210","5a51ba7676d1c60001aaa660","rot","test_conc","concrete-negative","Concrete","VC","A","abstract",0,1737994793825,"abstract",1588.16666666667,1071,"abstract","A","",6.97634807044775,7.37033559012013,210
"211","5a51ba7676d1c60001aaa660","rain","test_conc","concrete-positive","Concrete","VC","A","concrete",1,1737994795360,"concrete",1498.5,777,"abstract","A","",6.65544035036765,7.31221988675672,211
"212","5a51ba7676d1c60001aaa660","mud","test_conc","concrete-negative","Concrete","VC","A","concrete",1,1737994796799,"concrete",1411.83333333333,682,"abstract","A","",6.52502965784346,7.2526443752035,212
"213","5a51ba7676d1c60001aaa660","hug","test_conc","concrete-positive","Concrete","VC","A","concrete",1,1737994798300,"concrete",1346.83333333333,744,"abstract","A","",6.61204103483309,7.20551143700539,213
"214","5a51ba7676d1c60001aaa660","guilt","test_conc","abstract-negative","Concrete","VC","A","abstract",1,1737994799660,"abstract",1385.83333333333,601,"abstract","A","",6.39859493453521,7.23405692239897,214
"215","5a51ba7676d1c60001aaa660","stench","test_conc","concrete-negative","Concrete","VC","A","abstract",0,1737994801188,"abstract",1453.5,769,"abstract","A","",6.64509096950564,7.28172971999893,215
"216","5a51ba7676d1c60001aaa660","resentment","test_conc","abstract-negative","Concrete","VC","A","abstract",1,1737994802632,"abstract",1432,685,"abstract","A","",6.52941883826223,7.26682734752059,216
"217","5a51ba7676d1c60001aaa660","vomit","test_conc","concrete-negative","Concrete","VC","A","concrete",1,1737994803937,"concrete",1385.83333333333,548,"abstract","A","",6.30627528694802,7.23405692239897,217
"218","5a51ba7676d1c60001aaa660","love","test_conc","abstract-positive","Concrete","VC","A","abstract",1,1737994805246,"abstract",1345.83333333333,548,"abstract","A","",6.30627528694802,7.2047686788628,218
"219","5a51ba7676d1c60001aaa660","music","test_conc","concrete-positive","Concrete","VC","A","concrete",1,1737994806808,"concrete",1627.66666666667,804,"abstract","A","",6.68959926917897,7.39490277539355,219
"220","5a51ba7676d1c60001aaa660","compassion","test_conc","abstract-positive","Concrete","VC","A","abstract",1,1737994808244,"abstract",1513.16666666667,680,"abstract","A","",6.52209279817015,7.3219598641437,220
"221","5a51ba7676d1c60001aaa660","beach","test_conc","concrete-positive","Concrete","VC","A","concrete",1,1737994809588,"concrete",1336.33333333333,583,"abstract","A","",6.36818718635049,7.1976848239744,221
"222","5a51ba7676d1c60001aaa660","laughter","test_conc","concrete-positive","Concrete","VC","A","abstract",0,1737994811029,"abstract",1649.33333333333,683,"abstract","A","",6.52649485957079,7.40812644484427,222
"223","5a51ba7676d1c60001aaa660","happiness","test_conc","abstract-positive","Concrete","VC","A","abstract",1,1737994812404,"abstract",1353.5,615,"abstract","A","",6.42162226780652,7.21044910905436,223
"224","5a51ba7676d1c60001aaa660","hope","test_conc","abstract-positive","Concrete","VC","A","abstract",1,1737994813770,"abstract",1405.16666666667,610,"abstract","A","",6.41345895716736,7.24791119869462,224
"225","5a51ba7676d1c60001aaa660","lonliness","test_conc","abstract-negative","Concrete","VC","A","abstract",1,1737994815024,"abstract",1490.83333333333,493,"abstract","A","",6.20050917404269,7.30709052671476,225
"226","5a51ba7676d1c60001aaa660","filth","test_conc","concrete-negative","Concrete","VC","A","concrete",1,1737994816565,"concrete",1492.83333333333,780,"abstract","A","",6.65929391968364,7.30843115924714,226
"227","5a51ba7676d1c60001aaa660","smoke","test_conc","concrete-negative","Concrete","VC","A","concrete",1,1737994817991,"concrete",1471.33333333333,668,"abstract","A","",6.50428817353665,7.29392429814857,227
"228","5a51ba7676d1c60001aaa660","inspiration","test_conc","abstract-positive","Concrete","VC","A","abstract",1,1737994819325,"abstract",1421.33333333333,577,"abstract","A","",6.3578422665081,7.25935067717757,228
"229","5a51ba7676d1c60001aaa660","chocolate","test_conc","concrete-positive","Concrete","VC","A","concrete",1,1737994820758,"concrete",1398.66666666667,677,"abstract","A","",6.51767127291227,7.24327468084808,229
"230","5a51ba7676d1c60001aaa660","despair","test_conc","abstract-negative","Concrete","VC","A","abstract",1,1737994822108,"abstract",1437.5,594,"abstract","A","",6.38687931936265,7.27066077267151,230
"231","5a51ba7676d1c60001aaa660","anxiety","test_conc","abstract-negative","Concrete","VC","A","concrete",0,1737994823568,"concrete",1439.16666666667,700,"abstract","A","",6.5510803350434,7.27181952135272,231
"232","5a51ba7676d1c60001aaa660","joy","test_conc","abstract-positive","Concrete","VC","A","abstract",1,1737994825030,"abstract",1495.33333333333,702,"abstract","A","",6.55393340402581,7.31010442641204,232
"233","5a51ba7676d1c60001aaa660","garbage","test_conc","concrete-negative","Concrete","VC","A","concrete",1,1737994826423,"concrete",1375.91666666667,635,"abstract","A","",6.45362499889269,7.22687545464383,233
"234","5a51ba7676d1c60001aaa660","flowers","test_conc","concrete-positive","Concrete","VC","A","concrete",1,1737994827742,"concrete",1319.16666666667,559,"abstract","A","",6.3261494731551,7.18475550308706,234
"235","5a51ba7676d1c60001aaa660","shame","test_conc","abstract-negative","Concrete","VC","A","abstract",1,1737994829122,"abstract",1386.5,620,"abstract","A","",6.42971947803914,7.23453786505583,235
"236","5a51ba7676d1c60001aaa660","envy","test_conc","abstract-negative","Concrete","VC","A","abstract",1,1737994830454,"abstract",1380,577,"abstract","A","",6.3578422665081,7.22983877815125,236
"237","5a51ba7676d1c60001aaa660","regret","test_conc","abstract-negative","Concrete","VC","A","abstract",1,1737994831801,"abstract",1390.16666666667,587,"abstract","A","",6.3750248198281,7.23717892301356,237
"238","5a51ba7676d1c60001aaa660","rust","test_conc","concrete-negative","Concrete","VC","A","concrete",1,1737994833372,"concrete",1500,814,"abstract","A","",6.70196036600254,7.3132203870903,238
"239","5a51ba7676d1c60001aaa660","home","test_conc","concrete-positive","Concrete","VC","A","concrete",1,1737994834851,"concrete",1370.66666666667,719,"abstract","A","",6.57786135772105,7.22305251846689,239
"240","5a51ba7676d1c60001aaa660","sunshine","test_conc","concrete-positive","Concrete","VC","A","concrete",1,1737994836345,"concrete",1475.16666666667,737,"abstract","A","",6.60258789218934,7.29652625674082,240
"241","63b9d3abc3ddc61c8c08fd84","beach","test_val","concrete-positive","Valence","VC","B","positive",1,1738004917741,"positive",1401.83333333333,761,"positive","B","",6.63463335786169,7.24553618273438,1
"242","63b9d3abc3ddc61c8c08fd84","anxiety","test_val","abstract-negative","Valence","VC","B","negative",1,1738004919225,"negative",1454.66666666667,714,"positive","B","",6.57088296233958,7.28253205828485,2
"243","63b9d3abc3ddc61c8c08fd84","failure","test_val","abstract-negative","Valence","VC","B","negative",1,1738004920737,"negative",1718.16666666667,747,"positive","B","",6.61606518513282,7.44901310986833,3
"244","63b9d3abc3ddc61c8c08fd84","garbage","test_val","concrete-negative","Valence","VC","B","negative",1,1738004922367,"negative",1414,870,"positive","B","",6.76849321164863,7.25417784645652,4
"245","63b9d3abc3ddc61c8c08fd84","mud","test_val","concrete-negative","Valence","VC","B","negative",1,1738004923873,"negative",1705.5,751,"positive","B","",6.62140565176413,7.4416136018587,5
"246","63b9d3abc3ddc61c8c08fd84","joy","test_val","abstract-positive","Valence","VC","B","positive",1,1738004925322,"positive",1599.33333333333,691,"positive","B","",6.53813982376767,7.37734215473153,6
"247","63b9d3abc3ddc61c8c08fd84","rain","test_val","concrete-positive","Valence","VC","B","positive",1,1738004927581,"positive",1675.16666666667,1478,"positive","B","",7.29844510150815,7.42366794179669,7
"248","63b9d3abc3ddc61c8c08fd84","filth","test_val","concrete-negative","Valence","VC","B","negative",1,1738004929701,"negative",1626.83333333333,1347,"positive","B","",7.20563517641036,7.39439066394691,8
"249","63b9d3abc3ddc61c8c08fd84","freedom","test_val","abstract-positive","Valence","VC","B","positive",1,1738004931383,"positive",1498.16666666667,922,"positive","B","",6.82654522355659,7.31199741734534,9
"250","63b9d3abc3ddc61c8c08fd84","chocolate","test_val","concrete-positive","Valence","VC","B","positive",1,1738004932872,"positive",1434.33333333333,730,"positive","B","",6.59304453414244,7.26845544417049,10
"251","63b9d3abc3ddc61c8c08fd84","smoke","test_val","concrete-negative","Valence","VC","B","negative",1,1738004934410,"negative",1775.33333333333,770,"positive","B","",6.64639051484773,7.48174347770577,11
"252","63b9d3abc3ddc61c8c08fd84","compassion","test_val","abstract-positive","Valence","VC","B","positive",1,1738004936059,"positive",1499.33333333333,879,"positive","B","",6.77878489768518,7.31277584385115,12
"253","63b9d3abc3ddc61c8c08fd84","hug","test_val","concrete-positive","Valence","VC","B","positive",1,1738004937570,"positive",1480.33333333333,741,"positive","B","",6.60800062529609,7.30002256662399,13
"254","63b9d3abc3ddc61c8c08fd84","resentment","test_val","abstract-negative","Valence","VC","B","negative",1,1738004939150,"negative",1453.33333333333,814,"positive","B","",6.70196036600254,7.28161504767497,14
"255","63b9d3abc3ddc61c8c08fd84","flowers","test_val","concrete-positive","Valence","VC","B","positive",1,1738004940649,"positive",1448,727,"positive","B","",6.58892647753352,7.27793857294566,15
"256","63b9d3abc3ddc61c8c08fd84","kindness","test_val","abstract-positive","Valence","VC","B","positive",1,1738004942181,"positive",1529.33333333333,749,"positive","B","",6.61873898351722,7.33258718958115,16
"257","63b9d3abc3ddc61c8c08fd84","shame","test_val","abstract-negative","Valence","VC","B","negative",1,1738004943600,"negative",1460.83333333333,660,"positive","B","",6.49223983502047,7.28676232812728,17
"258","63b9d3abc3ddc61c8c08fd84","lonliness","test_val","abstract-negative","Valence","VC","B","negative",1,1738004945141,"negative",1389.5,760,"positive","B","",6.63331843328038,7.23669924918256,18
"259","63b9d3abc3ddc61c8c08fd84","envy","test_val","abstract-negative","Valence","VC","B","negative",1,1738004946863,"negative",1583.66666666667,941,"positive","B","",6.84694313958538,7.36749811251881,19
"260","63b9d3abc3ddc61c8c08fd84","injury","test_val","concrete-negative","Valence","VC","B","negative",1,1738004948429,"negative",1424,792,"positive","B","",6.67456139181443,7.26122509197192,20
"261","63b9d3abc3ddc61c8c08fd84","music","test_val","concrete-positive","Valence","VC","B","positive",1,1738004949793,"positive",1453.33333333333,605,"positive","B","",6.40522845803084,7.28161504767497,21
"262","63b9d3abc3ddc61c8c08fd84","fireplace","test_val","concrete-positive","Valence","VC","B","positive",1,1738004951486,"positive",1533.16666666667,917,"positive","B","",6.82110747225646,7.3350905922491,22
"263","63b9d3abc3ddc61c8c08fd84","happiness","test_val","abstract-positive","Valence","VC","B","positive",1,1738004952833,"positive",1363.16666666667,568,"positive","B","",6.34212141872115,7.21756570350692,23
"264","63b9d3abc3ddc61c8c08fd84","guilt","test_val","abstract-negative","Valence","VC","B","negative",1,1738004954253,"negative",1515.83333333333,648,"positive","B","",6.47389069635227,7.32372062172417,24
"265","63b9d3abc3ddc61c8c08fd84","hope","test_val","abstract-positive","Valence","VC","B","positive",1,1738004956117,"positive",1576,1100,"positive","B","",7.00306545878646,7.36264527041782,25
"266","63b9d3abc3ddc61c8c08fd84","rot","test_val","concrete-negative","Valence","VC","B","negative",1,1738004957658,"negative",1534.83333333333,779,"positive","B","",6.65801104587075,7.33617707649331,26
"267","63b9d3abc3ddc61c8c08fd84","grief","test_val","abstract-negative","Valence","VC","B","negative",1,1738004959111,"negative",1455.66666666667,694,"positive","B","",6.5424719605068,7.28321926481745,27
"268","63b9d3abc3ddc61c8c08fd84","gratitude","test_val","abstract-positive","Valence","VC","B","positive",1,1738004960689,"positive",1423.5,816,"positive","B","",6.70441435496411,7.26087390671809,28
"269","63b9d3abc3ddc61c8c08fd84","regret","test_val","abstract-negative","Valence","VC","B","negative",1,1738004962251,"negative",1540.16666666667,801,"positive","B","",6.68586094706836,7.33964591465999,29
"270","63b9d3abc3ddc61c8c08fd84","inspiration","test_val","abstract-positive","Valence","VC","B","positive",1,1738004963910,"positive",1492.83333333333,887,"positive","B","",6.78784498230958,7.30843115924714,30
"271","63b9d3abc3ddc61c8c08fd84","stench","test_val","concrete-negative","Valence","VC","B","negative",1,1738004965463,"negative",1661,790,"positive","B","",6.67203294546107,7.41517510961329,31
"272","63b9d3abc3ddc61c8c08fd84","despair","test_val","abstract-negative","Valence","VC","B","negative",1,1738004967262,"negative",1434.16666666667,1029,"positive","B","",6.93634273583405,7.26833923941758,32
"273","63b9d3abc3ddc61c8c08fd84","sunshine","test_val","concrete-positive","Valence","VC","B","positive",1,1738004968676,"positive",1510.83333333333,639,"positive","B","",6.45990445437753,7.3204166539609,33
"274","63b9d3abc3ddc61c8c08fd84","rust","test_val","concrete-negative","Valence","VC","B","negative",1,1738004970215,"negative",1627.5,765,"positive","B","",6.63987583382654,7.39480037408272,34
"275","63b9d3abc3ddc61c8c08fd84","mold","test_val","concrete-negative","Valence","VC","B","negative",1,1738004971783,"negative",1572,798,"positive","B","",6.68210859744981,7.36010397298915,35
"276","63b9d3abc3ddc61c8c08fd84","home","test_val","concrete-positive","Valence","VC","B","positive",1,1738004973200,"positive",1427.33333333333,654,"positive","B","",6.4831073514572,7.26356318048152,36
"277","63b9d3abc3ddc61c8c08fd84","peace","test_val","abstract-positive","Valence","VC","B","positive",1,1738004974546,"positive",1383.33333333333,577,"positive","B","",6.3578422665081,7.23225132455663,37
"278","63b9d3abc3ddc61c8c08fd84","vomit","test_val","concrete-negative","Valence","VC","B","negative",1,1738004975913,"negative",1555,607,"positive","B","",6.4085287910595,7.34923082461333,38
"279","63b9d3abc3ddc61c8c08fd84","laughter","test_val","concrete-positive","Valence","VC","B","positive",1,1738004977356,"positive",1422.5,677,"positive","B","",6.51767127291227,7.26017116600049,39
"280","63b9d3abc3ddc61c8c08fd84","love","test_val","abstract-positive","Valence","VC","B","positive",1,1738004978597,"positive",1359.33333333333,478,"positive","B","",6.16961073249146,7.21474966246629,40
"281","63b9d3abc3ddc61c8c08fd84","guilt","test_val","abstract-negative","Valence","VC","B","negative",1,1738004980397,"negative",1515.83333333333,1044,"positive","B","",6.95081476844258,7.32372062172417,41
"282","63b9d3abc3ddc61c8c08fd84","hope","test_val","abstract-positive","Valence","VC","B","positive",1,1738004982047,"positive",1576,883,"positive","B","",6.78332520060396,7.36264527041782,42
"283","63b9d3abc3ddc61c8c08fd84","failure","test_val","abstract-negative","Valence","VC","B","negative",1,1738004983444,"negative",1718.16666666667,627,"positive","B","",6.44094654063292,7.44901310986833,43
"284","63b9d3abc3ddc61c8c08fd84","stench","test_val","concrete-negative","Valence","VC","B","negative",1,1738004984984,"negative",1661,778,"positive","B","",6.65672652417839,7.41517510961329,44
"285","63b9d3abc3ddc61c8c08fd84","beach","test_val","concrete-positive","Valence","VC","B","positive",1,1738004986298,"positive",1401.83333333333,550,"positive","B","",6.30991827822652,7.24553618273438,45
"286","63b9d3abc3ddc61c8c08fd84","compassion","test_val","abstract-positive","Valence","VC","B","positive",1,1738004987864,"positive",1499.33333333333,791,"positive","B","",6.67329796776765,7.31277584385115,46
"287","63b9d3abc3ddc61c8c08fd84","inspiration","test_val","abstract-positive","Valence","VC","B","positive",1,1738004989228,"positive",1492.83333333333,609,"positive","B","",6.4118182677099,7.30843115924714,47
"288","63b9d3abc3ddc61c8c08fd84","music","test_val","concrete-positive","Valence","VC","B","positive",1,1738004990753,"positive",1453.33333333333,748,"positive","B","",6.61740297797448,7.28161504767497,48
"289","63b9d3abc3ddc61c8c08fd84","chocolate","test_val","concrete-positive","Valence","VC","B","positive",1,1738004992104,"positive",1434.33333333333,576,"positive","B","",6.35610766069589,7.26845544417049,49
"290","63b9d3abc3ddc61c8c08fd84","rust","test_val","concrete-negative","Valence","VC","B","negative",1,1738004993818,"negative",1627.5,938,"positive","B","",6.84374994900622,7.39480037408272,50
"291","63b9d3abc3ddc61c8c08fd84","peace","test_val","abstract-positive","Valence","VC","B","positive",1,1738004995135,"positive",1383.33333333333,564,"positive","B","",6.33505425149806,7.23225132455663,51
"292","63b9d3abc3ddc61c8c08fd84","envy","test_val","abstract-negative","Valence","VC","B","negative",1,1738004997347,"negative",1583.66666666667,1445,"positive","B","",7.27586460054653,7.36749811251881,52
"293","63b9d3abc3ddc61c8c08fd84","kindness","test_val","abstract-positive","Valence","VC","B","positive",1,1738004999005,"positive",1529.33333333333,895,"positive","B","",6.79682371827486,7.33258718958115,53
"294","63b9d3abc3ddc61c8c08fd84","sunshine","test_val","concrete-positive","Valence","VC","B","positive",1,1738005000274,"positive",1510.83333333333,498,"positive","B","",6.21060007702465,7.3204166539609,54
"295","63b9d3abc3ddc61c8c08fd84","resentment","test_val","abstract-negative","Valence","VC","B","negative",1,1738005001780,"negative",1453.33333333333,742,"positive","B","",6.60934924316738,7.28161504767497,55
"296","63b9d3abc3ddc61c8c08fd84","gratitude","test_val","abstract-positive","Valence","VC","B","positive",1,1738005003223,"positive",1423.5,681,"positive","B","",6.52356230614951,7.26087390671809,56
"297","63b9d3abc3ddc61c8c08fd84","regret","test_val","abstract-negative","Valence","VC","B","negative",1,1738005004920,"negative",1540.16666666667,917,"positive","B","",6.82110747225646,7.33964591465999,57
"298","63b9d3abc3ddc61c8c08fd84","mold","test_val","concrete-negative","Valence","VC","B","negative",1,1738005006466,"negative",1572,785,"positive","B","",6.66568371778241,7.36010397298915,58
"299","63b9d3abc3ddc61c8c08fd84","anxiety","test_val","abstract-negative","Valence","VC","B","negative",1,1738005007928,"negative",1454.66666666667,695,"positive","B","",6.54391184556479,7.28253205828485,59
"300","63b9d3abc3ddc61c8c08fd84","despair","test_val","abstract-negative","Valence","VC","B","negative",1,1738005009255,"negative",1434.16666666667,547,"positive","B","",6.30444880242198,7.26833923941758,60
"301","63b9d3abc3ddc61c8c08fd84","rain","test_val","concrete-positive","Valence","VC","B","negative",0,1738005010828,"negative",1675.16666666667,809,"positive","B","",6.69579891705849,7.42366794179669,61
"302","63b9d3abc3ddc61c8c08fd84","fireplace","test_val","concrete-positive","Valence","VC","B","positive",1,1738005012340,"positive",1533.16666666667,749,"positive","B","",6.61873898351722,7.3350905922491,62
"303","63b9d3abc3ddc61c8c08fd84","mud","test_val","concrete-negative","Valence","VC","B","negative",1,1738005014937,"negative",1705.5,1827,"positive","B","",7.51043055637801,7.4416136018587,63
"304","63b9d3abc3ddc61c8c08fd84","grief","test_val","abstract-negative","Valence","VC","B","negative",1,1738005016483,"negative",1455.66666666667,779,"positive","B","",6.65801104587075,7.28321926481745,64
"305","63b9d3abc3ddc61c8c08fd84","happiness","test_val","abstract-positive","Valence","VC","B","positive",1,1738005017939,"positive",1363.16666666667,703,"positive","B","",6.55535689181067,7.21756570350692,65
"306","63b9d3abc3ddc61c8c08fd84","freedom","test_val","abstract-positive","Valence","VC","B","positive",1,1738005019428,"positive",1498.16666666667,714,"positive","B","",6.57088296233958,7.31199741734534,66
"307","63b9d3abc3ddc61c8c08fd84","flowers","test_val","concrete-positive","Valence","VC","B","positive",1,1738005020952,"positive",1448,754,"positive","B","",6.62539236800796,7.27793857294566,67
"308","63b9d3abc3ddc61c8c08fd84","lonliness","test_val","abstract-negative","Valence","VC","B","negative",1,1738005022319,"negative",1389.5,596,"positive","B","",6.39024066706535,7.23669924918256,68
"309","63b9d3abc3ddc61c8c08fd84","garbage","test_val","concrete-negative","Valence","VC","B","negative",1,1738005023656,"negative",1414,559,"positive","B","",6.3261494731551,7.25417784645652,69
"310","63b9d3abc3ddc61c8c08fd84","filth","test_val","concrete-negative","Valence","VC","B","negative",1,1738005024993,"negative",1626.83333333333,564,"positive","B","",6.33505425149806,7.39439066394691,70
"311","63b9d3abc3ddc61c8c08fd84","love","test_val","abstract-positive","Valence","VC","B","positive",1,1738005026272,"positive",1359.33333333333,504,"positive","B","",6.22257626807137,7.21474966246629,71
"312","63b9d3abc3ddc61c8c08fd84","shame","test_val","abstract-negative","Valence","VC","B","negative",1,1738005027677,"negative",1460.83333333333,640,"positive","B","",6.46146817635372,7.28676232812728,72
"313","63b9d3abc3ddc61c8c08fd84","injury","test_val","concrete-negative","Valence","VC","B","negative",1,1738005029140,"negative",1424,682,"positive","B","",6.52502965784346,7.26122509197192,73
"314","63b9d3abc3ddc61c8c08fd84","vomit","test_val","concrete-negative","Valence","VC","B","negative",1,1738005030454,"negative",1555,543,"positive","B","",6.29710931993394,7.34923082461333,74
"315","63b9d3abc3ddc61c8c08fd84","laughter","test_val","concrete-positive","Valence","VC","B","positive",1,1738005031784,"positive",1422.5,554,"positive","B","",6.31716468674728,7.26017116600049,75
"316","63b9d3abc3ddc61c8c08fd84","home","test_val","concrete-positive","Valence","VC","B","positive",1,1738005033328,"positive",1427.33333333333,777,"positive","B","",6.65544035036765,7.26356318048152,76
"317","63b9d3abc3ddc61c8c08fd84","smoke","test_val","concrete-negative","Valence","VC","B","negative",1,1738005034700,"negative",1775.33333333333,598,"positive","B","",6.39359075395063,7.48174347770577,77
"318","63b9d3abc3ddc61c8c08fd84","hug","test_val","concrete-positive","Valence","VC","B","positive",1,1738005036102,"positive",1480.33333333333,632,"positive","B","",6.44888939414686,7.30002256662399,78
"319","63b9d3abc3ddc61c8c08fd84","rot","test_val","concrete-negative","Valence","VC","B","negative",1,1738005037451,"negative",1534.83333333333,581,"positive","B","",6.36475075685191,7.33617707649331,79
"320","63b9d3abc3ddc61c8c08fd84","joy","test_val","abstract-positive","Valence","VC","B","positive",1,1738005038807,"positive",1599.33333333333,578,"positive","B","",6.35957386867238,7.37734215473153,80
"321","63b9d3abc3ddc61c8c08fd84","fireplace","test_val","concrete-positive","Valence","VC","B","positive",1,1738005040357,"positive",1533.16666666667,780,"positive","B","",6.65929391968364,7.3350905922491,81
"322","63b9d3abc3ddc61c8c08fd84","hope","test_val","abstract-positive","Valence","VC","B","positive",1,1738005041651,"positive",1576,529,"positive","B","",6.2709884318583,7.36264527041782,82
"323","63b9d3abc3ddc61c8c08fd84","rust","test_val","concrete-negative","Valence","VC","B","negative",1,1738005043008,"negative",1627.5,589,"positive","B","",6.37842618365159,7.39480037408272,83
"324","63b9d3abc3ddc61c8c08fd84","failure","test_val","abstract-negative","Valence","VC","B","negative",1,1738005044306,"negative",1718.16666666667,526,"positive","B","",6.26530121273771,7.44901310986833,84
"325","63b9d3abc3ddc61c8c08fd84","rot","test_val","concrete-negative","Valence","VC","B","negative",1,1738005045586,"negative",1534.83333333333,520,"positive","B","",6.25382881157547,7.33617707649331,85
"326","63b9d3abc3ddc61c8c08fd84","hug","test_val","concrete-positive","Valence","VC","B","positive",1,1738005046994,"positive",1480.33333333333,638,"positive","B","",6.45833828334479,7.30002256662399,86
"327","63b9d3abc3ddc61c8c08fd84","joy","test_val","abstract-positive","Valence","VC","B","positive",1,1738005048149,"positive",1599.33333333333,390,"positive","B","",5.96614673912369,7.37734215473153,87
"328","63b9d3abc3ddc61c8c08fd84","envy","test_val","abstract-negative","Valence","VC","B","negative",1,1738005049616,"negative",1583.66666666667,685,"positive","B","",6.52941883826223,7.36749811251881,88
"329","63b9d3abc3ddc61c8c08fd84","vomit","test_val","concrete-negative","Valence","VC","B","negative",1,1738005050966,"negative",1555,579,"positive","B","",6.361302477573,7.34923082461333,89
"330","63b9d3abc3ddc61c8c08fd84","freedom","test_val","abstract-positive","Valence","VC","B","positive",1,1738005052402,"positive",1498.16666666667,668,"positive","B","",6.50428817353665,7.31199741734534,90
"331","63b9d3abc3ddc61c8c08fd84","anxiety","test_val","abstract-negative","Valence","VC","B","negative",1,1738005053816,"negative",1454.66666666667,636,"positive","B","",6.45519856334012,7.28253205828485,91
"332","63b9d3abc3ddc61c8c08fd84","resentment","test_val","abstract-negative","Valence","VC","B","negative",1,1738005055196,"negative",1453.33333333333,620,"positive","B","",6.42971947803914,7.28161504767497,92
"333","63b9d3abc3ddc61c8c08fd84","beach","test_val","concrete-positive","Valence","VC","B","positive",1,1738005056509,"positive",1401.83333333333,539,"positive","B","",6.289715570909,7.24553618273438,93
"334","63b9d3abc3ddc61c8c08fd84","gratitude","test_val","abstract-positive","Valence","VC","B","positive",1,1738005057921,"positive",1423.5,648,"positive","B","",6.47389069635227,7.26087390671809,94
"335","63b9d3abc3ddc61c8c08fd84","flowers","test_val","concrete-positive","Valence","VC","B","positive",1,1738005059287,"positive",1448,608,"positive","B","",6.41017488196617,7.27793857294566,95
"336","63b9d3abc3ddc61c8c08fd84","music","test_val","concrete-positive","Valence","VC","B","positive",1,1738005060580,"positive",1453.33333333333,520,"positive","B","",6.25382881157547,7.28161504767497,96
"337","63b9d3abc3ddc61c8c08fd84","grief","test_val","abstract-negative","Valence","VC","B","positive",0,1738005061882,"positive",1455.66666666667,529,"positive","B","",6.2709884318583,7.28321926481745,97
"338","63b9d3abc3ddc61c8c08fd84","kindness","test_val","abstract-positive","Valence","VC","B","positive",1,1738005063165,"positive",1529.33333333333,515,"positive","B","",6.24416690066374,7.33258718958115,98
"339","63b9d3abc3ddc61c8c08fd84","peace","test_val","abstract-positive","Valence","VC","B","positive",1,1738005064435,"positive",1383.33333333333,514,"positive","B","",6.24222326545517,7.23225132455663,99
"340","63b9d3abc3ddc61c8c08fd84","shame","test_val","abstract-negative","Valence","VC","B","negative",1,1738005066245,"negative",1460.83333333333,1034,"positive","B","",6.94119005506837,7.28676232812728,100
"341","63b9d3abc3ddc61c8c08fd84","guilt","test_val","abstract-negative","Valence","VC","B","negative",1,1738005067659,"negative",1515.83333333333,646,"positive","B","",6.4707995037826,7.32372062172417,101
"342","63b9d3abc3ddc61c8c08fd84","garbage","test_val","concrete-negative","Valence","VC","B","negative",1,1738005069044,"negative",1414,608,"positive","B","",6.41017488196617,7.25417784645652,102
"343","63b9d3abc3ddc61c8c08fd84","mud","test_val","concrete-negative","Valence","VC","B","negative",1,1738005070326,"negative",1705.5,506,"positive","B","",6.22653666928747,7.4416136018587,103
"344","63b9d3abc3ddc61c8c08fd84","despair","test_val","abstract-negative","Valence","VC","B","negative",1,1738005071658,"negative",1434.16666666667,564,"positive","B","",6.33505425149806,7.26833923941758,104
"345","63b9d3abc3ddc61c8c08fd84","regret","test_val","abstract-negative","Valence","VC","B","negative",1,1738005073096,"negative",1540.16666666667,662,"positive","B","",6.49526555593701,7.33964591465999,105
"346","63b9d3abc3ddc61c8c08fd84","stench","test_val","concrete-negative","Valence","VC","B","negative",1,1738005074583,"negative",1661,712,"positive","B","",6.56807791141198,7.41517510961329,106
"347","63b9d3abc3ddc61c8c08fd84","filth","test_val","concrete-negative","Valence","VC","B","negative",1,1738005075891,"negative",1626.83333333333,543,"positive","B","",6.29710931993394,7.39439066394691,107
"348","63b9d3abc3ddc61c8c08fd84","rain","test_val","concrete-positive","Valence","VC","B","negative",0,1738005077257,"negative",1675.16666666667,600,"positive","B","",6.39692965521615,7.42366794179669,108
"349","63b9d3abc3ddc61c8c08fd84","chocolate","test_val","concrete-positive","Valence","VC","B","positive",1,1738005078941,"positive",1434.33333333333,925,"positive","B","",6.82979373751242,7.26845544417049,109
"350","63b9d3abc3ddc61c8c08fd84","mold","test_val","concrete-negative","Valence","VC","B","negative",1,1738005080394,"negative",1572,680,"positive","B","",6.52209279817015,7.36010397298915,110
"351","63b9d3abc3ddc61c8c08fd84","compassion","test_val","abstract-positive","Valence","VC","B","positive",1,1738005082129,"positive",1499.33333333333,982,"positive","B","",6.88959130835447,7.31277584385115,111
"352","63b9d3abc3ddc61c8c08fd84","laughter","test_val","concrete-positive","Valence","VC","B","positive",1,1738005083728,"positive",1422.5,829,"positive","B","",6.7202201551353,7.26017116600049,112
"353","63b9d3abc3ddc61c8c08fd84","sunshine","test_val","concrete-positive","Valence","VC","B","positive",1,1738005084961,"positive",1510.83333333333,454,"positive","B","",6.11809719804135,7.3204166539609,113
"354","63b9d3abc3ddc61c8c08fd84","lonliness","test_val","abstract-negative","Valence","VC","B","negative",1,1738005086341,"negative",1389.5,612,"positive","B","",6.41673228251233,7.23669924918256,114
"355","63b9d3abc3ddc61c8c08fd84","happiness","test_val","abstract-positive","Valence","VC","B","positive",1,1738005087604,"positive",1363.16666666667,504,"positive","B","",6.22257626807137,7.21756570350692,115
"356","63b9d3abc3ddc61c8c08fd84","injury","test_val","concrete-negative","Valence","VC","B","negative",1,1738005088994,"negative",1424,619,"positive","B","",6.4281052726846,7.26122509197192,116
"357","63b9d3abc3ddc61c8c08fd84","love","test_val","abstract-positive","Valence","VC","B","positive",1,1738005090260,"positive",1359.33333333333,510,"positive","B","",6.23441072571837,7.21474966246629,117
"358","63b9d3abc3ddc61c8c08fd84","inspiration","test_val","abstract-positive","Valence","VC","B","positive",1,1738005091729,"positive",1492.83333333333,703,"positive","B","",6.55535689181067,7.30843115924714,118
"359","63b9d3abc3ddc61c8c08fd84","smoke","test_val","concrete-negative","Valence","VC","B","negative",1,1738005093125,"negative",1775.33333333333,616,"positive","B","",6.42324696353352,7.48174347770577,119
"360","63b9d3abc3ddc61c8c08fd84","home","test_val","concrete-positive","Valence","VC","B","positive",1,1738005094520,"positive",1427.33333333333,612,"positive","B","",6.41673228251233,7.26356318048152,120
"361","63b9d3abc3ddc61c8c08fd84","stench","test_conc","concrete-negative","Concrete","VC","B","abstract",0,1738005194046,"abstract",1661,886,"concrete","B","",6.78671695060508,7.41517510961329,121
"362","63b9d3abc3ddc61c8c08fd84","failure","test_conc","abstract-negative","Concrete","VC","B","abstract",1,1738005197459,"abstract",1718.16666666667,2642,"concrete","B","",7.87929148508227,7.44901310986833,122
"363","63b9d3abc3ddc61c8c08fd84","home","test_conc","concrete-positive","Concrete","VC","B","concrete",1,1738005199015,"concrete",1427.33333333333,790,"concrete","B","",6.67203294546107,7.26356318048152,123
"364","63b9d3abc3ddc61c8c08fd84","hope","test_conc","abstract-positive","Concrete","VC","B","abstract",1,1738005201021,"abstract",1576,1237,"concrete","B","",7.12044437239249,7.36264527041782,124
"365","63b9d3abc3ddc61c8c08fd84","envy","test_conc","abstract-negative","Concrete","VC","B","abstract",1,1738005202535,"abstract",1583.66666666667,755,"concrete","B","",6.62671774924902,7.36749811251881,125
"366","63b9d3abc3ddc61c8c08fd84","mud","test_conc","concrete-negative","Concrete","VC","B","concrete",1,1738005204430,"concrete",1705.5,1123,"concrete","B","",7.02375895473844,7.4416136018587,126
"367","63b9d3abc3ddc61c8c08fd84","kindness","test_conc","abstract-positive","Concrete","VC","B","abstract",1,1738005206530,"abstract",1529.33333333333,1333,"concrete","B","",7.19518732017871,7.33258718958115,127
"368","63b9d3abc3ddc61c8c08fd84","rain","test_conc","concrete-positive","Concrete","VC","B","concrete",1,1738005208500,"concrete",1675.16666666667,1211,"concrete","B","",7.09920174355309,7.42366794179669,128
"369","63b9d3abc3ddc61c8c08fd84","injury","test_conc","concrete-negative","Concrete","VC","B","abstract",0,1738005210027,"abstract",1424,759,"concrete","B","",6.63200177739563,7.26122509197192,129
"370","63b9d3abc3ddc61c8c08fd84","regret","test_conc","abstract-negative","Concrete","VC","B","abstract",1,1738005211748,"abstract",1540.16666666667,943,"concrete","B","",6.84906628263346,7.33964591465999,130
"371","63b9d3abc3ddc61c8c08fd84","filth","test_conc","concrete-negative","Concrete","VC","B","abstract",0,1738005213432,"abstract",1626.83333333333,921,"concrete","B","",6.82546003625531,7.39439066394691,131
"372","63b9d3abc3ddc61c8c08fd84","peace","test_conc","abstract-positive","Concrete","VC","B","abstract",1,1738005215299,"abstract",1383.33333333333,1094,"concrete","B","",6.99759598298193,7.23225132455663,132
"373","63b9d3abc3ddc61c8c08fd84","flowers","test_conc","concrete-positive","Concrete","VC","B","concrete",1,1738005216826,"concrete",1448,755,"concrete","B","",6.62671774924902,7.27793857294566,133
"374","63b9d3abc3ddc61c8c08fd84","despair","test_conc","abstract-negative","Concrete","VC","B","abstract",1,1738005218425,"abstract",1434.16666666667,820,"concrete","B","",6.7093043402583,7.26833923941758,134
"375","63b9d3abc3ddc61c8c08fd84","guilt","test_conc","abstract-negative","Concrete","VC","B","abstract",1,1738005219963,"abstract",1515.83333333333,768,"concrete","B","",6.64378973314767,7.32372062172417,135
"376","63b9d3abc3ddc61c8c08fd84","freedom","test_conc","abstract-positive","Concrete","VC","B","abstract",1,1738005221662,"abstract",1498.16666666667,925,"concrete","B","",6.82979373751242,7.31199741734534,136
"377","63b9d3abc3ddc61c8c08fd84","music","test_conc","concrete-positive","Concrete","VC","B","concrete",1,1738005223516,"concrete",1453.33333333333,1095,"concrete","B","",6.9985096422506,7.28161504767497,137
"378","63b9d3abc3ddc61c8c08fd84","garbage","test_conc","concrete-negative","Concrete","VC","B","abstract",0,1738005224884,"abstract",1414,600,"concrete","B","",6.39692965521615,7.25417784645652,138
"379","63b9d3abc3ddc61c8c08fd84","resentment","test_conc","abstract-negative","Concrete","VC","B","abstract",1,1738005226312,"abstract",1453.33333333333,661,"concrete","B","",6.49375383985169,7.28161504767497,139
"380","63b9d3abc3ddc61c8c08fd84","joy","test_conc","abstract-positive","Concrete","VC","B","abstract",1,1738005228146,"abstract",1599.33333333333,1065,"concrete","B","",6.97073007814353,7.37734215473153,140
"381","63b9d3abc3ddc61c8c08fd84","gratitude","test_conc","abstract-positive","Concrete","VC","B","abstract",1,1738005229522,"abstract",1423.5,597,"concrete","B","",6.3919171133926,7.26087390671809,141
"382","63b9d3abc3ddc61c8c08fd84","fireplace","test_conc","concrete-positive","Concrete","VC","B","concrete",1,1738005231243,"concrete",1533.16666666667,962,"concrete","B","",6.86901445066571,7.3350905922491,142
"383","63b9d3abc3ddc61c8c08fd84","anxiety","test_conc","abstract-negative","Concrete","VC","B","abstract",1,1738005232849,"abstract",1454.66666666667,837,"concrete","B","",6.72982407048948,7.28253205828485,143
"384","63b9d3abc3ddc61c8c08fd84","rust","test_conc","concrete-negative","Concrete","VC","B","concrete",1,1738005234895,"concrete",1627.5,1263,"concrete","B","",7.14124512235049,7.39480037408272,144
"385","63b9d3abc3ddc61c8c08fd84","love","test_conc","abstract-positive","Concrete","VC","B","abstract",1,1738005236654,"abstract",1359.33333333333,1001,"concrete","B","",6.90875477931522,7.21474966246629,145
"386","63b9d3abc3ddc61c8c08fd84","happiness","test_conc","abstract-positive","Concrete","VC","B","abstract",1,1738005237985,"abstract",1363.16666666667,557,"concrete","B","",6.32256523992728,7.21756570350692,146
"387","63b9d3abc3ddc61c8c08fd84","rot","test_conc","concrete-negative","Concrete","VC","B","abstract",0,1738005240052,"abstract",1534.83333333333,1310,"concrete","B","",7.1777824161952,7.33617707649331,147
"388","63b9d3abc3ddc61c8c08fd84","beach","test_conc","concrete-positive","Concrete","VC","B","concrete",1,1738005241649,"concrete",1401.83333333333,825,"concrete","B","",6.71538338633468,7.24553618273438,148
"389","63b9d3abc3ddc61c8c08fd84","laughter","test_conc","concrete-positive","Concrete","VC","B","abstract",0,1738005243248,"abstract",1422.5,820,"concrete","B","",6.7093043402583,7.26017116600049,149
"390","63b9d3abc3ddc61c8c08fd84","mold","test_conc","concrete-negative","Concrete","VC","B","concrete",1,1738005245335,"concrete",1572,1317,"concrete","B","",7.18311170174328,7.36010397298915,150
"391","63b9d3abc3ddc61c8c08fd84","smoke","test_conc","concrete-negative","Concrete","VC","B","concrete",1,1738005248809,"concrete",1775.33333333333,2709,"concrete","B","",7.9043348420851,7.48174347770577,151
"392","63b9d3abc3ddc61c8c08fd84","compassion","test_conc","abstract-positive","Concrete","VC","B","abstract",1,1738005250205,"abstract",1499.33333333333,629,"concrete","B","",6.44413125670044,7.31277584385115,152
"393","63b9d3abc3ddc61c8c08fd84","sunshine","test_conc","concrete-positive","Concrete","VC","B","concrete",1,1738005252235,"concrete",1510.83333333333,1259,"concrete","B","",7.13807303404435,7.3204166539609,153
"394","63b9d3abc3ddc61c8c08fd84","shame","test_conc","abstract-negative","Concrete","VC","B","abstract",1,1738005253702,"abstract",1460.83333333333,695,"concrete","B","",6.54391184556479,7.28676232812728,154
"395","63b9d3abc3ddc61c8c08fd84","chocolate","test_conc","concrete-positive","Concrete","VC","B","concrete",1,1738005255194,"concrete",1434.33333333333,720,"concrete","B","",6.5792512120101,7.26845544417049,155
"396","63b9d3abc3ddc61c8c08fd84","hug","test_conc","concrete-positive","Concrete","VC","B","abstract",0,1738005256664,"abstract",1480.33333333333,690,"concrete","B","",6.5366915975913,7.30002256662399,156
"397","63b9d3abc3ddc61c8c08fd84","inspiration","test_conc","abstract-positive","Concrete","VC","B","abstract",1,1738005258502,"abstract",1492.83333333333,1069,"concrete","B","",6.97447891102505,7.30843115924714,157
"398","63b9d3abc3ddc61c8c08fd84","vomit","test_conc","concrete-negative","Concrete","VC","B","concrete",1,1738005260783,"concrete",1555,1511,"concrete","B","",7.32052696227274,7.34923082461333,158
"399","63b9d3abc3ddc61c8c08fd84","grief","test_conc","abstract-negative","Concrete","VC","B","abstract",1,1738005262640,"abstract",1455.66666666667,1082,"concrete","B","",6.98656645940643,7.28321926481745,159
"400","63b9d3abc3ddc61c8c08fd84","lonliness","test_conc","abstract-negative","Concrete","VC","B","abstract",1,1738005263954,"abstract",1389.5,543,"concrete","B","",6.29710931993394,7.23669924918256,160
"401","63b9d3abc3ddc61c8c08fd84","rust","test_conc","concrete-negative","Concrete","VC","B","concrete",1,1738005265595,"concrete",1627.5,875,"concrete","B","",6.77422388635761,7.39480037408272,161
"402","63b9d3abc3ddc61c8c08fd84","filth","test_conc","concrete-negative","Concrete","VC","B","concrete",1,1738005267488,"concrete",1626.83333333333,1117,"concrete","B","",7.0184017990692,7.39439066394691,162
"403","63b9d3abc3ddc61c8c08fd84","flowers","test_conc","concrete-positive","Concrete","VC","B","concrete",1,1738005268912,"concrete",1448,653,"concrete","B","",6.48157712927643,7.27793857294566,163
"404","63b9d3abc3ddc61c8c08fd84","vomit","test_conc","concrete-negative","Concrete","VC","B","concrete",1,1738005270535,"concrete",1555,852,"concrete","B","",6.74758652682932,7.34923082461333,164
"405","63b9d3abc3ddc61c8c08fd84","garbage","test_conc","concrete-negative","Concrete","VC","B","concrete",1,1738005271918,"concrete",1414,629,"concrete","B","",6.44413125670044,7.25417784645652,165
"406","63b9d3abc3ddc61c8c08fd84","chocolate","test_conc","concrete-positive","Concrete","VC","B","concrete",1,1738005273223,"concrete",1434.33333333333,532,"concrete","B","",6.27664348934164,7.26845544417049,166
"407","63b9d3abc3ddc61c8c08fd84","rot","test_conc","concrete-negative","Concrete","VC","B","concrete",1,1738005274668,"concrete",1534.83333333333,682,"concrete","B","",6.52502965784346,7.33617707649331,167
"408","63b9d3abc3ddc61c8c08fd84","regret","test_conc","abstract-negative","Concrete","VC","B","abstract",1,1738005276133,"abstract",1540.16666666667,695,"concrete","B","",6.54391184556479,7.33964591465999,168
"409","63b9d3abc3ddc61c8c08fd84","failure","test_conc","abstract-negative","Concrete","VC","B","abstract",1,1738005277403,"abstract",1718.16666666667,502,"concrete","B","",6.21860011969173,7.44901310986833,169
"410","63b9d3abc3ddc61c8c08fd84","hug","test_conc","concrete-positive","Concrete","VC","B","concrete",1,1738005279094,"concrete",1480.33333333333,926,"concrete","B","",6.83087423464618,7.30002256662399,170
"411","63b9d3abc3ddc61c8c08fd84","stench","test_conc","concrete-negative","Concrete","VC","B","abstract",0,1738005280507,"abstract",1661,643,"concrete","B","",6.46614472423762,7.41517510961329,171
"412","63b9d3abc3ddc61c8c08fd84","love","test_conc","abstract-positive","Concrete","VC","B","abstract",1,1738005281812,"abstract",1359.33333333333,537,"concrete","B","",6.28599809450886,7.21474966246629,172
"413","63b9d3abc3ddc61c8c08fd84","freedom","test_conc","abstract-positive","Concrete","VC","B","abstract",1,1738005283168,"abstract",1498.16666666667,594,"concrete","B","",6.38687931936265,7.31199741734534,173
"414","63b9d3abc3ddc61c8c08fd84","sunshine","test_conc","concrete-positive","Concrete","VC","B","concrete",1,1738005284673,"concrete",1510.83333333333,733,"concrete","B","",6.59714570188665,7.3204166539609,174
"415","63b9d3abc3ddc61c8c08fd84","lonliness","test_conc","abstract-negative","Concrete","VC","B","abstract",1,1738005286044,"abstract",1389.5,593,"concrete","B","",6.38519439899773,7.23669924918256,175
"416","63b9d3abc3ddc61c8c08fd84","home","test_conc","concrete-positive","Concrete","VC","B","concrete",1,1738005287492,"concrete",1427.33333333333,678,"concrete","B","",6.5191472879404,7.26356318048152,176
"417","63b9d3abc3ddc61c8c08fd84","rain","test_conc","concrete-positive","Concrete","VC","B","concrete",1,1738005289062,"concrete",1675.16666666667,792,"concrete","B","",6.67456139181443,7.42366794179669,177
"418","63b9d3abc3ddc61c8c08fd84","inspiration","test_conc","abstract-positive","Concrete","VC","B","abstract",1,1738005290371,"abstract",1492.83333333333,541,"concrete","B","",6.29341927884648,7.30843115924714,178
"419","63b9d3abc3ddc61c8c08fd84","mold","test_conc","concrete-negative","Concrete","VC","B","concrete",1,1738005291830,"concrete",1572,691,"concrete","B","",6.53813982376767,7.36010397298915,179
"420","63b9d3abc3ddc61c8c08fd84","happiness","test_conc","abstract-positive","Concrete","VC","B","abstract",1,1738005293232,"abstract",1363.16666666667,628,"concrete","B","",6.4425401664682,7.21756570350692,180
"421","63b9d3abc3ddc61c8c08fd84","shame","test_conc","abstract-negative","Concrete","VC","B","abstract",1,1738005294583,"abstract",1460.83333333333,580,"concrete","B","",6.36302810354046,7.28676232812728,181
"422","63b9d3abc3ddc61c8c08fd84","smoke","test_conc","concrete-negative","Concrete","VC","B","concrete",1,1738005296016,"concrete",1775.33333333333,654,"concrete","B","",6.4831073514572,7.48174347770577,182
"423","63b9d3abc3ddc61c8c08fd84","anxiety","test_conc","abstract-negative","Concrete","VC","B","abstract",1,1738005297382,"abstract",1454.66666666667,587,"concrete","B","",6.3750248198281,7.28253205828485,183
"424","63b9d3abc3ddc61c8c08fd84","gratitude","test_conc","abstract-positive","Concrete","VC","B","abstract",1,1738005298720,"abstract",1423.5,567,"concrete","B","",6.34035930372775,7.26087390671809,184
"425","63b9d3abc3ddc61c8c08fd84","beach","test_conc","concrete-positive","Concrete","VC","B","concrete",1,1738005300051,"concrete",1401.83333333333,560,"concrete","B","",6.32793678372919,7.24553618273438,185
"426","63b9d3abc3ddc61c8c08fd84","resentment","test_conc","abstract-negative","Concrete","VC","B","abstract",1,1738005301460,"abstract",1453.33333333333,633,"concrete","B","",6.45047042214418,7.28161504767497,186
"427","63b9d3abc3ddc61c8c08fd84","music","test_conc","concrete-positive","Concrete","VC","B","concrete",1,1738005302903,"concrete",1453.33333333333,680,"concrete","B","",6.52209279817015,7.28161504767497,187
"428","63b9d3abc3ddc61c8c08fd84","fireplace","test_conc","concrete-positive","Concrete","VC","B","concrete",1,1738005304294,"concrete",1533.16666666667,621,"concrete","B","",6.43133108193348,7.3350905922491,188
"429","63b9d3abc3ddc61c8c08fd84","guilt","test_conc","abstract-negative","Concrete","VC","B","abstract",1,1738005305990,"abstract",1515.83333333333,918,"concrete","B","",6.82219739062049,7.32372062172417,189
"430","63b9d3abc3ddc61c8c08fd84","mud","test_conc","concrete-negative","Concrete","VC","B","concrete",1,1738005307541,"concrete",1705.5,786,"concrete","B","",6.66695679242921,7.4416136018587,190
"431","63b9d3abc3ddc61c8c08fd84","despair","test_conc","abstract-negative","Concrete","VC","B","abstract",1,1738005308866,"abstract",1434.16666666667,568,"concrete","B","",6.34212141872115,7.26833923941758,191
"432","63b9d3abc3ddc61c8c08fd84","compassion","test_conc","abstract-positive","Concrete","VC","B","abstract",1,1738005310180,"abstract",1499.33333333333,541,"concrete","B","",6.29341927884648,7.31277584385115,192
"433","63b9d3abc3ddc61c8c08fd84","injury","test_conc","concrete-negative","Concrete","VC","B","abstract",0,1738005311424,"abstract",1424,478,"concrete","B","",6.16961073249146,7.26122509197192,193
"434","63b9d3abc3ddc61c8c08fd84","joy","test_conc","abstract-positive","Concrete","VC","B","concrete",0,1738005312763,"concrete",1599.33333333333,565,"concrete","B","",6.33682573114644,7.37734215473153,194
"435","63b9d3abc3ddc61c8c08fd84","kindness","test_conc","abstract-positive","Concrete","VC","B","abstract",1,1738005314104,"abstract",1529.33333333333,579,"concrete","B","",6.361302477573,7.33258718958115,195
"436","63b9d3abc3ddc61c8c08fd84","laughter","test_conc","concrete-positive","Concrete","VC","B","abstract",0,1738005315310,"abstract",1422.5,429,"concrete","B","",6.06145691892802,7.26017116600049,196
"437","63b9d3abc3ddc61c8c08fd84","envy","test_conc","abstract-negative","Concrete","VC","B","abstract",1,1738005316632,"abstract",1583.66666666667,551,"concrete","B","",6.31173480915291,7.36749811251881,197
"438","63b9d3abc3ddc61c8c08fd84","grief","test_conc","abstract-negative","Concrete","VC","B","abstract",1,1738005317909,"abstract",1455.66666666667,511,"concrete","B","",6.2363695902037,7.28321926481745,198
"439","63b9d3abc3ddc61c8c08fd84","hope","test_conc","abstract-positive","Concrete","VC","B","abstract",1,1738005319150,"abstract",1576,458,"concrete","B","",6.12686918411419,7.36264527041782,199
"440","63b9d3abc3ddc61c8c08fd84","peace","test_conc","abstract-positive","Concrete","VC","B","abstract",1,1738005320371,"abstract",1383.33333333333,463,"concrete","B","",6.13772705408623,7.23225132455663,200
"441","63b9d3abc3ddc61c8c08fd84","rust","test_conc","concrete-negative","Concrete","VC","B","concrete",1,1738005321848,"concrete",1627.5,708,"concrete","B","",6.56244409369372,7.39480037408272,201
"442","63b9d3abc3ddc61c8c08fd84","vomit","test_conc","concrete-negative","Concrete","VC","B","concrete",1,1738005323251,"concrete",1555,636,"concrete","B","",6.45519856334012,7.34923082461333,202
"443","63b9d3abc3ddc61c8c08fd84","laughter","test_conc","concrete-positive","Concrete","VC","B","abstract",0,1738005324616,"abstract",1422.5,602,"concrete","B","",6.40025744530882,7.26017116600049,203
"444","63b9d3abc3ddc61c8c08fd84","rot","test_conc","concrete-negative","Concrete","VC","B","concrete",1,1738005326153,"concrete",1534.83333333333,765,"concrete","B","",6.63987583382654,7.33617707649331,204
"445","63b9d3abc3ddc61c8c08fd84","chocolate","test_conc","concrete-positive","Concrete","VC","B","concrete",1,1738005327446,"concrete",1434.33333333333,521,"concrete","B","",6.25575004175337,7.26845544417049,205
"446","63b9d3abc3ddc61c8c08fd84","failure","test_conc","abstract-negative","Concrete","VC","B","abstract",1,1738005328874,"abstract",1718.16666666667,653,"concrete","B","",6.48157712927643,7.44901310986833,206
"447","63b9d3abc3ddc61c8c08fd84","despair","test_conc","abstract-negative","Concrete","VC","B","abstract",1,1738005330106,"abstract",1434.16666666667,466,"concrete","B","",6.14418563412565,7.26833923941758,207
"448","63b9d3abc3ddc61c8c08fd84","home","test_conc","concrete-positive","Concrete","VC","B","abstract",0,1738005331317,"abstract",1427.33333333333,437,"concrete","B","",6.07993319509559,7.26356318048152,208
"449","63b9d3abc3ddc61c8c08fd84","peace","test_conc","abstract-positive","Concrete","VC","B","abstract",1,1738005332603,"abstract",1383.33333333333,521,"concrete","B","",6.25575004175337,7.23225132455663,209
"450","63b9d3abc3ddc61c8c08fd84","injury","test_conc","concrete-negative","Concrete","VC","B","abstract",0,1738005333966,"abstract",1424,594,"concrete","B","",6.38687931936265,7.26122509197192,210
"451","63b9d3abc3ddc61c8c08fd84","compassion","test_conc","abstract-positive","Concrete","VC","B","abstract",1,1738005335309,"abstract",1499.33333333333,565,"concrete","B","",6.33682573114644,7.31277584385115,211
"452","63b9d3abc3ddc61c8c08fd84","sunshine","test_conc","concrete-positive","Concrete","VC","B","concrete",1,1738005336932,"concrete",1510.83333333333,862,"concrete","B","",6.75925527066369,7.3204166539609,212
"453","63b9d3abc3ddc61c8c08fd84","happiness","test_conc","abstract-positive","Concrete","VC","B","abstract",1,1738005338319,"abstract",1363.16666666667,611,"concrete","B","",6.4150969591716,7.21756570350692,213
"454","63b9d3abc3ddc61c8c08fd84","filth","test_conc","concrete-negative","Concrete","VC","B","concrete",1,1738005339747,"concrete",1626.83333333333,650,"concrete","B","",6.47697236288968,7.39439066394691,214
"455","63b9d3abc3ddc61c8c08fd84","guilt","test_conc","abstract-negative","Concrete","VC","B","concrete",0,1738005340983,"concrete",1515.83333333333,473,"concrete","B","",6.15909538849193,7.32372062172417,215
"456","63b9d3abc3ddc61c8c08fd84","rain","test_conc","concrete-positive","Concrete","VC","B","concrete",1,1738005342304,"concrete",1675.16666666667,548,"concrete","B","",6.30627528694802,7.42366794179669,216
"457","63b9d3abc3ddc61c8c08fd84","music","test_conc","concrete-positive","Concrete","VC","B","concrete",1,1738005343555,"concrete",1453.33333333333,487,"concrete","B","",6.18826412308259,7.28161504767497,217
"458","63b9d3abc3ddc61c8c08fd84","hug","test_conc","concrete-positive","Concrete","VC","B","abstract",0,1738005344963,"abstract",1480.33333333333,630,"concrete","B","",6.44571981938558,7.30002256662399,218
"459","63b9d3abc3ddc61c8c08fd84","love","test_conc","abstract-positive","Concrete","VC","B","abstract",1,1738005346276,"abstract",1359.33333333333,538,"concrete","B","",6.28785856016178,7.21474966246629,219
"460","63b9d3abc3ddc61c8c08fd84","joy","test_conc","abstract-positive","Concrete","VC","B","abstract",1,1738005348746,"abstract",1599.33333333333,1706,"concrete","B","",7.44190672805162,7.37734215473153,220
"461","63b9d3abc3ddc61c8c08fd84","smoke","test_conc","concrete-negative","Concrete","VC","B","concrete",1,1738005350195,"concrete",1775.33333333333,672,"concrete","B","",6.51025834052315,7.48174347770577,221
"462","63b9d3abc3ddc61c8c08fd84","beach","test_conc","concrete-positive","Concrete","VC","B","concrete",1,1738005351536,"concrete",1401.83333333333,564,"concrete","B","",6.33505425149806,7.24553618273438,222
"463","63b9d3abc3ddc61c8c08fd84","gratitude","test_conc","abstract-positive","Concrete","VC","B","abstract",1,1738005352938,"abstract",1423.5,630,"concrete","B","",6.44571981938558,7.26087390671809,223
"464","63b9d3abc3ddc61c8c08fd84","grief","test_conc","abstract-negative","Concrete","VC","B","abstract",1,1738005354245,"abstract",1455.66666666667,536,"concrete","B","",6.2841341610708,7.28321926481745,224
"465","63b9d3abc3ddc61c8c08fd84","mud","test_conc","concrete-negative","Concrete","VC","B","concrete",1,1738005355653,"concrete",1705.5,639,"concrete","B","",6.45990445437753,7.4416136018587,225
"466","63b9d3abc3ddc61c8c08fd84","garbage","test_conc","concrete-negative","Concrete","VC","B","concrete",1,1738005357042,"concrete",1414,630,"concrete","B","",6.44571981938558,7.25417784645652,226
"467","63b9d3abc3ddc61c8c08fd84","hope","test_conc","abstract-positive","Concrete","VC","B","abstract",1,1738005358453,"abstract",1576,637,"concrete","B","",6.45676965557216,7.36264527041782,227
"468","63b9d3abc3ddc61c8c08fd84","freedom","test_conc","abstract-positive","Concrete","VC","B","abstract",1,1738005359789,"abstract",1498.16666666667,561,"concrete","B","",6.3297209055227,7.31199741734534,228
"469","63b9d3abc3ddc61c8c08fd84","envy","test_conc","abstract-negative","Concrete","VC","B","abstract",1,1738005361063,"abstract",1583.66666666667,504,"concrete","B","",6.22257626807137,7.36749811251881,229
"470","63b9d3abc3ddc61c8c08fd84","shame","test_conc","abstract-negative","Concrete","VC","B","abstract",1,1738005362382,"abstract",1460.83333333333,546,"concrete","B","",6.30261897574491,7.28676232812728,230
"471","63b9d3abc3ddc61c8c08fd84","lonliness","test_conc","abstract-negative","Concrete","VC","B","abstract",1,1738005363755,"abstract",1389.5,591,"concrete","B","",6.3818160174061,7.23669924918256,231
"472","63b9d3abc3ddc61c8c08fd84","resentment","test_conc","abstract-negative","Concrete","VC","B","abstract",1,1738005365179,"abstract",1453.33333333333,664,"concrete","B","",6.49828214947643,7.28161504767497,232
"473","63b9d3abc3ddc61c8c08fd84","stench","test_conc","concrete-negative","Concrete","VC","B","abstract",0,1738005367496,"abstract",1661,1535,"concrete","B","",7.3362856600213,7.41517510961329,233
"474","63b9d3abc3ddc61c8c08fd84","inspiration","test_conc","abstract-positive","Concrete","VC","B","abstract",1,1738005368821,"abstract",1492.83333333333,565,"concrete","B","",6.33682573114644,7.30843115924714,234
"475","63b9d3abc3ddc61c8c08fd84","mold","test_conc","concrete-negative","Concrete","VC","B","concrete",1,1738005370149,"concrete",1572,550,"concrete","B","",6.30991827822652,7.36010397298915,235
"476","63b9d3abc3ddc61c8c08fd84","kindness","test_conc","abstract-positive","Concrete","VC","B","abstract",1,1738005371417,"abstract",1529.33333333333,505,"concrete","B","",6.22455842927536,7.33258718958115,236
"477","63b9d3abc3ddc61c8c08fd84","regret","test_conc","abstract-negative","Concrete","VC","B","abstract",1,1738005372782,"abstract",1540.16666666667,602,"concrete","B","",6.40025744530882,7.33964591465999,237
"478","63b9d3abc3ddc61c8c08fd84","flowers","test_conc","concrete-positive","Concrete","VC","B","concrete",1,1738005374138,"concrete",1448,600,"concrete","B","",6.39692965521615,7.27793857294566,238
"479","63b9d3abc3ddc61c8c08fd84","fireplace","test_conc","concrete-positive","Concrete","VC","B","concrete",1,1738005375477,"concrete",1533.16666666667,579,"concrete","B","",6.361302477573,7.3350905922491,239
"480","63b9d3abc3ddc61c8c08fd84","anxiety","test_conc","abstract-negative","Concrete","VC","B","abstract",1,1738005376879,"abstract",1454.66666666667,632,"concrete","B","",6.44888939414686,7.28253205828485,240
"481","60c382725a7a55abef2e8e99","freedom","test_val","abstract-positive","Valence","VC","A","positive",1,1737993435128,"positive",1493.5,770,"negative","A","",6.64639051484773,7.30887763765616,1
"482","60c382725a7a55abef2e8e99","stench","test_val","concrete-negative","Valence","VC","A","negative",1,1737993436549,"negative",1464.83333333333,662,"negative","A","",6.49526555593701,7.28949674933659,2
"483","60c382725a7a55abef2e8e99","lonliness","test_val","abstract-negative","Valence","VC","A","negative",1,1737993438114,"negative",1535,807,"negative","A","",6.69332366826995,7.3362856600213,3
"484","60c382725a7a55abef2e8e99","home","test_val","concrete-positive","Valence","VC","A","positive",1,1737993439748,"positive",1479,877,"negative","A","",6.77650699237218,7.2991214627108,4
"485","60c382725a7a55abef2e8e99","kindness","test_val","abstract-positive","Valence","VC","A","positive",1,1737993441171,"positive",1496.16666666667,662,"negative","A","",6.49526555593701,7.31066156052863,5
"486","60c382725a7a55abef2e8e99","rust","test_val","concrete-negative","Valence","VC","A","negative",1,1737993442579,"negative",1441.83333333333,644,"negative","A","",6.46769872610435,7.27367073095232,6
"487","60c382725a7a55abef2e8e99","sunshine","test_val","concrete-positive","Valence","VC","A","positive",1,1737993443894,"positive",1350,557,"negative","A","",6.32256523992728,7.20785987143248,7
"488","60c382725a7a55abef2e8e99","garbage","test_val","concrete-negative","Valence","VC","A","negative",1,1737993445303,"negative",1364.91666666667,647,"negative","A","",6.4723462945009,7.21884865569438,8
