#
# Results on Wed, 05 Feb 2025 15:47:00 GMT
# USER AGENT: Mozilla/5.0 (Windows NT 10.0; Win64; x64) AppleWebKit/537.36 (KHTML, like Gecko) Chrome/132.0.0.0 Safari/537.36
# Design number was non-random = 0
#
# Columns below this comment are as follows:
# 1. Results reception time.
# 2. MD5 hash of participant's IP address.
# 3. Controller name.
# 4. Order number of item.
# 5. Inner element number.
# 6. Label.
# 7. Latin Square Group.
# 8. PennElementType.
# 9. PennElementName.
# 10. Parameter.
# 11. Value.
# 12. EventTime.
# 13. Comments.
1738770420,8d840ac313f2fe69b1376d6cbce2066d,PennController,1,0,welcome,NULL,PennController,0,_Trial_,Start,1738768860997,NULL
1738770420,8d840ac313f2fe69b1376d6cbce2066d,PennController,1,0,welcome,NULL,PennController,0,_Header_,Start,1738768860998,NULL
1738770420,8d840ac313f2fe69b1376d6cbce2066d,PennController,1,0,welcome,NULL,PennController,0,_Header_,End,1738768861250,NULL
1738770420,8d840ac313f2fe69b1376d6cbce2066d,PennController,1,0,welcome,NULL,PennController,0,_Trial_,End,1738769220756,NULL
# 13. ID.
# 14. Comments.
1738770420,8d840ac313f2fe69b1376d6cbce2066d,PennController,124,0,consent,NULL,PennController,2,_Trial_,Start,1738769220758,606b3da5eb533db26ffbfa36,NULL
1738770420,8d840ac313f2fe69b1376d6cbce2066d,PennController,124,0,consent,NULL,PennController,2,_Header_,Start,1738769220758,606b3da5eb533db26ffbfa36,NULL
1738770420,8d840ac313f2fe69b1376d6cbce2066d,PennController,124,0,consent,NULL,PennController,2,_Header_,End,1738769221008,606b3da5eb533db26ffbfa36,NULL
1738770420,8d840ac313f2fe69b1376d6cbce2066d,PennController,124,0,consent,NULL,TextInput,ID,Final,606b3da5eb533db26ffbfa36,1738769226368,606b3da5eb533db26ffbfa36,NULL
1738770420,8d840ac313f2fe69b1376d6cbce2066d,PennController,124,0,consent,NULL,PennController,2,_Trial_,End,1738769226368,606b3da5eb533db26ffbfa36,NULL
# 13. Comments.
1738770420,8d840ac313f2fe69b1376d6cbce2066d,PennController,126,0,instructions1_val,NULL,PennController,4,_Trial_,Start,1738769226369,NULL
1738770420,8d840ac313f2fe69b1376d6cbce2066d,PennController,126,0,instructions1_val,NULL,PennController,4,_Header_,Start,1738769226369,NULL
1738770420,8d840ac313f2fe69b1376d6cbce2066d,PennController,126,0,instructions1_val,NULL,PennController,4,_Header_,End,1738769226621,NULL
1738770420,8d840ac313f2fe69b1376d6cbce2066d,PennController,126,0,instructions1_val,NULL,PennController,4,_Trial_,End,1738769388609,NULL
1738770420,8d840ac313f2fe69b1376d6cbce2066d,PennController,127,0,instructions2_val,NULL,PennController,5,_Trial_,Start,1738769388610,NULL
1738770420,8d840ac313f2fe69b1376d6cbce2066d,PennController,127,0,instructions2_val,NULL,PennController,5,_Header_,Start,1738769388610,NULL
1738770420,8d840ac313f2fe69b1376d6cbce2066d,PennController,127,0,instructions2_val,NULL,PennController,5,_Header_,End,1738769388864,NULL
1738770420,8d840ac313f2fe69b1376d6cbce2066d,PennController,127,0,instructions2_val,NULL,PennController,5,_Trial_,End,1738769397877,NULL
1738770420,8d840ac313f2fe69b1376d6cbce2066d,PennController,128,0,instructions3_hands,NULL,PennController,6,_Trial_,Start,1738769397879,NULL
1738770420,8d840ac313f2fe69b1376d6cbce2066d,PennController,128,0,instructions3_hands,NULL,PennController,6,_Header_,Start,1738769397879,NULL
1738770420,8d840ac313f2fe69b1376d6cbce2066d,PennController,128,0,instructions3_hands,NULL,PennController,6,_Header_,End,1738769398131,NULL
1738770420,8d840ac313f2fe69b1376d6cbce2066d,PennController,128,0,instructions3_hands,NULL,PennController,6,_Trial_,End,1738769401284,NULL
1738770420,8d840ac313f2fe69b1376d6cbce2066d,PennController,129,0,practice_intro_val,NULL,PennController,7,_Trial_,Start,1738769401285,NULL
1738770420,8d840ac313f2fe69b1376d6cbce2066d,PennController,129,0,practice_intro_val,NULL,PennController,7,_Header_,Start,1738769401285,NULL
1738770420,8d840ac313f2fe69b1376d6cbce2066d,PennController,129,0,practice_intro_val,NULL,PennController,7,_Header_,End,1738769401540,NULL
1738770420,8d840ac313f2fe69b1376d6cbce2066d,PennController,129,0,practice_intro_val,NULL,PennController,7,_Trial_,End,1738769403466,NULL
# 13. ID.
# 14. ReactionTime.
# 15. Word.
# 16. selectedKey.
# 17. selectedValue.
# 18. Key_value_F.
# 19. Key_value_J.
# 20. Group.
# 21. Comments.
1738770420,8d840ac313f2fe69b1376d6cbce2066d,PennController,109,0,calibrator_val_feedback,NULL,PennController,120,_Trial_,Start,1738769403467,undefined,3312,insecure,undefined,negative,positive,negative,A,NULL
1738770420,8d840ac313f2fe69b1376d6cbce2066d,PennController,109,0,calibrator_val_feedback,NULL,PennController,120,_Header_,Start,1738769403467,undefined,3312,insecure,undefined,negative,positive,negative,A,NULL
1738770420,8d840ac313f2fe69b1376d6cbce2066d,PennController,109,0,calibrator_val_feedback,NULL,PennController,120,_Header_,End,1738769403721,undefined,3312,insecure,undefined,negative,positive,negative,A,NULL
1738770420,8d840ac313f2fe69b1376d6cbce2066d,PennController,109,0,calibrator_val_feedback,NULL,Selector,Selection,Selection,negative,1738769407533,undefined,3312,insecure,undefined,negative,positive,negative,A,positive;negative
1738770420,8d840ac313f2fe69b1376d6cbce2066d,PennController,109,0,calibrator_val_feedback,NULL,PennController,120,_Trial_,End,1738769409538,undefined,3312,insecure,undefined,negative,positive,negative,A,NULL
1738770420,8d840ac313f2fe69b1376d6cbce2066d,PennController,105,0,calibrator_val_feedback,NULL,PennController,116,_Trial_,Start,1738769409539,undefined,1569,grin,undefined,negative,positive,negative,A,NULL
1738770420,8d840ac313f2fe69b1376d6cbce2066d,PennController,105,0,calibrator_val_feedback,NULL,PennController,116,_Header_,Start,1738769409539,undefined,1569,grin,undefined,negative,positive,negative,A,NULL
1738770420,8d840ac313f2fe69b1376d6cbce2066d,PennController,105,0,calibrator_val_feedback,NULL,PennController,116,_Header_,End,1738769409792,undefined,1569,grin,undefined,negative,positive,negative,A,NULL
1738770420,8d840ac313f2fe69b1376d6cbce2066d,PennController,105,0,calibrator_val_feedback,NULL,Selector,Selection,Selection,positive,1738769411862,undefined,1569,grin,undefined,negative,positive,negative,A,positive;negative
1738770420,8d840ac313f2fe69b1376d6cbce2066d,PennController,105,0,calibrator_val_feedback,NULL,PennController,116,_Trial_,End,1738769413865,undefined,1569,grin,undefined,negative,positive,negative,A,NULL
1738770420,8d840ac313f2fe69b1376d6cbce2066d,PennController,112,0,calibrator_val_feedback,NULL,PennController,123,_Trial_,Start,1738769413866,undefined,1788,joke,undefined,negative,positive,negative,A,NULL
1738770420,8d840ac313f2fe69b1376d6cbce2066d,PennController,112,0,calibrator_val_feedback,NULL,PennController,123,_Header_,Start,1738769413866,undefined,1788,joke,undefined,negative,positive,negative,A,NULL
1738770420,8d840ac313f2fe69b1376d6cbce2066d,PennController,112,0,calibrator_val_feedback,NULL,PennController,123,_Header_,End,1738769414120,undefined,1788,joke,undefined,negative,positive,negative,A,NULL
1738770420,8d840ac313f2fe69b1376d6cbce2066d,PennController,112,0,calibrator_val_feedback,NULL,Selector,Selection,Selection,positive,1738769416414,undefined,1788,joke,undefined,negative,positive,negative,A,positive;negative
1738770420,8d840ac313f2fe69b1376d6cbce2066d,PennController,112,0,calibrator_val_feedback,NULL,PennController,123,_Trial_,End,1738769418418,undefined,1788,joke,undefined,negative,positive,negative,A,NULL
1738770420,8d840ac313f2fe69b1376d6cbce2066d,PennController,108,0,calibrator_val_feedback,NULL,PennController,119,_Trial_,Start,1738769418420,undefined,2487,industry,undefined,negative,positive,negative,A,NULL
1738770420,8d840ac313f2fe69b1376d6cbce2066d,PennController,108,0,calibrator_val_feedback,NULL,PennController,119,_Header_,Start,1738769418420,undefined,2487,industry,undefined,negative,positive,negative,A,NULL
1738770420,8d840ac313f2fe69b1376d6cbce2066d,PennController,108,0,calibrator_val_feedback,NULL,PennController,119,_Header_,End,1738769418670,undefined,2487,industry,undefined,negative,positive,negative,A,NULL
1738770420,8d840ac313f2fe69b1376d6cbce2066d,PennController,108,0,calibrator_val_feedback,NULL,Selector,Selection,Selection,positive,1738769421663,undefined,2487,industry,undefined,negative,positive,negative,A,positive;negative
1738770420,8d840ac313f2fe69b1376d6cbce2066d,PennController,108,0,calibrator_val_feedback,NULL,PennController,119,_Trial_,End,1738769423666,undefined,2487,industry,undefined,negative,positive,negative,A,NULL
1738770420,8d840ac313f2fe69b1376d6cbce2066d,PennController,104,0,calibrator_val_feedback,NULL,PennController,115,_Trial_,Start,1738769423667,undefined,681,free,undefined,negative,positive,negative,A,NULL
1738770420,8d840ac313f2fe69b1376d6cbce2066d,PennController,104,0,calibrator_val_feedback,NULL,PennController,115,_Header_,Start,1738769423667,undefined,681,free,undefined,negative,positive,negative,A,NULL
1738770420,8d840ac313f2fe69b1376d6cbce2066d,PennController,104,0,calibrator_val_feedback,NULL,PennController,115,_Header_,End,1738769423919,undefined,681,free,undefined,negative,positive,negative,A,NULL
1738770420,8d840ac313f2fe69b1376d6cbce2066d,PennController,104,0,calibrator_val_feedback,NULL,Selector,Selection,Selection,positive,1738769425106,undefined,681,free,undefined,negative,positive,negative,A,positive;negative
1738770420,8d840ac313f2fe69b1376d6cbce2066d,PennController,104,0,calibrator_val_feedback,NULL,PennController,115,_Trial_,End,1738769427110,undefined,681,free,undefined,negative,positive,negative,A,NULL
1738770420,8d840ac313f2fe69b1376d6cbce2066d,PennController,106,0,calibrator_val_feedback,NULL,PennController,117,_Trial_,Start,1738769427112,undefined,999,hat,undefined,negative,positive,negative,A,NULL
1738770420,8d840ac313f2fe69b1376d6cbce2066d,PennController,106,0,calibrator_val_feedback,NULL,PennController,117,_Header_,Start,1738769427112,undefined,999,hat,undefined,negative,positive,negative,A,NULL
1738770420,8d840ac313f2fe69b1376d6cbce2066d,PennController,106,0,calibrator_val_feedback,NULL,PennController,117,_Header_,End,1738769427364,undefined,999,hat,undefined,negative,positive,negative,A,NULL
1738770420,8d840ac313f2fe69b1376d6cbce2066d,PennController,106,0,calibrator_val_feedback,NULL,Selector,Selection,Selection,positive,1738769428867,undefined,999,hat,undefined,negative,positive,negative,A,positive;negative
1738770420,8d840ac313f2fe69b1376d6cbce2066d,PennController,106,0,calibrator_val_feedback,NULL,PennController,117,_Trial_,End,1738769430870,undefined,999,hat,undefined,negative,positive,negative,A,NULL
1738770420,8d840ac313f2fe69b1376d6cbce2066d,PennController,113,0,calibrator_val_feedback,NULL,PennController,124,_Trial_,Start,1738769430871,undefined,1180,kitten,undefined,negative,positive,negative,A,NULL
1738770420,8d840ac313f2fe69b1376d6cbce2066d,PennController,113,0,calibrator_val_feedback,NULL,PennController,124,_Header_,Start,1738769430871,undefined,1180,kitten,undefined,negative,positive,negative,A,NULL
1738770420,8d840ac313f2fe69b1376d6cbce2066d,PennController,113,0,calibrator_val_feedback,NULL,PennController,124,_Header_,End,1738769431125,undefined,1180,kitten,undefined,negative,positive,negative,A,NULL
1738770420,8d840ac313f2fe69b1376d6cbce2066d,PennController,113,0,calibrator_val_feedback,NULL,Selector,Selection,Selection,positive,1738769432809,undefined,1180,kitten,undefined,negative,positive,negative,A,positive;negative
1738770420,8d840ac313f2fe69b1376d6cbce2066d,PennController,113,0,calibrator_val_feedback,NULL,PennController,124,_Trial_,End,1738769434816,undefined,1180,kitten,undefined,negative,positive,negative,A,NULL
1738770420,8d840ac313f2fe69b1376d6cbce2066d,PennController,107,0,calibrator_val_feedback,NULL,PennController,118,_Trial_,Start,1738769434817,undefined,1595,icebox,undefined,negative,positive,negative,A,NULL
1738770420,8d840ac313f2fe69b1376d6cbce2066d,PennController,107,0,calibrator_val_feedback,NULL,PennController,118,_Header_,Start,1738769434817,undefined,1595,icebox,undefined,negative,positive,negative,A,NULL
1738770420,8d840ac313f2fe69b1376d6cbce2066d,PennController,107,0,calibrator_val_feedback,NULL,PennController,118,_Header_,End,1738769435070,undefined,1595,icebox,undefined,negative,positive,negative,A,NULL
1738770420,8d840ac313f2fe69b1376d6cbce2066d,PennController,107,0,calibrator_val_feedback,NULL,Selector,Selection,Selection,positive,1738769437169,undefined,1595,icebox,undefined,negative,positive,negative,A,positive;negative
1738770420,8d840ac313f2fe69b1376d6cbce2066d,PennController,107,0,calibrator_val_feedback,NULL,PennController,118,_Trial_,End,1738769439172,undefined,1595,icebox,undefined,negative,positive,negative,A,NULL
1738770420,8d840ac313f2fe69b1376d6cbce2066d,PennController,110,0,calibrator_val_feedback,NULL,PennController,121,_Trial_,Start,1738769439173,undefined,1233,invader,undefined,negative,positive,negative,A,NULL
1738770420,8d840ac313f2fe69b1376d6cbce2066d,PennController,110,0,calibrator_val_feedback,NULL,PennController,121,_Header_,Start,1738769439173,undefined,1233,invader,undefined,negative,positive,negative,A,NULL
1738770420,8d840ac313f2fe69b1376d6cbce2066d,PennController,110,0,calibrator_val_feedback,NULL,PennController,121,_Header_,End,1738769439426,undefined,1233,invader,undefined,negative,positive,negative,A,NULL
1738770420,8d840ac313f2fe69b1376d6cbce2066d,PennController,110,0,calibrator_val_feedback,NULL,Selector,Selection,Selection,negative,1738769441162,undefined,1233,invader,undefined,negative,positive,negative,A,positive;negative
1738770420,8d840ac313f2fe69b1376d6cbce2066d,PennController,110,0,calibrator_val_feedback,NULL,PennController,121,_Trial_,End,1738769443165,undefined,1233,invader,undefined,negative,positive,negative,A,NULL
1738770420,8d840ac313f2fe69b1376d6cbce2066d,PennController,111,0,calibrator_val_feedback,NULL,PennController,122,_Trial_,Start,1738769443166,undefined,1087,jail,undefined,negative,positive,negative,A,NULL
1738770420,8d840ac313f2fe69b1376d6cbce2066d,PennController,111,0,calibrator_val_feedback,NULL,PennController,122,_Header_,Start,1738769443166,undefined,1087,jail,undefined,negative,positive,negative,A,NULL
1738770420,8d840ac313f2fe69b1376d6cbce2066d,PennController,111,0,calibrator_val_feedback,NULL,PennController,122,_Header_,End,1738769443416,undefined,1087,jail,undefined,negative,positive,negative,A,NULL
1738770420,8d840ac313f2fe69b1376d6cbce2066d,PennController,111,0,calibrator_val_feedback,NULL,Selector,Selection,Selection,negative,1738769445006,undefined,1087,jail,undefined,negative,positive,negative,A,positive;negative
1738770420,8d840ac313f2fe69b1376d6cbce2066d,PennController,111,0,calibrator_val_feedback,NULL,PennController,122,_Trial_,End,1738769447015,undefined,1087,jail,undefined,negative,positive,negative,A,NULL
# 16. Key_value_F.
# 17. Key_value_J.
# 18. Group.
# 19. Comments.
1738770420,8d840ac313f2fe69b1376d6cbce2066d,PennController,123,0,calibrator_val_no_feedback,NULL,PennController,134,_Trial_,Start,1738769447016,undefined,881,kitten,positive,negative,A,NULL
1738770420,8d840ac313f2fe69b1376d6cbce2066d,PennController,123,0,calibrator_val_no_feedback,NULL,PennController,134,_Header_,Start,1738769447016,undefined,881,kitten,positive,negative,A,NULL
1738770420,8d840ac313f2fe69b1376d6cbce2066d,PennController,123,0,calibrator_val_no_feedback,NULL,PennController,134,_Header_,End,1738769447268,undefined,881,kitten,positive,negative,A,NULL
1738770420,8d840ac313f2fe69b1376d6cbce2066d,PennController,123,0,calibrator_val_no_feedback,NULL,Selector,unnamed-Selector,Selection,positive,1738769448652,undefined,881,kitten,positive,negative,A,positive;negative
1738770420,8d840ac313f2fe69b1376d6cbce2066d,PennController,123,0,calibrator_val_no_feedback,NULL,PennController,134,_Trial_,End,1738769448653,undefined,881,kitten,positive,negative,A,NULL
1738770420,8d840ac313f2fe69b1376d6cbce2066d,PennController,115,0,calibrator_val_no_feedback,NULL,PennController,126,_Trial_,Start,1738769448654,undefined,1023,grin,positive,negative,A,NULL
1738770420,8d840ac313f2fe69b1376d6cbce2066d,PennController,115,0,calibrator_val_no_feedback,NULL,PennController,126,_Header_,Start,1738769448654,undefined,1023,grin,positive,negative,A,NULL
1738770420,8d840ac313f2fe69b1376d6cbce2066d,PennController,115,0,calibrator_val_no_feedback,NULL,PennController,126,_Header_,End,1738769448905,undefined,1023,grin,positive,negative,A,NULL
1738770420,8d840ac313f2fe69b1376d6cbce2066d,PennController,115,0,calibrator_val_no_feedback,NULL,Selector,unnamed-Selector,Selection,positive,1738769450431,undefined,1023,grin,positive,negative,A,positive;negative
1738770420,8d840ac313f2fe69b1376d6cbce2066d,PennController,115,0,calibrator_val_no_feedback,NULL,PennController,126,_Trial_,End,1738769450432,undefined,1023,grin,positive,negative,A,NULL
1738770420,8d840ac313f2fe69b1376d6cbce2066d,PennController,116,0,calibrator_val_no_feedback,NULL,PennController,127,_Trial_,Start,1738769450433,undefined,1052,hat,positive,negative,A,NULL
1738770420,8d840ac313f2fe69b1376d6cbce2066d,PennController,116,0,calibrator_val_no_feedback,NULL,PennController,127,_Header_,Start,1738769450433,undefined,1052,hat,positive,negative,A,NULL
1738770420,8d840ac313f2fe69b1376d6cbce2066d,PennController,116,0,calibrator_val_no_feedback,NULL,PennController,127,_Header_,End,1738769450684,undefined,1052,hat,positive,negative,A,NULL
1738770420,8d840ac313f2fe69b1376d6cbce2066d,PennController,116,0,calibrator_val_no_feedback,NULL,Selector,unnamed-Selector,Selection,positive,1738769452242,undefined,1052,hat,positive,negative,A,positive;negative
1738770420,8d840ac313f2fe69b1376d6cbce2066d,PennController,116,0,calibrator_val_no_feedback,NULL,PennController,127,_Trial_,End,1738769452243,undefined,1052,hat,positive,negative,A,NULL
1738770420,8d840ac313f2fe69b1376d6cbce2066d,PennController,117,0,calibrator_val_no_feedback,NULL,PennController,128,_Trial_,Start,1738769452244,undefined,707,icebox,positive,negative,A,NULL
1738770420,8d840ac313f2fe69b1376d6cbce2066d,PennController,117,0,calibrator_val_no_feedback,NULL,PennController,128,_Header_,Start,1738769452244,undefined,707,icebox,positive,negative,A,NULL
1738770420,8d840ac313f2fe69b1376d6cbce2066d,PennController,117,0,calibrator_val_no_feedback,NULL,PennController,128,_Header_,End,1738769452497,undefined,707,icebox,positive,negative,A,NULL
1738770420,8d840ac313f2fe69b1376d6cbce2066d,PennController,117,0,calibrator_val_no_feedback,NULL,Selector,unnamed-Selector,Selection,positive,1738769453705,undefined,707,icebox,positive,negative,A,positive;negative
1738770420,8d840ac313f2fe69b1376d6cbce2066d,PennController,117,0,calibrator_val_no_feedback,NULL,PennController,128,_Trial_,End,1738769453706,undefined,707,icebox,positive,negative,A,NULL
1738770420,8d840ac313f2fe69b1376d6cbce2066d,PennController,121,0,calibrator_val_no_feedback,NULL,PennController,132,_Trial_,Start,1738769453707,undefined,612,jail,positive,negative,A,NULL
1738770420,8d840ac313f2fe69b1376d6cbce2066d,PennController,121,0,calibrator_val_no_feedback,NULL,PennController,132,_Header_,Start,1738769453707,undefined,612,jail,positive,negative,A,NULL
1738770420,8d840ac313f2fe69b1376d6cbce2066d,PennController,121,0,calibrator_val_no_feedback,NULL,PennController,132,_Header_,End,1738769453960,undefined,612,jail,positive,negative,A,NULL
1738770420,8d840ac313f2fe69b1376d6cbce2066d,PennController,121,0,calibrator_val_no_feedback,NULL,Selector,unnamed-Selector,Selection,negative,1738769455076,undefined,612,jail,positive,negative,A,positive;negative
1738770420,8d840ac313f2fe69b1376d6cbce2066d,PennController,121,0,calibrator_val_no_feedback,NULL,PennController,132,_Trial_,End,1738769455077,undefined,612,jail,positive,negative,A,NULL
1738770420,8d840ac313f2fe69b1376d6cbce2066d,PennController,114,0,calibrator_val_no_feedback,NULL,PennController,125,_Trial_,Start,1738769455077,undefined,628,free,positive,negative,A,NULL
1738770420,8d840ac313f2fe69b1376d6cbce2066d,PennController,114,0,calibrator_val_no_feedback,NULL,PennController,125,_Header_,Start,1738769455077,undefined,628,free,positive,negative,A,NULL
1738770420,8d840ac313f2fe69b1376d6cbce2066d,PennController,114,0,calibrator_val_no_feedback,NULL,PennController,125,_Header_,End,1738769455328,undefined,628,free,positive,negative,A,NULL
1738770420,8d840ac313f2fe69b1376d6cbce2066d,PennController,114,0,calibrator_val_no_feedback,NULL,Selector,unnamed-Selector,Selection,positive,1738769456459,undefined,628,free,positive,negative,A,positive;negative
1738770420,8d840ac313f2fe69b1376d6cbce2066d,PennController,114,0,calibrator_val_no_feedback,NULL,PennController,125,_Trial_,End,1738769456460,undefined,628,free,positive,negative,A,NULL
1738770420,8d840ac313f2fe69b1376d6cbce2066d,PennController,119,0,calibrator_val_no_feedback,NULL,PennController,130,_Trial_,Start,1738769456461,undefined,729,insecure,positive,negative,A,NULL
1738770420,8d840ac313f2fe69b1376d6cbce2066d,PennController,119,0,calibrator_val_no_feedback,NULL,PennController,130,_Header_,Start,1738769456461,undefined,729,insecure,positive,negative,A,NULL
1738770420,8d840ac313f2fe69b1376d6cbce2066d,PennController,119,0,calibrator_val_no_feedback,NULL,PennController,130,_Header_,End,1738769456714,undefined,729,insecure,positive,negative,A,NULL
1738770420,8d840ac313f2fe69b1376d6cbce2066d,PennController,119,0,calibrator_val_no_feedback,NULL,Selector,unnamed-Selector,Selection,negative,1738769457948,undefined,729,insecure,positive,negative,A,positive;negative
1738770420,8d840ac313f2fe69b1376d6cbce2066d,PennController,119,0,calibrator_val_no_feedback,NULL,PennController,130,_Trial_,End,1738769457949,undefined,729,insecure,positive,negative,A,NULL
1738770420,8d840ac313f2fe69b1376d6cbce2066d,PennController,118,0,calibrator_val_no_feedback,NULL,PennController,129,_Trial_,Start,1738769457950,undefined,789,industry,positive,negative,A,NULL
1738770420,8d840ac313f2fe69b1376d6cbce2066d,PennController,118,0,calibrator_val_no_feedback,NULL,PennController,129,_Header_,Start,1738769457950,undefined,789,industry,positive,negative,A,NULL
1738770420,8d840ac313f2fe69b1376d6cbce2066d,PennController,118,0,calibrator_val_no_feedback,NULL,PennController,129,_Header_,End,1738769458201,undefined,789,industry,positive,negative,A,NULL
1738770420,8d840ac313f2fe69b1376d6cbce2066d,PennController,118,0,calibrator_val_no_feedback,NULL,Selector,unnamed-Selector,Selection,positive,1738769459496,undefined,789,industry,positive,negative,A,positive;negative
1738770420,8d840ac313f2fe69b1376d6cbce2066d,PennController,118,0,calibrator_val_no_feedback,NULL,PennController,129,_Trial_,End,1738769459496,undefined,789,industry,positive,negative,A,NULL
1738770420,8d840ac313f2fe69b1376d6cbce2066d,PennController,122,0,calibrator_val_no_feedback,NULL,PennController,133,_Trial_,Start,1738769459497,undefined,493,joke,positive,negative,A,NULL
1738770420,8d840ac313f2fe69b1376d6cbce2066d,PennController,122,0,calibrator_val_no_feedback,NULL,PennController,133,_Header_,Start,1738769459497,undefined,493,joke,positive,negative,A,NULL
1738770420,8d840ac313f2fe69b1376d6cbce2066d,PennController,122,0,calibrator_val_no_feedback,NULL,PennController,133,_Header_,End,1738769459751,undefined,493,joke,positive,negative,A,NULL
1738770420,8d840ac313f2fe69b1376d6cbce2066d,PennController,122,0,calibrator_val_no_feedback,NULL,Selector,unnamed-Selector,Selection,positive,1738769460748,undefined,493,joke,positive,negative,A,positive;negative
1738770420,8d840ac313f2fe69b1376d6cbce2066d,PennController,122,0,calibrator_val_no_feedback,NULL,PennController,133,_Trial_,End,1738769460748,undefined,493,joke,positive,negative,A,NULL
1738770420,8d840ac313f2fe69b1376d6cbce2066d,PennController,120,0,calibrator_val_no_feedback,NULL,PennController,131,_Trial_,Start,1738769460749,undefined,617,invader,positive,negative,A,NULL
1738770420,8d840ac313f2fe69b1376d6cbce2066d,PennController,120,0,calibrator_val_no_feedback,NULL,PennController,131,_Header_,Start,1738769460749,undefined,617,invader,positive,negative,A,NULL
1738770420,8d840ac313f2fe69b1376d6cbce2066d,PennController,120,0,calibrator_val_no_feedback,NULL,PennController,131,_Header_,End,1738769461002,undefined,617,invader,positive,negative,A,NULL
1738770420,8d840ac313f2fe69b1376d6cbce2066d,PennController,120,0,calibrator_val_no_feedback,NULL,Selector,unnamed-Selector,Selection,negative,1738769462122,undefined,617,invader,positive,negative,A,positive;negative
1738770420,8d840ac313f2fe69b1376d6cbce2066d,PennController,120,0,calibrator_val_no_feedback,NULL,PennController,131,_Trial_,End,1738769462123,undefined,617,invader,positive,negative,A,NULL
# 13. Comments.
1738770420,8d840ac313f2fe69b1376d6cbce2066d,PennController,130,0,endinstructions_val,NULL,PennController,8,_Trial_,Start,1738769462123,NULL
1738770420,8d840ac313f2fe69b1376d6cbce2066d,PennController,130,0,endinstructions_val,NULL,PennController,8,_Header_,Start,1738769462124,NULL
1738770420,8d840ac313f2fe69b1376d6cbce2066d,PennController,130,0,endinstructions_val,NULL,PennController,8,_Header_,End,1738769462378,NULL
1738770420,8d840ac313f2fe69b1376d6cbce2066d,PennController,130,0,endinstructions_val,NULL,PennController,8,_Trial_,End,1738769463998,NULL
# 13. ID.
# 14. ReactionTime.
# 15. Word.
# 16. Key_value_F.
# 17. Key_value_J.
# 18. Group.
# 19. Comments.
1738770420,8d840ac313f2fe69b1376d6cbce2066d,PennController,69,0,test_val,NULL,PennController,80,_Trial_,Start,1738769463999,undefined,865,dictator,negative,positive,B,NULL
1738770420,8d840ac313f2fe69b1376d6cbce2066d,PennController,69,0,test_val,NULL,PennController,80,_Header_,Start,1738769463999,undefined,865,dictator,negative,positive,B,NULL
1738770420,8d840ac313f2fe69b1376d6cbce2066d,PennController,69,0,test_val,NULL,PennController,80,_Header_,End,1738769464249,undefined,865,dictator,negative,positive,B,NULL
1738770420,8d840ac313f2fe69b1376d6cbce2066d,PennController,69,0,test_val,NULL,Selector,unnamed-Selector,Selection,positive,1738769465618,undefined,865,dictator,negative,positive,B,negative;positive
1738770420,8d840ac313f2fe69b1376d6cbce2066d,PennController,69,0,test_val,NULL,PennController,80,_Trial_,End,1738769465619,undefined,865,dictator,negative,positive,B,NULL
1738770420,8d840ac313f2fe69b1376d6cbce2066d,PennController,49,0,test_val,NULL,PennController,60,_Trial_,Start,1738769465620,undefined,1788,poison,negative,positive,B,NULL
1738770420,8d840ac313f2fe69b1376d6cbce2066d,PennController,49,0,test_val,NULL,PennController,60,_Header_,Start,1738769465620,undefined,1788,poison,negative,positive,B,NULL
1738770420,8d840ac313f2fe69b1376d6cbce2066d,PennController,49,0,test_val,NULL,PennController,60,_Header_,End,1738769465873,undefined,1788,poison,negative,positive,B,NULL
1738770420,8d840ac313f2fe69b1376d6cbce2066d,PennController,49,0,test_val,NULL,Selector,unnamed-Selector,Selection,negative,1738769468167,undefined,1788,poison,negative,positive,B,negative;positive
1738770420,8d840ac313f2fe69b1376d6cbce2066d,PennController,49,0,test_val,NULL,PennController,60,_Trial_,End,1738769468169,undefined,1788,poison,negative,positive,B,NULL
1738770420,8d840ac313f2fe69b1376d6cbce2066d,PennController,48,0,test_val,NULL,PennController,59,_Trial_,Start,1738769468170,undefined,3405,excrement,negative,positive,B,NULL
1738770420,8d840ac313f2fe69b1376d6cbce2066d,PennController,48,0,test_val,NULL,PennController,59,_Header_,Start,1738769468170,undefined,3405,excrement,negative,positive,B,NULL
1738770420,8d840ac313f2fe69b1376d6cbce2066d,PennController,48,0,test_val,NULL,PennController,59,_Header_,End,1738769468422,undefined,3405,excrement,negative,positive,B,NULL
1738770420,8d840ac313f2fe69b1376d6cbce2066d,PennController,48,0,test_val,NULL,Selector,unnamed-Selector,Selection,negative,1738769472330,undefined,3405,excrement,negative,positive,B,negative;positive
1738770420,8d840ac313f2fe69b1376d6cbce2066d,PennController,48,0,test_val,NULL,PennController,59,_Trial_,End,1738769472331,undefined,3405,excrement,negative,positive,B,NULL
1738770420,8d840ac313f2fe69b1376d6cbce2066d,PennController,76,0,test_val,NULL,PennController,87,_Trial_,Start,1738769472332,undefined,910,sibling,negative,positive,B,NULL
1738770420,8d840ac313f2fe69b1376d6cbce2066d,PennController,76,0,test_val,NULL,PennController,87,_Header_,Start,1738769472332,undefined,910,sibling,negative,positive,B,NULL
1738770420,8d840ac313f2fe69b1376d6cbce2066d,PennController,76,0,test_val,NULL,PennController,87,_Header_,End,1738769472585,undefined,910,sibling,negative,positive,B,NULL
1738770420,8d840ac313f2fe69b1376d6cbce2066d,PennController,76,0,test_val,NULL,Selector,unnamed-Selector,Selection,positive,1738769474000,undefined,910,sibling,negative,positive,B,negative;positive
1738770420,8d840ac313f2fe69b1376d6cbce2066d,PennController,76,0,test_val,NULL,PennController,87,_Trial_,End,1738769474002,undefined,910,sibling,negative,positive,B,NULL
1738770420,8d840ac313f2fe69b1376d6cbce2066d,PennController,80,0,test_val,NULL,PennController,91,_Trial_,Start,1738769474004,undefined,1347,child,negative,positive,B,NULL
1738770420,8d840ac313f2fe69b1376d6cbce2066d,PennController,80,0,test_val,NULL,PennController,91,_Header_,Start,1738769474004,undefined,1347,child,negative,positive,B,NULL
1738770420,8d840ac313f2fe69b1376d6cbce2066d,PennController,80,0,test_val,NULL,PennController,91,_Header_,End,1738769474254,undefined,1347,child,negative,positive,B,NULL
1738770420,8d840ac313f2fe69b1376d6cbce2066d,PennController,80,0,test_val,NULL,Selector,unnamed-Selector,Selection,positive,1738769476105,undefined,1347,child,negative,positive,B,negative;positive
1738770420,8d840ac313f2fe69b1376d6cbce2066d,PennController,80,0,test_val,NULL,PennController,91,_Trial_,End,1738769476106,undefined,1347,child,negative,positive,B,NULL
1738770420,8d840ac313f2fe69b1376d6cbce2066d,PennController,47,0,test_val,NULL,PennController,58,_Trial_,Start,1738769476107,undefined,782,cocaine,negative,positive,B,NULL
1738770420,8d840ac313f2fe69b1376d6cbce2066d,PennController,47,0,test_val,NULL,PennController,58,_Header_,Start,1738769476107,undefined,782,cocaine,negative,positive,B,NULL
1738770420,8d840ac313f2fe69b1376d6cbce2066d,PennController,47,0,test_val,NULL,PennController,58,_Header_,End,1738769476362,undefined,782,cocaine,negative,positive,B,NULL
1738770420,8d840ac313f2fe69b1376d6cbce2066d,PennController,47,0,test_val,NULL,Selector,unnamed-Selector,Selection,negative,1738769477646,undefined,782,cocaine,negative,positive,B,negative;positive
1738770420,8d840ac313f2fe69b1376d6cbce2066d,PennController,47,0,test_val,NULL,PennController,58,_Trial_,End,1738769477647,undefined,782,cocaine,negative,positive,B,NULL
1738770420,8d840ac313f2fe69b1376d6cbce2066d,PennController,77,0,test_val,NULL,PennController,88,_Trial_,Start,1738769477648,undefined,1404,duckling,negative,positive,B,NULL
1738770420,8d840ac313f2fe69b1376d6cbce2066d,PennController,77,0,test_val,NULL,PennController,88,_Header_,Start,1738769477648,undefined,1404,duckling,negative,positive,B,NULL
1738770420,8d840ac313f2fe69b1376d6cbce2066d,PennController,77,0,test_val,NULL,PennController,88,_Header_,End,1738769477900,undefined,1404,duckling,negative,positive,B,NULL
1738770420,8d840ac313f2fe69b1376d6cbce2066d,PennController,77,0,test_val,NULL,Selector,unnamed-Selector,Selection,positive,1738769479807,undefined,1404,duckling,negative,positive,B,negative;positive
1738770420,8d840ac313f2fe69b1376d6cbce2066d,PennController,77,0,test_val,NULL,PennController,88,_Trial_,End,1738769479808,undefined,1404,duckling,negative,positive,B,NULL
1738770420,8d840ac313f2fe69b1376d6cbce2066d,PennController,81,0,test_val,NULL,PennController,92,_Trial_,Start,1738769479809,undefined,864,princess,negative,positive,B,NULL
1738770420,8d840ac313f2fe69b1376d6cbce2066d,PennController,81,0,test_val,NULL,PennController,92,_Header_,Start,1738769479809,undefined,864,princess,negative,positive,B,NULL
1738770420,8d840ac313f2fe69b1376d6cbce2066d,PennController,81,0,test_val,NULL,PennController,92,_Header_,End,1738769480059,undefined,864,princess,negative,positive,B,NULL
1738770420,8d840ac313f2fe69b1376d6cbce2066d,PennController,81,0,test_val,NULL,Selector,unnamed-Selector,Selection,positive,1738769481425,undefined,864,princess,negative,positive,B,negative;positive
1738770420,8d840ac313f2fe69b1376d6cbce2066d,PennController,81,0,test_val,NULL,PennController,92,_Trial_,End,1738769481426,undefined,864,princess,negative,positive,B,NULL
1738770420,8d840ac313f2fe69b1376d6cbce2066d,PennController,79,0,test_val,NULL,PennController,90,_Trial_,Start,1738769481427,undefined,528,bunny,negative,positive,B,NULL
1738770420,8d840ac313f2fe69b1376d6cbce2066d,PennController,79,0,test_val,NULL,PennController,90,_Header_,Start,1738769481427,undefined,528,bunny,negative,positive,B,NULL
1738770420,8d840ac313f2fe69b1376d6cbce2066d,PennController,79,0,test_val,NULL,PennController,90,_Header_,End,1738769481678,undefined,528,bunny,negative,positive,B,NULL
1738770420,8d840ac313f2fe69b1376d6cbce2066d,PennController,79,0,test_val,NULL,Selector,unnamed-Selector,Selection,positive,1738769482711,undefined,528,bunny,negative,positive,B,negative;positive
1738770420,8d840ac313f2fe69b1376d6cbce2066d,PennController,79,0,test_val,NULL,PennController,90,_Trial_,End,1738769482712,undefined,528,bunny,negative,positive,B,NULL
1738770420,8d840ac313f2fe69b1376d6cbce2066d,PennController,68,0,test_val,NULL,PennController,79,_Trial_,Start,1738769482712,undefined,808,inmate,negative,positive,B,NULL
1738770420,8d840ac313f2fe69b1376d6cbce2066d,PennController,68,0,test_val,NULL,PennController,79,_Header_,Start,1738769482712,undefined,808,inmate,negative,positive,B,NULL
1738770420,8d840ac313f2fe69b1376d6cbce2066d,PennController,68,0,test_val,NULL,PennController,79,_Header_,End,1738769482963,undefined,808,inmate,negative,positive,B,NULL
1738770420,8d840ac313f2fe69b1376d6cbce2066d,PennController,68,0,test_val,NULL,Selector,unnamed-Selector,Selection,negative,1738769484275,undefined,808,inmate,negative,positive,B,negative;positive
1738770420,8d840ac313f2fe69b1376d6cbce2066d,PennController,68,0,test_val,NULL,PennController,79,_Trial_,End,1738769484276,undefined,808,inmate,negative,positive,B,NULL
1738770420,8d840ac313f2fe69b1376d6cbce2066d,PennController,67,0,test_val,NULL,PennController,78,_Trial_,Start,1738769484277,undefined,910,widow,negative,positive,B,NULL
1738770420,8d840ac313f2fe69b1376d6cbce2066d,PennController,67,0,test_val,NULL,PennController,78,_Header_,Start,1738769484277,undefined,910,widow,negative,positive,B,NULL
1738770420,8d840ac313f2fe69b1376d6cbce2066d,PennController,67,0,test_val,NULL,PennController,78,_Header_,End,1738769484528,undefined,910,widow,negative,positive,B,NULL
1738770420,8d840ac313f2fe69b1376d6cbce2066d,PennController,67,0,test_val,NULL,Selector,unnamed-Selector,Selection,negative,1738769485939,undefined,910,widow,negative,positive,B,negative;positive
1738770420,8d840ac313f2fe69b1376d6cbce2066d,PennController,67,0,test_val,NULL,PennController,78,_Trial_,End,1738769485940,undefined,910,widow,negative,positive,B,NULL
1738770420,8d840ac313f2fe69b1376d6cbce2066d,PennController,58,0,test_val,NULL,PennController,69,_Trial_,Start,1738769485941,undefined,645,laughter,negative,positive,B,NULL
1738770420,8d840ac313f2fe69b1376d6cbce2066d,PennController,58,0,test_val,NULL,PennController,69,_Header_,Start,1738769485941,undefined,645,laughter,negative,positive,B,NULL
1738770420,8d840ac313f2fe69b1376d6cbce2066d,PennController,58,0,test_val,NULL,PennController,69,_Header_,End,1738769486193,undefined,645,laughter,negative,positive,B,NULL
1738770420,8d840ac313f2fe69b1376d6cbce2066d,PennController,58,0,test_val,NULL,Selector,unnamed-Selector,Selection,positive,1738769487341,undefined,645,laughter,negative,positive,B,negative;positive
1738770420,8d840ac313f2fe69b1376d6cbce2066d,PennController,58,0,test_val,NULL,PennController,69,_Trial_,End,1738769487342,undefined,645,laughter,negative,positive,B,NULL
1738770420,8d840ac313f2fe69b1376d6cbce2066d,PennController,71,0,test_val,NULL,PennController,82,_Trial_,Start,1738769487342,undefined,1398,tapeworm,negative,positive,B,NULL
1738770420,8d840ac313f2fe69b1376d6cbce2066d,PennController,71,0,test_val,NULL,PennController,82,_Header_,Start,1738769487342,undefined,1398,tapeworm,negative,positive,B,NULL
1738770420,8d840ac313f2fe69b1376d6cbce2066d,PennController,71,0,test_val,NULL,PennController,82,_Header_,End,1738769487597,undefined,1398,tapeworm,negative,positive,B,NULL
1738770420,8d840ac313f2fe69b1376d6cbce2066d,PennController,71,0,test_val,NULL,Selector,unnamed-Selector,Selection,negative,1738769489500,undefined,1398,tapeworm,negative,positive,B,negative;positive
1738770420,8d840ac313f2fe69b1376d6cbce2066d,PennController,71,0,test_val,NULL,PennController,82,_Trial_,End,1738769489501,undefined,1398,tapeworm,negative,positive,B,NULL
1738770420,8d840ac313f2fe69b1376d6cbce2066d,PennController,72,0,test_val,NULL,PennController,83,_Trial_,Start,1738769489502,undefined,821,intruder,negative,positive,B,NULL
1738770420,8d840ac313f2fe69b1376d6cbce2066d,PennController,72,0,test_val,NULL,PennController,83,_Header_,Start,1738769489502,undefined,821,intruder,negative,positive,B,NULL
1738770420,8d840ac313f2fe69b1376d6cbce2066d,PennController,72,0,test_val,NULL,PennController,83,_Header_,End,1738769489756,undefined,821,intruder,negative,positive,B,NULL
1738770420,8d840ac313f2fe69b1376d6cbce2066d,PennController,72,0,test_val,NULL,Selector,unnamed-Selector,Selection,negative,1738769491078,undefined,821,intruder,negative,positive,B,negative;positive
1738770420,8d840ac313f2fe69b1376d6cbce2066d,PennController,72,0,test_val,NULL,PennController,83,_Trial_,End,1738769491079,undefined,821,intruder,negative,positive,B,NULL
1738770420,8d840ac313f2fe69b1376d6cbce2066d,PennController,64,0,test_val,NULL,PennController,75,_Trial_,Start,1738769491080,undefined,701,slave,negative,positive,B,NULL
1738770420,8d840ac313f2fe69b1376d6cbce2066d,PennController,64,0,test_val,NULL,PennController,75,_Header_,Start,1738769491080,undefined,701,slave,negative,positive,B,NULL
1738770420,8d840ac313f2fe69b1376d6cbce2066d,PennController,64,0,test_val,NULL,PennController,75,_Header_,End,1738769491331,undefined,701,slave,negative,positive,B,NULL
1738770420,8d840ac313f2fe69b1376d6cbce2066d,PennController,64,0,test_val,NULL,Selector,unnamed-Selector,Selection,negative,1738769492536,undefined,701,slave,negative,positive,B,negative;positive
1738770420,8d840ac313f2fe69b1376d6cbce2066d,PennController,64,0,test_val,NULL,PennController,75,_Trial_,End,1738769492537,undefined,701,slave,negative,positive,B,NULL
1738770420,8d840ac313f2fe69b1376d6cbce2066d,PennController,60,0,test_val,NULL,PennController,71,_Trial_,Start,1738769492537,undefined,746,doughnut,negative,positive,B,NULL
1738770420,8d840ac313f2fe69b1376d6cbce2066d,PennController,60,0,test_val,NULL,PennController,71,_Header_,Start,1738769492537,undefined,746,doughnut,negative,positive,B,NULL
1738770420,8d840ac313f2fe69b1376d6cbce2066d,PennController,60,0,test_val,NULL,PennController,71,_Header_,End,1738769492791,undefined,746,doughnut,negative,positive,B,NULL
1738770420,8d840ac313f2fe69b1376d6cbce2066d,PennController,60,0,test_val,NULL,Selector,unnamed-Selector,Selection,positive,1738769494041,undefined,746,doughnut,negative,positive,B,negative;positive
1738770420,8d840ac313f2fe69b1376d6cbce2066d,PennController,60,0,test_val,NULL,PennController,71,_Trial_,End,1738769494042,undefined,746,doughnut,negative,positive,B,NULL
1738770420,8d840ac313f2fe69b1376d6cbce2066d,PennController,74,0,test_val,NULL,PennController,85,_Trial_,Start,1738769494042,undefined,731,comedian,negative,positive,B,NULL
1738770420,8d840ac313f2fe69b1376d6cbce2066d,PennController,74,0,test_val,NULL,PennController,85,_Header_,Start,1738769494042,undefined,731,comedian,negative,positive,B,NULL
1738770420,8d840ac313f2fe69b1376d6cbce2066d,PennController,74,0,test_val,NULL,PennController,85,_Header_,End,1738769494295,undefined,731,comedian,negative,positive,B,NULL
1738770420,8d840ac313f2fe69b1376d6cbce2066d,PennController,74,0,test_val,NULL,Selector,unnamed-Selector,Selection,positive,1738769495529,undefined,731,comedian,negative,positive,B,negative;positive
1738770420,8d840ac313f2fe69b1376d6cbce2066d,PennController,74,0,test_val,NULL,PennController,85,_Trial_,End,1738769495530,undefined,731,comedian,negative,positive,B,NULL
1738770420,8d840ac313f2fe69b1376d6cbce2066d,PennController,66,0,test_val,NULL,PennController,77,_Trial_,Start,1738769495530,undefined,1153,maggot,negative,positive,B,NULL
1738770420,8d840ac313f2fe69b1376d6cbce2066d,PennController,66,0,test_val,NULL,PennController,77,_Header_,Start,1738769495530,undefined,1153,maggot,negative,positive,B,NULL
1738770420,8d840ac313f2fe69b1376d6cbce2066d,PennController,66,0,test_val,NULL,PennController,77,_Header_,End,1738769495781,undefined,1153,maggot,negative,positive,B,NULL
1738770420,8d840ac313f2fe69b1376d6cbce2066d,PennController,66,0,test_val,NULL,Selector,unnamed-Selector,Selection,negative,1738769497435,undefined,1153,maggot,negative,positive,B,negative;positive
1738770420,8d840ac313f2fe69b1376d6cbce2066d,PennController,66,0,test_val,NULL,PennController,77,_Trial_,End,1738769497437,undefined,1153,maggot,negative,positive,B,NULL
1738770420,8d840ac313f2fe69b1376d6cbce2066d,PennController,70,0,test_val,NULL,PennController,81,_Trial_,Start,1738769497438,undefined,1158,leech,negative,positive,B,NULL
1738770420,8d840ac313f2fe69b1376d6cbce2066d,PennController,70,0,test_val,NULL,PennController,81,_Header_,Start,1738769497438,undefined,1158,leech,negative,positive,B,NULL
1738770420,8d840ac313f2fe69b1376d6cbce2066d,PennController,70,0,test_val,NULL,PennController,81,_Header_,End,1738769497689,undefined,1158,leech,negative,positive,B,NULL
1738770420,8d840ac313f2fe69b1376d6cbce2066d,PennController,70,0,test_val,NULL,Selector,unnamed-Selector,Selection,negative,1738769499348,undefined,1158,leech,negative,positive,B,negative;positive
1738770420,8d840ac313f2fe69b1376d6cbce2066d,PennController,70,0,test_val,NULL,PennController,81,_Trial_,End,1738769499349,undefined,1158,leech,negative,positive,B,NULL
1738770420,8d840ac313f2fe69b1376d6cbce2066d,PennController,75,0,test_val,NULL,PennController,86,_Trial_,Start,1738769499350,undefined,1906,puppy,negative,positive,B,NULL
1738770420,8d840ac313f2fe69b1376d6cbce2066d,PennController,75,0,test_val,NULL,PennController,86,_Header_,Start,1738769499350,undefined,1906,puppy,negative,positive,B,NULL
1738770420,8d840ac313f2fe69b1376d6cbce2066d,PennController,75,0,test_val,NULL,PennController,86,_Header_,End,1738769499601,undefined,1906,puppy,negative,positive,B,NULL
1738770420,8d840ac313f2fe69b1376d6cbce2066d,PennController,75,0,test_val,NULL,Selector,unnamed-Selector,Selection,positive,1738769502012,undefined,1906,puppy,negative,positive,B,negative;positive
1738770420,8d840ac313f2fe69b1376d6cbce2066d,PennController,75,0,test_val,NULL,PennController,86,_Trial_,End,1738769502013,undefined,1906,puppy,negative,positive,B,NULL
1738770420,8d840ac313f2fe69b1376d6cbce2066d,PennController,44,0,test_val,NULL,PennController,55,_Trial_,Start,1738769502014,undefined,875,heroin,negative,positive,B,NULL
1738770420,8d840ac313f2fe69b1376d6cbce2066d,PennController,44,0,test_val,NULL,PennController,55,_Header_,Start,1738769502014,undefined,875,heroin,negative,positive,B,NULL
1738770420,8d840ac313f2fe69b1376d6cbce2066d,PennController,44,0,test_val,NULL,PennController,55,_Header_,End,1738769502268,undefined,875,heroin,negative,positive,B,NULL
1738770420,8d840ac313f2fe69b1376d6cbce2066d,PennController,44,0,test_val,NULL,Selector,unnamed-Selector,Selection,negative,1738769503645,undefined,875,heroin,negative,positive,B,negative;positive
1738770420,8d840ac313f2fe69b1376d6cbce2066d,PennController,44,0,test_val,NULL,PennController,55,_Trial_,End,1738769503646,undefined,875,heroin,negative,positive,B,NULL
1738770420,8d840ac313f2fe69b1376d6cbce2066d,PennController,56,0,test_val,NULL,PennController,67,_Trial_,Start,1738769503647,undefined,847,award,negative,positive,B,NULL
1738770420,8d840ac313f2fe69b1376d6cbce2066d,PennController,56,0,test_val,NULL,PennController,67,_Header_,Start,1738769503647,undefined,847,award,negative,positive,B,NULL
1738770420,8d840ac313f2fe69b1376d6cbce2066d,PennController,56,0,test_val,NULL,PennController,67,_Header_,End,1738769503899,undefined,847,award,negative,positive,B,NULL
1738770420,8d840ac313f2fe69b1376d6cbce2066d,PennController,56,0,test_val,NULL,Selector,unnamed-Selector,Selection,positive,1738769505250,undefined,847,award,negative,positive,B,negative;positive
1738770420,8d840ac313f2fe69b1376d6cbce2066d,PennController,56,0,test_val,NULL,PennController,67,_Trial_,End,1738769505252,undefined,847,award,negative,positive,B,NULL
1738770420,8d840ac313f2fe69b1376d6cbce2066d,PennController,52,0,test_val,NULL,PennController,63,_Trial_,Start,1738769505253,undefined,1997,smallpox,negative,positive,B,NULL
1738770420,8d840ac313f2fe69b1376d6cbce2066d,PennController,52,0,test_val,NULL,PennController,63,_Header_,Start,1738769505253,undefined,1997,smallpox,negative,positive,B,NULL
1738770420,8d840ac313f2fe69b1376d6cbce2066d,PennController,52,0,test_val,NULL,PennController,63,_Header_,End,1738769505505,undefined,1997,smallpox,negative,positive,B,NULL
1738770420,8d840ac313f2fe69b1376d6cbce2066d,PennController,52,0,test_val,NULL,Selector,unnamed-Selector,Selection,negative,1738769508008,undefined,1997,smallpox,negative,positive,B,negative;positive
1738770420,8d840ac313f2fe69b1376d6cbce2066d,PennController,52,0,test_val,NULL,PennController,63,_Trial_,End,1738769508008,undefined,1997,smallpox,negative,positive,B,NULL
1738770420,8d840ac313f2fe69b1376d6cbce2066d,PennController,62,0,test_val,NULL,PennController,73,_Trial_,Start,1738769508009,undefined,876,sandwich,negative,positive,B,NULL
1738770420,8d840ac313f2fe69b1376d6cbce2066d,PennController,62,0,test_val,NULL,PennController,73,_Header_,Start,1738769508009,undefined,876,sandwich,negative,positive,B,NULL
1738770420,8d840ac313f2fe69b1376d6cbce2066d,PennController,62,0,test_val,NULL,PennController,73,_Header_,End,1738769508263,undefined,876,sandwich,negative,positive,B,NULL
1738770420,8d840ac313f2fe69b1376d6cbce2066d,PennController,62,0,test_val,NULL,Selector,unnamed-Selector,Selection,positive,1738769509642,undefined,876,sandwich,negative,positive,B,negative;positive
1738770420,8d840ac313f2fe69b1376d6cbce2066d,PennController,62,0,test_val,NULL,PennController,73,_Trial_,End,1738769509643,undefined,876,sandwich,negative,positive,B,NULL
1738770420,8d840ac313f2fe69b1376d6cbce2066d,PennController,54,0,test_val,NULL,PennController,65,_Trial_,Start,1738769509643,undefined,983,prize,negative,positive,B,NULL
1738770420,8d840ac313f2fe69b1376d6cbce2066d,PennController,54,0,test_val,NULL,PennController,65,_Header_,Start,1738769509643,undefined,983,prize,negative,positive,B,NULL
1738770420,8d840ac313f2fe69b1376d6cbce2066d,PennController,54,0,test_val,NULL,PennController,65,_Header_,End,1738769509893,undefined,983,prize,negative,positive,B,NULL
1738770420,8d840ac313f2fe69b1376d6cbce2066d,PennController,54,0,test_val,NULL,Selector,unnamed-Selector,Selection,positive,1738769511378,undefined,983,prize,negative,positive,B,negative;positive
1738770420,8d840ac313f2fe69b1376d6cbce2066d,PennController,54,0,test_val,NULL,PennController,65,_Trial_,End,1738769511378,undefined,983,prize,negative,positive,B,NULL
1738770420,8d840ac313f2fe69b1376d6cbce2066d,PennController,73,0,test_val,NULL,PennController,84,_Trial_,Start,1738769511379,undefined,675,mugger,negative,positive,B,NULL
1738770420,8d840ac313f2fe69b1376d6cbce2066d,PennController,73,0,test_val,NULL,PennController,84,_Header_,Start,1738769511379,undefined,675,mugger,negative,positive,B,NULL
1738770420,8d840ac313f2fe69b1376d6cbce2066d,PennController,73,0,test_val,NULL,PennController,84,_Header_,End,1738769511633,undefined,675,mugger,negative,positive,B,NULL
1738770420,8d840ac313f2fe69b1376d6cbce2066d,PennController,73,0,test_val,NULL,Selector,unnamed-Selector,Selection,negative,1738769512813,undefined,675,mugger,negative,positive,B,negative;positive
1738770420,8d840ac313f2fe69b1376d6cbce2066d,PennController,73,0,test_val,NULL,PennController,84,_Trial_,End,1738769512814,undefined,675,mugger,negative,positive,B,NULL
1738770420,8d840ac313f2fe69b1376d6cbce2066d,PennController,78,0,test_val,NULL,PennController,89,_Trial_,Start,1738769512815,undefined,2063,kitten,negative,positive,B,NULL
1738770420,8d840ac313f2fe69b1376d6cbce2066d,PennController,78,0,test_val,NULL,PennController,89,_Header_,Start,1738769512815,undefined,2063,kitten,negative,positive,B,NULL
1738770420,8d840ac313f2fe69b1376d6cbce2066d,PennController,78,0,test_val,NULL,PennController,89,_Header_,End,1738769513065,undefined,2063,kitten,negative,positive,B,NULL
1738770420,8d840ac313f2fe69b1376d6cbce2066d,PennController,78,0,test_val,NULL,Selector,unnamed-Selector,Selection,positive,1738769515632,undefined,2063,kitten,negative,positive,B,negative;positive
1738770420,8d840ac313f2fe69b1376d6cbce2066d,PennController,78,0,test_val,NULL,PennController,89,_Trial_,End,1738769515633,undefined,2063,kitten,negative,positive,B,NULL
1738770420,8d840ac313f2fe69b1376d6cbce2066d,PennController,55,0,test_val,NULL,PennController,66,_Trial_,Start,1738769515634,undefined,1203,sunshine,negative,positive,B,NULL
1738770420,8d840ac313f2fe69b1376d6cbce2066d,PennController,55,0,test_val,NULL,PennController,66,_Header_,Start,1738769515634,undefined,1203,sunshine,negative,positive,B,NULL
1738770420,8d840ac313f2fe69b1376d6cbce2066d,PennController,55,0,test_val,NULL,PennController,66,_Header_,End,1738769515888,undefined,1203,sunshine,negative,positive,B,NULL
1738770420,8d840ac313f2fe69b1376d6cbce2066d,PennController,55,0,test_val,NULL,Selector,unnamed-Selector,Selection,positive,1738769517592,undefined,1203,sunshine,negative,positive,B,negative;positive
1738770420,8d840ac313f2fe69b1376d6cbce2066d,PennController,55,0,test_val,NULL,PennController,66,_Trial_,End,1738769517593,undefined,1203,sunshine,negative,positive,B,NULL
1738770420,8d840ac313f2fe69b1376d6cbce2066d,PennController,46,0,test_val,NULL,PennController,57,_Trial_,Start,1738769517594,undefined,1930,wiretap,negative,positive,B,NULL
1738770420,8d840ac313f2fe69b1376d6cbce2066d,PennController,46,0,test_val,NULL,PennController,57,_Header_,Start,1738769517594,undefined,1930,wiretap,negative,positive,B,NULL
1738770420,8d840ac313f2fe69b1376d6cbce2066d,PennController,46,0,test_val,NULL,PennController,57,_Header_,End,1738769517846,undefined,1930,wiretap,negative,positive,B,NULL
1738770420,8d840ac313f2fe69b1376d6cbce2066d,PennController,46,0,test_val,NULL,Selector,unnamed-Selector,Selection,negative,1738769520278,undefined,1930,wiretap,negative,positive,B,negative;positive
1738770420,8d840ac313f2fe69b1376d6cbce2066d,PennController,46,0,test_val,NULL,PennController,57,_Trial_,End,1738769520279,undefined,1930,wiretap,negative,positive,B,NULL
1738770420,8d840ac313f2fe69b1376d6cbce2066d,PennController,83,0,test_val,NULL,PennController,94,_Trial_,Start,1738769520280,undefined,623,husband,negative,positive,B,NULL
1738770420,8d840ac313f2fe69b1376d6cbce2066d,PennController,83,0,test_val,NULL,PennController,94,_Header_,Start,1738769520280,undefined,623,husband,negative,positive,B,NULL
1738770420,8d840ac313f2fe69b1376d6cbce2066d,PennController,83,0,test_val,NULL,PennController,94,_Header_,End,1738769520532,undefined,623,husband,negative,positive,B,NULL
1738770420,8d840ac313f2fe69b1376d6cbce2066d,PennController,83,0,test_val,NULL,Selector,unnamed-Selector,Selection,positive,1738769521661,undefined,623,husband,negative,positive,B,negative;positive
1738770420,8d840ac313f2fe69b1376d6cbce2066d,PennController,83,0,test_val,NULL,PennController,94,_Trial_,End,1738769521662,undefined,623,husband,negative,positive,B,NULL
1738770420,8d840ac313f2fe69b1376d6cbce2066d,PennController,63,0,test_val,NULL,PennController,74,_Trial_,Start,1738769521663,undefined,1546,meadow,negative,positive,B,NULL
1738770420,8d840ac313f2fe69b1376d6cbce2066d,PennController,63,0,test_val,NULL,PennController,74,_Header_,Start,1738769521663,undefined,1546,meadow,negative,positive,B,NULL
1738770420,8d840ac313f2fe69b1376d6cbce2066d,PennController,63,0,test_val,NULL,PennController,74,_Header_,End,1738769521914,undefined,1546,meadow,negative,positive,B,NULL
1738770420,8d840ac313f2fe69b1376d6cbce2066d,PennController,63,0,test_val,NULL,Selector,unnamed-Selector,Selection,positive,1738769523967,undefined,1546,meadow,negative,positive,B,negative;positive
1738770420,8d840ac313f2fe69b1376d6cbce2066d,PennController,63,0,test_val,NULL,PennController,74,_Trial_,End,1738769523967,undefined,1546,meadow,negative,positive,B,NULL
1738770420,8d840ac313f2fe69b1376d6cbce2066d,PennController,57,0,test_val,NULL,PennController,68,_Trial_,Start,1738769523968,undefined,478,pizza,negative,positive,B,NULL
1738770420,8d840ac313f2fe69b1376d6cbce2066d,PennController,57,0,test_val,NULL,PennController,68,_Header_,Start,1738769523968,undefined,478,pizza,negative,positive,B,NULL
1738770420,8d840ac313f2fe69b1376d6cbce2066d,PennController,57,0,test_val,NULL,PennController,68,_Header_,End,1738769524221,undefined,478,pizza,negative,positive,B,NULL
1738770420,8d840ac313f2fe69b1376d6cbce2066d,PennController,57,0,test_val,NULL,Selector,unnamed-Selector,Selection,positive,1738769525205,undefined,478,pizza,negative,positive,B,negative;positive
1738770420,8d840ac313f2fe69b1376d6cbce2066d,PennController,57,0,test_val,NULL,PennController,68,_Trial_,End,1738769525206,undefined,478,pizza,negative,positive,B,NULL
1738770420,8d840ac313f2fe69b1376d6cbce2066d,PennController,65,0,test_val,NULL,PennController,76,_Trial_,Start,1738769525207,undefined,722,asshole,negative,positive,B,NULL
1738770420,8d840ac313f2fe69b1376d6cbce2066d,PennController,65,0,test_val,NULL,PennController,76,_Header_,Start,1738769525207,undefined,722,asshole,negative,positive,B,NULL
1738770420,8d840ac313f2fe69b1376d6cbce2066d,PennController,65,0,test_val,NULL,PennController,76,_Header_,End,1738769525460,undefined,722,asshole,negative,positive,B,NULL
1738770420,8d840ac313f2fe69b1376d6cbce2066d,PennController,65,0,test_val,NULL,Selector,unnamed-Selector,Selection,negative,1738769526684,undefined,722,asshole,negative,positive,B,negative;positive
1738770420,8d840ac313f2fe69b1376d6cbce2066d,PennController,65,0,test_val,NULL,PennController,76,_Trial_,End,1738769526685,undefined,722,asshole,negative,positive,B,NULL
1738770420,8d840ac313f2fe69b1376d6cbce2066d,PennController,59,0,test_val,NULL,PennController,70,_Trial_,Start,1738769526686,undefined,538,feast,negative,positive,B,NULL
1738770420,8d840ac313f2fe69b1376d6cbce2066d,PennController,59,0,test_val,NULL,PennController,70,_Header_,Start,1738769526686,undefined,538,feast,negative,positive,B,NULL
1738770420,8d840ac313f2fe69b1376d6cbce2066d,PennController,59,0,test_val,NULL,PennController,70,_Header_,End,1738769526937,undefined,538,feast,negative,positive,B,NULL
1738770420,8d840ac313f2fe69b1376d6cbce2066d,PennController,59,0,test_val,NULL,Selector,unnamed-Selector,Selection,positive,1738769527979,undefined,538,feast,negative,positive,B,negative;positive
1738770420,8d840ac313f2fe69b1376d6cbce2066d,PennController,59,0,test_val,NULL,PennController,70,_Trial_,End,1738769527980,undefined,538,feast,negative,positive,B,NULL
1738770420,8d840ac313f2fe69b1376d6cbce2066d,PennController,45,0,test_val,NULL,PennController,56,_Trial_,Start,1738769527981,undefined,1109,swastika,negative,positive,B,NULL
1738770420,8d840ac313f2fe69b1376d6cbce2066d,PennController,45,0,test_val,NULL,PennController,56,_Header_,Start,1738769527981,undefined,1109,swastika,negative,positive,B,NULL
1738770420,8d840ac313f2fe69b1376d6cbce2066d,PennController,45,0,test_val,NULL,PennController,56,_Header_,End,1738769528235,undefined,1109,swastika,negative,positive,B,NULL
1738770420,8d840ac313f2fe69b1376d6cbce2066d,PennController,45,0,test_val,NULL,Selector,unnamed-Selector,Selection,negative,1738769529850,undefined,1109,swastika,negative,positive,B,negative;positive
1738770420,8d840ac313f2fe69b1376d6cbce2066d,PennController,45,0,test_val,NULL,PennController,56,_Trial_,End,1738769529851,undefined,1109,swastika,negative,positive,B,NULL
1738770420,8d840ac313f2fe69b1376d6cbce2066d,PennController,61,0,test_val,NULL,PennController,72,_Trial_,Start,1738769529853,undefined,1059,dollar,negative,positive,B,NULL
1738770420,8d840ac313f2fe69b1376d6cbce2066d,PennController,61,0,test_val,NULL,PennController,72,_Header_,Start,1738769529853,undefined,1059,dollar,negative,positive,B,NULL
1738770420,8d840ac313f2fe69b1376d6cbce2066d,PennController,61,0,test_val,NULL,PennController,72,_Header_,End,1738769530103,undefined,1059,dollar,negative,positive,B,NULL
1738770420,8d840ac313f2fe69b1376d6cbce2066d,PennController,61,0,test_val,NULL,Selector,unnamed-Selector,Selection,positive,1738769531666,undefined,1059,dollar,negative,positive,B,negative;positive
1738770420,8d840ac313f2fe69b1376d6cbce2066d,PennController,61,0,test_val,NULL,PennController,72,_Trial_,End,1738769531667,undefined,1059,dollar,negative,positive,B,NULL
1738770420,8d840ac313f2fe69b1376d6cbce2066d,PennController,51,0,test_val,NULL,PennController,62,_Trial_,Start,1738769531668,undefined,667,flood,negative,positive,B,NULL
1738770420,8d840ac313f2fe69b1376d6cbce2066d,PennController,51,0,test_val,NULL,PennController,62,_Header_,Start,1738769531668,undefined,667,flood,negative,positive,B,NULL
1738770420,8d840ac313f2fe69b1376d6cbce2066d,PennController,51,0,test_val,NULL,PennController,62,_Header_,End,1738769531918,undefined,667,flood,negative,positive,B,NULL
1738770420,8d840ac313f2fe69b1376d6cbce2066d,PennController,51,0,test_val,NULL,Selector,unnamed-Selector,Selection,positive,1738769533089,undefined,667,flood,negative,positive,B,negative;positive
1738770420,8d840ac313f2fe69b1376d6cbce2066d,PennController,51,0,test_val,NULL,PennController,62,_Trial_,End,1738769533091,undefined,667,flood,negative,positive,B,NULL
1738770420,8d840ac313f2fe69b1376d6cbce2066d,PennController,82,0,test_val,NULL,PennController,93,_Trial_,Start,1738769533091,undefined,1574,chipmunk,negative,positive,B,NULL
1738770420,8d840ac313f2fe69b1376d6cbce2066d,PennController,82,0,test_val,NULL,PennController,93,_Header_,Start,1738769533091,undefined,1574,chipmunk,negative,positive,B,NULL
1738770420,8d840ac313f2fe69b1376d6cbce2066d,PennController,82,0,test_val,NULL,PennController,93,_Header_,End,1738769533343,undefined,1574,chipmunk,negative,positive,B,NULL
1738770420,8d840ac313f2fe69b1376d6cbce2066d,PennController,82,0,test_val,NULL,Selector,unnamed-Selector,Selection,positive,1738769535420,undefined,1574,chipmunk,negative,positive,B,negative;positive
1738770420,8d840ac313f2fe69b1376d6cbce2066d,PennController,82,0,test_val,NULL,PennController,93,_Trial_,End,1738769535421,undefined,1574,chipmunk,negative,positive,B,NULL
1738770420,8d840ac313f2fe69b1376d6cbce2066d,PennController,50,0,test_val,NULL,PennController,61,_Trial_,Start,1738769535422,undefined,748,gunshot,negative,positive,B,NULL
1738770420,8d840ac313f2fe69b1376d6cbce2066d,PennController,50,0,test_val,NULL,PennController,61,_Header_,Start,1738769535422,undefined,748,gunshot,negative,positive,B,NULL
1738770420,8d840ac313f2fe69b1376d6cbce2066d,PennController,50,0,test_val,NULL,PennController,61,_Header_,End,1738769535675,undefined,748,gunshot,negative,positive,B,NULL
1738770420,8d840ac313f2fe69b1376d6cbce2066d,PennController,50,0,test_val,NULL,Selector,unnamed-Selector,Selection,negative,1738769536925,undefined,748,gunshot,negative,positive,B,negative;positive
1738770420,8d840ac313f2fe69b1376d6cbce2066d,PennController,50,0,test_val,NULL,PennController,61,_Trial_,End,1738769536925,undefined,748,gunshot,negative,positive,B,NULL
1738770420,8d840ac313f2fe69b1376d6cbce2066d,PennController,53,0,test_val,NULL,PennController,64,_Trial_,Start,1738769536926,undefined,773,corpse,negative,positive,B,NULL
1738770420,8d840ac313f2fe69b1376d6cbce2066d,PennController,53,0,test_val,NULL,PennController,64,_Header_,Start,1738769536926,undefined,773,corpse,negative,positive,B,NULL
1738770420,8d840ac313f2fe69b1376d6cbce2066d,PennController,53,0,test_val,NULL,PennController,64,_Header_,End,1738769537179,undefined,773,corpse,negative,positive,B,NULL
1738770420,8d840ac313f2fe69b1376d6cbce2066d,PennController,53,0,test_val,NULL,Selector,unnamed-Selector,Selection,negative,1738769538454,undefined,773,corpse,negative,positive,B,negative;positive
1738770420,8d840ac313f2fe69b1376d6cbce2066d,PennController,53,0,test_val,NULL,PennController,64,_Trial_,End,1738769538455,undefined,773,corpse,negative,positive,B,NULL
1738770420,8d840ac313f2fe69b1376d6cbce2066d,PennController,69,0,test_val,NULL,PennController,80,_Trial_,Start,1738769538456,undefined,787,dictator,negative,positive,B,NULL
1738770420,8d840ac313f2fe69b1376d6cbce2066d,PennController,69,0,test_val,NULL,PennController,80,_Header_,Start,1738769538456,undefined,787,dictator,negative,positive,B,NULL
1738770420,8d840ac313f2fe69b1376d6cbce2066d,PennController,69,0,test_val,NULL,PennController,80,_Header_,End,1738769538709,undefined,787,dictator,negative,positive,B,NULL
1738770420,8d840ac313f2fe69b1376d6cbce2066d,PennController,69,0,test_val,NULL,Selector,unnamed-Selector,Selection,negative,1738769540002,undefined,787,dictator,negative,positive,B,negative;positive
1738770420,8d840ac313f2fe69b1376d6cbce2066d,PennController,69,0,test_val,NULL,PennController,80,_Trial_,End,1738769540003,undefined,787,dictator,negative,positive,B,NULL
1738770420,8d840ac313f2fe69b1376d6cbce2066d,PennController,54,0,test_val,NULL,PennController,65,_Trial_,Start,1738769540004,undefined,1122,prize,negative,positive,B,NULL
1738770420,8d840ac313f2fe69b1376d6cbce2066d,PennController,54,0,test_val,NULL,PennController,65,_Header_,Start,1738769540004,undefined,1122,prize,negative,positive,B,NULL
1738770420,8d840ac313f2fe69b1376d6cbce2066d,PennController,54,0,test_val,NULL,PennController,65,_Header_,End,1738769540257,undefined,1122,prize,negative,positive,B,NULL
1738770420,8d840ac313f2fe69b1376d6cbce2066d,PennController,54,0,test_val,NULL,Selector,unnamed-Selector,Selection,positive,1738769541882,undefined,1122,prize,negative,positive,B,negative;positive
1738770420,8d840ac313f2fe69b1376d6cbce2066d,PennController,54,0,test_val,NULL,PennController,65,_Trial_,End,1738769541883,undefined,1122,prize,negative,positive,B,NULL
1738770420,8d840ac313f2fe69b1376d6cbce2066d,PennController,57,0,test_val,NULL,PennController,68,_Trial_,Start,1738769541885,undefined,589,pizza,negative,positive,B,NULL
1738770420,8d840ac313f2fe69b1376d6cbce2066d,PennController,57,0,test_val,NULL,PennController,68,_Header_,Start,1738769541885,undefined,589,pizza,negative,positive,B,NULL
1738770420,8d840ac313f2fe69b1376d6cbce2066d,PennController,57,0,test_val,NULL,PennController,68,_Header_,End,1738769542138,undefined,589,pizza,negative,positive,B,NULL
1738770420,8d840ac313f2fe69b1376d6cbce2066d,PennController,57,0,test_val,NULL,Selector,unnamed-Selector,Selection,positive,1738769543230,undefined,589,pizza,negative,positive,B,negative;positive
1738770420,8d840ac313f2fe69b1376d6cbce2066d,PennController,57,0,test_val,NULL,PennController,68,_Trial_,End,1738769543231,undefined,589,pizza,negative,positive,B,NULL
1738770420,8d840ac313f2fe69b1376d6cbce2066d,PennController,62,0,test_val,NULL,PennController,73,_Trial_,Start,1738769543232,undefined,573,sandwich,negative,positive,B,NULL
1738770420,8d840ac313f2fe69b1376d6cbce2066d,PennController,62,0,test_val,NULL,PennController,73,_Header_,Start,1738769543232,undefined,573,sandwich,negative,positive,B,NULL
1738770420,8d840ac313f2fe69b1376d6cbce2066d,PennController,62,0,test_val,NULL,PennController,73,_Header_,End,1738769543487,undefined,573,sandwich,negative,positive,B,NULL
1738770420,8d840ac313f2fe69b1376d6cbce2066d,PennController,62,0,test_val,NULL,Selector,unnamed-Selector,Selection,positive,1738769544563,undefined,573,sandwich,negative,positive,B,negative;positive
1738770420,8d840ac313f2fe69b1376d6cbce2066d,PennController,62,0,test_val,NULL,PennController,73,_Trial_,End,1738769544564,undefined,573,sandwich,negative,positive,B,NULL
1738770420,8d840ac313f2fe69b1376d6cbce2066d,PennController,46,0,test_val,NULL,PennController,57,_Trial_,Start,1738769544565,undefined,765,wiretap,negative,positive,B,NULL
1738770420,8d840ac313f2fe69b1376d6cbce2066d,PennController,46,0,test_val,NULL,PennController,57,_Header_,Start,1738769544565,undefined,765,wiretap,negative,positive,B,NULL
1738770420,8d840ac313f2fe69b1376d6cbce2066d,PennController,46,0,test_val,NULL,PennController,57,_Header_,End,1738769544819,undefined,765,wiretap,negative,positive,B,NULL
1738770420,8d840ac313f2fe69b1376d6cbce2066d,PennController,46,0,test_val,NULL,Selector,unnamed-Selector,Selection,negative,1738769546088,undefined,765,wiretap,negative,positive,B,negative;positive
1738770420,8d840ac313f2fe69b1376d6cbce2066d,PennController,46,0,test_val,NULL,PennController,57,_Trial_,End,1738769546089,undefined,765,wiretap,negative,positive,B,NULL
1738770420,8d840ac313f2fe69b1376d6cbce2066d,PennController,51,0,test_val,NULL,PennController,62,_Trial_,Start,1738769546090,undefined,1284,flood,negative,positive,B,NULL
1738770420,8d840ac313f2fe69b1376d6cbce2066d,PennController,51,0,test_val,NULL,PennController,62,_Header_,Start,1738769546090,undefined,1284,flood,negative,positive,B,NULL
1738770420,8d840ac313f2fe69b1376d6cbce2066d,PennController,51,0,test_val,NULL,PennController,62,_Header_,End,1738769546344,undefined,1284,flood,negative,positive,B,NULL
1738770420,8d840ac313f2fe69b1376d6cbce2066d,PennController,51,0,test_val,NULL,Selector,unnamed-Selector,Selection,negative,1738769548131,undefined,1284,flood,negative,positive,B,negative;positive
1738770420,8d840ac313f2fe69b1376d6cbce2066d,PennController,51,0,test_val,NULL,PennController,62,_Trial_,End,1738769548132,undefined,1284,flood,negative,positive,B,NULL
1738770420,8d840ac313f2fe69b1376d6cbce2066d,PennController,58,0,test_val,NULL,PennController,69,_Trial_,Start,1738769548133,undefined,1263,laughter,negative,positive,B,NULL
1738770420,8d840ac313f2fe69b1376d6cbce2066d,PennController,58,0,test_val,NULL,PennController,69,_Header_,Start,1738769548133,undefined,1263,laughter,negative,positive,B,NULL
1738770420,8d840ac313f2fe69b1376d6cbce2066d,PennController,58,0,test_val,NULL,PennController,69,_Header_,End,1738769548384,undefined,1263,laughter,negative,positive,B,NULL
1738770420,8d840ac313f2fe69b1376d6cbce2066d,PennController,58,0,test_val,NULL,Selector,unnamed-Selector,Selection,positive,1738769550152,undefined,1263,laughter,negative,positive,B,negative;positive
1738770420,8d840ac313f2fe69b1376d6cbce2066d,PennController,58,0,test_val,NULL,PennController,69,_Trial_,End,1738769550153,undefined,1263,laughter,negative,positive,B,NULL
1738770420,8d840ac313f2fe69b1376d6cbce2066d,PennController,66,0,test_val,NULL,PennController,77,_Trial_,Start,1738769550154,undefined,1365,maggot,negative,positive,B,NULL
1738770420,8d840ac313f2fe69b1376d6cbce2066d,PennController,66,0,test_val,NULL,PennController,77,_Header_,Start,1738769550154,undefined,1365,maggot,negative,positive,B,NULL
1738770420,8d840ac313f2fe69b1376d6cbce2066d,PennController,66,0,test_val,NULL,PennController,77,_Header_,End,1738769550406,undefined,1365,maggot,negative,positive,B,NULL
1738770420,8d840ac313f2fe69b1376d6cbce2066d,PennController,66,0,test_val,NULL,Selector,unnamed-Selector,Selection,negative,1738769552276,undefined,1365,maggot,negative,positive,B,negative;positive
1738770420,8d840ac313f2fe69b1376d6cbce2066d,PennController,66,0,test_val,NULL,PennController,77,_Trial_,End,1738769552277,undefined,1365,maggot,negative,positive,B,NULL
1738770420,8d840ac313f2fe69b1376d6cbce2066d,PennController,44,0,test_val,NULL,PennController,55,_Trial_,Start,1738769552278,undefined,7188,heroin,negative,positive,B,NULL
1738770420,8d840ac313f2fe69b1376d6cbce2066d,PennController,44,0,test_val,NULL,PennController,55,_Header_,Start,1738769552278,undefined,7188,heroin,negative,positive,B,NULL
1738770420,8d840ac313f2fe69b1376d6cbce2066d,PennController,44,0,test_val,NULL,PennController,55,_Header_,End,1738769552530,undefined,7188,heroin,negative,positive,B,NULL
1738770420,8d840ac313f2fe69b1376d6cbce2066d,PennController,44,0,test_val,NULL,Selector,unnamed-Selector,Selection,negative,1738769560223,undefined,7188,heroin,negative,positive,B,negative;positive
1738770420,8d840ac313f2fe69b1376d6cbce2066d,PennController,44,0,test_val,NULL,PennController,55,_Trial_,End,1738769560224,undefined,7188,heroin,negative,positive,B,NULL
1738770420,8d840ac313f2fe69b1376d6cbce2066d,PennController,81,0,test_val,NULL,PennController,92,_Trial_,Start,1738769560225,undefined,3242,princess,negative,positive,B,NULL
1738770420,8d840ac313f2fe69b1376d6cbce2066d,PennController,81,0,test_val,NULL,PennController,92,_Header_,Start,1738769560225,undefined,3242,princess,negative,positive,B,NULL
1738770420,8d840ac313f2fe69b1376d6cbce2066d,PennController,81,0,test_val,NULL,PennController,92,_Header_,End,1738769560477,undefined,3242,princess,negative,positive,B,NULL
1738770420,8d840ac313f2fe69b1376d6cbce2066d,PennController,81,0,test_val,NULL,Selector,unnamed-Selector,Selection,positive,1738769564221,undefined,3242,princess,negative,positive,B,negative;positive
1738770420,8d840ac313f2fe69b1376d6cbce2066d,PennController,81,0,test_val,NULL,PennController,92,_Trial_,End,1738769564222,undefined,3242,princess,negative,positive,B,NULL
1738770420,8d840ac313f2fe69b1376d6cbce2066d,PennController,72,0,test_val,NULL,PennController,83,_Trial_,Start,1738769564223,undefined,849,intruder,negative,positive,B,NULL
1738770420,8d840ac313f2fe69b1376d6cbce2066d,PennController,72,0,test_val,NULL,PennController,83,_Header_,Start,1738769564223,undefined,849,intruder,negative,positive,B,NULL
1738770420,8d840ac313f2fe69b1376d6cbce2066d,PennController,72,0,test_val,NULL,PennController,83,_Header_,End,1738769564474,undefined,849,intruder,negative,positive,B,NULL
1738770420,8d840ac313f2fe69b1376d6cbce2066d,PennController,72,0,test_val,NULL,Selector,unnamed-Selector,Selection,negative,1738769565828,undefined,849,intruder,negative,positive,B,negative;positive
1738770420,8d840ac313f2fe69b1376d6cbce2066d,PennController,72,0,test_val,NULL,PennController,83,_Trial_,End,1738769565828,undefined,849,intruder,negative,positive,B,NULL
1738770420,8d840ac313f2fe69b1376d6cbce2066d,PennController,60,0,test_val,NULL,PennController,71,_Trial_,Start,1738769565830,undefined,644,doughnut,negative,positive,B,NULL
1738770420,8d840ac313f2fe69b1376d6cbce2066d,PennController,60,0,test_val,NULL,PennController,71,_Header_,Start,1738769565830,undefined,644,doughnut,negative,positive,B,NULL
1738770420,8d840ac313f2fe69b1376d6cbce2066d,PennController,60,0,test_val,NULL,PennController,71,_Header_,End,1738769566080,undefined,644,doughnut,negative,positive,B,NULL
1738770420,8d840ac313f2fe69b1376d6cbce2066d,PennController,60,0,test_val,NULL,Selector,unnamed-Selector,Selection,positive,1738769567231,undefined,644,doughnut,negative,positive,B,negative;positive
1738770420,8d840ac313f2fe69b1376d6cbce2066d,PennController,60,0,test_val,NULL,PennController,71,_Trial_,End,1738769567232,undefined,644,doughnut,negative,positive,B,NULL
1738770420,8d840ac313f2fe69b1376d6cbce2066d,PennController,55,0,test_val,NULL,PennController,66,_Trial_,Start,1738769567233,undefined,1398,sunshine,negative,positive,B,NULL
1738770420,8d840ac313f2fe69b1376d6cbce2066d,PennController,55,0,test_val,NULL,PennController,66,_Header_,Start,1738769567233,undefined,1398,sunshine,negative,positive,B,NULL
1738770420,8d840ac313f2fe69b1376d6cbce2066d,PennController,55,0,test_val,NULL,PennController,66,_Header_,End,1738769567486,undefined,1398,sunshine,negative,positive,B,NULL
1738770420,8d840ac313f2fe69b1376d6cbce2066d,PennController,55,0,test_val,NULL,Selector,unnamed-Selector,Selection,negative,1738769569389,undefined,1398,sunshine,negative,positive,B,negative;positive
1738770420,8d840ac313f2fe69b1376d6cbce2066d,PennController,55,0,test_val,NULL,PennController,66,_Trial_,End,1738769569390,undefined,1398,sunshine,negative,positive,B,NULL
1738770420,8d840ac313f2fe69b1376d6cbce2066d,PennController,80,0,test_val,NULL,PennController,91,_Trial_,Start,1738769569391,undefined,790,child,negative,positive,B,NULL
1738770420,8d840ac313f2fe69b1376d6cbce2066d,PennController,80,0,test_val,NULL,PennController,91,_Header_,Start,1738769569391,undefined,790,child,negative,positive,B,NULL
1738770420,8d840ac313f2fe69b1376d6cbce2066d,PennController,80,0,test_val,NULL,PennController,91,_Header_,End,1738769569641,undefined,790,child,negative,positive,B,NULL
1738770420,8d840ac313f2fe69b1376d6cbce2066d,PennController,80,0,test_val,NULL,Selector,unnamed-Selector,Selection,positive,1738769570936,undefined,790,child,negative,positive,B,negative;positive
1738770420,8d840ac313f2fe69b1376d6cbce2066d,PennController,80,0,test_val,NULL,PennController,91,_Trial_,End,1738769570937,undefined,790,child,negative,positive,B,NULL
1738770420,8d840ac313f2fe69b1376d6cbce2066d,PennController,50,0,test_val,NULL,PennController,61,_Trial_,Start,1738769570939,undefined,1095,gunshot,negative,positive,B,NULL
1738770420,8d840ac313f2fe69b1376d6cbce2066d,PennController,50,0,test_val,NULL,PennController,61,_Header_,Start,1738769570939,undefined,1095,gunshot,negative,positive,B,NULL
1738770420,8d840ac313f2fe69b1376d6cbce2066d,PennController,50,0,test_val,NULL,PennController,61,_Header_,End,1738769571189,undefined,1095,gunshot,negative,positive,B,NULL
1738770420,8d840ac313f2fe69b1376d6cbce2066d,PennController,50,0,test_val,NULL,Selector,unnamed-Selector,Selection,negative,1738769572788,undefined,1095,gunshot,negative,positive,B,negative;positive
1738770420,8d840ac313f2fe69b1376d6cbce2066d,PennController,50,0,test_val,NULL,PennController,61,_Trial_,End,1738769572789,undefined,1095,gunshot,negative,positive,B,NULL
1738770420,8d840ac313f2fe69b1376d6cbce2066d,PennController,61,0,test_val,NULL,PennController,72,_Trial_,Start,1738769572789,undefined,505,dollar,negative,positive,B,NULL
1738770420,8d840ac313f2fe69b1376d6cbce2066d,PennController,61,0,test_val,NULL,PennController,72,_Header_,Start,1738769572789,undefined,505,dollar,negative,positive,B,NULL
1738770420,8d840ac313f2fe69b1376d6cbce2066d,PennController,61,0,test_val,NULL,PennController,72,_Header_,End,1738769573040,undefined,505,dollar,negative,positive,B,NULL
1738770420,8d840ac313f2fe69b1376d6cbce2066d,PennController,61,0,test_val,NULL,Selector,unnamed-Selector,Selection,positive,1738769574050,undefined,505,dollar,negative,positive,B,negative;positive
1738770420,8d840ac313f2fe69b1376d6cbce2066d,PennController,61,0,test_val,NULL,PennController,72,_Trial_,End,1738769574050,undefined,505,dollar,negative,positive,B,NULL
1738770420,8d840ac313f2fe69b1376d6cbce2066d,PennController,74,0,test_val,NULL,PennController,85,_Trial_,Start,1738769574051,undefined,608,comedian,negative,positive,B,NULL
1738770420,8d840ac313f2fe69b1376d6cbce2066d,PennController,74,0,test_val,NULL,PennController,85,_Header_,Start,1738769574051,undefined,608,comedian,negative,positive,B,NULL
1738770420,8d840ac313f2fe69b1376d6cbce2066d,PennController,74,0,test_val,NULL,PennController,85,_Header_,End,1738769574306,undefined,608,comedian,negative,positive,B,NULL
1738770420,8d840ac313f2fe69b1376d6cbce2066d,PennController,74,0,test_val,NULL,Selector,unnamed-Selector,Selection,positive,1738769575418,undefined,608,comedian,negative,positive,B,negative;positive
1738770420,8d840ac313f2fe69b1376d6cbce2066d,PennController,74,0,test_val,NULL,PennController,85,_Trial_,End,1738769575419,undefined,608,comedian,negative,positive,B,NULL
1738770420,8d840ac313f2fe69b1376d6cbce2066d,PennController,45,0,test_val,NULL,PennController,56,_Trial_,Start,1738769575420,undefined,623,swastika,negative,positive,B,NULL
1738770420,8d840ac313f2fe69b1376d6cbce2066d,PennController,45,0,test_val,NULL,PennController,56,_Header_,Start,1738769575420,undefined,623,swastika,negative,positive,B,NULL
1738770420,8d840ac313f2fe69b1376d6cbce2066d,PennController,45,0,test_val,NULL,PennController,56,_Header_,End,1738769575673,undefined,623,swastika,negative,positive,B,NULL
1738770420,8d840ac313f2fe69b1376d6cbce2066d,PennController,45,0,test_val,NULL,Selector,unnamed-Selector,Selection,negative,1738769576799,undefined,623,swastika,negative,positive,B,negative;positive
1738770420,8d840ac313f2fe69b1376d6cbce2066d,PennController,45,0,test_val,NULL,PennController,56,_Trial_,End,1738769576800,undefined,623,swastika,negative,positive,B,NULL
1738770420,8d840ac313f2fe69b1376d6cbce2066d,PennController,63,0,test_val,NULL,PennController,74,_Trial_,Start,1738769576801,undefined,805,meadow,negative,positive,B,NULL
1738770420,8d840ac313f2fe69b1376d6cbce2066d,PennController,63,0,test_val,NULL,PennController,74,_Header_,Start,1738769576801,undefined,805,meadow,negative,positive,B,NULL
1738770420,8d840ac313f2fe69b1376d6cbce2066d,PennController,63,0,test_val,NULL,PennController,74,_Header_,End,1738769577052,undefined,805,meadow,negative,positive,B,NULL
1738770420,8d840ac313f2fe69b1376d6cbce2066d,PennController,63,0,test_val,NULL,Selector,unnamed-Selector,Selection,positive,1738769578362,undefined,805,meadow,negative,positive,B,negative;positive
1738770420,8d840ac313f2fe69b1376d6cbce2066d,PennController,63,0,test_val,NULL,PennController,74,_Trial_,End,1738769578363,undefined,805,meadow,negative,positive,B,NULL
1738770420,8d840ac313f2fe69b1376d6cbce2066d,PennController,49,0,test_val,NULL,PennController,60,_Trial_,Start,1738769578364,undefined,2599,poison,negative,positive,B,NULL
1738770420,8d840ac313f2fe69b1376d6cbce2066d,PennController,49,0,test_val,NULL,PennController,60,_Header_,Start,1738769578364,undefined,2599,poison,negative,positive,B,NULL
1738770420,8d840ac313f2fe69b1376d6cbce2066d,PennController,49,0,test_val,NULL,PennController,60,_Header_,End,1738769578616,undefined,2599,poison,negative,positive,B,NULL
1738770420,8d840ac313f2fe69b1376d6cbce2066d,PennController,49,0,test_val,NULL,Selector,unnamed-Selector,Selection,negative,1738769581720,undefined,2599,poison,negative,positive,B,negative;positive
1738770420,8d840ac313f2fe69b1376d6cbce2066d,PennController,49,0,test_val,NULL,PennController,60,_Trial_,End,1738769581722,undefined,2599,poison,negative,positive,B,NULL
1738770420,8d840ac313f2fe69b1376d6cbce2066d,PennController,56,0,test_val,NULL,PennController,67,_Trial_,Start,1738769581722,undefined,713,award,negative,positive,B,NULL
1738770420,8d840ac313f2fe69b1376d6cbce2066d,PennController,56,0,test_val,NULL,PennController,67,_Header_,Start,1738769581722,undefined,713,award,negative,positive,B,NULL
1738770420,8d840ac313f2fe69b1376d6cbce2066d,PennController,56,0,test_val,NULL,PennController,67,_Header_,End,1738769581975,undefined,713,award,negative,positive,B,NULL
1738770420,8d840ac313f2fe69b1376d6cbce2066d,PennController,56,0,test_val,NULL,Selector,unnamed-Selector,Selection,positive,1738769583190,undefined,713,award,negative,positive,B,negative;positive
1738770420,8d840ac313f2fe69b1376d6cbce2066d,PennController,56,0,test_val,NULL,PennController,67,_Trial_,End,1738769583191,undefined,713,award,negative,positive,B,NULL
1738770420,8d840ac313f2fe69b1376d6cbce2066d,PennController,82,0,test_val,NULL,PennController,93,_Trial_,Start,1738769583192,undefined,670,chipmunk,negative,positive,B,NULL
1738770420,8d840ac313f2fe69b1376d6cbce2066d,PennController,82,0,test_val,NULL,PennController,93,_Header_,Start,1738769583192,undefined,670,chipmunk,negative,positive,B,NULL
1738770420,8d840ac313f2fe69b1376d6cbce2066d,PennController,82,0,test_val,NULL,PennController,93,_Header_,End,1738769583443,undefined,670,chipmunk,negative,positive,B,NULL
1738770420,8d840ac313f2fe69b1376d6cbce2066d,PennController,82,0,test_val,NULL,Selector,unnamed-Selector,Selection,positive,1738769584616,undefined,670,chipmunk,negative,positive,B,negative;positive
1738770420,8d840ac313f2fe69b1376d6cbce2066d,PennController,82,0,test_val,NULL,PennController,93,_Trial_,End,1738769584617,undefined,670,chipmunk,negative,positive,B,NULL
1738770420,8d840ac313f2fe69b1376d6cbce2066d,PennController,47,0,test_val,NULL,PennController,58,_Trial_,Start,1738769584618,undefined,649,cocaine,negative,positive,B,NULL
1738770420,8d840ac313f2fe69b1376d6cbce2066d,PennController,47,0,test_val,NULL,PennController,58,_Header_,Start,1738769584618,undefined,649,cocaine,negative,positive,B,NULL
1738770420,8d840ac313f2fe69b1376d6cbce2066d,PennController,47,0,test_val,NULL,PennController,58,_Header_,End,1738769584868,undefined,649,cocaine,negative,positive,B,NULL
1738770420,8d840ac313f2fe69b1376d6cbce2066d,PennController,47,0,test_val,NULL,Selector,unnamed-Selector,Selection,negative,1738769586019,undefined,649,cocaine,negative,positive,B,negative;positive
1738770420,8d840ac313f2fe69b1376d6cbce2066d,PennController,47,0,test_val,NULL,PennController,58,_Trial_,End,1738769586020,undefined,649,cocaine,negative,positive,B,NULL
1738770420,8d840ac313f2fe69b1376d6cbce2066d,PennController,68,0,test_val,NULL,PennController,79,_Trial_,Start,1738769586021,undefined,577,inmate,negative,positive,B,NULL
1738770420,8d840ac313f2fe69b1376d6cbce2066d,PennController,68,0,test_val,NULL,PennController,79,_Header_,Start,1738769586021,undefined,577,inmate,negative,positive,B,NULL
1738770420,8d840ac313f2fe69b1376d6cbce2066d,PennController,68,0,test_val,NULL,PennController,79,_Header_,End,1738769586273,undefined,577,inmate,negative,positive,B,NULL
1738770420,8d840ac313f2fe69b1376d6cbce2066d,PennController,68,0,test_val,NULL,Selector,unnamed-Selector,Selection,negative,1738769587353,undefined,577,inmate,negative,positive,B,negative;positive
1738770420,8d840ac313f2fe69b1376d6cbce2066d,PennController,68,0,test_val,NULL,PennController,79,_Trial_,End,1738769587354,undefined,577,inmate,negative,positive,B,NULL
1738770420,8d840ac313f2fe69b1376d6cbce2066d,PennController,77,0,test_val,NULL,PennController,88,_Trial_,Start,1738769587355,undefined,658,duckling,negative,positive,B,NULL
1738770420,8d840ac313f2fe69b1376d6cbce2066d,PennController,77,0,test_val,NULL,PennController,88,_Header_,Start,1738769587355,undefined,658,duckling,negative,positive,B,NULL
1738770420,8d840ac313f2fe69b1376d6cbce2066d,PennController,77,0,test_val,NULL,PennController,88,_Header_,End,1738769587608,undefined,658,duckling,negative,positive,B,NULL
1738770420,8d840ac313f2fe69b1376d6cbce2066d,PennController,77,0,test_val,NULL,Selector,unnamed-Selector,Selection,positive,1738769588767,undefined,658,duckling,negative,positive,B,negative;positive
1738770420,8d840ac313f2fe69b1376d6cbce2066d,PennController,77,0,test_val,NULL,PennController,88,_Trial_,End,1738769588768,undefined,658,duckling,negative,positive,B,NULL
1738770420,8d840ac313f2fe69b1376d6cbce2066d,PennController,52,0,test_val,NULL,PennController,63,_Trial_,Start,1738769588769,undefined,654,smallpox,negative,positive,B,NULL
1738770420,8d840ac313f2fe69b1376d6cbce2066d,PennController,52,0,test_val,NULL,PennController,63,_Header_,Start,1738769588769,undefined,654,smallpox,negative,positive,B,NULL
1738770420,8d840ac313f2fe69b1376d6cbce2066d,PennController,52,0,test_val,NULL,PennController,63,_Header_,End,1738769589023,undefined,654,smallpox,negative,positive,B,NULL
1738770420,8d840ac313f2fe69b1376d6cbce2066d,PennController,52,0,test_val,NULL,Selector,unnamed-Selector,Selection,negative,1738769590181,undefined,654,smallpox,negative,positive,B,negative;positive
1738770420,8d840ac313f2fe69b1376d6cbce2066d,PennController,52,0,test_val,NULL,PennController,63,_Trial_,End,1738769590182,undefined,654,smallpox,negative,positive,B,NULL
1738770420,8d840ac313f2fe69b1376d6cbce2066d,PennController,70,0,test_val,NULL,PennController,81,_Trial_,Start,1738769590183,undefined,553,leech,negative,positive,B,NULL
1738770420,8d840ac313f2fe69b1376d6cbce2066d,PennController,70,0,test_val,NULL,PennController,81,_Header_,Start,1738769590183,undefined,553,leech,negative,positive,B,NULL
1738770420,8d840ac313f2fe69b1376d6cbce2066d,PennController,70,0,test_val,NULL,PennController,81,_Header_,End,1738769590435,undefined,553,leech,negative,positive,B,NULL
1738770420,8d840ac313f2fe69b1376d6cbce2066d,PennController,70,0,test_val,NULL,Selector,unnamed-Selector,Selection,negative,1738769591492,undefined,553,leech,negative,positive,B,negative;positive
1738770420,8d840ac313f2fe69b1376d6cbce2066d,PennController,70,0,test_val,NULL,PennController,81,_Trial_,End,1738769591493,undefined,553,leech,negative,positive,B,NULL
1738770420,8d840ac313f2fe69b1376d6cbce2066d,PennController,73,0,test_val,NULL,PennController,84,_Trial_,Start,1738769591494,undefined,563,mugger,negative,positive,B,NULL
1738770420,8d840ac313f2fe69b1376d6cbce2066d,PennController,73,0,test_val,NULL,PennController,84,_Header_,Start,1738769591494,undefined,563,mugger,negative,positive,B,NULL
1738770420,8d840ac313f2fe69b1376d6cbce2066d,PennController,73,0,test_val,NULL,PennController,84,_Header_,End,1738769591748,undefined,563,mugger,negative,positive,B,NULL
1738770420,8d840ac313f2fe69b1376d6cbce2066d,PennController,73,0,test_val,NULL,Selector,unnamed-Selector,Selection,negative,1738769592816,undefined,563,mugger,negative,positive,B,negative;positive
1738770420,8d840ac313f2fe69b1376d6cbce2066d,PennController,73,0,test_val,NULL,PennController,84,_Trial_,End,1738769592817,undefined,563,mugger,negative,positive,B,NULL
1738770420,8d840ac313f2fe69b1376d6cbce2066d,PennController,59,0,test_val,NULL,PennController,70,_Trial_,Start,1738769592818,undefined,541,feast,negative,positive,B,NULL
1738770420,8d840ac313f2fe69b1376d6cbce2066d,PennController,59,0,test_val,NULL,PennController,70,_Header_,Start,1738769592818,undefined,541,feast,negative,positive,B,NULL
1738770420,8d840ac313f2fe69b1376d6cbce2066d,PennController,59,0,test_val,NULL,PennController,70,_Header_,End,1738769593069,undefined,541,feast,negative,positive,B,NULL
1738770420,8d840ac313f2fe69b1376d6cbce2066d,PennController,59,0,test_val,NULL,Selector,unnamed-Selector,Selection,positive,1738769594114,undefined,541,feast,negative,positive,B,negative;positive
1738770420,8d840ac313f2fe69b1376d6cbce2066d,PennController,59,0,test_val,NULL,PennController,70,_Trial_,End,1738769594115,undefined,541,feast,negative,positive,B,NULL
1738770420,8d840ac313f2fe69b1376d6cbce2066d,PennController,75,0,test_val,NULL,PennController,86,_Trial_,Start,1738769594116,undefined,500,puppy,negative,positive,B,NULL
1738770420,8d840ac313f2fe69b1376d6cbce2066d,PennController,75,0,test_val,NULL,PennController,86,_Header_,Start,1738769594116,undefined,500,puppy,negative,positive,B,NULL
1738770420,8d840ac313f2fe69b1376d6cbce2066d,PennController,75,0,test_val,NULL,PennController,86,_Header_,End,1738769594366,undefined,500,puppy,negative,positive,B,NULL
1738770420,8d840ac313f2fe69b1376d6cbce2066d,PennController,75,0,test_val,NULL,Selector,unnamed-Selector,Selection,negative,1738769595371,undefined,500,puppy,negative,positive,B,negative;positive
1738770420,8d840ac313f2fe69b1376d6cbce2066d,PennController,75,0,test_val,NULL,PennController,86,_Trial_,End,1738769595372,undefined,500,puppy,negative,positive,B,NULL
1738770420,8d840ac313f2fe69b1376d6cbce2066d,PennController,64,0,test_val,NULL,PennController,75,_Trial_,Start,1738769595373,undefined,652,slave,negative,positive,B,NULL
1738770420,8d840ac313f2fe69b1376d6cbce2066d,PennController,64,0,test_val,NULL,PennController,75,_Header_,Start,1738769595373,undefined,652,slave,negative,positive,B,NULL
1738770420,8d840ac313f2fe69b1376d6cbce2066d,PennController,64,0,test_val,NULL,PennController,75,_Header_,End,1738769595624,undefined,652,slave,negative,positive,B,NULL
1738770420,8d840ac313f2fe69b1376d6cbce2066d,PennController,64,0,test_val,NULL,Selector,unnamed-Selector,Selection,negative,1738769596783,undefined,652,slave,negative,positive,B,negative;positive
1738770420,8d840ac313f2fe69b1376d6cbce2066d,PennController,64,0,test_val,NULL,PennController,75,_Trial_,End,1738769596784,undefined,652,slave,negative,positive,B,NULL
1738770420,8d840ac313f2fe69b1376d6cbce2066d,PennController,71,0,test_val,NULL,PennController,82,_Trial_,Start,1738769596786,undefined,1162,tapeworm,negative,positive,B,NULL
1738770420,8d840ac313f2fe69b1376d6cbce2066d,PennController,71,0,test_val,NULL,PennController,82,_Header_,Start,1738769596786,undefined,1162,tapeworm,negative,positive,B,NULL
1738770420,8d840ac313f2fe69b1376d6cbce2066d,PennController,71,0,test_val,NULL,PennController,82,_Header_,End,1738769597039,undefined,1162,tapeworm,negative,positive,B,NULL
1738770420,8d840ac313f2fe69b1376d6cbce2066d,PennController,71,0,test_val,NULL,Selector,unnamed-Selector,Selection,negative,1738769598707,undefined,1162,tapeworm,negative,positive,B,negative;positive
1738770420,8d840ac313f2fe69b1376d6cbce2066d,PennController,71,0,test_val,NULL,PennController,82,_Trial_,End,1738769598708,undefined,1162,tapeworm,negative,positive,B,NULL
1738770420,8d840ac313f2fe69b1376d6cbce2066d,PennController,65,0,test_val,NULL,PennController,76,_Trial_,Start,1738769598709,undefined,683,asshole,negative,positive,B,NULL
1738770420,8d840ac313f2fe69b1376d6cbce2066d,PennController,65,0,test_val,NULL,PennController,76,_Header_,Start,1738769598709,undefined,683,asshole,negative,positive,B,NULL
1738770420,8d840ac313f2fe69b1376d6cbce2066d,PennController,65,0,test_val,NULL,PennController,76,_Header_,End,1738769598961,undefined,683,asshole,negative,positive,B,NULL
1738770420,8d840ac313f2fe69b1376d6cbce2066d,PennController,65,0,test_val,NULL,Selector,unnamed-Selector,Selection,negative,1738769600146,undefined,683,asshole,negative,positive,B,negative;positive
1738770420,8d840ac313f2fe69b1376d6cbce2066d,PennController,65,0,test_val,NULL,PennController,76,_Trial_,End,1738769600147,undefined,683,asshole,negative,positive,B,NULL
1738770420,8d840ac313f2fe69b1376d6cbce2066d,PennController,67,0,test_val,NULL,PennController,78,_Trial_,Start,1738769600148,undefined,831,widow,negative,positive,B,NULL
1738770420,8d840ac313f2fe69b1376d6cbce2066d,PennController,67,0,test_val,NULL,PennController,78,_Header_,Start,1738769600149,undefined,831,widow,negative,positive,B,NULL
1738770420,8d840ac313f2fe69b1376d6cbce2066d,PennController,67,0,test_val,NULL,PennController,78,_Header_,End,1738769600401,undefined,831,widow,negative,positive,B,NULL
1738770420,8d840ac313f2fe69b1376d6cbce2066d,PennController,67,0,test_val,NULL,Selector,unnamed-Selector,Selection,negative,1738769601735,undefined,831,widow,negative,positive,B,negative;positive
1738770420,8d840ac313f2fe69b1376d6cbce2066d,PennController,67,0,test_val,NULL,PennController,78,_Trial_,End,1738769601736,undefined,831,widow,negative,positive,B,NULL
1738770420,8d840ac313f2fe69b1376d6cbce2066d,PennController,48,0,test_val,NULL,PennController,59,_Trial_,Start,1738769601737,undefined,687,excrement,negative,positive,B,NULL
1738770420,8d840ac313f2fe69b1376d6cbce2066d,PennController,48,0,test_val,NULL,PennController,59,_Header_,Start,1738769601737,undefined,687,excrement,negative,positive,B,NULL
1738770420,8d840ac313f2fe69b1376d6cbce2066d,PennController,48,0,test_val,NULL,PennController,59,_Header_,End,1738769601987,undefined,687,excrement,negative,positive,B,NULL
1738770420,8d840ac313f2fe69b1376d6cbce2066d,PennController,48,0,test_val,NULL,Selector,unnamed-Selector,Selection,negative,1738769603174,undefined,687,excrement,negative,positive,B,negative;positive
1738770420,8d840ac313f2fe69b1376d6cbce2066d,PennController,48,0,test_val,NULL,PennController,59,_Trial_,End,1738769603175,undefined,687,excrement,negative,positive,B,NULL
1738770420,8d840ac313f2fe69b1376d6cbce2066d,PennController,79,0,test_val,NULL,PennController,90,_Trial_,Start,1738769603176,undefined,510,bunny,negative,positive,B,NULL
1738770420,8d840ac313f2fe69b1376d6cbce2066d,PennController,79,0,test_val,NULL,PennController,90,_Header_,Start,1738769603176,undefined,510,bunny,negative,positive,B,NULL
1738770420,8d840ac313f2fe69b1376d6cbce2066d,PennController,79,0,test_val,NULL,PennController,90,_Header_,End,1738769603428,undefined,510,bunny,negative,positive,B,NULL
1738770420,8d840ac313f2fe69b1376d6cbce2066d,PennController,79,0,test_val,NULL,Selector,unnamed-Selector,Selection,positive,1738769604440,undefined,510,bunny,negative,positive,B,negative;positive
1738770420,8d840ac313f2fe69b1376d6cbce2066d,PennController,79,0,test_val,NULL,PennController,90,_Trial_,End,1738769604441,undefined,510,bunny,negative,positive,B,NULL
1738770420,8d840ac313f2fe69b1376d6cbce2066d,PennController,76,0,test_val,NULL,PennController,87,_Trial_,Start,1738769604442,undefined,536,sibling,negative,positive,B,NULL
1738770420,8d840ac313f2fe69b1376d6cbce2066d,PennController,76,0,test_val,NULL,PennController,87,_Header_,Start,1738769604442,undefined,536,sibling,negative,positive,B,NULL
1738770420,8d840ac313f2fe69b1376d6cbce2066d,PennController,76,0,test_val,NULL,PennController,87,_Header_,End,1738769604694,undefined,536,sibling,negative,positive,B,NULL
1738770420,8d840ac313f2fe69b1376d6cbce2066d,PennController,76,0,test_val,NULL,Selector,unnamed-Selector,Selection,positive,1738769605733,undefined,536,sibling,negative,positive,B,negative;positive
1738770420,8d840ac313f2fe69b1376d6cbce2066d,PennController,76,0,test_val,NULL,PennController,87,_Trial_,End,1738769605733,undefined,536,sibling,negative,positive,B,NULL
1738770420,8d840ac313f2fe69b1376d6cbce2066d,PennController,53,0,test_val,NULL,PennController,64,_Trial_,Start,1738769605734,undefined,562,corpse,negative,positive,B,NULL
1738770420,8d840ac313f2fe69b1376d6cbce2066d,PennController,53,0,test_val,NULL,PennController,64,_Header_,Start,1738769605734,undefined,562,corpse,negative,positive,B,NULL
1738770420,8d840ac313f2fe69b1376d6cbce2066d,PennController,53,0,test_val,NULL,PennController,64,_Header_,End,1738769605989,undefined,562,corpse,negative,positive,B,NULL
1738770420,8d840ac313f2fe69b1376d6cbce2066d,PennController,53,0,test_val,NULL,Selector,unnamed-Selector,Selection,positive,1738769607058,undefined,562,corpse,negative,positive,B,negative;positive
1738770420,8d840ac313f2fe69b1376d6cbce2066d,PennController,53,0,test_val,NULL,PennController,64,_Trial_,End,1738769607058,undefined,562,corpse,negative,positive,B,NULL
1738770420,8d840ac313f2fe69b1376d6cbce2066d,PennController,83,0,test_val,NULL,PennController,94,_Trial_,Start,1738769607059,undefined,706,husband,negative,positive,B,NULL
1738770420,8d840ac313f2fe69b1376d6cbce2066d,PennController,83,0,test_val,NULL,PennController,94,_Header_,Start,1738769607059,undefined,706,husband,negative,positive,B,NULL
1738770420,8d840ac313f2fe69b1376d6cbce2066d,PennController,83,0,test_val,NULL,PennController,94,_Header_,End,1738769607311,undefined,706,husband,negative,positive,B,NULL
1738770420,8d840ac313f2fe69b1376d6cbce2066d,PennController,83,0,test_val,NULL,Selector,unnamed-Selector,Selection,positive,1738769608522,undefined,706,husband,negative,positive,B,negative;positive
1738770420,8d840ac313f2fe69b1376d6cbce2066d,PennController,83,0,test_val,NULL,PennController,94,_Trial_,End,1738769608523,undefined,706,husband,negative,positive,B,NULL
1738770420,8d840ac313f2fe69b1376d6cbce2066d,PennController,78,0,test_val,NULL,PennController,89,_Trial_,Start,1738769608523,undefined,852,kitten,negative,positive,B,NULL
1738770420,8d840ac313f2fe69b1376d6cbce2066d,PennController,78,0,test_val,NULL,PennController,89,_Header_,Start,1738769608523,undefined,852,kitten,negative,positive,B,NULL
1738770420,8d840ac313f2fe69b1376d6cbce2066d,PennController,78,0,test_val,NULL,PennController,89,_Header_,End,1738769608776,undefined,852,kitten,negative,positive,B,NULL
1738770420,8d840ac313f2fe69b1376d6cbce2066d,PennController,78,0,test_val,NULL,Selector,unnamed-Selector,Selection,positive,1738769610133,undefined,852,kitten,negative,positive,B,negative;positive
1738770420,8d840ac313f2fe69b1376d6cbce2066d,PennController,78,0,test_val,NULL,PennController,89,_Trial_,End,1738769610134,undefined,852,kitten,negative,positive,B,NULL
1738770420,8d840ac313f2fe69b1376d6cbce2066d,PennController,56,0,test_val,NULL,PennController,67,_Trial_,Start,1738769610135,undefined,528,award,negative,positive,B,NULL
1738770420,8d840ac313f2fe69b1376d6cbce2066d,PennController,56,0,test_val,NULL,PennController,67,_Header_,Start,1738769610135,undefined,528,award,negative,positive,B,NULL
1738770420,8d840ac313f2fe69b1376d6cbce2066d,PennController,56,0,test_val,NULL,PennController,67,_Header_,End,1738769610389,undefined,528,award,negative,positive,B,NULL
1738770420,8d840ac313f2fe69b1376d6cbce2066d,PennController,56,0,test_val,NULL,Selector,unnamed-Selector,Selection,positive,1738769611421,undefined,528,award,negative,positive,B,negative;positive
1738770420,8d840ac313f2fe69b1376d6cbce2066d,PennController,56,0,test_val,NULL,PennController,67,_Trial_,End,1738769611421,undefined,528,award,negative,positive,B,NULL
1738770420,8d840ac313f2fe69b1376d6cbce2066d,PennController,64,0,test_val,NULL,PennController,75,_Trial_,Start,1738769611422,undefined,614,slave,negative,positive,B,NULL
1738770420,8d840ac313f2fe69b1376d6cbce2066d,PennController,64,0,test_val,NULL,PennController,75,_Header_,Start,1738769611422,undefined,614,slave,negative,positive,B,NULL
1738770420,8d840ac313f2fe69b1376d6cbce2066d,PennController,64,0,test_val,NULL,PennController,75,_Header_,End,1738769611672,undefined,614,slave,negative,positive,B,NULL
1738770420,8d840ac313f2fe69b1376d6cbce2066d,PennController,64,0,test_val,NULL,Selector,unnamed-Selector,Selection,negative,1738769612787,undefined,614,slave,negative,positive,B,negative;positive
1738770420,8d840ac313f2fe69b1376d6cbce2066d,PennController,64,0,test_val,NULL,PennController,75,_Trial_,End,1738769612788,undefined,614,slave,negative,positive,B,NULL
1738770420,8d840ac313f2fe69b1376d6cbce2066d,PennController,68,0,test_val,NULL,PennController,79,_Trial_,Start,1738769612789,undefined,601,inmate,negative,positive,B,NULL
1738770420,8d840ac313f2fe69b1376d6cbce2066d,PennController,68,0,test_val,NULL,PennController,79,_Header_,Start,1738769612789,undefined,601,inmate,negative,positive,B,NULL
1738770420,8d840ac313f2fe69b1376d6cbce2066d,PennController,68,0,test_val,NULL,PennController,79,_Header_,End,1738769613043,undefined,601,inmate,negative,positive,B,NULL
1738770420,8d840ac313f2fe69b1376d6cbce2066d,PennController,68,0,test_val,NULL,Selector,unnamed-Selector,Selection,negative,1738769614147,undefined,601,inmate,negative,positive,B,negative;positive
1738770420,8d840ac313f2fe69b1376d6cbce2066d,PennController,68,0,test_val,NULL,PennController,79,_Trial_,End,1738769614148,undefined,601,inmate,negative,positive,B,NULL
1738770420,8d840ac313f2fe69b1376d6cbce2066d,PennController,57,0,test_val,NULL,PennController,68,_Trial_,Start,1738769614149,undefined,570,pizza,negative,positive,B,NULL
1738770420,8d840ac313f2fe69b1376d6cbce2066d,PennController,57,0,test_val,NULL,PennController,68,_Header_,Start,1738769614149,undefined,570,pizza,negative,positive,B,NULL
1738770420,8d840ac313f2fe69b1376d6cbce2066d,PennController,57,0,test_val,NULL,PennController,68,_Header_,End,1738769614402,undefined,570,pizza,negative,positive,B,NULL
1738770420,8d840ac313f2fe69b1376d6cbce2066d,PennController,57,0,test_val,NULL,Selector,unnamed-Selector,Selection,positive,1738769615475,undefined,570,pizza,negative,positive,B,negative;positive
1738770420,8d840ac313f2fe69b1376d6cbce2066d,PennController,57,0,test_val,NULL,PennController,68,_Trial_,End,1738769615476,undefined,570,pizza,negative,positive,B,NULL
1738770420,8d840ac313f2fe69b1376d6cbce2066d,PennController,72,0,test_val,NULL,PennController,83,_Trial_,Start,1738769615477,undefined,648,intruder,negative,positive,B,NULL
1738770420,8d840ac313f2fe69b1376d6cbce2066d,PennController,72,0,test_val,NULL,PennController,83,_Header_,Start,1738769615477,undefined,648,intruder,negative,positive,B,NULL
1738770420,8d840ac313f2fe69b1376d6cbce2066d,PennController,72,0,test_val,NULL,PennController,83,_Header_,End,1738769615729,undefined,648,intruder,negative,positive,B,NULL
1738770420,8d840ac313f2fe69b1376d6cbce2066d,PennController,72,0,test_val,NULL,Selector,unnamed-Selector,Selection,negative,1738769616882,undefined,648,intruder,negative,positive,B,negative;positive
1738770420,8d840ac313f2fe69b1376d6cbce2066d,PennController,72,0,test_val,NULL,PennController,83,_Trial_,End,1738769616883,undefined,648,intruder,negative,positive,B,NULL
1738770420,8d840ac313f2fe69b1376d6cbce2066d,PennController,82,0,test_val,NULL,PennController,93,_Trial_,Start,1738769616884,undefined,588,chipmunk,negative,positive,B,NULL
