"","ID.true","Word","Label","Animacy","Valence","Task","BlockOrder","Group","Response","Accuracy","EventTime","Value","RT","ReactionTime","Key_value_F","Key_value_J","Comments","LogReactionTime","LogRT","TrialNumber"
"1","63fcf7251ace1792db0941b0","intruder","test_val","animate","negative","Valence","VA","","negative",1,1738770141578,"negative",1769,1311,"B","negative;positive","",7.1785454837637,7.47816969415979,1
"2","63fcf7251ace1792db0941b0","gunshot","test_val","inanimate","negative","Valence","VA","","negative",1,1738770144059,"negative",1710.16666666667,1705,"B","negative;positive","",7.44132038971762,7.44434611063415,2
"3","63fcf7251ace1792db0941b0","princess","test_val","animate","positive","Valence","VA","","positive",1,1738770145834,"positive",1505.83333333333,1011,"B","negative;positive","",6.91869521902047,7.31710173379827,3
"4","63fcf7251ace1792db0941b0","sibling","test_val","animate","positive","Valence","VA","","positive",1,1738770147850,"positive",1651.33333333333,1254,"B","negative;positive","",7.13409372119287,7.4093383213812,4
"5","63fcf7251ace1792db0941b0","dictator","test_val","animate","negative","Valence","VA","","negative",1,1738770149618,"negative",1643,1008,"B","negative;positive","",6.91572344863131,7.40427911803727,5
"6","63fcf7251ace1792db0941b0","chipmunk","test_val","animate","positive","Valence","VA","","positive",1,1738770151290,"positive",1486.16666666667,912,"B","negative;positive","",6.81563999007433,7.30395537690682,6
"7","63fcf7251ace1792db0941b0","puppy","test_val","animate","positive","Valence","VA","","positive",1,1738770152962,"positive",1420,913,"B","negative;positive","",6.81673588059497,7.25841215059531,7
"8","63fcf7251ace1792db0941b0","award","test_val","inanimate","positive","Valence","VA","","positive",1,1738770154522,"positive",1514,801,"B","negative;positive","",6.68586094706836,7.32251043399739,8
"9","63fcf7251ace1792db0941b0","child","test_val","animate","positive","Valence","VA","","positive",1,1738770155930,"positive",1400.66666666667,646,"B","negative;positive","",6.4707995037826,7.24470359273684,9
"10","63fcf7251ace1792db0941b0","sandwich","test_val","inanimate","positive","Valence","VA","","positive",1,1738770157370,"positive",1539.5,678,"B","negative;positive","",6.5191472879404,7.33921296736456,10
"11","63fcf7251ace1792db0941b0","slave","test_val","animate","negative","Valence","VA","","negative",1,1738770158826,"negative",1551.33333333333,695,"B","negative;positive","",6.54391184556479,7.34687005519413,11
"12","63fcf7251ace1792db0941b0","feast","test_val","inanimate","positive","Valence","VA","","positive",1,1738770160521,"positive",1645.66666666667,936,"B","negative;positive","",6.84161547647759,7.40590084959075,12
"13","63fcf7251ace1792db0941b0","sunshine","test_val","inanimate","positive","Valence","VA","","positive",1,1738770162034,"positive",1672.83333333333,754,"B","negative;positive","",6.62539236800796,7.42227407458575,13
"14","63fcf7251ace1792db0941b0","comedian","test_val","animate","positive","Valence","VA","","positive",1,1738770163530,"positive",1547.16666666667,739,"B","negative;positive","",6.6052979209482,7.34418058017188,14
"15","63fcf7251ace1792db0941b0","wiretap","test_val","inanimate","negative","Valence","VA","","negative",1,1738770165138,"negative",1576.66666666667,845,"B","negative;positive","",6.73933662735717,7.36306819281787,15
"16","63fcf7251ace1792db0941b0","corpse","test_val","inanimate","negative","Valence","VA","","negative",1,1738770166578,"negative",1789.66666666667,677,"B","negative;positive","",6.51767127291227,7.48978466175446,16
"17","63fcf7251ace1792db0941b0","flood","test_val","inanimate","negative","Valence","VA","","negative",1,1738770168185,"negative",1540,834,"B","negative;positive","",6.72623340235875,7.33953769540767,17
"18","63fcf7251ace1792db0941b0","swastika","test_val","inanimate","negative","Valence","VA","","negative",1,1738770169681,"negative",1480.33333333333,736,"B","negative;positive","",6.60123011872888,7.30002256662399,18
"19","63fcf7251ace1792db0941b0","smallpox","test_val","inanimate","negative","Valence","VA","","negative",1,1738770171357,"negative",1618.33333333333,915,"B","negative;positive","",6.81892406527552,7.38915209205732,19
"20","63fcf7251ace1792db0941b0","widow","test_val","animate","negative","Valence","VA","","negative",1,1738770173066,"negative",1806.5,948,"B","negative;positive","",6.85435450225502,7.4991465505877,20
"21","63fcf7251ace1792db0941b0","duckling","test_val","animate","positive","Valence","VA","","positive",1,1738770174738,"positive",1461.83333333333,910,"B","negative;positive","",6.8134445995109,7.28744663472333,21
"22","63fcf7251ace1792db0941b0","pizza","test_val","inanimate","positive","Valence","VA","","positive",1,1738770176227,"positive",1548.5,727,"B","negative;positive","",6.58892647753352,7.34504199941326,22
"23","63fcf7251ace1792db0941b0","poison","test_val","inanimate","negative","Valence","VA","","negative",1,1738770177666,"negative",1472.33333333333,679,"B","negative;positive","",6.5206211275587,7.29460372292842,23
"24","63fcf7251ace1792db0941b0","leech","test_val","animate","negative","Valence","VA","","negative",1,1738770179194,"negative",1523.66666666667,765,"B","negative;positive","",6.63987583382654,7.32887498966363,24
"25","63fcf7251ace1792db0941b0","meadow","test_val","inanimate","positive","Valence","VA","","positive",1,1738770180786,"positive",1723,834,"B","negative;positive","",6.72623340235875,7.45182223652793,25
"26","63fcf7251ace1792db0941b0","asshole","test_val","animate","negative","Valence","VA","","negative",1,1738770182250,"negative",1668.16666666667,705,"B","negative;positive","",6.55819780281227,7.41948049799096,26
"27","63fcf7251ace1792db0941b0","prize","test_val","inanimate","positive","Valence","VA","","positive",1,1738770183810,"positive",1615.83333333333,800,"B","negative;positive","",6.68461172766793,7.3876060984487,27
"28","63fcf7251ace1792db0941b0","laughter","test_val","inanimate","positive","Valence","VA","","positive",1,1738770185338,"positive",1580.83333333333,770,"B","negative;positive","",6.64639051484773,7.36570741314106,28
"29","63fcf7251ace1792db0941b0","mugger","test_val","animate","negative","Valence","VA","","negative",1,1738770186850,"negative",1691,751,"B","negative;positive","",6.62140565176413,7.43307534889858,29
"30","63fcf7251ace1792db0941b0","inmate","test_val","animate","negative","Valence","VA","","negative",1,1738770188290,"negative",1590,680,"B","negative;positive","",6.52209279817015,7.37148929521428,30
"31","63fcf7251ace1792db0941b0","bunny","test_val","animate","positive","Valence","VA","","positive",1,1738770189754,"positive",1436,707,"B","negative;positive","",6.56103066589657,7.26961674960817,31
"32","63fcf7251ace1792db0941b0","husband","test_val","animate","positive","Valence","VA","","positive",1,1738770191218,"positive",1490.33333333333,702,"B","negative;positive","",6.55393340402581,7.30675508756587,32
"33","63fcf7251ace1792db0941b0","cocaine","test_val","inanimate","negative","Valence","VA","","negative",1,1738770192706,"negative",1508.66666666667,726,"B","negative;positive","",6.5875500148248,7.31898153752537,33
"34","63fcf7251ace1792db0941b0","maggot","test_val","animate","negative","Valence","VA","","negative",1,1738770194274,"negative",1499.5,808,"B","negative;positive","",6.69456205852109,7.31288699818906,34
"35","63fcf7251ace1792db0941b0","doughnut","test_val","inanimate","positive","Valence","VA","","positive",1,1738770195746,"positive",1495.16666666667,711,"B","negative;positive","",6.56667242980324,7.30999296233123,35
"36","63fcf7251ace1792db0941b0","kitten","test_val","animate","positive","Valence","VA","","positive",1,1738770197298,"positive",1404.66666666667,794,"B","negative;positive","",6.67708346124714,7.24755530569603,36
"37","63fcf7251ace1792db0941b0","tapeworm","test_val","animate","negative","Valence","VA","","negative",1,1738770198802,"negative",1573.16666666667,742,"B","negative;positive","",6.60934924316738,7.36084585209689,37
"38","63fcf7251ace1792db0941b0","excrement","test_val","inanimate","negative","Valence","VA","","negative",1,1738770200370,"negative",1582.16666666667,808,"B","negative;positive","",6.69456205852109,7.36655049465374,38
"39","63fcf7251ace1792db0941b0","heroin","test_val","inanimate","negative","Valence","VA","","negative",1,1738770201850,"negative",1510,720,"B","negative;positive","",6.5792512120101,7.31986492980897,39
"40","63fcf7251ace1792db0941b0","dollar","test_val","inanimate","positive","Valence","VA","","positive",1,1738770203369,"positive",1451.33333333333,760,"B","negative;positive","",6.63331843328038,7.28023795312638,40
"41","63fcf7251ace1792db0941b0","dollar","test_val","inanimate","positive","Valence","VA","","positive",1,1738770204682,"positive",1451.33333333333,552,"B","negative;positive","",6.31354804627709,7.28023795312638,41
"42","63fcf7251ace1792db0941b0","bunny","test_val","animate","positive","Valence","VA","","positive",1,1738770206090,"positive",1436,649,"B","negative;positive","",6.47543271670409,7.26961674960817,42
"43","63fcf7251ace1792db0941b0","kitten","test_val","animate","positive","Valence","VA","","positive",1,1738770207426,"positive",1404.66666666667,578,"B","negative;positive","",6.35957386867238,7.24755530569603,43
"44","63fcf7251ace1792db0941b0","puppy","test_val","animate","positive","Valence","VA","","positive",1,1738770208769,"positive",1420,582,"B","negative;positive","",6.36647044773144,7.25841215059531,44
"45","63fcf7251ace1792db0941b0","gunshot","test_val","inanimate","negative","Valence","VA","","negative",1,1738770210306,"negative",1710.16666666667,778,"B","negative;positive","",6.65672652417839,7.44434611063415,45
"46","63fcf7251ace1792db0941b0","feast","test_val","inanimate","positive","Valence","VA","","positive",1,1738770211979,"positive",1645.66666666667,913,"B","negative;positive","",6.81673588059497,7.40590084959075,46
"47","63fcf7251ace1792db0941b0","leech","test_val","animate","negative","Valence","VA","","negative",1,1738770213474,"negative",1523.66666666667,735,"B","negative;positive","",6.59987049921284,7.32887498966363,47
"48","63fcf7251ace1792db0941b0","pizza","test_val","inanimate","positive","Valence","VA","","positive",1,1738770214962,"positive",1548.5,730,"B","negative;positive","",6.59304453414244,7.34504199941326,48
"49","63fcf7251ace1792db0941b0","sunshine","test_val","inanimate","positive","Valence","VA","","positive",1,1738770216410,"positive",1672.83333333333,685,"B","negative;positive","",6.52941883826223,7.42227407458575,49
"50","63fcf7251ace1792db0941b0","meadow","test_val","inanimate","positive","Valence","VA","","positive",1,1738770217746,"positive",1723,577,"B","negative;positive","",6.3578422665081,7.45182223652793,50
"51","63fcf7251ace1792db0941b0","wiretap","test_val","inanimate","negative","Valence","VA","","negative",1,1738770219226,"negative",1576.66666666667,723,"B","negative;positive","",6.58340922215876,7.36306819281787,51
"52","63fcf7251ace1792db0941b0","flood","test_val","inanimate","negative","Valence","VA","","negative",1,1738770220674,"negative",1540,688,"B","negative;positive","",6.53378883793334,7.33953769540767,52
"53","63fcf7251ace1792db0941b0","corpse","test_val","inanimate","negative","Valence","VA","","negative",1,1738770222042,"negative",1789.66666666667,607,"B","negative;positive","",6.4085287910595,7.48978466175446,53
"54","63fcf7251ace1792db0941b0","tapeworm","test_val","animate","negative","Valence","VA","","negative",1,1738770223330,"negative",1573.16666666667,527,"B","negative;positive","",6.26720054854136,7.36084585209689,54
"55","63fcf7251ace1792db0941b0","husband","test_val","animate","positive","Valence","VA","","positive",1,1738770224730,"positive",1490.33333333333,638,"B","negative;positive","",6.45833828334479,7.30675508756587,55
"56","63fcf7251ace1792db0941b0","poison","test_val","inanimate","negative","Valence","VA","","negative",1,1738770226154,"negative",1472.33333333333,665,"B","negative;positive","",6.49978704065585,7.29460372292842,56
"57","63fcf7251ace1792db0941b0","princess","test_val","animate","positive","Valence","VA","","positive",1,1738770227562,"positive",1505.83333333333,650,"B","negative;positive","",6.47697236288968,7.31710173379827,57
"58","63fcf7251ace1792db0941b0","cocaine","test_val","inanimate","negative","Valence","VA","","negative",1,1738770229034,"negative",1508.66666666667,710,"B","negative;positive","",6.56526497003536,7.31898153752537,58
"59","63fcf7251ace1792db0941b0","chipmunk","test_val","animate","positive","Valence","VA","","positive",1,1738770230490,"positive",1486.16666666667,697,"B","negative;positive","",6.54678541076052,7.30395537690682,59
"60","63fcf7251ace1792db0941b0","inmate","test_val","animate","negative","Valence","VA","","negative",1,1738770232002,"negative",1590,755,"B","negative;positive","",6.62671774924902,7.37148929521428,60
"61","63fcf7251ace1792db0941b0","doughnut","test_val","inanimate","positive","Valence","VA","","positive",1,1738770233450,"positive",1495.16666666667,687,"B","negative;positive","",6.53233429222235,7.30999296233123,61
"62","63fcf7251ace1792db0941b0","intruder","test_val","animate","negative","Valence","VA","","negative",1,1738770234969,"negative",1769,763,"B","negative;positive","",6.63725803128446,7.47816969415979,62
"63","63fcf7251ace1792db0941b0","slave","test_val","animate","negative","Valence","VA","","negative",1,1738770236282,"negative",1551.33333333333,555,"B","negative;positive","",6.31896811374643,7.34687005519413,63
"64","63fcf7251ace1792db0941b0","asshole","test_val","animate","negative","Valence","VA","","negative",1,1738770237634,"negative",1668.16666666667,594,"B","negative;positive","",6.38687931936265,7.41948049799096,64
"65","63fcf7251ace1792db0941b0","laughter","test_val","inanimate","positive","Valence","VA","","positive",1,1738770238978,"positive",1580.83333333333,582,"B","negative;positive","",6.36647044773144,7.36570741314106,65
"66","63fcf7251ace1792db0941b0","dictator","test_val","animate","negative","Valence","VA","","negative",1,1738770240362,"negative",1643,624,"B","negative;positive","",6.43615036836943,7.40427911803727,66
"67","63fcf7251ace1792db0941b0","excrement","test_val","inanimate","negative","Valence","VA","","negative",1,1738770241962,"negative",1582.16666666667,843,"B","negative;positive","",6.73696695800186,7.36655049465374,67
"68","63fcf7251ace1792db0941b0","mugger","test_val","animate","negative","Valence","VA","","negative",1,1738770243594,"negative",1691,870,"B","negative;positive","",6.76849321164863,7.43307534889858,68
"69","63fcf7251ace1792db0941b0","prize","test_val","inanimate","positive","Valence","VA","","positive",1,1738770245050,"positive",1615.83333333333,696,"B","negative;positive","",6.54534966033442,7.3876060984487,69
"70","63fcf7251ace1792db0941b0","heroin","test_val","inanimate","negative","Valence","VA","","negative",1,1738770246522,"negative",1510,715,"B","negative;positive","",6.57228254269401,7.31986492980897,70
"71","63fcf7251ace1792db0941b0","swastika","test_val","inanimate","negative","Valence","VA","","negative",1,1738770247962,"negative",1480.33333333333,680,"B","negative;positive","",6.52209279817015,7.30002256662399,71
"72","63fcf7251ace1792db0941b0","duckling","test_val","animate","positive","Valence","VA","","positive",1,1738770249386,"positive",1461.83333333333,661,"B","negative;positive","",6.49375383985169,7.28744663472333,72
"73","63fcf7251ace1792db0941b0","award","test_val","inanimate","positive","Valence","VA","","positive",1,1738770250826,"positive",1514,680,"B","negative;positive","",6.52209279817015,7.32251043399739,73
"74","63fcf7251ace1792db0941b0","child","test_val","animate","positive","Valence","VA","","positive",1,1738770252170,"positive",1400.66666666667,584,"B","negative;positive","",6.36990098282823,7.24470359273684,74
"75","63fcf7251ace1792db0941b0","sibling","test_val","animate","positive","Valence","VA","","positive",1,1738770253730,"positive",1651.33333333333,803,"B","negative;positive","",6.68835471394676,7.4093383213812,75
"76","63fcf7251ace1792db0941b0","maggot","test_val","animate","negative","Valence","VA","","negative",1,1738770255106,"negative",1499.5,617,"B","negative;positive","",6.42486902390539,7.31288699818906,76
"77","63fcf7251ace1792db0941b0","smallpox","test_val","inanimate","negative","Valence","VA","","positive",0,1738770256778,"positive",1618.33333333333,914,"B","negative;positive","",6.81783057145415,7.38915209205732,77
"78","63fcf7251ace1792db0941b0","widow","test_val","animate","negative","Valence","VA","","positive",0,1738770258682,"positive",1806.5,1146,"B","negative;positive","",7.04403289727469,7.4991465505877,78
"79","63fcf7251ace1792db0941b0","sandwich","test_val","inanimate","positive","Valence","VA","","positive",1,1738770260355,"positive",1539.5,915,"B","negative;positive","",6.81892406527552,7.33921296736456,79
"80","63fcf7251ace1792db0941b0","comedian","test_val","animate","positive","Valence","VA","","positive",1,1738770261963,"positive",1547.16666666667,849,"B","negative;positive","",6.74405918631135,7.34418058017188,80
"81","63fcf7251ace1792db0941b0","inmate","test_val","animate","negative","Valence","VA","","negative",1,1738770263498,"negative",1590,775,"B","negative;positive","",6.65286302935335,7.37148929521428,81
"82","63fcf7251ace1792db0941b0","bunny","test_val","animate","positive","Valence","VA","","positive",1,1738770264906,"positive",1436,643,"B","negative;positive","",6.46614472423762,7.26961674960817,82
"83","63fcf7251ace1792db0941b0","child","test_val","animate","positive","Valence","VA","","positive",1,1738770266442,"positive",1400.66666666667,779,"B","negative;positive","",6.65801104587075,7.24470359273684,83
"84","63fcf7251ace1792db0941b0","cocaine","test_val","inanimate","negative","Valence","VA","","negative",1,1738770267874,"negative",1508.66666666667,672,"B","negative;positive","",6.51025834052315,7.31898153752537,84
"85","63fcf7251ace1792db0941b0","pizza","test_val","inanimate","positive","Valence","VA","","positive",1,1738770269355,"positive",1548.5,720,"B","negative;positive","",6.5792512120101,7.34504199941326,85
"86","63fcf7251ace1792db0941b0","prize","test_val","inanimate","positive","Valence","VA","","positive",1,1738770271578,"positive",1615.83333333333,1462,"B","negative;positive","",7.28756064030972,7.3876060984487,86
"87","63fcf7251ace1792db0941b0","mugger","test_val","animate","negative","Valence","VA","","negative",1,1738770273083,"negative",1691,747,"B","negative;positive","",6.61606518513282,7.43307534889858,87
"88","63fcf7251ace1792db0941b0","asshole","test_val","animate","negative","Valence","VA","","negative",1,1738770274474,"negative",1668.16666666667,618,"B","negative;positive","",6.42648845745769,7.41948049799096,88
"89","63fcf7251ace1792db0941b0","swastika","test_val","inanimate","negative","Valence","VA","","negative",1,1738770275842,"negative",1480.33333333333,608,"B","negative;positive","",6.41017488196617,7.30002256662399,89
"90","63fcf7251ace1792db0941b0","kitten","test_val","animate","positive","Valence","VA","","positive",1,1738770277234,"positive",1404.66666666667,633,"B","negative;positive","",6.45047042214418,7.24755530569603,90
"91","63fcf7251ace1792db0941b0","smallpox","test_val","inanimate","negative","Valence","VA","","negative",1,1738770278818,"negative",1618.33333333333,825,"B","negative;positive","",6.71538338633468,7.38915209205732,91
"92","63fcf7251ace1792db0941b0","dictator","test_val","animate","negative","Valence","VA","","negative",1,1738770280194,"negative",1643,614,"B","negative;positive","",6.41999492814714,7.40427911803727,92
"93","63fcf7251ace1792db0941b0","sandwich","test_val","inanimate","positive","Valence","VA","","positive",1,1738770281538,"positive",1539.5,584,"B","negative;positive","",6.36990098282823,7.33921296736456,93
"94","63fcf7251ace1792db0941b0","maggot","test_val","animate","negative","Valence","VA","","negative",1,1738770282938,"negative",1499.5,643,"B","negative;positive","",6.46614472423762,7.31288699818906,94
"95","63fcf7251ace1792db0941b0","doughnut","test_val","inanimate","positive","Valence","VA","","positive",1,1738770284418,"positive",1495.16666666667,720,"B","negative;positive","",6.5792512120101,7.30999296233123,95
"96","63fcf7251ace1792db0941b0","gunshot","test_val","inanimate","negative","Valence","VA","","negative",1,1738770285810,"negative",1710.16666666667,633,"B","negative;positive","",6.45047042214418,7.44434611063415,96
"97","63fcf7251ace1792db0941b0","heroin","test_val","inanimate","negative","Valence","VA","","negative",1,1738770287210,"negative",1510,640,"B","negative;positive","",6.46146817635372,7.31986492980897,97
"98","63fcf7251ace1792db0941b0","leech","test_val","animate","negative","Valence","VA","","negative",1,1738770288570,"negative",1523.66666666667,601,"B","negative;positive","",6.39859493453521,7.32887498966363,98
"99","63fcf7251ace1792db0941b0","duckling","test_val","animate","positive","Valence","VA","","positive",1,1738770289994,"positive",1461.83333333333,666,"B","negative;positive","",6.50128967054039,7.28744663472333,99
"100","63fcf7251ace1792db0941b0","corpse","test_val","inanimate","negative","Valence","VA","","negative",1,1738770291378,"negative",1789.66666666667,627,"B","negative;positive","",6.44094654063292,7.48978466175446,100
"101","63fcf7251ace1792db0941b0","chipmunk","test_val","animate","positive","Valence","VA","","positive",1,1738770292778,"positive",1486.16666666667,642,"B","negative;positive","",6.46458830368996,7.30395537690682,101
"102","63fcf7251ace1792db0941b0","sibling","test_val","animate","positive","Valence","VA","","positive",1,1738770294426,"positive",1651.33333333333,884,"B","negative;positive","",6.78445706263764,7.4093383213812,102
"103","63fcf7251ace1792db0941b0","intruder","test_val","animate","negative","Valence","VA","","negative",1,1738770295946,"negative",1769,759,"B","negative;positive","",6.63200177739563,7.47816969415979,103
"104","63fcf7251ace1792db0941b0","comedian","test_val","animate","positive","Valence","VA","","positive",1,1738770297354,"positive",1547.16666666667,647,"B","negative;positive","",6.4723462945009,7.34418058017188,104
"105","63fcf7251ace1792db0941b0","flood","test_val","inanimate","negative","Valence","VA","","negative",1,1738770298898,"negative",1540,783,"B","negative;positive","",6.6631326959908,7.33953769540767,105
"106","63fcf7251ace1792db0941b0","excrement","test_val","inanimate","negative","Valence","VA","","negative",1,1738770300330,"negative",1582.16666666667,674,"B","negative;positive","",6.51323011091231,7.36655049465374,106
"107","63fcf7251ace1792db0941b0","slave","test_val","animate","negative","Valence","VA","","negative",1,1738770301882,"negative",1551.33333333333,797,"B","negative;positive","",6.68085467879022,7.34687005519413,107
"108","63fcf7251ace1792db0941b0","tapeworm","test_val","animate","negative","Valence","VA","","negative",1,1738770303355,"negative",1573.16666666667,714,"B","negative;positive","",6.57088296233958,7.36084585209689,108
"109","63fcf7251ace1792db0941b0","wiretap","test_val","inanimate","negative","Valence","VA","","negative",1,1738770304730,"negative",1576.66666666667,614,"B","negative;positive","",6.41999492814714,7.36306819281787,109
"110","63fcf7251ace1792db0941b0","princess","test_val","animate","positive","Valence","VA","","positive",1,1738770306178,"positive",1505.83333333333,687,"B","negative;positive","",6.53233429222235,7.31710173379827,110
"111","63fcf7251ace1792db0941b0","feast","test_val","inanimate","positive","Valence","VA","","positive",1,1738770307770,"positive",1645.66666666667,832,"B","negative;positive","",6.72383244082121,7.40590084959075,111
"112","63fcf7251ace1792db0941b0","award","test_val","inanimate","positive","Valence","VA","","positive",1,1738770309194,"positive",1514,662,"B","negative;positive","",6.49526555593701,7.32251043399739,112
"113","63fcf7251ace1792db0941b0","sunshine","test_val","inanimate","positive","Valence","VA","","positive",1,1738770310570,"positive",1672.83333333333,614,"B","negative;positive","",6.41999492814714,7.42227407458575,113
"114","63fcf7251ace1792db0941b0","poison","test_val","inanimate","negative","Valence","VA","","negative",1,1738770312050,"negative",1472.33333333333,719,"B","negative;positive","",6.57786135772105,7.29460372292842,114
"115","63fcf7251ace1792db0941b0","widow","test_val","animate","negative","Valence","VA","","negative",1,1738770314546,"negative",1806.5,1737,"B","negative;positive","",7.4599147662411,7.4991465505877,115
"116","63fcf7251ace1792db0941b0","meadow","test_val","inanimate","positive","Valence","VA","","positive",1,1738770316210,"positive",1723,906,"B","negative;positive","",6.80903930604298,7.45182223652793,116
"117","63fcf7251ace1792db0941b0","husband","test_val","animate","positive","Valence","VA","","positive",1,1738770317954,"positive",1490.33333333333,986,"B","negative;positive","",6.89365635460264,7.30675508756587,117
"118","63fcf7251ace1792db0941b0","puppy","test_val","animate","positive","Valence","VA","","positive",1,1738770319290,"positive",1420,579,"B","negative;positive","",6.361302477573,7.25841215059531,118
"119","63fcf7251ace1792db0941b0","dollar","test_val","inanimate","positive","Valence","VA","","positive",1,1738770320594,"positive",1451.33333333333,540,"B","negative;positive","",6.29156913955832,7.28023795312638,119
"120","63fcf7251ace1792db0941b0","laughter","test_val","inanimate","positive","Valence","VA","","positive",1,1738770321970,"positive",1580.83333333333,618,"B","negative;positive","",6.42648845745769,7.36570741314106,120
"121","63fcf7251ace1792db0941b0","husband","test_ani","animate","positive","Animacy","VA","","animate",1,1738770447770,"animate",1490.33333333333,864,"B","inanimate;animate","",6.76157276880406,7.30675508756587,121
"122","63fcf7251ace1792db0941b0","princess","test_ani","animate","positive","Animacy","VA","","animate",1,1738770449082,"animate",1505.83333333333,552,"B","inanimate;animate","",6.31354804627709,7.31710173379827,122
"123","63fcf7251ace1792db0941b0","sandwich","test_ani","inanimate","positive","Animacy","VA","","animate",1,1738770450442,"animate",1539.5,599,"B","inanimate;animate","",6.39526159811545,7.33921296736456,123
"124","63fcf7251ace1792db0941b0","mugger","test_ani","animate","negative","Animacy","VA","","animate",1,1738770452866,"animate",1691,1662,"B","inanimate;animate","",7.41577697541539,7.43307534889858,124
"125","63fcf7251ace1792db0941b0","widow","test_ani","animate","negative","Animacy","VA","","animate",1,1738770454458,"animate",1806.5,832,"B","inanimate;animate","",6.72383244082121,7.4991465505877,125
"126","63fcf7251ace1792db0941b0","laughter","test_ani","inanimate","positive","Animacy","VA","","inanimate",1,1738770456082,"inanimate",1580.83333333333,862,"B","inanimate;animate","",6.75925527066369,7.36570741314106,126
"127","63fcf7251ace1792db0941b0","sunshine","test_ani","inanimate","positive","Animacy","VA","","inanimate",1,1738770457906,"inanimate",1672.83333333333,1065,"B","inanimate;animate","",6.97073007814353,7.42227407458575,127
"128","63fcf7251ace1792db0941b0","chipmunk","test_ani","animate","positive","Animacy","VA","","animate",1,1738770459402,"animate",1486.16666666667,738,"B","inanimate;animate","",6.60394382460047,7.30395537690682,128
"129","63fcf7251ace1792db0941b0","gunshot","test_ani","inanimate","negative","Animacy","VA","","inanimate",1,1738770461138,"inanimate",1710.16666666667,974,"B","inanimate;animate","",6.88141130364254,7.44434611063415,129
"130","63fcf7251ace1792db0941b0","bunny","test_ani","animate","positive","Animacy","VA","","animate",1,1738770462675,"animate",1436,768,"B","inanimate;animate","",6.64378973314767,7.26961674960817,130
"131","63fcf7251ace1792db0941b0","flood","test_ani","inanimate","negative","Animacy","VA","","inanimate",1,1738770464106,"inanimate",1540,673,"B","inanimate;animate","",6.51174532964473,7.33953769540767,131
"132","63fcf7251ace1792db0941b0","smallpox","test_ani","inanimate","negative","Animacy","VA","","inanimate",1,1738770465658,"inanimate",1618.33333333333,790,"B","inanimate;animate","",6.67203294546107,7.38915209205732,132
"133","63fcf7251ace1792db0941b0","maggot","test_ani","animate","negative","Animacy","VA","","inanimate",0,1738770467090,"inanimate",1499.5,673,"B","inanimate;animate","",6.51174532964473,7.31288699818906,133
"134","63fcf7251ace1792db0941b0","slave","test_ani","animate","negative","Animacy","VA","","inanimate",0,1738770468650,"inanimate",1551.33333333333,799,"B","inanimate;animate","",6.68336094576627,7.34687005519413,134
"135","63fcf7251ace1792db0941b0","heroin","test_ani","inanimate","negative","Animacy","VA","","inanimate",1,1738770470370,"inanimate",1510,962,"B","inanimate;animate","",6.86901445066571,7.31986492980897,135
"136","63fcf7251ace1792db0941b0","swastika","test_ani","inanimate","negative","Animacy","VA","","inanimate",1,1738770471890,"inanimate",1480.33333333333,762,"B","inanimate;animate","",6.63594655568665,7.30002256662399,136
"137","63fcf7251ace1792db0941b0","prize","test_ani","inanimate","positive","Animacy","VA","","inanimate",1,1738770473338,"inanimate",1615.83333333333,685,"B","inanimate;animate","",6.52941883826223,7.3876060984487,137
"138","63fcf7251ace1792db0941b0","duckling","test_ani","animate","positive","Animacy","VA","","animate",1,1738770474850,"animate",1461.83333333333,755,"B","inanimate;animate","",6.62671774924902,7.28744663472333,138
"139","63fcf7251ace1792db0941b0","award","test_ani","inanimate","positive","Animacy","VA","","inanimate",1,1738770476402,"inanimate",1514,792,"B","inanimate;animate","",6.67456139181443,7.32251043399739,139
"140","63fcf7251ace1792db0941b0","asshole","test_ani","animate","negative","Animacy","VA","","inanimate",0,1738770477882,"inanimate",1668.16666666667,720,"B","inanimate;animate","",6.5792512120101,7.41948049799096,140
"141","63fcf7251ace1792db0941b0","tapeworm","test_ani","animate","negative","Animacy","VA","","animate",1,1738770479810,"animate",1573.16666666667,1171,"B","inanimate;animate","",7.06561336359772,7.36084585209689,141
"142","63fcf7251ace1792db0941b0","intruder","test_ani","animate","negative","Animacy","VA","","animate",1,1738770481442,"animate",1769,870,"B","inanimate;animate","",6.76849321164863,7.47816969415979,142
"143","63fcf7251ace1792db0941b0","feast","test_ani","inanimate","positive","Animacy","VA","","inanimate",1,1738770482978,"inanimate",1645.66666666667,774,"B","inanimate;animate","",6.65157187358973,7.40590084959075,143
"144","63fcf7251ace1792db0941b0","dictator","test_ani","animate","negative","Animacy","VA","","animate",1,1738770484970,"animate",1643,1231,"B","inanimate;animate","",7.11558212618445,7.40427911803727,144
"145","63fcf7251ace1792db0941b0","leech","test_ani","animate","negative","Animacy","VA","","animate",1,1738770486682,"animate",1523.66666666667,952,"B","inanimate;animate","",6.85856503479136,7.32887498966363,145
"146","63fcf7251ace1792db0941b0","dollar","test_ani","inanimate","positive","Animacy","VA","","inanimate",1,1738770488138,"inanimate",1451.33333333333,698,"B","inanimate;animate","",6.54821910276237,7.28023795312638,146
"147","63fcf7251ace1792db0941b0","sibling","test_ani","animate","positive","Animacy","VA","","animate",1,1738770489586,"animate",1651.33333333333,690,"B","inanimate;animate","",6.5366915975913,7.4093383213812,147
"148","63fcf7251ace1792db0941b0","doughnut","test_ani","inanimate","positive","Animacy","VA","","animate",1,1738770490971,"animate",1495.16666666667,623,"B","inanimate;animate","",6.43454651878745,7.30999296233123,148
"149","63fcf7251ace1792db0941b0","meadow","test_ani","inanimate","positive","Animacy","VA","","inanimate",1,1738770493210,"inanimate",1723,1476,"B","inanimate;animate","",7.29709100516042,7.45182223652793,149
"150","63fcf7251ace1792db0941b0","pizza","test_ani","inanimate","positive","Animacy","VA","","inanimate",1,1738770495162,"inanimate",1548.5,1194,"B","inanimate;animate","",7.08506429395255,7.34504199941326,150
"151","63fcf7251ace1792db0941b0","cocaine","test_ani","inanimate","negative","Animacy","VA","","inanimate",1,1738770496650,"inanimate",1508.66666666667,731,"B","inanimate;animate","",6.59441345974978,7.31898153752537,151
"152","63fcf7251ace1792db0941b0","wiretap","test_ani","inanimate","negative","Animacy","VA","","inanimate",1,1738770498362,"inanimate",1576.66666666667,954,"B","inanimate;animate","",6.86066367144829,7.36306819281787,152
"153","63fcf7251ace1792db0941b0","kitten","test_ani","animate","positive","Animacy","VA","","animate",1,1738770499827,"animate",1404.66666666667,707,"B","inanimate;animate","",6.56103066589657,7.24755530569603,153
"154","63fcf7251ace1792db0941b0","comedian","test_ani","animate","positive","Animacy","VA","","animate",1,1738770501522,"animate",1547.16666666667,936,"B","inanimate;animate","",6.84161547647759,7.34418058017188,154
"155","63fcf7251ace1792db0941b0","excrement","test_ani","inanimate","negative","Animacy","VA","","inanimate",1,1738770503194,"inanimate",1582.16666666667,913,"B","inanimate;animate","",6.81673588059497,7.36655049465374,155
"156","63fcf7251ace1792db0941b0","child","test_ani","animate","positive","Animacy","VA","","animate",1,1738770504714,"animate",1400.66666666667,758,"B","inanimate;animate","",6.63068338564237,7.24470359273684,156
"157","63fcf7251ace1792db0941b0","inmate","test_ani","animate","negative","Animacy","VA","","animate",1,1738770506266,"animate",1590,791,"B","inanimate;animate","",6.67329796776765,7.37148929521428,157
"158","63fcf7251ace1792db0941b0","corpse","test_ani","inanimate","negative","Animacy","VA","","inanimate",1,1738770508842,"inanimate",1789.66666666667,1818,"B","inanimate;animate","",7.50549227473742,7.48978466175446,158
"159","63fcf7251ace1792db0941b0","poison","test_ani","inanimate","negative","Animacy","VA","","inanimate",1,1738770510546,"inanimate",1472.33333333333,943,"B","inanimate;animate","",6.84906628263346,7.29460372292842,159
"160","63fcf7251ace1792db0941b0","puppy","test_ani","animate","positive","Animacy","VA","","animate",1,1738770512050,"animate",1420,750,"B","inanimate;animate","",6.62007320653036,7.25841215059531,160
"161","63fcf7251ace1792db0941b0","heroin","test_ani","inanimate","negative","Animacy","VA","","inanimate",1,1738770513603,"inanimate",1510,794,"B","inanimate;animate","",6.67708346124714,7.31986492980897,161
"162","63fcf7251ace1792db0941b0","bunny","test_ani","animate","positive","Animacy","VA","","animate",1,1738770514930,"animate",1436,568,"B","inanimate;animate","",6.34212141872115,7.26961674960817,162
"163","63fcf7251ace1792db0941b0","doughnut","test_ani","inanimate","positive","Animacy","VA","","inanimate",1,1738770516482,"inanimate",1495.16666666667,795,"B","inanimate;animate","",6.67834211465433,7.30999296233123,163
"164","63fcf7251ace1792db0941b0","tapeworm","test_ani","animate","negative","Animacy","VA","","animate",1,1738770518186,"animate",1573.16666666667,945,"B","inanimate;animate","",6.85118492749374,7.36084585209689,164
"165","63fcf7251ace1792db0941b0","sandwich","test_ani","inanimate","positive","Animacy","VA","","inanimate",1,1738770519627,"inanimate",1539.5,681,"B","inanimate;animate","",6.52356230614951,7.33921296736456,165
"166","63fcf7251ace1792db0941b0","smallpox","test_ani","inanimate","negative","Animacy","VA","","inanimate",1,1738770521162,"inanimate",1618.33333333333,764,"B","inanimate;animate","",6.63856778916652,7.38915209205732,166
"167","63fcf7251ace1792db0941b0","intruder","test_ani","animate","negative","Animacy","VA","","animate",1,1738770523426,"animate",1769,1505,"B","inanimate;animate","",7.31654817718298,7.47816969415979,167
"168","63fcf7251ace1792db0941b0","poison","test_ani","inanimate","negative","Animacy","VA","","inanimate",1,1738770524834,"inanimate",1472.33333333333,646,"B","inanimate;animate","",6.4707995037826,7.29460372292842,168
"169","63fcf7251ace1792db0941b0","laughter","test_ani","inanimate","positive","Animacy","VA","","inanimate",1,1738770526586,"inanimate",1580.83333333333,990,"B","inanimate;animate","",6.89770494312864,7.36570741314106,169
"170","63fcf7251ace1792db0941b0","corpse","test_ani","inanimate","negative","Animacy","VA","","inanimate",1,1738770528994,"inanimate",1789.66666666667,1648,"B","inanimate;animate","",7.40731771046942,7.48978466175446,170
"171","63fcf7251ace1792db0941b0","widow","test_ani","animate","negative","Animacy","VA","","animate",1,1738770530586,"animate",1806.5,832,"B","inanimate;animate","",6.72383244082121,7.4991465505877,171
"172","63fcf7251ace1792db0941b0","flood","test_ani","inanimate","negative","Animacy","VA","","inanimate",1,1738770532098,"inanimate",1540,755,"B","inanimate;animate","",6.62671774924902,7.33953769540767,172
"173","63fcf7251ace1792db0941b0","dictator","test_ani","animate","negative","Animacy","VA","","animate",1,1738770533706,"animate",1643,846,"B","inanimate;animate","",6.74051935960622,7.40427911803727,173
"174","63fcf7251ace1792db0941b0","dollar","test_ani","inanimate","positive","Animacy","VA","","inanimate",1,1738770535218,"inanimate",1451.33333333333,750,"B","inanimate;animate","",6.62007320653036,7.28023795312638,174
"175","63fcf7251ace1792db0941b0","comedian","test_ani","animate","positive","Animacy","VA","","animate",1,1738770536722,"animate",1547.16666666667,742,"B","inanimate;animate","",6.60934924316738,7.34418058017188,175
"176","63fcf7251ace1792db0941b0","husband","test_ani","animate","positive","Animacy","VA","","animate",1,1738770538058,"animate",1490.33333333333,574,"B","inanimate;animate","",6.35262939631957,7.30675508756587,176
"177","63fcf7251ace1792db0941b0","puppy","test_ani","animate","positive","Animacy","VA","","animate",1,1738770539370,"animate",1420,554,"B","inanimate;animate","",6.31716468674728,7.25841215059531,177
"178","63fcf7251ace1792db0941b0","maggot","test_ani","animate","negative","Animacy","VA","","animate",1,1738770540954,"animate",1499.5,826,"B","inanimate;animate","",6.71659477352098,7.31288699818906,178
"179","63fcf7251ace1792db0941b0","pizza","test_ani","inanimate","positive","Animacy","VA","","inanimate",1,1738770542398,"inanimate",1548.5,689,"B","inanimate;animate","",6.53524127101366,7.34504199941326,179
"180","63fcf7251ace1792db0941b0","prize","test_ani","inanimate","positive","Animacy","VA","","inanimate",1,1738770543882,"inanimate",1615.83333333333,723,"B","inanimate;animate","",6.58340922215876,7.3876060984487,180
"181","63fcf7251ace1792db0941b0","asshole","test_ani","animate","negative","Animacy","VA","","animate",1,1738770545730,"animate",1668.16666666667,1087,"B","inanimate;animate","",6.99117688712121,7.41948049799096,181
"182","63fcf7251ace1792db0941b0","wiretap","test_ani","inanimate","negative","Animacy","VA","","inanimate",1,1738770547538,"inanimate",1576.66666666667,1047,"B","inanimate;animate","",6.95368421087054,7.36306819281787,182
"183","63fcf7251ace1792db0941b0","slave","test_ani","animate","negative","Animacy","VA","","animate",1,1738770549379,"animate",1551.33333333333,1080,"B","inanimate;animate","",6.98471632011827,7.34687005519413,183
"184","63fcf7251ace1792db0941b0","kitten","test_ani","animate","positive","Animacy","VA","","animate",1,1738770550698,"animate",1404.66666666667,559,"B","inanimate;animate","",6.3261494731551,7.24755530569603,184
"185","63fcf7251ace1792db0941b0","child","test_ani","animate","positive","Animacy","VA","","animate",1,1738770552018,"animate",1400.66666666667,562,"B","inanimate;animate","",6.33150184989369,7.24470359273684,185
"186","63fcf7251ace1792db0941b0","meadow","test_ani","inanimate","positive","Animacy","VA","","inanimate",1,1738770553563,"inanimate",1723,784,"B","inanimate;animate","",6.66440902035041,7.45182223652793,186
"187","63fcf7251ace1792db0941b0","swastika","test_ani","inanimate","negative","Animacy","VA","","inanimate",1,1738770555146,"inanimate",1480.33333333333,823,"B","inanimate;animate","",6.71295620067707,7.30002256662399,187
"188","63fcf7251ace1792db0941b0","sibling","test_ani","animate","positive","Animacy","VA","","animate",1,1738770556747,"animate",1651.33333333333,840,"B","inanimate;animate","",6.73340189183736,7.4093383213812,188
"189","63fcf7251ace1792db0941b0","inmate","test_ani","animate","negative","Animacy","VA","","animate",1,1738770558762,"animate",1590,1255,"B","inanimate;animate","",7.13489085156588,7.37148929521428,189
"190","63fcf7251ace1792db0941b0","leech","test_ani","animate","negative","Animacy","VA","","animate",1,1738770560290,"animate",1523.66666666667,770,"B","inanimate;animate","",6.64639051484773,7.32887498966363,190
"191","63fcf7251ace1792db0941b0","excrement","test_ani","inanimate","negative","Animacy","VA","","inanimate",1,1738770561931,"inanimate",1582.16666666667,881,"B","inanimate;animate","",6.78105762593618,7.36655049465374,191
"192","63fcf7251ace1792db0941b0","duckling","test_ani","animate","positive","Animacy","VA","","animate",1,1738770563338,"animate",1461.83333333333,651,"B","inanimate;animate","",6.47850964220857,7.28744663472333,192
"193","63fcf7251ace1792db0941b0","sunshine","test_ani","inanimate","positive","Animacy","VA","","animate",1,1738770564747,"animate",1672.83333333333,648,"B","inanimate;animate","",6.47389069635227,7.42227407458575,193
"194","63fcf7251ace1792db0941b0","princess","test_ani","animate","positive","Animacy","VA","","animate",1,1738770566434,"animate",1505.83333333333,930,"B","inanimate;animate","",6.8351845861473,7.31710173379827,194
"195","63fcf7251ace1792db0941b0","mugger","test_ani","animate","negative","Animacy","VA","","animate",1,1738770568034,"animate",1691,838,"B","inanimate;animate","",6.73101810048208,7.43307534889858,195
"196","63fcf7251ace1792db0941b0","award","test_ani","inanimate","positive","Animacy","VA","","inanimate",1,1738770569562,"inanimate",1514,765,"B","inanimate;animate","",6.63987583382654,7.32251043399739,196
"197","63fcf7251ace1792db0941b0","gunshot","test_ani","inanimate","negative","Animacy","VA","","inanimate",1,1738770571162,"inanimate",1710.16666666667,841,"B","inanimate;animate","",6.73459165997295,7.44434611063415,197
"198","63fcf7251ace1792db0941b0","chipmunk","test_ani","animate","positive","Animacy","VA","","animate",1,1738770572618,"animate",1486.16666666667,695,"B","inanimate;animate","",6.54391184556479,7.30395537690682,198
"199","63fcf7251ace1792db0941b0","feast","test_ani","inanimate","positive","Animacy","VA","","inanimate",1,1738770574290,"inanimate",1645.66666666667,914,"B","inanimate;animate","",6.81783057145415,7.40590084959075,199
"200","63fcf7251ace1792db0941b0","cocaine","test_ani","inanimate","negative","Animacy","VA","","inanimate",1,1738770575906,"inanimate",1508.66666666667,855,"B","inanimate;animate","",6.75110146893676,7.31898153752537,200
"201","63fcf7251ace1792db0941b0","asshole","test_ani","animate","negative","Animacy","VA","","animate",1,1738770578400,"animate",1668.16666666667,1737,"B","inanimate;animate","",7.4599147662411,7.41948049799096,201
"202","63fcf7251ace1792db0941b0","inmate","test_ani","animate","negative","Animacy","VA","","animate",1,1738770579906,"animate",1590,745,"B","inanimate;animate","",6.61338421837956,7.37148929521428,202
"203","63fcf7251ace1792db0941b0","mugger","test_ani","animate","negative","Animacy","VA","","animate",1,1738770581399,"animate",1691,735,"B","inanimate;animate","",6.59987049921284,7.43307534889858,203
"204","63fcf7251ace1792db0941b0","pizza","test_ani","inanimate","positive","Animacy","VA","","inanimate",1,1738770582858,"inanimate",1548.5,697,"B","inanimate;animate","",6.54678541076052,7.34504199941326,204
"205","63fcf7251ace1792db0941b0","sandwich","test_ani","inanimate","positive","Animacy","VA","","inanimate",1,1738770584858,"inanimate",1539.5,1238,"B","inanimate;animate","",7.12125245324454,7.33921296736456,205
"206","63fcf7251ace1792db0941b0","chipmunk","test_ani","animate","positive","Animacy","VA","","animate",1,1738770586315,"animate",1486.16666666667,697,"B","inanimate;animate","",6.54678541076052,7.30395537690682,206
"207","63fcf7251ace1792db0941b0","husband","test_ani","animate","positive","Animacy","VA","","animate",1,1738770587706,"animate",1490.33333333333,630,"B","inanimate;animate","",6.44571981938558,7.30675508756587,207
"208","63fcf7251ace1792db0941b0","child","test_ani","animate","positive","Animacy","VA","","animate",1,1738770589002,"animate",1400.66666666667,540,"B","inanimate;animate","",6.29156913955832,7.24470359273684,208
"209","63fcf7251ace1792db0941b0","swastika","test_ani","inanimate","negative","Animacy","VA","","inanimate",1,1738770590499,"inanimate",1480.33333333333,737,"B","inanimate;animate","",6.60258789218934,7.30002256662399,209
"210","63fcf7251ace1792db0941b0","award","test_ani","inanimate","positive","Animacy","VA","","inanimate",1,1738770592098,"inanimate",1514,838,"B","inanimate;animate","",6.73101810048208,7.32251043399739,210
"211","63fcf7251ace1792db0941b0","feast","test_ani","inanimate","positive","Animacy","VA","","inanimate",1,1738770593826,"inanimate",1645.66666666667,968,"B","inanimate;animate","",6.87523208727658,7.40590084959075,211
"212","63fcf7251ace1792db0941b0","smallpox","test_ani","inanimate","negative","Animacy","VA","","inanimate",1,1738770595538,"inanimate",1618.33333333333,952,"B","inanimate;animate","",6.85856503479136,7.38915209205732,212
"213","63fcf7251ace1792db0941b0","prize","test_ani","inanimate","positive","Animacy","VA","","inanimate",1,1738770597082,"inanimate",1615.83333333333,786,"B","inanimate;animate","",6.66695679242921,7.3876060984487,213
"214","63fcf7251ace1792db0941b0","bunny","test_ani","animate","positive","Animacy","VA","","animate",1,1738770598578,"animate",1436,738,"B","inanimate;animate","",6.60394382460047,7.26961674960817,214
"215","63fcf7251ace1792db0941b0","comedian","test_ani","animate","positive","Animacy","VA","","animate",1,1738770600170,"animate",1547.16666666667,831,"B","inanimate;animate","",6.72262979485545,7.34418058017188,215
"216","63fcf7251ace1792db0941b0","puppy","test_ani","animate","positive","Animacy","VA","","animate",1,1738770601546,"animate",1420,621,"B","inanimate;animate","",6.43133108193348,7.25841215059531,216
"217","63fcf7251ace1792db0941b0","wiretap","test_ani","inanimate","negative","Animacy","VA","","inanimate",1,1738770603042,"inanimate",1576.66666666667,738,"B","inanimate;animate","",6.60394382460047,7.36306819281787,217
"218","63fcf7251ace1792db0941b0","slave","test_ani","animate","negative","Animacy","VA","","animate",1,1738770604650,"animate",1551.33333333333,849,"B","inanimate;animate","",6.74405918631135,7.34687005519413,218
"219","63fcf7251ace1792db0941b0","intruder","test_ani","animate","negative","Animacy","VA","","animate",1,1738770606274,"animate",1769,862,"B","inanimate;animate","",6.75925527066369,7.47816969415979,219
"220","63fcf7251ace1792db0941b0","gunshot","test_ani","inanimate","negative","Animacy","VA","","inanimate",1,1738770607810,"inanimate",1710.16666666667,774,"B","inanimate;animate","",6.65157187358973,7.44434611063415,220
"221","63fcf7251ace1792db0941b0","flood","test_ani","inanimate","negative","Animacy","VA","","inanimate",1,1738770609530,"inanimate",1540,960,"B","inanimate;animate","",6.86693328446188,7.33953769540767,221
"222","63fcf7251ace1792db0941b0","maggot","test_ani","animate","negative","Animacy","VA","","animate",1,1738770611186,"animate",1499.5,898,"B","inanimate;animate","",6.8001700683022,7.31288699818906,222
"223","63fcf7251ace1792db0941b0","sunshine","test_ani","inanimate","positive","Animacy","VA","","inanimate",1,1738770613674,"inanimate",1672.83333333333,1731,"B","inanimate;animate","",7.45645455517621,7.42227407458575,223
"224","63fcf7251ace1792db0941b0","heroin","test_ani","inanimate","negative","Animacy","VA","","inanimate",1,1738770615130,"inanimate",1510,699,"B","inanimate;animate","",6.54965074223381,7.31986492980897,224
"225","63fcf7251ace1792db0941b0","corpse","test_ani","inanimate","negative","Animacy","VA","","animate",1,1738770616714,"animate",1789.66666666667,821,"B","inanimate;animate","",6.71052310945243,7.48978466175446,225
"226","63fcf7251ace1792db0941b0","dollar","test_ani","inanimate","positive","Animacy","VA","","inanimate",1,1738770618338,"inanimate",1451.33333333333,860,"B","inanimate;animate","",6.75693238924755,7.28023795312638,226
"227","63fcf7251ace1792db0941b0","widow","test_ani","animate","negative","Animacy","VA","","animate",1,1738770619906,"animate",1806.5,808,"B","inanimate;animate","",6.69456205852109,7.4991465505877,227
"228","63fcf7251ace1792db0941b0","duckling","test_ani","animate","positive","Animacy","VA","","animate",1,1738770621258,"animate",1461.83333333333,592,"B","inanimate;animate","",6.38350663488401,7.28744663472333,228
"229","63fcf7251ace1792db0941b0","dictator","test_ani","animate","negative","Animacy","VA","","animate",1,1738770623010,"animate",1643,991,"B","inanimate;animate","",6.89871453432999,7.40427911803727,229
"230","63fcf7251ace1792db0941b0","excrement","test_ani","inanimate","negative","Animacy","VA","","inanimate",1,1738770624610,"inanimate",1582.16666666667,837,"B","inanimate;animate","",6.72982407048948,7.36655049465374,230
"231","63fcf7251ace1792db0941b0","meadow","test_ani","inanimate","positive","Animacy","VA","","animate",1,1738770626594,"animate",1723,1228,"B","inanimate;animate","",7.11314210870709,7.45182223652793,231
"232","63fcf7251ace1792db0941b0","sibling","test_ani","animate","positive","Animacy","VA","","animate",1,1738770628251,"animate",1651.33333333333,896,"B","inanimate;animate","",6.79794041297493,7.4093383213812,232
"233","63fcf7251ace1792db0941b0","doughnut","test_ani","inanimate","positive","Animacy","VA","","inanimate",1,1738770629906,"inanimate",1495.16666666667,896,"B","inanimate;animate","",6.79794041297493,7.30999296233123,233
"234","63fcf7251ace1792db0941b0","tapeworm","test_ani","animate","negative","Animacy","VA","","animate",1,1738770631467,"animate",1573.16666666667,798,"B","inanimate;animate","",6.68210859744981,7.36084585209689,234
"235","63fcf7251ace1792db0941b0","cocaine","test_ani","inanimate","negative","Animacy","VA","","inanimate",1,1738770633042,"inanimate",1508.66666666667,814,"B","inanimate;animate","",6.70196036600254,7.31898153752537,235
"236","63fcf7251ace1792db0941b0","kitten","test_ani","animate","positive","Animacy","VA","","animate",1,1738770634426,"animate",1404.66666666667,625,"B","inanimate;animate","",6.4377516497364,7.24755530569603,236
"237","63fcf7251ace1792db0941b0","princess","test_ani","animate","positive","Animacy","VA","","animate",1,1738770635851,"animate",1505.83333333333,669,"B","inanimate;animate","",6.50578406012823,7.31710173379827,237
"238","63fcf7251ace1792db0941b0","poison","test_ani","inanimate","negative","Animacy","VA","","inanimate",1,1738770637250,"inanimate",1472.33333333333,640,"B","inanimate;animate","",6.46146817635372,7.29460372292842,238
"239","63fcf7251ace1792db0941b0","laughter","test_ani","inanimate","positive","Animacy","VA","","inanimate",1,1738770639130,"inanimate",1580.83333333333,1122,"B","inanimate;animate","",7.02286808608264,7.36570741314106,239
"240","63fcf7251ace1792db0941b0","leech","test_ani","animate","negative","Animacy","VA","","animate",1,1738770640667,"animate",1523.66666666667,764,"B","inanimate;animate","",6.63856778916652,7.32887498966363,240
"241","5a7f42215292b8000122c84a","tapeworm","test_ani","animate","negative","Animacy","AV","","animate",1,1742985654545,"animate",1392.83333333333,806,"A","animate;inanimate","",6.69208374250663,7.23909532077338,1
"242","5a7f42215292b8000122c84a","mugger","test_ani","animate","negative","Animacy","AV","","animate",1,1742985656044,"animate",1360.58333333333,729,"A","animate;inanimate","",6.59167373200866,7.21566880833816,2
"243","5a7f42215292b8000122c84a","wiretap","test_ani","inanimate","negative","Animacy","AV","","inanimate",1,1742985657454,"inanimate",1408.16666666667,641,"A","animate;inanimate","",6.46302945692067,7.25004390092479,3
"244","5a7f42215292b8000122c84a","kitten","test_ani","animate","positive","Animacy","AV","","animate",1,1742985658811,"animate",1347.66666666667,581,"A","animate;inanimate","",6.36475075685191,7.20612998097266,4
"245","5a7f42215292b8000122c84a","sibling","test_ani","animate","positive","Animacy","AV","","animate",1,1742985660234,"animate",1397.5,652,"A","animate;inanimate","",6.48004456192665,7.24244020502925,5
"246","5a7f42215292b8000122c84a","flood","test_ani","inanimate","negative","Animacy","AV","","inanimate",1,1742985661653,"inanimate",1380.33333333333,638,"A","animate;inanimate","",6.45833828334479,7.23008029487746,6
"247","5a7f42215292b8000122c84a","inmate","test_ani","animate","negative","Animacy","AV","","animate",1,1742985663771,"animate",1568.16666666667,1340,"A","animate;inanimate","",7.20042489294496,7.35766248777871,7
"248","5a7f42215292b8000122c84a","princess","test_ani","animate","positive","Animacy","AV","","animate",1,1742985665174,"animate",1382.66666666667,626,"A","animate;inanimate","",6.4393503711001,7.23176928068131,8
"249","5a7f42215292b8000122c84a","pizza","test_ani","inanimate","positive","Animacy","AV","","inanimate",1,1742985666773,"inanimate",1395.16666666667,831,"A","animate;inanimate","",6.72262979485545,7.240769161432,9
"250","5a7f42215292b8000122c84a","dollar","test_ani","inanimate","positive","Animacy","AV","","inanimate",1,1742985668245,"inanimate",1402.16666666667,692,"A","animate;inanimate","",6.53958595561767,7.24577393832276,10
"251","5a7f42215292b8000122c84a","swastika","test_ani","inanimate","negative","Animacy","AV","","inanimate",1,1742985669658,"inanimate",1327.5,652,"A","animate;inanimate","",6.48004456192665,7.19105275311609,11
"252","5a7f42215292b8000122c84a","feast","test_ani","inanimate","positive","Animacy","AV","","animate",1,1742985671141,"animate",1391,711,"A","animate;inanimate","",6.56667242980324,7.23777819192344,12
"253","5a7f42215292b8000122c84a","sunshine","test_ani","inanimate","positive","Animacy","AV","","inanimate",1,1742985672604,"inanimate",1439.33333333333,703,"A","animate;inanimate","",6.55535689181067,7.27193532240664,13
"254","5a7f42215292b8000122c84a","slave","test_ani","animate","negative","Animacy","AV","","animate",1,1742985674127,"animate",1407.33333333333,744,"A","animate;inanimate","",6.61204103483309,7.24945193974016,14
"255","5a7f42215292b8000122c84a","puppy","test_ani","animate","positive","Animacy","AV","","animate",1,1742985675537,"animate",1333.66666666667,631,"A","animate;inanimate","",6.44730586254121,7.19568732018913,15
"256","5a7f42215292b8000122c84a","corpse","test_ani","inanimate","negative","Animacy","AV","","inanimate",1,1742985677203,"inanimate",1394.83333333333,889,"A","animate;inanimate","",6.7900972355139,7.24053021280482,16
"257","5a7f42215292b8000122c84a","cocaine","test_ani","inanimate","negative","Animacy","AV","","inanimate",1,1742985678615,"inanimate",1373.5,649,"A","animate;inanimate","",6.47543271670409,7.22511750553533,17
"258","5a7f42215292b8000122c84a","laughter","test_ani","inanimate","positive","Animacy","AV","","inanimate",1,1742985680026,"inanimate",1305,630,"A","animate;inanimate","",6.44571981938558,7.17395831975679,18
"259","5a7f42215292b8000122c84a","smallpox","test_ani","inanimate","negative","Animacy","AV","","inanimate",1,1742985681454,"inanimate",1313.16666666667,649,"A","animate;inanimate","",6.47543271670409,7.18019680201763,19
"260","5a7f42215292b8000122c84a","widow","test_ani","animate","negative","Animacy","AV","","animate",1,1742985682952,"animate",1419.83333333333,729,"A","animate;inanimate","",6.59167373200866,7.25829477281479,20
"261","5a7f42215292b8000122c84a","leech","test_ani","animate","negative","Animacy","AV","","animate",1,1742985684430,"animate",1438.33333333333,709,"A","animate;inanimate","",6.56385552653213,7.27124031484942,21
"262","5a7f42215292b8000122c84a","poison","test_ani","inanimate","negative","Animacy","AV","","inanimate",1,1742985685857,"inanimate",1309.5,668,"A","animate;inanimate","",6.50428817353665,7.17740066394777,22
"263","5a7f42215292b8000122c84a","gunshot","test_ani","inanimate","negative","Animacy","AV","","inanimate",1,1742985687231,"inanimate",1346.33333333333,591,"A","animate;inanimate","",6.3818160174061,7.2051401268953,23
"264","5a7f42215292b8000122c84a","maggot","test_ani","animate","negative","Animacy","AV","","inanimate",0,1742985688604,"inanimate",1400.5,616,"A","animate;inanimate","",6.42324696353352,7.24458459470016,24
"265","5a7f42215292b8000122c84a","sandwich","test_ani","inanimate","positive","Animacy","AV","","inanimate",1,1742985689964,"inanimate",1337.83333333333,588,"A","animate;inanimate","",6.37672694789863,7.19880666890352,25
"266","5a7f42215292b8000122c84a","comedian","test_ani","animate","positive","Animacy","AV","","animate",1,1742985691443,"animate",1341.5,705,"A","animate;inanimate","",6.55819780281227,7.20154366986568,26
"267","5a7f42215292b8000122c84a","prize","test_ani","inanimate","positive","Animacy","AV","","inanimate",1,1742985692782,"inanimate",1407.83333333333,559,"A","animate;inanimate","",6.3261494731551,7.24980715849944,27
"268","5a7f42215292b8000122c84a","excrement","test_ani","inanimate","negative","Animacy","AV","","inanimate",1,1742985694359,"inanimate",1362.5,810,"A","animate;inanimate","",6.69703424766648,7.2170765265374,28
"269","5a7f42215292b8000122c84a","child","test_ani","animate","positive","Animacy","AV","","animate",1,1742985695686,"animate",1319,557,"A","animate;inanimate","",6.32256523992728,7.18462915271731,29
"270","5a7f42215292b8000122c84a","bunny","test_ani","animate","positive","Animacy","AV","","animate",1,1742985697042,"animate",1305.33333333333,579,"A","animate;inanimate","",6.361302477573,7.17421371498229,30
"271","5a7f42215292b8000122c84a","dictator","test_ani","animate","negative","Animacy","AV","","animate",1,1742985698571,"animate",1369,766,"A","animate;inanimate","",6.64118216974059,7.22183582528845,31
"272","5a7f42215292b8000122c84a","doughnut","test_ani","inanimate","positive","Animacy","AV","","inanimate",1,1742985699959,"inanimate",1351.5,614,"A","animate;inanimate","",6.41999492814714,7.2089703657165,32
"273","5a7f42215292b8000122c84a","meadow","test_ani","inanimate","positive","Animacy","AV","","inanimate",1,1742985701313,"inanimate",1411.33333333333,572,"A","animate;inanimate","",6.3491389913798,7.2522901630267,33
"274","5a7f42215292b8000122c84a","chipmunk","test_ani","animate","positive","Animacy","AV","","animate",1,1742985702775,"animate",1450.5,706,"A","animate;inanimate","",6.55961523749324,7.27966360356146,34
"275","5a7f42215292b8000122c84a","heroin","test_ani","inanimate","negative","Animacy","AV","","inanimate",1,1742985704143,"inanimate",1400.16666666667,595,"A","animate;inanimate","",6.38856140554563,7.24434655613679,35
"276","5a7f42215292b8000122c84a","duckling","test_ani","animate","positive","Animacy","AV","","animate",1,1742985705642,"animate",1397.5,723,"A","animate;inanimate","",6.58340922215876,7.24244020502925,36
"277","5a7f42215292b8000122c84a","asshole","test_ani","animate","negative","Animacy","AV","","inanimate",0,1742985707012,"inanimate",1382.83333333333,595,"A","animate;inanimate","",6.38856140554563,7.23188981343623,37
"278","5a7f42215292b8000122c84a","husband","test_ani","animate","positive","Animacy","AV","","animate",1,1742985708480,"animate",1504.16666666667,700,"A","animate;inanimate","",6.5510803350434,7.31599431397303,38
"279","5a7f42215292b8000122c84a","intruder","test_ani","animate","negative","Animacy","AV","","animate",1,1742985710003,"animate",1375.66666666667,762,"A","animate;inanimate","",6.63594655568665,7.22669374108447,39
"280","5a7f42215292b8000122c84a","award","test_ani","inanimate","positive","Animacy","AV","","inanimate",1,1742985711496,"inanimate",1417.66666666667,716,"A","animate;inanimate","",6.57368016696065,7.25676760658552,40
"281","5a7f42215292b8000122c84a","inmate","test_ani","animate","negative","Animacy","AV","","animate",1,1742985713113,"animate",1568.16666666667,840,"A","animate;inanimate","",6.73340189183736,7.35766248777871,41
"282","5a7f42215292b8000122c84a","corpse","test_ani","inanimate","negative","Animacy","AV","","inanimate",1,1742985714516,"inanimate",1394.83333333333,629,"A","animate;inanimate","",6.44413125670044,7.24053021280482,42
"283","5a7f42215292b8000122c84a","tapeworm","test_ani","animate","negative","Animacy","AV","","animate",1,1742985715920,"animate",1392.83333333333,622,"A","animate;inanimate","",6.43294009273918,7.23909532077338,43
"284","5a7f42215292b8000122c84a","widow","test_ani","animate","negative","Animacy","AV","","animate",1,1742985717273,"animate",1419.83333333333,576,"A","animate;inanimate","",6.35610766069589,7.25829477281479,44
"285","5a7f42215292b8000122c84a","dictator","test_ani","animate","negative","Animacy","AV","","animate",1,1742985718600,"animate",1369,552,"A","animate;inanimate","",6.31354804627709,7.22183582528845,45
"286","5a7f42215292b8000122c84a","wiretap","test_ani","inanimate","negative","Animacy","AV","","inanimate",1,1742985719977,"inanimate",1408.16666666667,603,"A","animate;inanimate","",6.40191719672719,7.25004390092479,46
"287","5a7f42215292b8000122c84a","feast","test_ani","inanimate","positive","Animacy","AV","","inanimate",1,1742985721345,"inanimate",1391,595,"A","animate;inanimate","",6.38856140554563,7.23777819192344,47
"288","5a7f42215292b8000122c84a","award","test_ani","inanimate","positive","Animacy","AV","","inanimate",1,1742985722720,"inanimate",1417.66666666667,608,"A","animate;inanimate","",6.41017488196617,7.25676760658552,48
"289","5a7f42215292b8000122c84a","meadow","test_ani","inanimate","positive","Animacy","AV","","inanimate",1,1742985724041,"inanimate",1411.33333333333,543,"A","animate;inanimate","",6.29710931993394,7.2522901630267,49
"290","5a7f42215292b8000122c84a","intruder","test_ani","animate","negative","Animacy","AV","","animate",1,1742985725412,"animate",1375.66666666667,597,"A","animate;inanimate","",6.3919171133926,7.22669374108447,50
"291","5a7f42215292b8000122c84a","leech","test_ani","animate","negative","Animacy","AV","","animate",1,1742985726775,"animate",1438.33333333333,585,"A","animate;inanimate","",6.37161184723186,7.27124031484942,51
"292","5a7f42215292b8000122c84a","flood","test_ani","inanimate","negative","Animacy","AV","","inanimate",1,1742985728138,"inanimate",1380.33333333333,586,"A","animate;inanimate","",6.37331978957701,7.23008029487746,52
"293","5a7f42215292b8000122c84a","chipmunk","test_ani","animate","positive","Animacy","AV","","animate",1,1742985730051,"animate",1450.5,1155,"A","animate;inanimate","",7.05185562295589,7.27966360356146,53
"294","5a7f42215292b8000122c84a","prize","test_ani","inanimate","positive","Animacy","AV","","inanimate",1,1742985731403,"inanimate",1407.83333333333,579,"A","animate;inanimate","",6.361302477573,7.24980715849944,54
"295","5a7f42215292b8000122c84a","doughnut","test_ani","inanimate","positive","Animacy","AV","","inanimate",1,1742985732707,"inanimate",1351.5,534,"A","animate;inanimate","",6.2803958389602,7.2089703657165,55
"296","5a7f42215292b8000122c84a","gunshot","test_ani","inanimate","negative","Animacy","AV","","inanimate",1,1742985734029,"inanimate",1346.33333333333,560,"A","animate;inanimate","",6.32793678372919,7.2051401268953,56
"297","5a7f42215292b8000122c84a","princess","test_ani","animate","positive","Animacy","AV","","animate",1,1742985735368,"animate",1382.66666666667,555,"A","animate;inanimate","",6.31896811374643,7.23176928068131,57
"298","5a7f42215292b8000122c84a","laughter","test_ani","inanimate","positive","Animacy","AV","","inanimate",1,1742985736695,"inanimate",1305,554,"A","animate;inanimate","",6.31716468674728,7.17395831975679,58
"299","5a7f42215292b8000122c84a","poison","test_ani","inanimate","negative","Animacy","AV","","inanimate",1,1742985737937,"inanimate",1309.5,482,"A","animate;inanimate","",6.1779441140506,7.17740066394777,59
"300","5a7f42215292b8000122c84a","kitten","test_ani","animate","positive","Animacy","AV","","animate",1,1742985739391,"animate",1347.66666666667,672,"A","animate;inanimate","",6.51025834052315,7.20612998097266,60
"301","5a7f42215292b8000122c84a","child","test_ani","animate","positive","Animacy","AV","","animate",1,1742985740785,"animate",1319,635,"A","animate;inanimate","",6.45362499889269,7.18462915271731,61
"302","5a7f42215292b8000122c84a","cocaine","test_ani","inanimate","negative","Animacy","AV","","inanimate",1,1742985742165,"inanimate",1373.5,611,"A","animate;inanimate","",6.4150969591716,7.22511750553533,62
"303","5a7f42215292b8000122c84a","pizza","test_ani","inanimate","positive","Animacy","AV","","inanimate",1,1742985743444,"inanimate",1395.16666666667,520,"A","animate;inanimate","",6.25382881157547,7.240769161432,63
"304","5a7f42215292b8000122c84a","heroin","test_ani","inanimate","negative","Animacy","AV","","inanimate",1,1742985744708,"inanimate",1400.16666666667,497,"A","animate;inanimate","",6.20859002609663,7.24434655613679,64
"305","5a7f42215292b8000122c84a","smallpox","test_ani","inanimate","negative","Animacy","AV","","inanimate",1,1742985746022,"inanimate",1313.16666666667,547,"A","animate;inanimate","",6.30444880242198,7.18019680201763,65
"306","5a7f42215292b8000122c84a","puppy","test_ani","animate","positive","Animacy","AV","","animate",1,1742985747347,"animate",1333.66666666667,558,"A","animate;inanimate","",6.32435896238131,7.19568732018913,66
"307","5a7f42215292b8000122c84a","comedian","test_ani","animate","positive","Animacy","AV","","animate",1,1742985748610,"animate",1341.5,499,"A","animate;inanimate","",6.21260609575152,7.20154366986568,67
"308","5a7f42215292b8000122c84a","dollar","test_ani","inanimate","positive","Animacy","AV","","inanimate",1,1742985749871,"inanimate",1402.16666666667,484,"A","animate;inanimate","",6.18208490671663,7.24577393832276,68
"309","5a7f42215292b8000122c84a","swastika","test_ani","inanimate","negative","Animacy","AV","","inanimate",1,1742985751141,"inanimate",1327.5,499,"A","animate;inanimate","",6.21260609575152,7.19105275311609,69
"310","5a7f42215292b8000122c84a","sibling","test_ani","animate","positive","Animacy","AV","","animate",1,1742985752429,"animate",1397.5,533,"A","animate;inanimate","",6.27852142416584,7.24244020502925,70
"311","5a7f42215292b8000122c84a","sunshine","test_ani","inanimate","positive","Animacy","AV","","inanimate",1,1742985754167,"inanimate",1439.33333333333,955,"A","animate;inanimate","",6.86171134048073,7.27193532240664,71
"312","5a7f42215292b8000122c84a","asshole","test_ani","animate","negative","Animacy","AV","","inanimate",0,1742985755883,"inanimate",1382.83333333333,933,"A","animate;inanimate","",6.83840520084734,7.23188981343623,72
"313","5a7f42215292b8000122c84a","mugger","test_ani","animate","negative","Animacy","AV","","animate",1,1742985757276,"animate",1360.58333333333,616,"A","animate;inanimate","",6.42324696353352,7.21566880833816,73
"314","5a7f42215292b8000122c84a","excrement","test_ani","inanimate","negative","Animacy","AV","","inanimate",1,1742985758645,"inanimate",1362.5,590,"A","animate;inanimate","",6.38012253689976,7.2170765265374,74
"315","5a7f42215292b8000122c84a","duckling","test_ani","animate","positive","Animacy","AV","","animate",1,1742985760019,"animate",1397.5,602,"A","animate;inanimate","",6.40025744530882,7.24244020502925,75
"316","5a7f42215292b8000122c84a","husband","test_ani","animate","positive","Animacy","AV","","animate",1,1742985761313,"animate",1504.16666666667,521,"A","animate;inanimate","",6.25575004175337,7.31599431397303,76
"317","5a7f42215292b8000122c84a","slave","test_ani","animate","negative","Animacy","AV","","animate",1,1742985762618,"animate",1407.33333333333,538,"A","animate;inanimate","",6.28785856016178,7.24945193974016,77
"318","5a7f42215292b8000122c84a","bunny","test_ani","animate","positive","Animacy","AV","","animate",1,1742985763916,"animate",1305.33333333333,518,"A","animate;inanimate","",6.24997524225948,7.17421371498229,78
"319","5a7f42215292b8000122c84a","maggot","test_ani","animate","negative","Animacy","AV","","animate",1,1742985765274,"animate",1400.5,600,"A","animate;inanimate","",6.39692965521615,7.24458459470016,79
"320","5a7f42215292b8000122c84a","sandwich","test_ani","inanimate","positive","Animacy","AV","","inanimate",1,1742985766582,"inanimate",1337.83333333333,534,"A","animate;inanimate","",6.2803958389602,7.19880666890352,80
"321","5a7f42215292b8000122c84a","puppy","test_ani","animate","positive","Animacy","AV","","inanimate",0,1742985767799,"inanimate",1333.66666666667,435,"A","animate;inanimate","",6.07534603108868,7.19568732018913,81
"322","5a7f42215292b8000122c84a","feast","test_ani","inanimate","positive","Animacy","AV","","inanimate",1,1742985769106,"inanimate",1391,527,"A","animate;inanimate","",6.26720054854136,7.23777819192344,82
"323","5a7f42215292b8000122c84a","gunshot","test_ani","inanimate","negative","Animacy","AV","","inanimate",1,1742985770462,"inanimate",1346.33333333333,590,"A","animate;inanimate","",6.38012253689976,7.2051401268953,83
"324","5a7f42215292b8000122c84a","wiretap","test_ani","inanimate","negative","Animacy","AV","","inanimate",1,1742985771763,"inanimate",1408.16666666667,545,"A","animate;inanimate","",6.30078579466324,7.25004390092479,84
"325","5a7f42215292b8000122c84a","heroin","test_ani","inanimate","negative","Animacy","AV","","inanimate",1,1742985773074,"inanimate",1400.16666666667,554,"A","animate;inanimate","",6.31716468674728,7.24434655613679,85
"326","5a7f42215292b8000122c84a","widow","test_ani","animate","negative","Animacy","AV","","animate",1,1742985774383,"animate",1419.83333333333,544,"A","animate;inanimate","",6.29894924685594,7.25829477281479,86
"327","5a7f42215292b8000122c84a","dictator","test_ani","animate","negative","Animacy","AV","","animate",1,1742985775654,"animate",1369,513,"A","animate;inanimate","",6.24027584517077,7.22183582528845,87
"328","5a7f42215292b8000122c84a","excrement","test_ani","inanimate","negative","Animacy","AV","","inanimate",1,1742985776981,"inanimate",1362.5,550,"A","animate;inanimate","",6.30991827822652,7.2170765265374,88
"329","5a7f42215292b8000122c84a","asshole","test_ani","animate","negative","Animacy","AV","","inanimate",0,1742985778234,"inanimate",1382.83333333333,475,"A","animate;inanimate","",6.16331480403464,7.23188981343623,89
"330","5a7f42215292b8000122c84a","comedian","test_ani","animate","positive","Animacy","AV","","animate",1,1742985779625,"animate",1341.5,622,"A","animate;inanimate","",6.43294009273918,7.20154366986568,90
"331","5a7f42215292b8000122c84a","smallpox","test_ani","inanimate","negative","Animacy","AV","","inanimate",1,1742985780909,"inanimate",1313.16666666667,524,"A","animate;inanimate","",6.26149168432104,7.18019680201763,91
"332","5a7f42215292b8000122c84a","inmate","test_ani","animate","negative","Animacy","AV","","animate",1,1742985782367,"animate",1568.16666666667,687,"A","animate;inanimate","",6.53233429222235,7.35766248777871,92
"333","5a7f42215292b8000122c84a","princess","test_ani","animate","positive","Animacy","AV","","animate",1,1742985783709,"animate",1382.66666666667,581,"A","animate;inanimate","",6.36475075685191,7.23176928068131,93
"334","5a7f42215292b8000122c84a","doughnut","test_ani","inanimate","positive","Animacy","AV","","inanimate",1,1742985785055,"inanimate",1351.5,582,"A","animate;inanimate","",6.36647044773144,7.2089703657165,94
"335","5a7f42215292b8000122c84a","poison","test_ani","inanimate","negative","Animacy","AV","","inanimate",1,1742985786351,"inanimate",1309.5,529,"A","animate;inanimate","",6.2709884318583,7.17740066394777,95
"336","5a7f42215292b8000122c84a","dollar","test_ani","inanimate","positive","Animacy","AV","","inanimate",1,1742985787696,"inanimate",1402.16666666667,575,"A","animate;inanimate","",6.35437004079735,7.24577393832276,96
"337","5a7f42215292b8000122c84a","laughter","test_ani","inanimate","positive","Animacy","AV","","inanimate",1,1742985789020,"inanimate",1305,553,"A","animate;inanimate","",6.31535800152233,7.17395831975679,97
"338","5a7f42215292b8000122c84a","chipmunk","test_ani","animate","positive","Animacy","AV","","animate",1,1742985790363,"animate",1450.5,577,"A","animate;inanimate","",6.3578422665081,7.27966360356146,98
"339","5a7f42215292b8000122c84a","husband","test_ani","animate","positive","Animacy","AV","","animate",1,1742985791692,"animate",1504.16666666667,558,"A","animate;inanimate","",6.32435896238131,7.31599431397303,99
"340","5a7f42215292b8000122c84a","slave","test_ani","animate","negative","Animacy","AV","","animate",1,1742985792998,"animate",1407.33333333333,526,"A","animate;inanimate","",6.26530121273771,7.24945193974016,100
"341","5a7f42215292b8000122c84a","bunny","test_ani","animate","positive","Animacy","AV","","animate",1,1742985794263,"animate",1305.33333333333,503,"A","animate;inanimate","",6.22059017009974,7.17421371498229,101
"342","5a7f42215292b8000122c84a","swastika","test_ani","inanimate","negative","Animacy","AV","","inanimate",1,1742985795606,"inanimate",1327.5,587,"A","animate;inanimate","",6.3750248198281,7.19105275311609,102
"343","5a7f42215292b8000122c84a","kitten","test_ani","animate","positive","Animacy","AV","","animate",1,1742985796974,"animate",1347.66666666667,591,"A","animate;inanimate","",6.3818160174061,7.20612998097266,103
"344","5a7f42215292b8000122c84a","pizza","test_ani","inanimate","positive","Animacy","AV","","inanimate",1,1742985798222,"inanimate",1395.16666666667,479,"A","animate;inanimate","",6.17170059741091,7.240769161432,104
"345","5a7f42215292b8000122c84a","tapeworm","test_ani","animate","negative","Animacy","AV","","inanimate",0,1742985799509,"inanimate",1392.83333333333,524,"A","animate;inanimate","",6.26149168432104,7.23909532077338,105
"346","5a7f42215292b8000122c84a","sandwich","test_ani","inanimate","positive","Animacy","AV","","inanimate",1,1742985800796,"inanimate",1337.83333333333,517,"A","animate;inanimate","",6.24804287450843,7.19880666890352,106
"347","5a7f42215292b8000122c84a","intruder","test_ani","animate","negative","Animacy","AV","","animate",1,1742985802123,"animate",1375.66666666667,559,"A","animate;inanimate","",6.3261494731551,7.22669374108447,107
"348","5a7f42215292b8000122c84a","duckling","test_ani","animate","positive","Animacy","AV","","animate",1,1742985803507,"animate",1397.5,617,"A","animate;inanimate","",6.42486902390539,7.24244020502925,108
"349","5a7f42215292b8000122c84a","award","test_ani","inanimate","positive","Animacy","AV","","inanimate",1,1742985804826,"inanimate",1417.66666666667,551,"A","animate;inanimate","",6.31173480915291,7.25676760658552,109
"350","5a7f42215292b8000122c84a","child","test_ani","animate","positive","Animacy","AV","","animate",1,1742985806311,"animate",1319,716,"A","animate;inanimate","",6.57368016696065,7.18462915271731,110
"351","5a7f42215292b8000122c84a","sunshine","test_ani","inanimate","positive","Animacy","AV","","inanimate",1,1742985807639,"inanimate",1439.33333333333,567,"A","animate;inanimate","",6.34035930372775,7.27193532240664,111
"352","5a7f42215292b8000122c84a","leech","test_ani","animate","negative","Animacy","AV","","animate",1,1742985809076,"animate",1438.33333333333,662,"A","animate;inanimate","",6.49526555593701,7.27124031484942,112
"353","5a7f42215292b8000122c84a","meadow","test_ani","inanimate","positive","Animacy","AV","","inanimate",1,1742985810445,"inanimate",1411.33333333333,612,"A","animate;inanimate","",6.41673228251233,7.2522901630267,113
"354","5a7f42215292b8000122c84a","mugger","test_ani","animate","negative","Animacy","AV","","animate",1,1742985811838,"animate",1360.58333333333,638,"A","animate;inanimate","",6.45833828334479,7.21566880833816,114
"355","5a7f42215292b8000122c84a","maggot","test_ani","animate","negative","Animacy","AV","","animate",1,1742985813421,"animate",1400.5,813,"A","animate;inanimate","",6.70073110954781,7.24458459470016,115
"356","5a7f42215292b8000122c84a","cocaine","test_ani","inanimate","negative","Animacy","AV","","inanimate",1,1742985814742,"inanimate",1373.5,549,"A","animate;inanimate","",6.30809844150953,7.22511750553533,116
"357","5a7f42215292b8000122c84a","flood","test_ani","inanimate","negative","Animacy","AV","","inanimate",1,1742985816237,"inanimate",1380.33333333333,720,"A","animate;inanimate","",6.5792512120101,7.23008029487746,117
"358","5a7f42215292b8000122c84a","sibling","test_ani","animate","positive","Animacy","AV","","animate",1,1742985817673,"animate",1397.5,656,"A","animate;inanimate","",6.48616078894409,7.24244020502925,118
"359","5a7f42215292b8000122c84a","prize","test_ani","inanimate","positive","Animacy","AV","","inanimate",1,1742985819016,"inanimate",1407.83333333333,562,"A","animate;inanimate","",6.33150184989369,7.24980715849944,119
"360","5a7f42215292b8000122c84a","corpse","test_ani","inanimate","negative","Animacy","AV","","inanimate",1,1742985820328,"inanimate",1394.83333333333,541,"A","animate;inanimate","",6.29341927884648,7.24053021280482,120
"361","5a7f42215292b8000122c84a","wiretap","test_val","inanimate","negative","Valence","AV","","negative",1,1742985918138,"negative",1408.16666666667,906,"A","positive;negative","",6.80903930604298,7.25004390092479,121
"362","5a7f42215292b8000122c84a","swastika","test_val","inanimate","negative","Valence","AV","","negative",1,1742985919502,"negative",1327.5,584,"A","positive;negative","",6.36990098282823,7.19105275311609,122
"363","5a7f42215292b8000122c84a","leech","test_val","animate","negative","Valence","AV","","negative",1,1742985921215,"negative",1438.33333333333,941,"A","positive;negative","",6.84694313958538,7.27124031484942,123
"364","5a7f42215292b8000122c84a","inmate","test_val","animate","negative","Valence","AV","","negative",1,1742985922674,"negative",1568.16666666667,700,"A","positive;negative","",6.5510803350434,7.35766248777871,124
"365","5a7f42215292b8000122c84a","asshole","test_val","animate","negative","Valence","AV","","negative",1,1742985924091,"negative",1382.83333333333,660,"A","positive;negative","",6.49223983502047,7.23188981343623,125
"366","5a7f42215292b8000122c84a","husband","test_val","animate","positive","Valence","AV","","positive",1,1742985925754,"positive",1504.16666666667,899,"A","positive;negative","",6.80128303447162,7.31599431397303,126
"367","5a7f42215292b8000122c84a","heroin","test_val","inanimate","negative","Valence","AV","","negative",1,1742985927569,"negative",1400.16666666667,1040,"A","positive;negative","",6.94697599213542,7.24434655613679,127
"368","5a7f42215292b8000122c84a","dictator","test_val","animate","negative","Valence","AV","","negative",1,1742985929022,"negative",1369,694,"A","positive;negative","",6.5424719605068,7.22183582528845,128
"369","5a7f42215292b8000122c84a","dollar","test_val","inanimate","positive","Valence","AV","","positive",1,1742985930654,"positive",1402.16666666667,863,"A","positive;negative","",6.76041469108343,7.24577393832276,129
"370","5a7f42215292b8000122c84a","sunshine","test_val","inanimate","positive","Valence","AV","","positive",1,1742985932086,"positive",1439.33333333333,662,"A","positive;negative","",6.49526555593701,7.27193532240664,130
"371","5a7f42215292b8000122c84a","chipmunk","test_val","animate","positive","Valence","AV","","positive",1,1742985933472,"positive",1450.5,626,"A","positive;negative","",6.4393503711001,7.27966360356146,131
"372","5a7f42215292b8000122c84a","flood","test_val","inanimate","negative","Valence","AV","","negative",1,1742985934981,"negative",1380.33333333333,746,"A","positive;negative","",6.61472560020376,7.23008029487746,132
"373","5a7f42215292b8000122c84a","meadow","test_val","inanimate","positive","Valence","AV","","positive",1,1742985936513,"positive",1411.33333333333,769,"A","positive;negative","",6.64509096950564,7.2522901630267,133
"374","5a7f42215292b8000122c84a","smallpox","test_val","inanimate","negative","Valence","AV","","negative",1,1742985937815,"negative",1313.16666666667,543,"A","positive;negative","",6.29710931993394,7.18019680201763,134
"375","5a7f42215292b8000122c84a","duckling","test_val","animate","positive","Valence","AV","","positive",1,1742985939224,"positive",1397.5,652,"A","positive;negative","",6.48004456192665,7.24244020502925,135
"376","5a7f42215292b8000122c84a","tapeworm","test_val","animate","negative","Valence","AV","","negative",1,1742985940587,"negative",1392.83333333333,596,"A","positive;negative","",6.39024066706535,7.23909532077338,136
"377","5a7f42215292b8000122c84a","princess","test_val","animate","positive","Valence","AV","","positive",1,1742985942181,"positive",1382.66666666667,814,"A","positive;negative","",6.70196036600254,7.23176928068131,137
"378","5a7f42215292b8000122c84a","cocaine","test_val","inanimate","negative","Valence","AV","","negative",1,1742985943774,"negative",1373.5,818,"A","positive;negative","",6.70686233660275,7.22511750553533,138
"379","5a7f42215292b8000122c84a","sibling","test_val","animate","positive","Valence","AV","","positive",1,1742985945475,"positive",1397.5,930,"A","positive;negative","",6.8351845861473,7.24244020502925,139
"380","5a7f42215292b8000122c84a","pizza","test_val","inanimate","positive","Valence","AV","","negative",0,1742985946957,"negative",1395.16666666667,715,"A","positive;negative","",6.57228254269401,7.240769161432,140
"381","5a7f42215292b8000122c84a","puppy","test_val","animate","positive","Valence","AV","","positive",1,1742985948400,"positive",1333.66666666667,688,"A","positive;negative","",6.53378883793334,7.19568732018913,141
"382","5a7f42215292b8000122c84a","feast","test_val","inanimate","positive","Valence","AV","","positive",1,1742985949784,"positive",1391,630,"A","positive;negative","",6.44571981938558,7.23777819192344,142
"383","5a7f42215292b8000122c84a","excrement","test_val","inanimate","negative","Valence","AV","","negative",1,1742985951157,"negative",1362.5,597,"A","positive;negative","",6.3919171133926,7.2170765265374,143
"384","5a7f42215292b8000122c84a","corpse","test_val","inanimate","negative","Valence","AV","","negative",1,1742985952524,"negative",1394.83333333333,590,"A","positive;negative","",6.38012253689976,7.24053021280482,144
"385","5a7f42215292b8000122c84a","gunshot","test_val","inanimate","negative","Valence","AV","","negative",1,1742985953885,"negative",1346.33333333333,588,"A","positive;negative","",6.37672694789863,7.2051401268953,145
"386","5a7f42215292b8000122c84a","widow","test_val","animate","negative","Valence","AV","","negative",1,1742985955419,"negative",1419.83333333333,773,"A","positive;negative","",6.65027904858742,7.25829477281479,146
"387","5a7f42215292b8000122c84a","prize","test_val","inanimate","positive","Valence","AV","","positive",1,1742985957219,"positive",1407.83333333333,1032,"A","positive;negative","",6.93925394604151,7.24980715849944,147
"388","5a7f42215292b8000122c84a","sandwich","test_val","inanimate","positive","Valence","AV","","positive",1,1742985958565,"positive",1337.83333333333,565,"A","positive;negative","",6.33682573114644,7.19880666890352,148
"389","5a7f42215292b8000122c84a","kitten","test_val","animate","positive","Valence","AV","","positive",1,1742985959916,"positive",1347.66666666667,572,"A","positive;negative","",6.3491389913798,7.20612998097266,149
"390","5a7f42215292b8000122c84a","award","test_val","inanimate","positive","Valence","AV","","positive",1,1742985961380,"positive",1417.66666666667,702,"A","positive;negative","",6.55393340402581,7.25676760658552,150
"391","5a7f42215292b8000122c84a","mugger","test_val","animate","negative","Valence","AV","","negative",1,1742985962681,"negative",1360.58333333333,524,"A","positive;negative","",6.26149168432104,7.21566880833816,151
"392","5a7f42215292b8000122c84a","bunny","test_val","animate","positive","Valence","AV","","positive",1,1742985964022,"positive",1305.33333333333,565,"A","positive;negative","",6.33682573114644,7.17421371498229,152
"393","5a7f42215292b8000122c84a","poison","test_val","inanimate","negative","Valence","AV","","negative",1,1742985965298,"negative",1309.5,507,"A","positive;negative","",6.22851100359118,7.17740066394777,153
"394","5a7f42215292b8000122c84a","intruder","test_val","animate","negative","Valence","AV","","negative",1,1742985966666,"negative",1375.66666666667,595,"A","positive;negative","",6.38856140554563,7.22669374108447,154
"395","5a7f42215292b8000122c84a","laughter","test_val","inanimate","positive","Valence","AV","","positive",1,1742985967913,"positive",1305,470,"A","positive;negative","",6.1527326947041,7.17395831975679,155
"396","5a7f42215292b8000122c84a","comedian","test_val","animate","positive","Valence","AV","","positive",1,1742985969233,"positive",1341.5,547,"A","positive;negative","",6.30444880242198,7.20154366986568,156
"397","5a7f42215292b8000122c84a","doughnut","test_val","inanimate","positive","Valence","AV","","positive",1,1742985970628,"positive",1351.5,641,"A","positive;negative","",6.46302945692067,7.2089703657165,157
"398","5a7f42215292b8000122c84a","child","test_val","animate","positive","Valence","AV","","positive",1,1742985971945,"positive",1319,539,"A","positive;negative","",6.289715570909,7.18462915271731,158
"399","5a7f42215292b8000122c84a","maggot","test_val","animate","negative","Valence","AV","","negative",1,1742985973494,"negative",1400.5,779,"A","positive;negative","",6.65801104587075,7.24458459470016,159
"400","5a7f42215292b8000122c84a","slave","test_val","animate","negative","Valence","AV","","negative",1,1742985975044,"negative",1407.33333333333,776,"A","positive;negative","",6.65415252018322,7.24945193974016,160
"401","5a7f42215292b8000122c84a","inmate","test_val","animate","negative","Valence","AV","","negative",1,1742985976415,"negative",1568.16666666667,613,"A","positive;negative","",6.41836493593621,7.35766248777871,161
"402","5a7f42215292b8000122c84a","cocaine","test_val","inanimate","negative","Valence","AV","","negative",1,1742985977724,"negative",1373.5,552,"A","positive;negative","",6.31354804627709,7.22511750553533,162
"403","5a7f42215292b8000122c84a","kitten","test_val","animate","positive","Valence","AV","","positive",1,1742985979065,"positive",1347.66666666667,569,"A","positive;negative","",6.34388043412633,7.20612998097266,163
"404","5a7f42215292b8000122c84a","gunshot","test_val","inanimate","negative","Valence","AV","","negative",1,1742985980455,"negative",1346.33333333333,618,"A","positive;negative","",6.42648845745769,7.2051401268953,164
"405","5a7f42215292b8000122c84a","maggot","test_val","animate","negative","Valence","AV","","negative",1,1742985981765,"negative",1400.5,544,"A","positive;negative","",6.29894924685594,7.24458459470016,165
"406","5a7f42215292b8000122c84a","excrement","test_val","inanimate","negative","Valence","AV","","negative",1,1742985983116,"negative",1362.5,590,"A","positive;negative","",6.38012253689976,7.2170765265374,166
"407","5a7f42215292b8000122c84a","slave","test_val","animate","negative","Valence","AV","","negative",1,1742985984405,"negative",1407.33333333333,511,"A","positive;negative","",6.2363695902037,7.24945193974016,167
"408","5a7f42215292b8000122c84a","bunny","test_val","animate","positive","Valence","AV","","positive",1,1742985985636,"positive",1305.33333333333,462,"A","positive;negative","",6.13556489108174,7.17421371498229,168
"409","5a7f42215292b8000122c84a","corpse","test_val","inanimate","negative","Valence","AV","","negative",1,1742985986974,"negative",1394.83333333333,567,"A","positive;negative","",6.34035930372775,7.24053021280482,169
"410","5a7f42215292b8000122c84a","widow","test_val","animate","negative","Valence","AV","","negative",1,1742985988406,"negative",1419.83333333333,661,"A","positive;negative","",6.49375383985169,7.25829477281479,170
"411","5a7f42215292b8000122c84a","tapeworm","test_val","animate","negative","Valence","AV","","negative",1,1742985989773,"negative",1392.83333333333,611,"A","positive;negative","",6.4150969591716,7.23909532077338,171
"412","5a7f42215292b8000122c84a","comedian","test_val","animate","positive","Valence","AV","","positive",1,1742985991085,"positive",1341.5,549,"A","positive;negative","",6.30809844150953,7.20154366986568,172
"413","5a7f42215292b8000122c84a","princess","test_val","animate","positive","Valence","AV","","positive",1,1742985992354,"positive",1382.66666666667,499,"A","positive;negative","",6.21260609575152,7.23176928068131,173
"414","5a7f42215292b8000122c84a","intruder","test_val","animate","negative","Valence","AV","","negative",1,1742985993694,"negative",1375.66666666667,574,"A","positive;negative","",6.35262939631957,7.22669374108447,174
"415","5a7f42215292b8000122c84a","flood","test_val","inanimate","negative","Valence","AV","","negative",1,1742985995010,"negative",1380.33333333333,536,"A","positive;negative","",6.2841341610708,7.23008029487746,175
"416","5a7f42215292b8000122c84a","leech","test_val","animate","negative","Valence","AV","","negative",1,1742985996328,"negative",1438.33333333333,542,"A","positive;negative","",6.29526600143965,7.27124031484942,176
"417","5a7f42215292b8000122c84a","child","test_val","animate","positive","Valence","AV","","positive",1,1742985997533,"positive",1319,446,"A","positive;negative","",6.10031895202006,7.18462915271731,177
"418","5a7f42215292b8000122c84a","wiretap","test_val","inanimate","negative","Valence","AV","","negative",1,1742985998907,"negative",1408.16666666667,596,"A","positive;negative","",6.39024066706535,7.25004390092479,178
"419","5a7f42215292b8000122c84a","feast","test_val","inanimate","positive","Valence","AV","","positive",1,1742986000420,"positive",1391,745,"A","positive;negative","",6.61338421837956,7.23777819192344,179
"420","5a7f42215292b8000122c84a","heroin","test_val","inanimate","negative","Valence","AV","","negative",1,1742986001777,"negative",1400.16666666667,584,"A","positive;negative","",6.36990098282823,7.24434655613679,180
"421","5a7f42215292b8000122c84a","asshole","test_val","animate","negative","Valence","AV","","negative",1,1742986003050,"negative",1382.83333333333,515,"A","positive;negative","",6.24416690066374,7.23188981343623,181
"422","5a7f42215292b8000122c84a","prize","test_val","inanimate","positive","Valence","AV","","positive",1,1742986004373,"positive",1407.83333333333,550,"A","positive;negative","",6.30991827822652,7.24980715849944,182
"423","5a7f42215292b8000122c84a","smallpox","test_val","inanimate","negative","Valence","AV","","negative",1,1742986005644,"negative",1313.16666666667,505,"A","positive;negative","",6.22455842927536,7.18019680201763,183
"424","5a7f42215292b8000122c84a","dictator","test_val","animate","negative","Valence","AV","","negative",1,1742986006902,"negative",1369,483,"A","positive;negative","",6.18001665365257,7.22183582528845,184
"425","5a7f42215292b8000122c84a","puppy","test_val","animate","positive","Valence","AV","","positive",1,1742986008234,"positive",1333.66666666667,555,"A","positive;negative","",6.31896811374643,7.19568732018913,185
"426","5a7f42215292b8000122c84a","pizza","test_val","inanimate","positive","Valence","AV","","positive",1,1742986009616,"positive",1395.16666666667,615,"A","positive;negative","",6.42162226780652,7.240769161432,186
"427","5a7f42215292b8000122c84a","doughnut","test_val","inanimate","positive","Valence","AV","","positive",1,1742986010964,"positive",1351.5,574,"A","positive;negative","",6.35262939631957,7.2089703657165,187
"428","5a7f42215292b8000122c84a","poison","test_val","inanimate","negative","Valence","AV","","negative",1,1742986012262,"negative",1309.5,530,"A","positive;negative","",6.27287700654617,7.17740066394777,188
"429","5a7f42215292b8000122c84a","dollar","test_val","inanimate","positive","Valence","AV","","positive",1,1742986013727,"positive",1402.16666666667,687,"A","positive;negative","",6.53233429222235,7.24577393832276,189
"430","5a7f42215292b8000122c84a","duckling","test_val","animate","positive","Valence","AV","","positive",1,1742986015152,"positive",1397.5,654,"A","positive;negative","",6.4831073514572,7.24244020502925,190
"431","5a7f42215292b8000122c84a","sibling","test_val","animate","positive","Valence","AV","","positive",1,1742986016511,"positive",1397.5,597,"A","positive;negative","",6.3919171133926,7.24244020502925,191
"432","5a7f42215292b8000122c84a","mugger","test_val","animate","negative","Valence","AV","","negative",1,1742986017828,"negative",1360.58333333333,553,"A","positive;negative","",6.31535800152233,7.21566880833816,192
"433","5a7f42215292b8000122c84a","swastika","test_val","inanimate","negative","Valence","AV","","negative",1,1742986019105,"negative",1327.5,501,"A","positive;negative","",6.21660610108486,7.19105275311609,193
"434","5a7f42215292b8000122c84a","husband","test_val","animate","positive","Valence","AV","","negative",0,1742986020984,"negative",1504.16666666667,1114,"A","positive;negative","",7.01571242048723,7.31599431397303,194
"435","5a7f42215292b8000122c84a","award","test_val","inanimate","positive","Valence","AV","","positive",1,1742986022527,"positive",1417.66666666667,778,"A","positive;negative","",6.65672652417839,7.25676760658552,195
"436","5a7f42215292b8000122c84a","meadow","test_val","inanimate","positive","Valence","AV","","positive",1,1742986023990,"positive",1411.33333333333,683,"A","positive;negative","",6.52649485957079,7.2522901630267,196
"437","5a7f42215292b8000122c84a","laughter","test_val","inanimate","positive","Valence","AV","","positive",1,1742986025312,"positive",1305,543,"A","positive;negative","",6.29710931993394,7.17395831975679,197
"438","5a7f42215292b8000122c84a","sunshine","test_val","inanimate","positive","Valence","AV","","positive",1,1742986026654,"positive",1439.33333333333,563,"A","positive;negative","",6.33327962813969,7.27193532240664,198
"439","5a7f42215292b8000122c84a","sandwich","test_val","inanimate","positive","Valence","AV","","positive",1,1742986027966,"positive",1337.83333333333,543,"A","positive;negative","",6.29710931993394,7.19880666890352,199
"440","5a7f42215292b8000122c84a","chipmunk","test_val","animate","positive","Valence","AV","","positive",1,1742986029286,"positive",1450.5,551,"A","positive;negative","",6.31173480915291,7.27966360356146,200
"441","5a7f42215292b8000122c84a","swastika","test_val","inanimate","negative","Valence","AV","","negative",1,1742986030596,"negative",1327.5,534,"A","positive;negative","",6.2803958389602,7.19105275311609,201
"442","5a7f42215292b8000122c84a","husband","test_val","animate","positive","Valence","AV","","negative",0,1742986032001,"negative",1504.16666666667,639,"A","positive;negative","",6.45990445437753,7.31599431397303,202
"443","5a7f42215292b8000122c84a","slave","test_val","animate","negative","Valence","AV","","negative",1,1742986033484,"negative",1407.33333333333,712,"A","positive;negative","",6.56807791141198,7.24945193974016,203
"444","5a7f42215292b8000122c84a","tapeworm","test_val","animate","negative","Valence","AV","","negative",1,1742986034861,"negative",1392.83333333333,609,"A","positive;negative","",6.4118182677099,7.23909532077338,204
"445","5a7f42215292b8000122c84a","sandwich","test_val","inanimate","positive","Valence","AV","","positive",1,1742986036289,"positive",1337.83333333333,663,"A","positive;negative","",6.49677499018586,7.19880666890352,205
"446","5a7f42215292b8000122c84a","comedian","test_val","animate","positive","Valence","AV","","positive",1,1742986037584,"positive",1341.5,540,"A","positive;negative","",6.29156913955832,7.20154366986568,206
"447","5a7f42215292b8000122c84a","poison","test_val","inanimate","negative","Valence","AV","","negative",1,1742986038914,"negative",1309.5,561,"A","positive;negative","",6.3297209055227,7.17740066394777,207
"448","5a7f42215292b8000122c84a","meadow","test_val","inanimate","positive","Valence","AV","","positive",1,1742986040356,"positive",1411.33333333333,678,"A","positive;negative","",6.5191472879404,7.2522901630267,208
"449","5a7f42215292b8000122c84a","widow","test_val","animate","negative","Valence","AV","","negative",1,1742986041762,"negative",1419.83333333333,633,"A","positive;negative","",6.45047042214418,7.25829477281479,209
"450","5a7f42215292b8000122c84a","gunshot","test_val","inanimate","negative","Valence","AV","","negative",1,1742986043050,"negative",1346.33333333333,520,"A","positive;negative","",6.25382881157547,7.2051401268953,210
"451","5a7f42215292b8000122c84a","prize","test_val","inanimate","positive","Valence","AV","","positive",1,1742986044354,"positive",1407.83333333333,536,"A","positive;negative","",6.2841341610708,7.24980715849944,211
"452","5a7f42215292b8000122c84a","dollar","test_val","inanimate","positive","Valence","AV","","positive",1,1742986045605,"positive",1402.16666666667,481,"A","positive;negative","",6.17586727010576,7.24577393832276,212
"453","5a7f42215292b8000122c84a","princess","test_val","animate","positive","Valence","AV","","positive",1,1742986046969,"positive",1382.66666666667,597,"A","positive;negative","",6.3919171133926,7.23176928068131,213
"454","5a7f42215292b8000122c84a","duckling","test_val","animate","positive","Valence","AV","","positive",1,1742986048275,"positive",1397.5,531,"A","positive;negative","",6.27476202124194,7.24244020502925,214
"455","5a7f42215292b8000122c84a","laughter","test_val","inanimate","positive","Valence","AV","","positive",1,1742986049488,"positive",1305,449,"A","positive;negative","",6.10702288774225,7.17395831975679,215
"456","5a7f42215292b8000122c84a","wiretap","test_val","inanimate","negative","Valence","AV","","negative",1,1742986050812,"negative",1408.16666666667,554,"A","positive;negative","",6.31716468674728,7.25004390092479,216
"457","5a7f42215292b8000122c84a","corpse","test_val","inanimate","negative","Valence","AV","","negative",1,1742986052108,"negative",1394.83333333333,511,"A","positive;negative","",6.2363695902037,7.24053021280482,217
"458","5a7f42215292b8000122c84a","award","test_val","inanimate","positive","Valence","AV","","positive",1,1742986053431,"positive",1417.66666666667,553,"A","positive;negative","",6.31535800152233,7.25676760658552,218
"459","5a7f42215292b8000122c84a","chipmunk","test_val","animate","positive","Valence","AV","","positive",1,1742986054723,"positive",1450.5,520,"A","positive;negative","",6.25382881157547,7.27966360356146,219
"460","5a7f42215292b8000122c84a","puppy","test_val","animate","positive","Valence","AV","","positive",1,1742986056011,"positive",1333.66666666667,510,"A","positive;negative","",6.23441072571837,7.19568732018913,220
"461","5a7f42215292b8000122c84a","intruder","test_val","animate","negative","Valence","AV","","negative",1,1742986057348,"negative",1375.66666666667,562,"A","positive;negative","",6.33150184989369,7.22669374108447,221
"462","5a7f42215292b8000122c84a","pizza","test_val","inanimate","positive","Valence","AV","","positive",1,1742986058741,"positive",1395.16666666667,620,"A","positive;negative","",6.42971947803914,7.240769161432,222
"463","5a7f42215292b8000122c84a","maggot","test_val","animate","negative","Valence","AV","","negative",1,1742986059983,"negative",1400.5,475,"A","positive;negative","",6.16331480403464,7.24458459470016,223
"464","5a7f42215292b8000122c84a","leech","test_val","animate","negative","Valence","AV","","negative",1,1742986061316,"negative",1438.33333333333,555,"A","positive;negative","",6.31896811374643,7.27124031484942,224
"465","5a7f42215292b8000122c84a","asshole","test_val","animate","negative","Valence","AV","","negative",1,1742986062598,"negative",1382.83333333333,503,"A","positive;negative","",6.22059017009974,7.23188981343623,225
"466","5a7f42215292b8000122c84a","bunny","test_val","animate","positive","Valence","AV","","positive",1,1742986063952,"positive",1305.33333333333,576,"A","positive;negative","",6.35610766069589,7.17421371498229,226
"467","5a7f42215292b8000122c84a","dictator","test_val","animate","negative","Valence","AV","","negative",1,1742986065340,"negative",1369,617,"A","positive;negative","",6.42486902390539,7.22183582528845,227
"468","5a7f42215292b8000122c84a","sunshine","test_val","inanimate","positive","Valence","AV","","positive",1,1742986066685,"positive",1439.33333333333,580,"A","positive;negative","",6.36302810354046,7.27193532240664,228
