#
# Results on Fri, 01 Nov 2024 17:25:15 GMT
# USER AGENT: Mozilla/5.0 (Windows NT 10.0; Win64; x64) AppleWebKit/537.36 (KHTML, like Gecko) Chrome/130.0.0.0 Safari/537.36
# Design number was non-random = 0
#
# Columns below this comment are as follows:
# 1. Results reception time.
# 2. MD5 hash of participant's IP address.
# 3. Controller name.
# 4. Order number of item.
# 5. Inner element number.
# 6. Label.
# 7. Latin Square Group.
# 8. PennElementType.
# 9. PennElementName.
# 10. Parameter.
# 11. Value.
# 12. EventTime.
# 13. Comments.
1730481915,32d253b7338b30f6325183356146cccc,PennController,1,0,welcome,NULL,PennController,0,_Trial_,Start,1730480967481,NULL
1730481915,32d253b7338b30f6325183356146cccc,PennController,1,0,welcome,NULL,PennController,0,_Header_,Start,1730480967481,NULL
1730481915,32d253b7338b30f6325183356146cccc,PennController,1,0,welcome,NULL,PennController,0,_Header_,End,1730480967736,NULL
1730481915,32d253b7338b30f6325183356146cccc,PennController,1,0,welcome,NULL,PennController,0,_Trial_,End,1730480970656,NULL
# 13. ID.
# 14. Comments.
1730481915,32d253b7338b30f6325183356146cccc,PennController,124,0,consent,NULL,PennController,2,_Trial_,Start,1730480970657,5fbae54831099083583afff0,NULL
1730481915,32d253b7338b30f6325183356146cccc,PennController,124,0,consent,NULL,PennController,2,_Header_,Start,1730480970657,5fbae54831099083583afff0,NULL
1730481915,32d253b7338b30f6325183356146cccc,PennController,124,0,consent,NULL,PennController,2,_Header_,End,1730480970910,5fbae54831099083583afff0,NULL
1730481915,32d253b7338b30f6325183356146cccc,PennController,124,0,consent,NULL,TextInput,ID,Final,5fbae54831099083583afff0,1730480980920,5fbae54831099083583afff0,NULL
1730481915,32d253b7338b30f6325183356146cccc,PennController,124,0,consent,NULL,PennController,2,_Trial_,End,1730480980921,5fbae54831099083583afff0,NULL
# 13. Comments.
1730481915,32d253b7338b30f6325183356146cccc,PennController,126,0,instructions1_conc,NULL,PennController,4,_Trial_,Start,1730480980921,NULL
1730481915,32d253b7338b30f6325183356146cccc,PennController,126,0,instructions1_conc,NULL,PennController,4,_Header_,Start,1730480980921,NULL
1730481915,32d253b7338b30f6325183356146cccc,PennController,126,0,instructions1_conc,NULL,PennController,4,_Header_,End,1730480981175,NULL
1730481915,32d253b7338b30f6325183356146cccc,PennController,126,0,instructions1_conc,NULL,PennController,4,_Trial_,End,1730481276102,NULL
1730481915,32d253b7338b30f6325183356146cccc,PennController,127,0,instructions2_conc,NULL,PennController,5,_Trial_,Start,1730481276103,NULL
1730481915,32d253b7338b30f6325183356146cccc,PennController,127,0,instructions2_conc,NULL,PennController,5,_Header_,Start,1730481276103,NULL
1730481915,32d253b7338b30f6325183356146cccc,PennController,127,0,instructions2_conc,NULL,PennController,5,_Header_,End,1730481276357,NULL
1730481915,32d253b7338b30f6325183356146cccc,PennController,127,0,instructions2_conc,NULL,PennController,5,_Trial_,End,1730481284509,NULL
1730481915,32d253b7338b30f6325183356146cccc,PennController,134,0,instructions3_hands,NULL,PennController,12,_Trial_,Start,1730481284510,NULL
1730481915,32d253b7338b30f6325183356146cccc,PennController,134,0,instructions3_hands,NULL,PennController,12,_Header_,Start,1730481284510,NULL
1730481915,32d253b7338b30f6325183356146cccc,PennController,134,0,instructions3_hands,NULL,PennController,12,_Header_,End,1730481284761,NULL
1730481915,32d253b7338b30f6325183356146cccc,PennController,134,0,instructions3_hands,NULL,PennController,12,_Trial_,End,1730481291918,NULL
1730481915,32d253b7338b30f6325183356146cccc,PennController,129,0,practice_intro_conc,NULL,PennController,7,_Trial_,Start,1730481291918,NULL
1730481915,32d253b7338b30f6325183356146cccc,PennController,129,0,practice_intro_conc,NULL,PennController,7,_Header_,Start,1730481291919,NULL
1730481915,32d253b7338b30f6325183356146cccc,PennController,129,0,practice_intro_conc,NULL,PennController,7,_Header_,End,1730481292173,NULL
1730481915,32d253b7338b30f6325183356146cccc,PennController,129,0,practice_intro_conc,NULL,PennController,7,_Trial_,End,1730481293805,NULL
# 13. ID.
# 14. ReactionTime.
# 15. Word.
# 16. selectedKey.
# 17. selectedValue.
# 18. Key_value_F.
# 19. Key_value_J.
# 20. Group.
# 21. Comments.
1730481915,32d253b7338b30f6325183356146cccc,PennController,88,0,calibrator_conc_feedback,NULL,PennController,99,_Trial_,Start,1730481293806,undefined,2949,polite,undefined,concrete,abstract,concrete,A,NULL
1730481915,32d253b7338b30f6325183356146cccc,PennController,88,0,calibrator_conc_feedback,NULL,PennController,99,_Header_,Start,1730481293806,undefined,2949,polite,undefined,concrete,abstract,concrete,A,NULL
1730481915,32d253b7338b30f6325183356146cccc,PennController,88,0,calibrator_conc_feedback,NULL,PennController,99,_Header_,End,1730481294059,undefined,2949,polite,undefined,concrete,abstract,concrete,A,NULL
1730481915,32d253b7338b30f6325183356146cccc,PennController,88,0,calibrator_conc_feedback,NULL,Selector,Selection,Selection,abstract,1730481297509,undefined,2949,polite,undefined,concrete,abstract,concrete,A,abstract;concrete
1730481915,32d253b7338b30f6325183356146cccc,PennController,88,0,calibrator_conc_feedback,NULL,PennController,99,_Trial_,End,1730481299511,undefined,2949,polite,undefined,concrete,abstract,concrete,A,NULL
1730481915,32d253b7338b30f6325183356146cccc,PennController,86,0,calibrator_conc_feedback,NULL,PennController,97,_Trial_,Start,1730481299512,undefined,2253,kick,undefined,concrete,abstract,concrete,A,NULL
1730481915,32d253b7338b30f6325183356146cccc,PennController,86,0,calibrator_conc_feedback,NULL,PennController,97,_Header_,Start,1730481299512,undefined,2253,kick,undefined,concrete,abstract,concrete,A,NULL
1730481915,32d253b7338b30f6325183356146cccc,PennController,86,0,calibrator_conc_feedback,NULL,PennController,97,_Header_,End,1730481299763,undefined,2253,kick,undefined,concrete,abstract,concrete,A,NULL
1730481915,32d253b7338b30f6325183356146cccc,PennController,86,0,calibrator_conc_feedback,NULL,Selector,Selection,Selection,concrete,1730481302517,undefined,2253,kick,undefined,concrete,abstract,concrete,A,abstract;concrete
1730481915,32d253b7338b30f6325183356146cccc,PennController,86,0,calibrator_conc_feedback,NULL,PennController,97,_Trial_,End,1730481304519,undefined,2253,kick,undefined,concrete,abstract,concrete,A,NULL
1730481915,32d253b7338b30f6325183356146cccc,PennController,84,0,calibrator_conc_feedback,NULL,PennController,95,_Trial_,Start,1730481304520,undefined,1927,gas,undefined,concrete,abstract,concrete,A,NULL
1730481915,32d253b7338b30f6325183356146cccc,PennController,84,0,calibrator_conc_feedback,NULL,PennController,95,_Header_,Start,1730481304520,undefined,1927,gas,undefined,concrete,abstract,concrete,A,NULL
1730481915,32d253b7338b30f6325183356146cccc,PennController,84,0,calibrator_conc_feedback,NULL,PennController,95,_Header_,End,1730481304773,undefined,1927,gas,undefined,concrete,abstract,concrete,A,NULL
1730481915,32d253b7338b30f6325183356146cccc,PennController,84,0,calibrator_conc_feedback,NULL,Selector,Selection,Selection,concrete,1730481307204,undefined,1927,gas,undefined,concrete,abstract,concrete,A,abstract;concrete
1730481915,32d253b7338b30f6325183356146cccc,PennController,84,0,calibrator_conc_feedback,NULL,PennController,95,_Trial_,End,1730481309205,undefined,1927,gas,undefined,concrete,abstract,concrete,A,NULL
1730481915,32d253b7338b30f6325183356146cccc,PennController,92,0,calibrator_conc_feedback,NULL,PennController,103,_Trial_,Start,1730481309206,undefined,1058,whistle,undefined,concrete,abstract,concrete,A,NULL
1730481915,32d253b7338b30f6325183356146cccc,PennController,92,0,calibrator_conc_feedback,NULL,PennController,103,_Header_,Start,1730481309206,undefined,1058,whistle,undefined,concrete,abstract,concrete,A,NULL
1730481915,32d253b7338b30f6325183356146cccc,PennController,92,0,calibrator_conc_feedback,NULL,PennController,103,_Header_,End,1730481309460,undefined,1058,whistle,undefined,concrete,abstract,concrete,A,NULL
1730481915,32d253b7338b30f6325183356146cccc,PennController,92,0,calibrator_conc_feedback,NULL,Selector,Selection,Selection,concrete,1730481311020,undefined,1058,whistle,undefined,concrete,abstract,concrete,A,abstract;concrete
1730481915,32d253b7338b30f6325183356146cccc,PennController,92,0,calibrator_conc_feedback,NULL,PennController,103,_Trial_,End,1730481313025,undefined,1058,whistle,undefined,concrete,abstract,concrete,A,NULL
1730481915,32d253b7338b30f6325183356146cccc,PennController,89,0,calibrator_conc_feedback,NULL,PennController,100,_Trial_,Start,1730481313026,undefined,1368,shirt,undefined,concrete,abstract,concrete,A,NULL
1730481915,32d253b7338b30f6325183356146cccc,PennController,89,0,calibrator_conc_feedback,NULL,PennController,100,_Header_,Start,1730481313026,undefined,1368,shirt,undefined,concrete,abstract,concrete,A,NULL
1730481915,32d253b7338b30f6325183356146cccc,PennController,89,0,calibrator_conc_feedback,NULL,PennController,100,_Header_,End,1730481313279,undefined,1368,shirt,undefined,concrete,abstract,concrete,A,NULL
1730481915,32d253b7338b30f6325183356146cccc,PennController,89,0,calibrator_conc_feedback,NULL,Selector,Selection,Selection,concrete,1730481315149,undefined,1368,shirt,undefined,concrete,abstract,concrete,A,abstract;concrete
1730481915,32d253b7338b30f6325183356146cccc,PennController,89,0,calibrator_conc_feedback,NULL,PennController,100,_Trial_,End,1730481317152,undefined,1368,shirt,undefined,concrete,abstract,concrete,A,NULL
1730481915,32d253b7338b30f6325183356146cccc,PennController,85,0,calibrator_conc_feedback,NULL,PennController,96,_Trial_,Start,1730481317153,undefined,950,grasshopper,undefined,concrete,abstract,concrete,A,NULL
1730481915,32d253b7338b30f6325183356146cccc,PennController,85,0,calibrator_conc_feedback,NULL,PennController,96,_Header_,Start,1730481317153,undefined,950,grasshopper,undefined,concrete,abstract,concrete,A,NULL
1730481915,32d253b7338b30f6325183356146cccc,PennController,85,0,calibrator_conc_feedback,NULL,PennController,96,_Header_,End,1730481317406,undefined,950,grasshopper,undefined,concrete,abstract,concrete,A,NULL
1730481915,32d253b7338b30f6325183356146cccc,PennController,85,0,calibrator_conc_feedback,NULL,Selector,Selection,Selection,concrete,1730481318860,undefined,950,grasshopper,undefined,concrete,abstract,concrete,A,abstract;concrete
1730481915,32d253b7338b30f6325183356146cccc,PennController,85,0,calibrator_conc_feedback,NULL,PennController,96,_Trial_,End,1730481320863,undefined,950,grasshopper,undefined,concrete,abstract,concrete,A,NULL
1730481915,32d253b7338b30f6325183356146cccc,PennController,93,0,calibrator_conc_feedback,NULL,PennController,104,_Trial_,Start,1730481320864,undefined,1356,insecure,undefined,concrete,abstract,concrete,A,NULL
1730481915,32d253b7338b30f6325183356146cccc,PennController,93,0,calibrator_conc_feedback,NULL,PennController,104,_Header_,Start,1730481320864,undefined,1356,insecure,undefined,concrete,abstract,concrete,A,NULL
1730481915,32d253b7338b30f6325183356146cccc,PennController,93,0,calibrator_conc_feedback,NULL,PennController,104,_Header_,End,1730481321117,undefined,1356,insecure,undefined,concrete,abstract,concrete,A,NULL
1730481915,32d253b7338b30f6325183356146cccc,PennController,93,0,calibrator_conc_feedback,NULL,Selector,Selection,Selection,abstract,1730481322972,undefined,1356,insecure,undefined,concrete,abstract,concrete,A,abstract;concrete
1730481915,32d253b7338b30f6325183356146cccc,PennController,93,0,calibrator_conc_feedback,NULL,PennController,104,_Trial_,End,1730481324976,undefined,1356,insecure,undefined,concrete,abstract,concrete,A,NULL
1730481915,32d253b7338b30f6325183356146cccc,PennController,90,0,calibrator_conc_feedback,NULL,PennController,101,_Trial_,Start,1730481324977,undefined,1223,sugar,undefined,concrete,abstract,concrete,A,NULL
1730481915,32d253b7338b30f6325183356146cccc,PennController,90,0,calibrator_conc_feedback,NULL,PennController,101,_Header_,Start,1730481324977,undefined,1223,sugar,undefined,concrete,abstract,concrete,A,NULL
1730481915,32d253b7338b30f6325183356146cccc,PennController,90,0,calibrator_conc_feedback,NULL,PennController,101,_Header_,End,1730481325230,undefined,1223,sugar,undefined,concrete,abstract,concrete,A,NULL
1730481915,32d253b7338b30f6325183356146cccc,PennController,90,0,calibrator_conc_feedback,NULL,Selector,Selection,Selection,concrete,1730481326957,undefined,1223,sugar,undefined,concrete,abstract,concrete,A,abstract;concrete
1730481915,32d253b7338b30f6325183356146cccc,PennController,90,0,calibrator_conc_feedback,NULL,PennController,101,_Trial_,End,1730481328962,undefined,1223,sugar,undefined,concrete,abstract,concrete,A,NULL
1730481915,32d253b7338b30f6325183356146cccc,PennController,87,0,calibrator_conc_feedback,NULL,PennController,98,_Trial_,Start,1730481328963,undefined,1653,marriage,undefined,concrete,abstract,concrete,A,NULL
1730481915,32d253b7338b30f6325183356146cccc,PennController,87,0,calibrator_conc_feedback,NULL,PennController,98,_Header_,Start,1730481328963,undefined,1653,marriage,undefined,concrete,abstract,concrete,A,NULL
1730481915,32d253b7338b30f6325183356146cccc,PennController,87,0,calibrator_conc_feedback,NULL,PennController,98,_Header_,End,1730481329217,undefined,1653,marriage,undefined,concrete,abstract,concrete,A,NULL
1730481915,32d253b7338b30f6325183356146cccc,PennController,87,0,calibrator_conc_feedback,NULL,Selector,Selection,Selection,concrete,1730481331372,undefined,1653,marriage,undefined,concrete,abstract,concrete,A,abstract;concrete
1730481915,32d253b7338b30f6325183356146cccc,PennController,87,0,calibrator_conc_feedback,NULL,PennController,98,_Trial_,End,1730481333376,undefined,1653,marriage,undefined,concrete,abstract,concrete,A,NULL
1730481915,32d253b7338b30f6325183356146cccc,PennController,91,0,calibrator_conc_feedback,NULL,PennController,102,_Trial_,Start,1730481333377,undefined,2869,theory,undefined,concrete,abstract,concrete,A,NULL
1730481915,32d253b7338b30f6325183356146cccc,PennController,91,0,calibrator_conc_feedback,NULL,PennController,102,_Header_,Start,1730481333377,undefined,2869,theory,undefined,concrete,abstract,concrete,A,NULL
1730481915,32d253b7338b30f6325183356146cccc,PennController,91,0,calibrator_conc_feedback,NULL,PennController,102,_Header_,End,1730481333630,undefined,2869,theory,undefined,concrete,abstract,concrete,A,NULL
1730481915,32d253b7338b30f6325183356146cccc,PennController,91,0,calibrator_conc_feedback,NULL,Selector,Selection,Selection,abstract,1730481337005,undefined,2869,theory,undefined,concrete,abstract,concrete,A,abstract;concrete
1730481915,32d253b7338b30f6325183356146cccc,PennController,91,0,calibrator_conc_feedback,NULL,PennController,102,_Trial_,End,1730481339009,undefined,2869,theory,undefined,concrete,abstract,concrete,A,NULL
# 16. Key_value_F.
# 17. Key_value_J.
# 18. Group.
# 19. Comments.
1730481915,32d253b7338b30f6325183356146cccc,PennController,98,0,calibrator_conc_no_feedback,NULL,PennController,109,_Trial_,Start,1730481339009,undefined,1213,polite,abstract,concrete,A,NULL
1730481915,32d253b7338b30f6325183356146cccc,PennController,98,0,calibrator_conc_no_feedback,NULL,PennController,109,_Header_,Start,1730481339009,undefined,1213,polite,abstract,concrete,A,NULL
1730481915,32d253b7338b30f6325183356146cccc,PennController,98,0,calibrator_conc_no_feedback,NULL,PennController,109,_Header_,End,1730481339263,undefined,1213,polite,abstract,concrete,A,NULL
1730481915,32d253b7338b30f6325183356146cccc,PennController,98,0,calibrator_conc_no_feedback,NULL,Selector,unnamed-Selector,Selection,abstract,1730481340981,undefined,1213,polite,abstract,concrete,A,abstract;concrete
1730481915,32d253b7338b30f6325183356146cccc,PennController,98,0,calibrator_conc_no_feedback,NULL,PennController,109,_Trial_,End,1730481340981,undefined,1213,polite,abstract,concrete,A,NULL
1730481915,32d253b7338b30f6325183356146cccc,PennController,102,0,calibrator_conc_no_feedback,NULL,PennController,113,_Trial_,Start,1730481340982,undefined,978,whistle,abstract,concrete,A,NULL
1730481915,32d253b7338b30f6325183356146cccc,PennController,102,0,calibrator_conc_no_feedback,NULL,PennController,113,_Header_,Start,1730481340982,undefined,978,whistle,abstract,concrete,A,NULL
1730481915,32d253b7338b30f6325183356146cccc,PennController,102,0,calibrator_conc_no_feedback,NULL,PennController,113,_Header_,End,1730481341234,undefined,978,whistle,abstract,concrete,A,NULL
1730481915,32d253b7338b30f6325183356146cccc,PennController,102,0,calibrator_conc_no_feedback,NULL,Selector,unnamed-Selector,Selection,concrete,1730481342717,undefined,978,whistle,abstract,concrete,A,abstract;concrete
1730481915,32d253b7338b30f6325183356146cccc,PennController,102,0,calibrator_conc_no_feedback,NULL,PennController,113,_Trial_,End,1730481342717,undefined,978,whistle,abstract,concrete,A,NULL
1730481915,32d253b7338b30f6325183356146cccc,PennController,101,0,calibrator_conc_no_feedback,NULL,PennController,112,_Trial_,Start,1730481342718,undefined,3031,theory,abstract,concrete,A,NULL
1730481915,32d253b7338b30f6325183356146cccc,PennController,101,0,calibrator_conc_no_feedback,NULL,PennController,112,_Header_,Start,1730481342718,undefined,3031,theory,abstract,concrete,A,NULL
1730481915,32d253b7338b30f6325183356146cccc,PennController,101,0,calibrator_conc_no_feedback,NULL,PennController,112,_Header_,End,1730481342970,undefined,3031,theory,abstract,concrete,A,NULL
1730481915,32d253b7338b30f6325183356146cccc,PennController,101,0,calibrator_conc_no_feedback,NULL,Selector,unnamed-Selector,Selection,abstract,1730481346501,undefined,3031,theory,abstract,concrete,A,abstract;concrete
1730481915,32d253b7338b30f6325183356146cccc,PennController,101,0,calibrator_conc_no_feedback,NULL,PennController,112,_Trial_,End,1730481346501,undefined,3031,theory,abstract,concrete,A,NULL
1730481915,32d253b7338b30f6325183356146cccc,PennController,94,0,calibrator_conc_no_feedback,NULL,PennController,105,_Trial_,Start,1730481346502,undefined,893,gas,abstract,concrete,A,NULL
1730481915,32d253b7338b30f6325183356146cccc,PennController,94,0,calibrator_conc_no_feedback,NULL,PennController,105,_Header_,Start,1730481346502,undefined,893,gas,abstract,concrete,A,NULL
1730481915,32d253b7338b30f6325183356146cccc,PennController,94,0,calibrator_conc_no_feedback,NULL,PennController,105,_Header_,End,1730481346753,undefined,893,gas,abstract,concrete,A,NULL
1730481915,32d253b7338b30f6325183356146cccc,PennController,94,0,calibrator_conc_no_feedback,NULL,Selector,unnamed-Selector,Selection,concrete,1730481348149,undefined,893,gas,abstract,concrete,A,abstract;concrete
1730481915,32d253b7338b30f6325183356146cccc,PennController,94,0,calibrator_conc_no_feedback,NULL,PennController,105,_Trial_,End,1730481348149,undefined,893,gas,abstract,concrete,A,NULL
1730481915,32d253b7338b30f6325183356146cccc,PennController,97,0,calibrator_conc_no_feedback,NULL,PennController,108,_Trial_,Start,1730481348150,undefined,3916,marriage,abstract,concrete,A,NULL
1730481915,32d253b7338b30f6325183356146cccc,PennController,97,0,calibrator_conc_no_feedback,NULL,PennController,108,_Header_,Start,1730481348150,undefined,3916,marriage,abstract,concrete,A,NULL
1730481915,32d253b7338b30f6325183356146cccc,PennController,97,0,calibrator_conc_no_feedback,NULL,PennController,108,_Header_,End,1730481348401,undefined,3916,marriage,abstract,concrete,A,NULL
1730481915,32d253b7338b30f6325183356146cccc,PennController,97,0,calibrator_conc_no_feedback,NULL,Selector,unnamed-Selector,Selection,concrete,1730481352821,undefined,3916,marriage,abstract,concrete,A,abstract;concrete
1730481915,32d253b7338b30f6325183356146cccc,PennController,97,0,calibrator_conc_no_feedback,NULL,PennController,108,_Trial_,End,1730481352821,undefined,3916,marriage,abstract,concrete,A,NULL
1730481915,32d253b7338b30f6325183356146cccc,PennController,95,0,calibrator_conc_no_feedback,NULL,PennController,106,_Trial_,Start,1730481352822,undefined,1015,grasshopper,abstract,concrete,A,NULL
1730481915,32d253b7338b30f6325183356146cccc,PennController,95,0,calibrator_conc_no_feedback,NULL,PennController,106,_Header_,Start,1730481352822,undefined,1015,grasshopper,abstract,concrete,A,NULL
1730481915,32d253b7338b30f6325183356146cccc,PennController,95,0,calibrator_conc_no_feedback,NULL,PennController,106,_Header_,End,1730481353077,undefined,1015,grasshopper,abstract,concrete,A,NULL
1730481915,32d253b7338b30f6325183356146cccc,PennController,95,0,calibrator_conc_no_feedback,NULL,Selector,unnamed-Selector,Selection,concrete,1730481354597,undefined,1015,grasshopper,abstract,concrete,A,abstract;concrete
1730481915,32d253b7338b30f6325183356146cccc,PennController,95,0,calibrator_conc_no_feedback,NULL,PennController,106,_Trial_,End,1730481354597,undefined,1015,grasshopper,abstract,concrete,A,NULL
1730481915,32d253b7338b30f6325183356146cccc,PennController,99,0,calibrator_conc_no_feedback,NULL,PennController,110,_Trial_,Start,1730481354598,undefined,883,shirt,abstract,concrete,A,NULL
1730481915,32d253b7338b30f6325183356146cccc,PennController,99,0,calibrator_conc_no_feedback,NULL,PennController,110,_Header_,Start,1730481354598,undefined,883,shirt,abstract,concrete,A,NULL
1730481915,32d253b7338b30f6325183356146cccc,PennController,99,0,calibrator_conc_no_feedback,NULL,PennController,110,_Header_,End,1730481354850,undefined,883,shirt,abstract,concrete,A,NULL
1730481915,32d253b7338b30f6325183356146cccc,PennController,99,0,calibrator_conc_no_feedback,NULL,Selector,unnamed-Selector,Selection,concrete,1730481356237,undefined,883,shirt,abstract,concrete,A,abstract;concrete
1730481915,32d253b7338b30f6325183356146cccc,PennController,99,0,calibrator_conc_no_feedback,NULL,PennController,110,_Trial_,End,1730481356237,undefined,883,shirt,abstract,concrete,A,NULL
1730481915,32d253b7338b30f6325183356146cccc,PennController,96,0,calibrator_conc_no_feedback,NULL,PennController,107,_Trial_,Start,1730481356238,undefined,1109,kick,abstract,concrete,A,NULL
1730481915,32d253b7338b30f6325183356146cccc,PennController,96,0,calibrator_conc_no_feedback,NULL,PennController,107,_Header_,Start,1730481356238,undefined,1109,kick,abstract,concrete,A,NULL
1730481915,32d253b7338b30f6325183356146cccc,PennController,96,0,calibrator_conc_no_feedback,NULL,PennController,107,_Header_,End,1730481356490,undefined,1109,kick,abstract,concrete,A,NULL
1730481915,32d253b7338b30f6325183356146cccc,PennController,96,0,calibrator_conc_no_feedback,NULL,Selector,unnamed-Selector,Selection,concrete,1730481358100,undefined,1109,kick,abstract,concrete,A,abstract;concrete
1730481915,32d253b7338b30f6325183356146cccc,PennController,96,0,calibrator_conc_no_feedback,NULL,PennController,107,_Trial_,End,1730481358101,undefined,1109,kick,abstract,concrete,A,NULL
1730481915,32d253b7338b30f6325183356146cccc,PennController,100,0,calibrator_conc_no_feedback,NULL,PennController,111,_Trial_,Start,1730481358102,undefined,947,sugar,abstract,concrete,A,NULL
1730481915,32d253b7338b30f6325183356146cccc,PennController,100,0,calibrator_conc_no_feedback,NULL,PennController,111,_Header_,Start,1730481358102,undefined,947,sugar,abstract,concrete,A,NULL
1730481915,32d253b7338b30f6325183356146cccc,PennController,100,0,calibrator_conc_no_feedback,NULL,PennController,111,_Header_,End,1730481358352,undefined,947,sugar,abstract,concrete,A,NULL
1730481915,32d253b7338b30f6325183356146cccc,PennController,100,0,calibrator_conc_no_feedback,NULL,Selector,unnamed-Selector,Selection,concrete,1730481359805,undefined,947,sugar,abstract,concrete,A,abstract;concrete
1730481915,32d253b7338b30f6325183356146cccc,PennController,100,0,calibrator_conc_no_feedback,NULL,PennController,111,_Trial_,End,1730481359805,undefined,947,sugar,abstract,concrete,A,NULL
1730481915,32d253b7338b30f6325183356146cccc,PennController,103,0,calibrator_conc_no_feedback,NULL,PennController,114,_Trial_,Start,1730481359806,undefined,770,insecure,abstract,concrete,A,NULL
1730481915,32d253b7338b30f6325183356146cccc,PennController,103,0,calibrator_conc_no_feedback,NULL,PennController,114,_Header_,Start,1730481359806,undefined,770,insecure,abstract,concrete,A,NULL
1730481915,32d253b7338b30f6325183356146cccc,PennController,103,0,calibrator_conc_no_feedback,NULL,PennController,114,_Header_,End,1730481360060,undefined,770,insecure,abstract,concrete,A,NULL
1730481915,32d253b7338b30f6325183356146cccc,PennController,103,0,calibrator_conc_no_feedback,NULL,Selector,unnamed-Selector,Selection,abstract,1730481361332,undefined,770,insecure,abstract,concrete,A,abstract;concrete
1730481915,32d253b7338b30f6325183356146cccc,PennController,103,0,calibrator_conc_no_feedback,NULL,PennController,114,_Trial_,End,1730481361333,undefined,770,insecure,abstract,concrete,A,NULL
# 13. Comments.
1730481915,32d253b7338b30f6325183356146cccc,PennController,130,0,endinstructions_conc,NULL,PennController,8,_Trial_,Start,1730481361333,NULL
1730481915,32d253b7338b30f6325183356146cccc,PennController,130,0,endinstructions_conc,NULL,PennController,8,_Header_,Start,1730481361334,NULL
1730481915,32d253b7338b30f6325183356146cccc,PennController,130,0,endinstructions_conc,NULL,PennController,8,_Header_,End,1730481361584,NULL
1730481915,32d253b7338b30f6325183356146cccc,PennController,130,0,endinstructions_conc,NULL,PennController,8,_Trial_,End,1730481366141,NULL
# 13. ID.
# 14. ReactionTime.
# 15. Word.
# 16. ConcValCombo.
# 17. Key_value_F.
# 18. Key_value_J.
# 19. Group.
# 20. Comments.
1730481915,32d253b7338b30f6325183356146cccc,PennController,15,0,test_conc,NULL,PennController,26,_Trial_,Start,1730481366141,undefined,1633,destroy,concrete-negative,abstract,concrete,A,NULL
1730481915,32d253b7338b30f6325183356146cccc,PennController,15,0,test_conc,NULL,PennController,26,_Header_,Start,1730481366141,undefined,1633,destroy,concrete-negative,abstract,concrete,A,NULL
1730481915,32d253b7338b30f6325183356146cccc,PennController,15,0,test_conc,NULL,PennController,26,_Header_,End,1730481366395,undefined,1633,destroy,concrete-negative,abstract,concrete,A,NULL
1730481915,32d253b7338b30f6325183356146cccc,PennController,15,0,test_conc,NULL,Selector,unnamed-Selector,Selection,concrete,1730481368532,undefined,1633,destroy,concrete-negative,abstract,concrete,A,abstract;concrete
1730481915,32d253b7338b30f6325183356146cccc,PennController,15,0,test_conc,NULL,PennController,26,_Trial_,End,1730481368533,undefined,1633,destroy,concrete-negative,abstract,concrete,A,NULL
1730481915,32d253b7338b30f6325183356146cccc,PennController,42,0,test_conc,NULL,PennController,53,_Trial_,Start,1730481368534,undefined,1519,molest,abstract-negative,abstract,concrete,A,NULL
1730481915,32d253b7338b30f6325183356146cccc,PennController,42,0,test_conc,NULL,PennController,53,_Header_,Start,1730481368534,undefined,1519,molest,abstract-negative,abstract,concrete,A,NULL
1730481915,32d253b7338b30f6325183356146cccc,PennController,42,0,test_conc,NULL,PennController,53,_Header_,End,1730481368784,undefined,1519,molest,abstract-negative,abstract,concrete,A,NULL
1730481915,32d253b7338b30f6325183356146cccc,PennController,42,0,test_conc,NULL,Selector,unnamed-Selector,Selection,concrete,1730481370805,undefined,1519,molest,abstract-negative,abstract,concrete,A,abstract;concrete
1730481915,32d253b7338b30f6325183356146cccc,PennController,42,0,test_conc,NULL,PennController,53,_Trial_,End,1730481370805,undefined,1519,molest,abstract-negative,abstract,concrete,A,NULL
1730481915,32d253b7338b30f6325183356146cccc,PennController,20,0,test_conc,NULL,PennController,31,_Trial_,Start,1730481370806,undefined,1450,irritate,concrete-negative,abstract,concrete,A,NULL
1730481915,32d253b7338b30f6325183356146cccc,PennController,20,0,test_conc,NULL,PennController,31,_Header_,Start,1730481370806,undefined,1450,irritate,concrete-negative,abstract,concrete,A,NULL
1730481915,32d253b7338b30f6325183356146cccc,PennController,20,0,test_conc,NULL,PennController,31,_Header_,End,1730481371057,undefined,1450,irritate,concrete-negative,abstract,concrete,A,NULL
1730481915,32d253b7338b30f6325183356146cccc,PennController,20,0,test_conc,NULL,Selector,unnamed-Selector,Selection,abstract,1730481373012,undefined,1450,irritate,concrete-negative,abstract,concrete,A,abstract;concrete
1730481915,32d253b7338b30f6325183356146cccc,PennController,20,0,test_conc,NULL,PennController,31,_Trial_,End,1730481373013,undefined,1450,irritate,concrete-negative,abstract,concrete,A,NULL
1730481915,32d253b7338b30f6325183356146cccc,PennController,22,0,test_conc,NULL,PennController,33,_Trial_,Start,1730481373013,undefined,823,kill,concrete-negative,abstract,concrete,A,NULL
1730481915,32d253b7338b30f6325183356146cccc,PennController,22,0,test_conc,NULL,PennController,33,_Header_,Start,1730481373013,undefined,823,kill,concrete-negative,abstract,concrete,A,NULL
1730481915,32d253b7338b30f6325183356146cccc,PennController,22,0,test_conc,NULL,PennController,33,_Header_,End,1730481373264,undefined,823,kill,concrete-negative,abstract,concrete,A,NULL
1730481915,32d253b7338b30f6325183356146cccc,PennController,22,0,test_conc,NULL,Selector,unnamed-Selector,Selection,concrete,1730481374588,undefined,823,kill,concrete-negative,abstract,concrete,A,abstract;concrete
1730481915,32d253b7338b30f6325183356146cccc,PennController,22,0,test_conc,NULL,PennController,33,_Trial_,End,1730481374589,undefined,823,kill,concrete-negative,abstract,concrete,A,NULL
1730481915,32d253b7338b30f6325183356146cccc,PennController,21,0,test_conc,NULL,PennController,32,_Trial_,Start,1730481374589,undefined,1359,fail,concrete-negative,abstract,concrete,A,NULL
1730481915,32d253b7338b30f6325183356146cccc,PennController,21,0,test_conc,NULL,PennController,32,_Header_,Start,1730481374589,undefined,1359,fail,concrete-negative,abstract,concrete,A,NULL
1730481915,32d253b7338b30f6325183356146cccc,PennController,21,0,test_conc,NULL,PennController,32,_Header_,End,1730481374842,undefined,1359,fail,concrete-negative,abstract,concrete,A,NULL
1730481915,32d253b7338b30f6325183356146cccc,PennController,21,0,test_conc,NULL,Selector,unnamed-Selector,Selection,concrete,1730481376700,undefined,1359,fail,concrete-negative,abstract,concrete,A,abstract;concrete
1730481915,32d253b7338b30f6325183356146cccc,PennController,21,0,test_conc,NULL,PennController,32,_Trial_,End,1730481376701,undefined,1359,fail,concrete-negative,abstract,concrete,A,NULL
1730481915,32d253b7338b30f6325183356146cccc,PennController,10,0,test_conc,NULL,PennController,21,_Trial_,Start,1730481376702,undefined,903,complete,concrete-positive,abstract,concrete,A,NULL
1730481915,32d253b7338b30f6325183356146cccc,PennController,10,0,test_conc,NULL,PennController,21,_Header_,Start,1730481376702,undefined,903,complete,concrete-positive,abstract,concrete,A,NULL
1730481915,32d253b7338b30f6325183356146cccc,PennController,10,0,test_conc,NULL,PennController,21,_Header_,End,1730481376953,undefined,903,complete,concrete-positive,abstract,concrete,A,NULL
1730481915,32d253b7338b30f6325183356146cccc,PennController,10,0,test_conc,NULL,Selector,unnamed-Selector,Selection,concrete,1730481378356,undefined,903,complete,concrete-positive,abstract,concrete,A,abstract;concrete
1730481915,32d253b7338b30f6325183356146cccc,PennController,10,0,test_conc,NULL,PennController,21,_Trial_,End,1730481378357,undefined,903,complete,concrete-positive,abstract,concrete,A,NULL
1730481915,32d253b7338b30f6325183356146cccc,PennController,4,0,test_conc,NULL,PennController,15,_Trial_,Start,1730481378357,undefined,2955,prosper,concrete-positive,abstract,concrete,A,NULL
1730481915,32d253b7338b30f6325183356146cccc,PennController,4,0,test_conc,NULL,PennController,15,_Header_,Start,1730481378357,undefined,2955,prosper,concrete-positive,abstract,concrete,A,NULL
1730481915,32d253b7338b30f6325183356146cccc,PennController,4,0,test_conc,NULL,PennController,15,_Header_,End,1730481378609,undefined,2955,prosper,concrete-positive,abstract,concrete,A,NULL
1730481915,32d253b7338b30f6325183356146cccc,PennController,4,0,test_conc,NULL,Selector,unnamed-Selector,Selection,concrete,1730481382069,undefined,2955,prosper,concrete-positive,abstract,concrete,A,abstract;concrete
1730481915,32d253b7338b30f6325183356146cccc,PennController,4,0,test_conc,NULL,PennController,15,_Trial_,End,1730481382069,undefined,2955,prosper,concrete-positive,abstract,concrete,A,NULL
1730481915,32d253b7338b30f6325183356146cccc,PennController,38,0,test_conc,NULL,PennController,49,_Trial_,Start,1730481382070,undefined,1642,succumb,abstract-negative,abstract,concrete,A,NULL
1730481915,32d253b7338b30f6325183356146cccc,PennController,38,0,test_conc,NULL,PennController,49,_Header_,Start,1730481382070,undefined,1642,succumb,abstract-negative,abstract,concrete,A,NULL
1730481915,32d253b7338b30f6325183356146cccc,PennController,38,0,test_conc,NULL,PennController,49,_Header_,End,1730481382323,undefined,1642,succumb,abstract-negative,abstract,concrete,A,NULL
1730481915,32d253b7338b30f6325183356146cccc,PennController,38,0,test_conc,NULL,Selector,unnamed-Selector,Selection,concrete,1730481384468,undefined,1642,succumb,abstract-negative,abstract,concrete,A,abstract;concrete
1730481915,32d253b7338b30f6325183356146cccc,PennController,38,0,test_conc,NULL,PennController,49,_Trial_,End,1730481384469,undefined,1642,succumb,abstract-negative,abstract,concrete,A,NULL
1730481915,32d253b7338b30f6325183356146cccc,PennController,37,0,test_conc,NULL,PennController,48,_Trial_,Start,1730481384469,undefined,3590,languish,abstract-negative,abstract,concrete,A,NULL
1730481915,32d253b7338b30f6325183356146cccc,PennController,37,0,test_conc,NULL,PennController,48,_Header_,Start,1730481384469,undefined,3590,languish,abstract-negative,abstract,concrete,A,NULL
1730481915,32d253b7338b30f6325183356146cccc,PennController,37,0,test_conc,NULL,PennController,48,_Header_,End,1730481384720,undefined,3590,languish,abstract-negative,abstract,concrete,A,NULL
1730481915,32d253b7338b30f6325183356146cccc,PennController,37,0,test_conc,NULL,Selector,unnamed-Selector,Selection,concrete,1730481388812,undefined,3590,languish,abstract-negative,abstract,concrete,A,abstract;concrete
1730481915,32d253b7338b30f6325183356146cccc,PennController,37,0,test_conc,NULL,PennController,48,_Trial_,End,1730481388813,undefined,3590,languish,abstract-negative,abstract,concrete,A,NULL
1730481915,32d253b7338b30f6325183356146cccc,PennController,26,0,test_conc,NULL,PennController,37,_Trial_,Start,1730481388813,undefined,1508,adore,abstract-positive,abstract,concrete,A,NULL
1730481915,32d253b7338b30f6325183356146cccc,PennController,26,0,test_conc,NULL,PennController,37,_Header_,Start,1730481388813,undefined,1508,adore,abstract-positive,abstract,concrete,A,NULL
1730481915,32d253b7338b30f6325183356146cccc,PennController,26,0,test_conc,NULL,PennController,37,_Header_,End,1730481389064,undefined,1508,adore,abstract-positive,abstract,concrete,A,NULL
1730481915,32d253b7338b30f6325183356146cccc,PennController,26,0,test_conc,NULL,Selector,unnamed-Selector,Selection,abstract,1730481391076,undefined,1508,adore,abstract-positive,abstract,concrete,A,abstract;concrete
1730481915,32d253b7338b30f6325183356146cccc,PennController,26,0,test_conc,NULL,PennController,37,_Trial_,End,1730481391077,undefined,1508,adore,abstract-positive,abstract,concrete,A,NULL
1730481915,32d253b7338b30f6325183356146cccc,PennController,6,0,test_conc,NULL,PennController,17,_Trial_,Start,1730481391077,undefined,1617,soothe,concrete-positive,abstract,concrete,A,NULL
1730481915,32d253b7338b30f6325183356146cccc,PennController,6,0,test_conc,NULL,PennController,17,_Header_,Start,1730481391077,undefined,1617,soothe,concrete-positive,abstract,concrete,A,NULL
1730481915,32d253b7338b30f6325183356146cccc,PennController,6,0,test_conc,NULL,PennController,17,_Header_,End,1730481391331,undefined,1617,soothe,concrete-positive,abstract,concrete,A,NULL
1730481915,32d253b7338b30f6325183356146cccc,PennController,6,0,test_conc,NULL,Selector,unnamed-Selector,Selection,abstract,1730481393452,undefined,1617,soothe,concrete-positive,abstract,concrete,A,abstract;concrete
1730481915,32d253b7338b30f6325183356146cccc,PennController,6,0,test_conc,NULL,PennController,17,_Trial_,End,1730481393452,undefined,1617,soothe,concrete-positive,abstract,concrete,A,NULL
1730481915,32d253b7338b30f6325183356146cccc,PennController,28,0,test_conc,NULL,PennController,39,_Trial_,Start,1730481393453,undefined,2880,embelish,abstract-positive,abstract,concrete,A,NULL
1730481915,32d253b7338b30f6325183356146cccc,PennController,28,0,test_conc,NULL,PennController,39,_Header_,Start,1730481393453,undefined,2880,embelish,abstract-positive,abstract,concrete,A,NULL
1730481915,32d253b7338b30f6325183356146cccc,PennController,28,0,test_conc,NULL,PennController,39,_Header_,End,1730481393703,undefined,2880,embelish,abstract-positive,abstract,concrete,A,NULL
1730481915,32d253b7338b30f6325183356146cccc,PennController,28,0,test_conc,NULL,Selector,unnamed-Selector,Selection,concrete,1730481397083,undefined,2880,embelish,abstract-positive,abstract,concrete,A,abstract;concrete
1730481915,32d253b7338b30f6325183356146cccc,PennController,28,0,test_conc,NULL,PennController,39,_Trial_,End,1730481397084,undefined,2880,embelish,abstract-positive,abstract,concrete,A,NULL
1730481915,32d253b7338b30f6325183356146cccc,PennController,24,0,test_conc,NULL,PennController,35,_Trial_,Start,1730481397084,undefined,1204,love,abstract-positive,abstract,concrete,A,NULL
1730481915,32d253b7338b30f6325183356146cccc,PennController,24,0,test_conc,NULL,PennController,35,_Header_,Start,1730481397084,undefined,1204,love,abstract-positive,abstract,concrete,A,NULL
1730481915,32d253b7338b30f6325183356146cccc,PennController,24,0,test_conc,NULL,PennController,35,_Header_,End,1730481397337,undefined,1204,love,abstract-positive,abstract,concrete,A,NULL
1730481915,32d253b7338b30f6325183356146cccc,PennController,24,0,test_conc,NULL,Selector,unnamed-Selector,Selection,abstract,1730481399043,undefined,1204,love,abstract-positive,abstract,concrete,A,abstract;concrete
1730481915,32d253b7338b30f6325183356146cccc,PennController,24,0,test_conc,NULL,PennController,35,_Trial_,End,1730481399044,undefined,1204,love,abstract-positive,abstract,concrete,A,NULL
1730481915,32d253b7338b30f6325183356146cccc,PennController,11,0,test_conc,NULL,PennController,22,_Trial_,Start,1730481399044,undefined,1057,reach,concrete-positive,abstract,concrete,A,NULL
1730481915,32d253b7338b30f6325183356146cccc,PennController,11,0,test_conc,NULL,PennController,22,_Header_,Start,1730481399044,undefined,1057,reach,concrete-positive,abstract,concrete,A,NULL
1730481915,32d253b7338b30f6325183356146cccc,PennController,11,0,test_conc,NULL,PennController,22,_Header_,End,1730481399294,undefined,1057,reach,concrete-positive,abstract,concrete,A,NULL
1730481915,32d253b7338b30f6325183356146cccc,PennController,11,0,test_conc,NULL,Selector,unnamed-Selector,Selection,concrete,1730481400851,undefined,1057,reach,concrete-positive,abstract,concrete,A,abstract;concrete
1730481915,32d253b7338b30f6325183356146cccc,PennController,11,0,test_conc,NULL,PennController,22,_Trial_,End,1730481400852,undefined,1057,reach,concrete-positive,abstract,concrete,A,NULL
1730481915,32d253b7338b30f6325183356146cccc,PennController,19,0,test_conc,NULL,PennController,30,_Trial_,Start,1730481400852,undefined,804,smash,concrete-negative,abstract,concrete,A,NULL
1730481915,32d253b7338b30f6325183356146cccc,PennController,19,0,test_conc,NULL,PennController,30,_Header_,Start,1730481400852,undefined,804,smash,concrete-negative,abstract,concrete,A,NULL
1730481915,32d253b7338b30f6325183356146cccc,PennController,19,0,test_conc,NULL,PennController,30,_Header_,End,1730481401105,undefined,804,smash,concrete-negative,abstract,concrete,A,NULL
1730481915,32d253b7338b30f6325183356146cccc,PennController,19,0,test_conc,NULL,Selector,unnamed-Selector,Selection,concrete,1730481402411,undefined,804,smash,concrete-negative,abstract,concrete,A,abstract;concrete
1730481915,32d253b7338b30f6325183356146cccc,PennController,19,0,test_conc,NULL,PennController,30,_Trial_,End,1730481402412,undefined,804,smash,concrete-negative,abstract,concrete,A,NULL
1730481915,32d253b7338b30f6325183356146cccc,PennController,14,0,test_conc,NULL,PennController,25,_Trial_,Start,1730481402413,undefined,1319,die,concrete-negative,abstract,concrete,A,NULL
1730481915,32d253b7338b30f6325183356146cccc,PennController,14,0,test_conc,NULL,PennController,25,_Header_,Start,1730481402413,undefined,1319,die,concrete-negative,abstract,concrete,A,NULL
1730481915,32d253b7338b30f6325183356146cccc,PennController,14,0,test_conc,NULL,PennController,25,_Header_,End,1730481402664,undefined,1319,die,concrete-negative,abstract,concrete,A,NULL
1730481915,32d253b7338b30f6325183356146cccc,PennController,14,0,test_conc,NULL,Selector,unnamed-Selector,Selection,concrete,1730481404484,undefined,1319,die,concrete-negative,abstract,concrete,A,abstract;concrete
1730481915,32d253b7338b30f6325183356146cccc,PennController,14,0,test_conc,NULL,PennController,25,_Trial_,End,1730481404484,undefined,1319,die,concrete-negative,abstract,concrete,A,NULL
1730481915,32d253b7338b30f6325183356146cccc,PennController,29,0,test_conc,NULL,PennController,40,_Trial_,Start,1730481404485,undefined,1049,enlighten,abstract-positive,abstract,concrete,A,NULL
1730481915,32d253b7338b30f6325183356146cccc,PennController,29,0,test_conc,NULL,PennController,40,_Header_,Start,1730481404485,undefined,1049,enlighten,abstract-positive,abstract,concrete,A,NULL
1730481915,32d253b7338b30f6325183356146cccc,PennController,29,0,test_conc,NULL,PennController,40,_Header_,End,1730481404739,undefined,1049,enlighten,abstract-positive,abstract,concrete,A,NULL
1730481915,32d253b7338b30f6325183356146cccc,PennController,29,0,test_conc,NULL,Selector,unnamed-Selector,Selection,abstract,1730481406291,undefined,1049,enlighten,abstract-positive,abstract,concrete,A,abstract;concrete
1730481915,32d253b7338b30f6325183356146cccc,PennController,29,0,test_conc,NULL,PennController,40,_Trial_,End,1730481406292,undefined,1049,enlighten,abstract-positive,abstract,concrete,A,NULL
1730481915,32d253b7338b30f6325183356146cccc,PennController,40,0,test_conc,NULL,PennController,51,_Trial_,Start,1730481406292,undefined,1033,look down on,abstract-negative,abstract,concrete,A,NULL
1730481915,32d253b7338b30f6325183356146cccc,PennController,40,0,test_conc,NULL,PennController,51,_Header_,Start,1730481406292,undefined,1033,look down on,abstract-negative,abstract,concrete,A,NULL
1730481915,32d253b7338b30f6325183356146cccc,PennController,40,0,test_conc,NULL,PennController,51,_Header_,End,1730481406547,undefined,1033,look down on,abstract-negative,abstract,concrete,A,NULL
1730481915,32d253b7338b30f6325183356146cccc,PennController,40,0,test_conc,NULL,Selector,unnamed-Selector,Selection,abstract,1730481408083,undefined,1033,look down on,abstract-negative,abstract,concrete,A,abstract;concrete
1730481915,32d253b7338b30f6325183356146cccc,PennController,40,0,test_conc,NULL,PennController,51,_Trial_,End,1730481408084,undefined,1033,look down on,abstract-negative,abstract,concrete,A,NULL
1730481915,32d253b7338b30f6325183356146cccc,PennController,9,0,test_conc,NULL,PennController,20,_Trial_,Start,1730481408084,undefined,1621,rejuvenate,concrete-positive,abstract,concrete,A,NULL
1730481915,32d253b7338b30f6325183356146cccc,PennController,9,0,test_conc,NULL,PennController,20,_Header_,Start,1730481408084,undefined,1621,rejuvenate,concrete-positive,abstract,concrete,A,NULL
1730481915,32d253b7338b30f6325183356146cccc,PennController,9,0,test_conc,NULL,PennController,20,_Header_,End,1730481408337,undefined,1621,rejuvenate,concrete-positive,abstract,concrete,A,NULL
1730481915,32d253b7338b30f6325183356146cccc,PennController,9,0,test_conc,NULL,Selector,unnamed-Selector,Selection,abstract,1730481410459,undefined,1621,rejuvenate,concrete-positive,abstract,concrete,A,abstract;concrete
1730481915,32d253b7338b30f6325183356146cccc,PennController,9,0,test_conc,NULL,PennController,20,_Trial_,End,1730481410460,undefined,1621,rejuvenate,concrete-positive,abstract,concrete,A,NULL
1730481915,32d253b7338b30f6325183356146cccc,PennController,32,0,test_conc,NULL,PennController,43,_Trial_,Start,1730481410460,undefined,1081,flourish,abstract-positive,abstract,concrete,A,NULL
1730481915,32d253b7338b30f6325183356146cccc,PennController,32,0,test_conc,NULL,PennController,43,_Header_,Start,1730481410460,undefined,1081,flourish,abstract-positive,abstract,concrete,A,NULL
1730481915,32d253b7338b30f6325183356146cccc,PennController,32,0,test_conc,NULL,PennController,43,_Header_,End,1730481410714,undefined,1081,flourish,abstract-positive,abstract,concrete,A,NULL
1730481915,32d253b7338b30f6325183356146cccc,PennController,32,0,test_conc,NULL,Selector,unnamed-Selector,Selection,abstract,1730481412299,undefined,1081,flourish,abstract-positive,abstract,concrete,A,abstract;concrete
1730481915,32d253b7338b30f6325183356146cccc,PennController,32,0,test_conc,NULL,PennController,43,_Trial_,End,1730481412300,undefined,1081,flourish,abstract-positive,abstract,concrete,A,NULL
1730481915,32d253b7338b30f6325183356146cccc,PennController,43,0,test_conc,NULL,PennController,54,_Trial_,Start,1730481412300,undefined,1988,dislike,abstract-negative,abstract,concrete,A,NULL
1730481915,32d253b7338b30f6325183356146cccc,PennController,43,0,test_conc,NULL,PennController,54,_Header_,Start,1730481412300,undefined,1988,dislike,abstract-negative,abstract,concrete,A,NULL
1730481915,32d253b7338b30f6325183356146cccc,PennController,43,0,test_conc,NULL,PennController,54,_Header_,End,1730481412551,undefined,1988,dislike,abstract-negative,abstract,concrete,A,NULL
1730481915,32d253b7338b30f6325183356146cccc,PennController,43,0,test_conc,NULL,Selector,unnamed-Selector,Selection,abstract,1730481415044,undefined,1988,dislike,abstract-negative,abstract,concrete,A,abstract;concrete
1730481915,32d253b7338b30f6325183356146cccc,PennController,43,0,test_conc,NULL,PennController,54,_Trial_,End,1730481415044,undefined,1988,dislike,abstract-negative,abstract,concrete,A,NULL
1730481915,32d253b7338b30f6325183356146cccc,PennController,16,0,test_conc,NULL,PennController,27,_Trial_,Start,1730481415045,undefined,852,demolish,concrete-negative,abstract,concrete,A,NULL
1730481915,32d253b7338b30f6325183356146cccc,PennController,16,0,test_conc,NULL,PennController,27,_Header_,Start,1730481415045,undefined,852,demolish,concrete-negative,abstract,concrete,A,NULL
1730481915,32d253b7338b30f6325183356146cccc,PennController,16,0,test_conc,NULL,PennController,27,_Header_,End,1730481415298,undefined,852,demolish,concrete-negative,abstract,concrete,A,NULL
1730481915,32d253b7338b30f6325183356146cccc,PennController,16,0,test_conc,NULL,Selector,unnamed-Selector,Selection,concrete,1730481416651,undefined,852,demolish,concrete-negative,abstract,concrete,A,abstract;concrete
1730481915,32d253b7338b30f6325183356146cccc,PennController,16,0,test_conc,NULL,PennController,27,_Trial_,End,1730481416652,undefined,852,demolish,concrete-negative,abstract,concrete,A,NULL
1730481915,32d253b7338b30f6325183356146cccc,PennController,41,0,test_conc,NULL,PennController,52,_Trial_,Start,1730481416652,undefined,1171,disappoint,abstract-negative,abstract,concrete,A,NULL
1730481915,32d253b7338b30f6325183356146cccc,PennController,41,0,test_conc,NULL,PennController,52,_Header_,Start,1730481416652,undefined,1171,disappoint,abstract-negative,abstract,concrete,A,NULL
1730481915,32d253b7338b30f6325183356146cccc,PennController,41,0,test_conc,NULL,PennController,52,_Header_,End,1730481416903,undefined,1171,disappoint,abstract-negative,abstract,concrete,A,NULL
1730481915,32d253b7338b30f6325183356146cccc,PennController,41,0,test_conc,NULL,Selector,unnamed-Selector,Selection,abstract,1730481418579,undefined,1171,disappoint,abstract-negative,abstract,concrete,A,abstract;concrete
1730481915,32d253b7338b30f6325183356146cccc,PennController,41,0,test_conc,NULL,PennController,52,_Trial_,End,1730481418580,undefined,1171,disappoint,abstract-negative,abstract,concrete,A,NULL
1730481915,32d253b7338b30f6325183356146cccc,PennController,31,0,test_conc,NULL,PennController,42,_Trial_,Start,1730481418580,undefined,2860,impress,abstract-positive,abstract,concrete,A,NULL
1730481915,32d253b7338b30f6325183356146cccc,PennController,31,0,test_conc,NULL,PennController,42,_Header_,Start,1730481418580,undefined,2860,impress,abstract-positive,abstract,concrete,A,NULL
1730481915,32d253b7338b30f6325183356146cccc,PennController,31,0,test_conc,NULL,PennController,42,_Header_,End,1730481418832,undefined,2860,impress,abstract-positive,abstract,concrete,A,NULL
1730481915,32d253b7338b30f6325183356146cccc,PennController,31,0,test_conc,NULL,Selector,unnamed-Selector,Selection,abstract,1730481422195,undefined,2860,impress,abstract-positive,abstract,concrete,A,abstract;concrete
1730481915,32d253b7338b30f6325183356146cccc,PennController,31,0,test_conc,NULL,PennController,42,_Trial_,End,1730481422196,undefined,2860,impress,abstract-positive,abstract,concrete,A,NULL
1730481915,32d253b7338b30f6325183356146cccc,PennController,35,0,test_conc,NULL,PennController,46,_Trial_,Start,1730481422196,undefined,1714,suffer,abstract-negative,abstract,concrete,A,NULL
1730481915,32d253b7338b30f6325183356146cccc,PennController,35,0,test_conc,NULL,PennController,46,_Header_,Start,1730481422196,undefined,1714,suffer,abstract-negative,abstract,concrete,A,NULL
1730481915,32d253b7338b30f6325183356146cccc,PennController,35,0,test_conc,NULL,PennController,46,_Header_,End,1730481422448,undefined,1714,suffer,abstract-negative,abstract,concrete,A,NULL
1730481915,32d253b7338b30f6325183356146cccc,PennController,35,0,test_conc,NULL,Selector,unnamed-Selector,Selection,abstract,1730481424667,undefined,1714,suffer,abstract-negative,abstract,concrete,A,abstract;concrete
1730481915,32d253b7338b30f6325183356146cccc,PennController,35,0,test_conc,NULL,PennController,46,_Trial_,End,1730481424668,undefined,1714,suffer,abstract-negative,abstract,concrete,A,NULL
1730481915,32d253b7338b30f6325183356146cccc,PennController,12,0,test_conc,NULL,PennController,23,_Trial_,Start,1730481424668,undefined,799,relax,concrete-positive,abstract,concrete,A,NULL
1730481915,32d253b7338b30f6325183356146cccc,PennController,12,0,test_conc,NULL,PennController,23,_Header_,Start,1730481424668,undefined,799,relax,concrete-positive,abstract,concrete,A,NULL
1730481915,32d253b7338b30f6325183356146cccc,PennController,12,0,test_conc,NULL,PennController,23,_Header_,End,1730481424921,undefined,799,relax,concrete-positive,abstract,concrete,A,NULL
1730481915,32d253b7338b30f6325183356146cccc,PennController,12,0,test_conc,NULL,Selector,unnamed-Selector,Selection,abstract,1730481426220,undefined,799,relax,concrete-positive,abstract,concrete,A,abstract;concrete
1730481915,32d253b7338b30f6325183356146cccc,PennController,12,0,test_conc,NULL,PennController,23,_Trial_,End,1730481426220,undefined,799,relax,concrete-positive,abstract,concrete,A,NULL
1730481915,32d253b7338b30f6325183356146cccc,PennController,36,0,test_conc,NULL,PennController,47,_Trial_,Start,1730481426221,undefined,1003,despise,abstract-negative,abstract,concrete,A,NULL
1730481915,32d253b7338b30f6325183356146cccc,PennController,36,0,test_conc,NULL,PennController,47,_Header_,Start,1730481426221,undefined,1003,despise,abstract-negative,abstract,concrete,A,NULL
1730481915,32d253b7338b30f6325183356146cccc,PennController,36,0,test_conc,NULL,PennController,47,_Header_,End,1730481426472,undefined,1003,despise,abstract-negative,abstract,concrete,A,NULL
1730481915,32d253b7338b30f6325183356146cccc,PennController,36,0,test_conc,NULL,Selector,unnamed-Selector,Selection,abstract,1730481427979,undefined,1003,despise,abstract-negative,abstract,concrete,A,abstract;concrete
1730481915,32d253b7338b30f6325183356146cccc,PennController,36,0,test_conc,NULL,PennController,47,_Trial_,End,1730481427980,undefined,1003,despise,abstract-negative,abstract,concrete,A,NULL
1730481915,32d253b7338b30f6325183356146cccc,PennController,17,0,test_conc,NULL,PennController,28,_Trial_,Start,1730481427980,undefined,1775,rot,concrete-negative,abstract,concrete,A,NULL
1730481915,32d253b7338b30f6325183356146cccc,PennController,17,0,test_conc,NULL,PennController,28,_Header_,Start,1730481427980,undefined,1775,rot,concrete-negative,abstract,concrete,A,NULL
1730481915,32d253b7338b30f6325183356146cccc,PennController,17,0,test_conc,NULL,PennController,28,_Header_,End,1730481428230,undefined,1775,rot,concrete-negative,abstract,concrete,A,NULL
1730481915,32d253b7338b30f6325183356146cccc,PennController,17,0,test_conc,NULL,Selector,unnamed-Selector,Selection,concrete,1730481430507,undefined,1775,rot,concrete-negative,abstract,concrete,A,abstract;concrete
1730481915,32d253b7338b30f6325183356146cccc,PennController,17,0,test_conc,NULL,PennController,28,_Trial_,End,1730481430508,undefined,1775,rot,concrete-negative,abstract,concrete,A,NULL
1730481915,32d253b7338b30f6325183356146cccc,PennController,34,0,test_conc,NULL,PennController,45,_Trial_,Start,1730481430508,undefined,921,hate,abstract-negative,abstract,concrete,A,NULL
1730481915,32d253b7338b30f6325183356146cccc,PennController,34,0,test_conc,NULL,PennController,45,_Header_,Start,1730481430508,undefined,921,hate,abstract-negative,abstract,concrete,A,NULL
1730481915,32d253b7338b30f6325183356146cccc,PennController,34,0,test_conc,NULL,PennController,45,_Header_,End,1730481430758,undefined,921,hate,abstract-negative,abstract,concrete,A,NULL
1730481915,32d253b7338b30f6325183356146cccc,PennController,34,0,test_conc,NULL,Selector,unnamed-Selector,Selection,abstract,1730481432179,undefined,921,hate,abstract-negative,abstract,concrete,A,abstract;concrete
1730481915,32d253b7338b30f6325183356146cccc,PennController,34,0,test_conc,NULL,PennController,45,_Trial_,End,1730481432180,undefined,921,hate,abstract-negative,abstract,concrete,A,NULL
1730481915,32d253b7338b30f6325183356146cccc,PennController,8,0,test_conc,NULL,PennController,19,_Trial_,Start,1730481432180,undefined,1231,smile,concrete-positive,abstract,concrete,A,NULL
1730481915,32d253b7338b30f6325183356146cccc,PennController,8,0,test_conc,NULL,PennController,19,_Header_,Start,1730481432180,undefined,1231,smile,concrete-positive,abstract,concrete,A,NULL
1730481915,32d253b7338b30f6325183356146cccc,PennController,8,0,test_conc,NULL,PennController,19,_Header_,End,1730481432432,undefined,1231,smile,concrete-positive,abstract,concrete,A,NULL
1730481915,32d253b7338b30f6325183356146cccc,PennController,8,0,test_conc,NULL,Selector,unnamed-Selector,Selection,concrete,1730481434163,undefined,1231,smile,concrete-positive,abstract,concrete,A,abstract;concrete
1730481915,32d253b7338b30f6325183356146cccc,PennController,8,0,test_conc,NULL,PennController,19,_Trial_,End,1730481434164,undefined,1231,smile,concrete-positive,abstract,concrete,A,NULL
1730481915,32d253b7338b30f6325183356146cccc,PennController,5,0,test_conc,NULL,PennController,16,_Trial_,Start,1730481434164,undefined,805,heal,concrete-positive,abstract,concrete,A,NULL
1730481915,32d253b7338b30f6325183356146cccc,PennController,5,0,test_conc,NULL,PennController,16,_Header_,Start,1730481434164,undefined,805,heal,concrete-positive,abstract,concrete,A,NULL
1730481915,32d253b7338b30f6325183356146cccc,PennController,5,0,test_conc,NULL,PennController,16,_Header_,End,1730481434414,undefined,805,heal,concrete-positive,abstract,concrete,A,NULL
1730481915,32d253b7338b30f6325183356146cccc,PennController,5,0,test_conc,NULL,Selector,unnamed-Selector,Selection,abstract,1730481435723,undefined,805,heal,concrete-positive,abstract,concrete,A,abstract;concrete
1730481915,32d253b7338b30f6325183356146cccc,PennController,5,0,test_conc,NULL,PennController,16,_Trial_,End,1730481435724,undefined,805,heal,concrete-positive,abstract,concrete,A,NULL
1730481915,32d253b7338b30f6325183356146cccc,PennController,7,0,test_conc,NULL,PennController,18,_Trial_,Start,1730481435724,undefined,1368,caress,concrete-positive,abstract,concrete,A,NULL
1730481915,32d253b7338b30f6325183356146cccc,PennController,7,0,test_conc,NULL,PennController,18,_Header_,Start,1730481435724,undefined,1368,caress,concrete-positive,abstract,concrete,A,NULL
1730481915,32d253b7338b30f6325183356146cccc,PennController,7,0,test_conc,NULL,PennController,18,_Header_,End,1730481435975,undefined,1368,caress,concrete-positive,abstract,concrete,A,NULL
1730481915,32d253b7338b30f6325183356146cccc,PennController,7,0,test_conc,NULL,Selector,unnamed-Selector,Selection,concrete,1730481437843,undefined,1368,caress,concrete-positive,abstract,concrete,A,abstract;concrete
1730481915,32d253b7338b30f6325183356146cccc,PennController,7,0,test_conc,NULL,PennController,18,_Trial_,End,1730481437844,undefined,1368,caress,concrete-positive,abstract,concrete,A,NULL
1730481915,32d253b7338b30f6325183356146cccc,PennController,18,0,test_conc,NULL,PennController,29,_Trial_,Start,1730481437844,undefined,3038,perish,concrete-negative,abstract,concrete,A,NULL
1730481915,32d253b7338b30f6325183356146cccc,PennController,18,0,test_conc,NULL,PennController,29,_Header_,Start,1730481437845,undefined,3038,perish,concrete-negative,abstract,concrete,A,NULL
1730481915,32d253b7338b30f6325183356146cccc,PennController,18,0,test_conc,NULL,PennController,29,_Header_,End,1730481438096,undefined,3038,perish,concrete-negative,abstract,concrete,A,NULL
1730481915,32d253b7338b30f6325183356146cccc,PennController,18,0,test_conc,NULL,Selector,unnamed-Selector,Selection,concrete,1730481441635,undefined,3038,perish,concrete-negative,abstract,concrete,A,abstract;concrete
1730481915,32d253b7338b30f6325183356146cccc,PennController,18,0,test_conc,NULL,PennController,29,_Trial_,End,1730481441636,undefined,3038,perish,concrete-negative,abstract,concrete,A,NULL
1730481915,32d253b7338b30f6325183356146cccc,PennController,39,0,test_conc,NULL,PennController,50,_Trial_,Start,1730481441636,undefined,963,loathe,abstract-negative,abstract,concrete,A,NULL
1730481915,32d253b7338b30f6325183356146cccc,PennController,39,0,test_conc,NULL,PennController,50,_Header_,Start,1730481441636,undefined,963,loathe,abstract-negative,abstract,concrete,A,NULL
1730481915,32d253b7338b30f6325183356146cccc,PennController,39,0,test_conc,NULL,PennController,50,_Header_,End,1730481441891,undefined,963,loathe,abstract-negative,abstract,concrete,A,NULL
1730481915,32d253b7338b30f6325183356146cccc,PennController,39,0,test_conc,NULL,Selector,unnamed-Selector,Selection,abstract,1730481443355,undefined,963,loathe,abstract-negative,abstract,concrete,A,abstract;concrete
1730481915,32d253b7338b30f6325183356146cccc,PennController,39,0,test_conc,NULL,PennController,50,_Trial_,End,1730481443356,undefined,963,loathe,abstract-negative,abstract,concrete,A,NULL
1730481915,32d253b7338b30f6325183356146cccc,PennController,25,0,test_conc,NULL,PennController,36,_Trial_,Start,1730481443356,undefined,1001,admire,abstract-positive,abstract,concrete,A,NULL
1730481915,32d253b7338b30f6325183356146cccc,PennController,25,0,test_conc,NULL,PennController,36,_Header_,Start,1730481443356,undefined,1001,admire,abstract-positive,abstract,concrete,A,NULL
1730481915,32d253b7338b30f6325183356146cccc,PennController,25,0,test_conc,NULL,PennController,36,_Header_,End,1730481443610,undefined,1001,admire,abstract-positive,abstract,concrete,A,NULL
1730481915,32d253b7338b30f6325183356146cccc,PennController,25,0,test_conc,NULL,Selector,unnamed-Selector,Selection,abstract,1730481445115,undefined,1001,admire,abstract-positive,abstract,concrete,A,abstract;concrete
1730481915,32d253b7338b30f6325183356146cccc,PennController,25,0,test_conc,NULL,PennController,36,_Trial_,End,1730481445116,undefined,1001,admire,abstract-positive,abstract,concrete,A,NULL
1730481915,32d253b7338b30f6325183356146cccc,PennController,27,0,test_conc,NULL,PennController,38,_Trial_,Start,1730481445116,undefined,1508,improve,abstract-positive,abstract,concrete,A,NULL
1730481915,32d253b7338b30f6325183356146cccc,PennController,27,0,test_conc,NULL,PennController,38,_Header_,Start,1730481445116,undefined,1508,improve,abstract-positive,abstract,concrete,A,NULL
1730481915,32d253b7338b30f6325183356146cccc,PennController,27,0,test_conc,NULL,PennController,38,_Header_,End,1730481445368,undefined,1508,improve,abstract-positive,abstract,concrete,A,NULL
1730481915,32d253b7338b30f6325183356146cccc,PennController,27,0,test_conc,NULL,Selector,unnamed-Selector,Selection,abstract,1730481447379,undefined,1508,improve,abstract-positive,abstract,concrete,A,abstract;concrete
1730481915,32d253b7338b30f6325183356146cccc,PennController,27,0,test_conc,NULL,PennController,38,_Trial_,End,1730481447380,undefined,1508,improve,abstract-positive,abstract,concrete,A,NULL
1730481915,32d253b7338b30f6325183356146cccc,PennController,30,0,test_conc,NULL,PennController,41,_Trial_,Start,1730481447380,undefined,6409,excell,abstract-positive,abstract,concrete,A,NULL
1730481915,32d253b7338b30f6325183356146cccc,PennController,30,0,test_conc,NULL,PennController,41,_Header_,Start,1730481447380,undefined,6409,excell,abstract-positive,abstract,concrete,A,NULL
1730481915,32d253b7338b30f6325183356146cccc,PennController,30,0,test_conc,NULL,PennController,41,_Header_,End,1730481447631,undefined,6409,excell,abstract-positive,abstract,concrete,A,NULL
1730481915,32d253b7338b30f6325183356146cccc,PennController,30,0,test_conc,NULL,Selector,unnamed-Selector,Selection,abstract,1730481454540,undefined,6409,excell,abstract-positive,abstract,concrete,A,abstract;concrete
1730481915,32d253b7338b30f6325183356146cccc,PennController,30,0,test_conc,NULL,PennController,41,_Trial_,End,1730481454540,undefined,6409,excell,abstract-positive,abstract,concrete,A,NULL
1730481915,32d253b7338b30f6325183356146cccc,PennController,33,0,test_conc,NULL,PennController,44,_Trial_,Start,1730481454541,undefined,1218,relieve,abstract-positive,abstract,concrete,A,NULL
1730481915,32d253b7338b30f6325183356146cccc,PennController,33,0,test_conc,NULL,PennController,44,_Header_,Start,1730481454541,undefined,1218,relieve,abstract-positive,abstract,concrete,A,NULL
1730481915,32d253b7338b30f6325183356146cccc,PennController,33,0,test_conc,NULL,PennController,44,_Header_,End,1730481454795,undefined,1218,relieve,abstract-positive,abstract,concrete,A,NULL
1730481915,32d253b7338b30f6325183356146cccc,PennController,33,0,test_conc,NULL,Selector,unnamed-Selector,Selection,abstract,1730481456515,undefined,1218,relieve,abstract-positive,abstract,concrete,A,abstract;concrete
1730481915,32d253b7338b30f6325183356146cccc,PennController,33,0,test_conc,NULL,PennController,44,_Trial_,End,1730481456516,undefined,1218,relieve,abstract-positive,abstract,concrete,A,NULL
1730481915,32d253b7338b30f6325183356146cccc,PennController,13,0,test_conc,NULL,PennController,24,_Trial_,Start,1730481456517,undefined,2002,shine,concrete-positive,abstract,concrete,A,NULL
1730481915,32d253b7338b30f6325183356146cccc,PennController,13,0,test_conc,NULL,PennController,24,_Header_,Start,1730481456517,undefined,2002,shine,concrete-positive,abstract,concrete,A,NULL
1730481915,32d253b7338b30f6325183356146cccc,PennController,13,0,test_conc,NULL,PennController,24,_Header_,End,1730481456772,undefined,2002,shine,concrete-positive,abstract,concrete,A,NULL
1730481915,32d253b7338b30f6325183356146cccc,PennController,13,0,test_conc,NULL,Selector,unnamed-Selector,Selection,abstract,1730481459275,undefined,2002,shine,concrete-positive,abstract,concrete,A,abstract;concrete
1730481915,32d253b7338b30f6325183356146cccc,PennController,13,0,test_conc,NULL,PennController,24,_Trial_,End,1730481459276,undefined,2002,shine,concrete-positive,abstract,concrete,A,NULL
1730481915,32d253b7338b30f6325183356146cccc,PennController,23,0,test_conc,NULL,PennController,34,_Trial_,Start,1730481459276,undefined,1672,bore,concrete-negative,abstract,concrete,A,NULL
1730481915,32d253b7338b30f6325183356146cccc,PennController,23,0,test_conc,NULL,PennController,34,_Header_,Start,1730481459276,undefined,1672,bore,concrete-negative,abstract,concrete,A,NULL
1730481915,32d253b7338b30f6325183356146cccc,PennController,23,0,test_conc,NULL,PennController,34,_Header_,End,1730481459531,undefined,1672,bore,concrete-negative,abstract,concrete,A,NULL
1730481915,32d253b7338b30f6325183356146cccc,PennController,23,0,test_conc,NULL,Selector,unnamed-Selector,Selection,abstract,1730481461707,undefined,1672,bore,concrete-negative,abstract,concrete,A,abstract;concrete
1730481915,32d253b7338b30f6325183356146cccc,PennController,23,0,test_conc,NULL,PennController,34,_Trial_,End,1730481461708,undefined,1672,bore,concrete-negative,abstract,concrete,A,NULL
1730481915,32d253b7338b30f6325183356146cccc,PennController,6,0,test_conc,NULL,PennController,17,_Trial_,Start,1730481461709,undefined,909,soothe,concrete-positive,abstract,concrete,A,NULL
1730481915,32d253b7338b30f6325183356146cccc,PennController,6,0,test_conc,NULL,PennController,17,_Header_,Start,1730481461709,undefined,909,soothe,concrete-positive,abstract,concrete,A,NULL
1730481915,32d253b7338b30f6325183356146cccc,PennController,6,0,test_conc,NULL,PennController,17,_Header_,End,1730481461961,undefined,909,soothe,concrete-positive,abstract,concrete,A,NULL
1730481915,32d253b7338b30f6325183356146cccc,PennController,6,0,test_conc,NULL,Selector,unnamed-Selector,Selection,abstract,1730481463371,undefined,909,soothe,concrete-positive,abstract,concrete,A,abstract;concrete
1730481915,32d253b7338b30f6325183356146cccc,PennController,6,0,test_conc,NULL,PennController,17,_Trial_,End,1730481463372,undefined,909,soothe,concrete-positive,abstract,concrete,A,NULL
1730481915,32d253b7338b30f6325183356146cccc,PennController,10,0,test_conc,NULL,PennController,21,_Trial_,Start,1730481463372,undefined,1177,complete,concrete-positive,abstract,concrete,A,NULL
1730481915,32d253b7338b30f6325183356146cccc,PennController,10,0,test_conc,NULL,PennController,21,_Header_,Start,1730481463372,undefined,1177,complete,concrete-positive,abstract,concrete,A,NULL
1730481915,32d253b7338b30f6325183356146cccc,PennController,10,0,test_conc,NULL,PennController,21,_Header_,End,1730481463622,undefined,1177,complete,concrete-positive,abstract,concrete,A,NULL
1730481915,32d253b7338b30f6325183356146cccc,PennController,10,0,test_conc,NULL,Selector,unnamed-Selector,Selection,concrete,1730481465300,undefined,1177,complete,concrete-positive,abstract,concrete,A,abstract;concrete
1730481915,32d253b7338b30f6325183356146cccc,PennController,10,0,test_conc,NULL,PennController,21,_Trial_,End,1730481465300,undefined,1177,complete,concrete-positive,abstract,concrete,A,NULL
1730481915,32d253b7338b30f6325183356146cccc,PennController,37,0,test_conc,NULL,PennController,48,_Trial_,Start,1730481465301,undefined,901,languish,abstract-negative,abstract,concrete,A,NULL
1730481915,32d253b7338b30f6325183356146cccc,PennController,37,0,test_conc,NULL,PennController,48,_Header_,Start,1730481465301,undefined,901,languish,abstract-negative,abstract,concrete,A,NULL
1730481915,32d253b7338b30f6325183356146cccc,PennController,37,0,test_conc,NULL,PennController,48,_Header_,End,1730481465552,undefined,901,languish,abstract-negative,abstract,concrete,A,NULL
1730481915,32d253b7338b30f6325183356146cccc,PennController,37,0,test_conc,NULL,Selector,unnamed-Selector,Selection,abstract,1730481466955,undefined,901,languish,abstract-negative,abstract,concrete,A,abstract;concrete
1730481915,32d253b7338b30f6325183356146cccc,PennController,37,0,test_conc,NULL,PennController,48,_Trial_,End,1730481466956,undefined,901,languish,abstract-negative,abstract,concrete,A,NULL
1730481915,32d253b7338b30f6325183356146cccc,PennController,13,0,test_conc,NULL,PennController,24,_Trial_,Start,1730481466956,undefined,1215,shine,concrete-positive,abstract,concrete,A,NULL
1730481915,32d253b7338b30f6325183356146cccc,PennController,13,0,test_conc,NULL,PennController,24,_Header_,Start,1730481466956,undefined,1215,shine,concrete-positive,abstract,concrete,A,NULL
1730481915,32d253b7338b30f6325183356146cccc,PennController,13,0,test_conc,NULL,PennController,24,_Header_,End,1730481467207,undefined,1215,shine,concrete-positive,abstract,concrete,A,NULL
1730481915,32d253b7338b30f6325183356146cccc,PennController,13,0,test_conc,NULL,Selector,unnamed-Selector,Selection,abstract,1730481468923,undefined,1215,shine,concrete-positive,abstract,concrete,A,abstract;concrete
1730481915,32d253b7338b30f6325183356146cccc,PennController,13,0,test_conc,NULL,PennController,24,_Trial_,End,1730481468924,undefined,1215,shine,concrete-positive,abstract,concrete,A,NULL
1730481915,32d253b7338b30f6325183356146cccc,PennController,29,0,test_conc,NULL,PennController,40,_Trial_,Start,1730481468924,undefined,762,enlighten,abstract-positive,abstract,concrete,A,NULL
1730481915,32d253b7338b30f6325183356146cccc,PennController,29,0,test_conc,NULL,PennController,40,_Header_,Start,1730481468924,undefined,762,enlighten,abstract-positive,abstract,concrete,A,NULL
1730481915,32d253b7338b30f6325183356146cccc,PennController,29,0,test_conc,NULL,PennController,40,_Header_,End,1730481469176,undefined,762,enlighten,abstract-positive,abstract,concrete,A,NULL
1730481915,32d253b7338b30f6325183356146cccc,PennController,29,0,test_conc,NULL,Selector,unnamed-Selector,Selection,abstract,1730481470443,undefined,762,enlighten,abstract-positive,abstract,concrete,A,abstract;concrete
1730481915,32d253b7338b30f6325183356146cccc,PennController,29,0,test_conc,NULL,PennController,40,_Trial_,End,1730481470444,undefined,762,enlighten,abstract-positive,abstract,concrete,A,NULL
1730481915,32d253b7338b30f6325183356146cccc,PennController,7,0,test_conc,NULL,PennController,18,_Trial_,Start,1730481470444,undefined,2534,caress,concrete-positive,abstract,concrete,A,NULL
1730481915,32d253b7338b30f6325183356146cccc,PennController,7,0,test_conc,NULL,PennController,18,_Header_,Start,1730481470444,undefined,2534,caress,concrete-positive,abstract,concrete,A,NULL
1730481915,32d253b7338b30f6325183356146cccc,PennController,7,0,test_conc,NULL,PennController,18,_Header_,End,1730481470695,undefined,2534,caress,concrete-positive,abstract,concrete,A,NULL
1730481915,32d253b7338b30f6325183356146cccc,PennController,7,0,test_conc,NULL,Selector,unnamed-Selector,Selection,abstract,1730481473731,undefined,2534,caress,concrete-positive,abstract,concrete,A,abstract;concrete
1730481915,32d253b7338b30f6325183356146cccc,PennController,7,0,test_conc,NULL,PennController,18,_Trial_,End,1730481473732,undefined,2534,caress,concrete-positive,abstract,concrete,A,NULL
1730481915,32d253b7338b30f6325183356146cccc,PennController,36,0,test_conc,NULL,PennController,47,_Trial_,Start,1730481473732,undefined,909,despise,abstract-negative,abstract,concrete,A,NULL
1730481915,32d253b7338b30f6325183356146cccc,PennController,36,0,test_conc,NULL,PennController,47,_Header_,Start,1730481473732,undefined,909,despise,abstract-negative,abstract,concrete,A,NULL
1730481915,32d253b7338b30f6325183356146cccc,PennController,36,0,test_conc,NULL,PennController,47,_Header_,End,1730481473984,undefined,909,despise,abstract-negative,abstract,concrete,A,NULL
1730481915,32d253b7338b30f6325183356146cccc,PennController,36,0,test_conc,NULL,Selector,unnamed-Selector,Selection,abstract,1730481475396,undefined,909,despise,abstract-negative,abstract,concrete,A,abstract;concrete
1730481915,32d253b7338b30f6325183356146cccc,PennController,36,0,test_conc,NULL,PennController,47,_Trial_,End,1730481475396,undefined,909,despise,abstract-negative,abstract,concrete,A,NULL
1730481915,32d253b7338b30f6325183356146cccc,PennController,18,0,test_conc,NULL,PennController,29,_Trial_,Start,1730481475397,undefined,2338,perish,concrete-negative,abstract,concrete,A,NULL
1730481915,32d253b7338b30f6325183356146cccc,PennController,18,0,test_conc,NULL,PennController,29,_Header_,Start,1730481475397,undefined,2338,perish,concrete-negative,abstract,concrete,A,NULL
1730481915,32d253b7338b30f6325183356146cccc,PennController,18,0,test_conc,NULL,PennController,29,_Header_,End,1730481475651,undefined,2338,perish,concrete-negative,abstract,concrete,A,NULL
1730481915,32d253b7338b30f6325183356146cccc,PennController,18,0,test_conc,NULL,Selector,unnamed-Selector,Selection,concrete,1730481478491,undefined,2338,perish,concrete-negative,abstract,concrete,A,abstract;concrete
1730481915,32d253b7338b30f6325183356146cccc,PennController,18,0,test_conc,NULL,PennController,29,_Trial_,End,1730481478492,undefined,2338,perish,concrete-negative,abstract,concrete,A,NULL
1730481915,32d253b7338b30f6325183356146cccc,PennController,39,0,test_conc,NULL,PennController,50,_Trial_,Start,1730481478492,undefined,975,loathe,abstract-negative,abstract,concrete,A,NULL
1730481915,32d253b7338b30f6325183356146cccc,PennController,39,0,test_conc,NULL,PennController,50,_Header_,Start,1730481478492,undefined,975,loathe,abstract-negative,abstract,concrete,A,NULL
1730481915,32d253b7338b30f6325183356146cccc,PennController,39,0,test_conc,NULL,PennController,50,_Header_,End,1730481478743,undefined,975,loathe,abstract-negative,abstract,concrete,A,NULL
1730481915,32d253b7338b30f6325183356146cccc,PennController,39,0,test_conc,NULL,Selector,unnamed-Selector,Selection,abstract,1730481480219,undefined,975,loathe,abstract-negative,abstract,concrete,A,abstract;concrete
1730481915,32d253b7338b30f6325183356146cccc,PennController,39,0,test_conc,NULL,PennController,50,_Trial_,End,1730481480220,undefined,975,loathe,abstract-negative,abstract,concrete,A,NULL
1730481915,32d253b7338b30f6325183356146cccc,PennController,22,0,test_conc,NULL,PennController,33,_Trial_,Start,1730481480220,undefined,776,kill,concrete-negative,abstract,concrete,A,NULL
1730481915,32d253b7338b30f6325183356146cccc,PennController,22,0,test_conc,NULL,PennController,33,_Header_,Start,1730481480220,undefined,776,kill,concrete-negative,abstract,concrete,A,NULL
1730481915,32d253b7338b30f6325183356146cccc,PennController,22,0,test_conc,NULL,PennController,33,_Header_,End,1730481480471,undefined,776,kill,concrete-negative,abstract,concrete,A,NULL
1730481915,32d253b7338b30f6325183356146cccc,PennController,22,0,test_conc,NULL,Selector,unnamed-Selector,Selection,concrete,1730481481747,undefined,776,kill,concrete-negative,abstract,concrete,A,abstract;concrete
1730481915,32d253b7338b30f6325183356146cccc,PennController,22,0,test_conc,NULL,PennController,33,_Trial_,End,1730481481748,undefined,776,kill,concrete-negative,abstract,concrete,A,NULL
1730481915,32d253b7338b30f6325183356146cccc,PennController,38,0,test_conc,NULL,PennController,49,_Trial_,Start,1730481481748,undefined,1488,succumb,abstract-negative,abstract,concrete,A,NULL
1730481915,32d253b7338b30f6325183356146cccc,PennController,38,0,test_conc,NULL,PennController,49,_Header_,Start,1730481481748,undefined,1488,succumb,abstract-negative,abstract,concrete,A,NULL
1730481915,32d253b7338b30f6325183356146cccc,PennController,38,0,test_conc,NULL,PennController,49,_Header_,End,1730481481999,undefined,1488,succumb,abstract-negative,abstract,concrete,A,NULL
1730481915,32d253b7338b30f6325183356146cccc,PennController,38,0,test_conc,NULL,Selector,unnamed-Selector,Selection,concrete,1730481483987,undefined,1488,succumb,abstract-negative,abstract,concrete,A,abstract;concrete
1730481915,32d253b7338b30f6325183356146cccc,PennController,38,0,test_conc,NULL,PennController,49,_Trial_,End,1730481483988,undefined,1488,succumb,abstract-negative,abstract,concrete,A,NULL
1730481915,32d253b7338b30f6325183356146cccc,PennController,19,0,test_conc,NULL,PennController,30,_Trial_,Start,1730481483988,undefined,749,smash,concrete-negative,abstract,concrete,A,NULL
1730481915,32d253b7338b30f6325183356146cccc,PennController,19,0,test_conc,NULL,PennController,30,_Header_,Start,1730481483988,undefined,749,smash,concrete-negative,abstract,concrete,A,NULL
1730481915,32d253b7338b30f6325183356146cccc,PennController,19,0,test_conc,NULL,PennController,30,_Header_,End,1730481484238,undefined,749,smash,concrete-negative,abstract,concrete,A,NULL
1730481915,32d253b7338b30f6325183356146cccc,PennController,19,0,test_conc,NULL,Selector,unnamed-Selector,Selection,concrete,1730481485492,undefined,749,smash,concrete-negative,abstract,concrete,A,abstract;concrete
1730481915,32d253b7338b30f6325183356146cccc,PennController,19,0,test_conc,NULL,PennController,30,_Trial_,End,1730481485492,undefined,749,smash,concrete-negative,abstract,concrete,A,NULL
1730481915,32d253b7338b30f6325183356146cccc,PennController,15,0,test_conc,NULL,PennController,26,_Trial_,Start,1730481485493,undefined,615,destroy,concrete-negative,abstract,concrete,A,NULL
1730481915,32d253b7338b30f6325183356146cccc,PennController,15,0,test_conc,NULL,PennController,26,_Header_,Start,1730481485493,undefined,615,destroy,concrete-negative,abstract,concrete,A,NULL
1730481915,32d253b7338b30f6325183356146cccc,PennController,15,0,test_conc,NULL,PennController,26,_Header_,End,1730481485747,undefined,615,destroy,concrete-negative,abstract,concrete,A,NULL
1730481915,32d253b7338b30f6325183356146cccc,PennController,15,0,test_conc,NULL,Selector,unnamed-Selector,Selection,concrete,1730481486867,undefined,615,destroy,concrete-negative,abstract,concrete,A,abstract;concrete
1730481915,32d253b7338b30f6325183356146cccc,PennController,15,0,test_conc,NULL,PennController,26,_Trial_,End,1730481486868,undefined,615,destroy,concrete-negative,abstract,concrete,A,NULL
1730481915,32d253b7338b30f6325183356146cccc,PennController,35,0,test_conc,NULL,PennController,46,_Trial_,Start,1730481486868,undefined,795,suffer,abstract-negative,abstract,concrete,A,NULL
1730481915,32d253b7338b30f6325183356146cccc,PennController,35,0,test_conc,NULL,PennController,46,_Header_,Start,1730481486868,undefined,795,suffer,abstract-negative,abstract,concrete,A,NULL
1730481915,32d253b7338b30f6325183356146cccc,PennController,35,0,test_conc,NULL,PennController,46,_Header_,End,1730481487120,undefined,795,suffer,abstract-negative,abstract,concrete,A,NULL
1730481915,32d253b7338b30f6325183356146cccc,PennController,35,0,test_conc,NULL,Selector,unnamed-Selector,Selection,abstract,1730481488419,undefined,795,suffer,abstract-negative,abstract,concrete,A,abstract;concrete
1730481915,32d253b7338b30f6325183356146cccc,PennController,35,0,test_conc,NULL,PennController,46,_Trial_,End,1730481488420,undefined,795,suffer,abstract-negative,abstract,concrete,A,NULL
1730481915,32d253b7338b30f6325183356146cccc,PennController,28,0,test_conc,NULL,PennController,39,_Trial_,Start,1730481488420,undefined,1333,embelish,abstract-positive,abstract,concrete,A,NULL
1730481915,32d253b7338b30f6325183356146cccc,PennController,28,0,test_conc,NULL,PennController,39,_Header_,Start,1730481488420,undefined,1333,embelish,abstract-positive,abstract,concrete,A,NULL
1730481915,32d253b7338b30f6325183356146cccc,PennController,28,0,test_conc,NULL,PennController,39,_Header_,End,1730481488673,undefined,1333,embelish,abstract-positive,abstract,concrete,A,NULL
1730481915,32d253b7338b30f6325183356146cccc,PennController,28,0,test_conc,NULL,Selector,unnamed-Selector,Selection,abstract,1730481490507,undefined,1333,embelish,abstract-positive,abstract,concrete,A,abstract;concrete
1730481915,32d253b7338b30f6325183356146cccc,PennController,28,0,test_conc,NULL,PennController,39,_Trial_,End,1730481490508,undefined,1333,embelish,abstract-positive,abstract,concrete,A,NULL
1730481915,32d253b7338b30f6325183356146cccc,PennController,24,0,test_conc,NULL,PennController,35,_Trial_,Start,1730481490508,undefined,604,love,abstract-positive,abstract,concrete,A,NULL
1730481915,32d253b7338b30f6325183356146cccc,PennController,24,0,test_conc,NULL,PennController,35,_Header_,Start,1730481490508,undefined,604,love,abstract-positive,abstract,concrete,A,NULL
1730481915,32d253b7338b30f6325183356146cccc,PennController,24,0,test_conc,NULL,PennController,35,_Header_,End,1730481490760,undefined,604,love,abstract-positive,abstract,concrete,A,NULL
1730481915,32d253b7338b30f6325183356146cccc,PennController,24,0,test_conc,NULL,Selector,unnamed-Selector,Selection,abstract,1730481491867,undefined,604,love,abstract-positive,abstract,concrete,A,abstract;concrete
1730481915,32d253b7338b30f6325183356146cccc,PennController,24,0,test_conc,NULL,PennController,35,_Trial_,End,1730481491868,undefined,604,love,abstract-positive,abstract,concrete,A,NULL
1730481915,32d253b7338b30f6325183356146cccc,PennController,17,0,test_conc,NULL,PennController,28,_Trial_,Start,1730481491868,undefined,1173,rot,concrete-negative,abstract,concrete,A,NULL
1730481915,32d253b7338b30f6325183356146cccc,PennController,17,0,test_conc,NULL,PennController,28,_Header_,Start,1730481491868,undefined,1173,rot,concrete-negative,abstract,concrete,A,NULL
1730481915,32d253b7338b30f6325183356146cccc,PennController,17,0,test_conc,NULL,PennController,28,_Header_,End,1730481492119,undefined,1173,rot,concrete-negative,abstract,concrete,A,NULL
1730481915,32d253b7338b30f6325183356146cccc,PennController,17,0,test_conc,NULL,Selector,unnamed-Selector,Selection,concrete,1730481493795,undefined,1173,rot,concrete-negative,abstract,concrete,A,abstract;concrete
1730481915,32d253b7338b30f6325183356146cccc,PennController,17,0,test_conc,NULL,PennController,28,_Trial_,End,1730481493796,undefined,1173,rot,concrete-negative,abstract,concrete,A,NULL
1730481915,32d253b7338b30f6325183356146cccc,PennController,23,0,test_conc,NULL,PennController,34,_Trial_,Start,1730481493796,undefined,968,bore,concrete-negative,abstract,concrete,A,NULL
1730481915,32d253b7338b30f6325183356146cccc,PennController,23,0,test_conc,NULL,PennController,34,_Header_,Start,1730481493796,undefined,968,bore,concrete-negative,abstract,concrete,A,NULL
1730481915,32d253b7338b30f6325183356146cccc,PennController,23,0,test_conc,NULL,PennController,34,_Header_,End,1730481494046,undefined,968,bore,concrete-negative,abstract,concrete,A,NULL
1730481915,32d253b7338b30f6325183356146cccc,PennController,23,0,test_conc,NULL,Selector,unnamed-Selector,Selection,abstract,1730481495516,undefined,968,bore,concrete-negative,abstract,concrete,A,abstract;concrete
1730481915,32d253b7338b30f6325183356146cccc,PennController,23,0,test_conc,NULL,PennController,34,_Trial_,End,1730481495516,undefined,968,bore,concrete-negative,abstract,concrete,A,NULL
1730481915,32d253b7338b30f6325183356146cccc,PennController,32,0,test_conc,NULL,PennController,43,_Trial_,Start,1730481495517,undefined,2054,flourish,abstract-positive,abstract,concrete,A,NULL
1730481915,32d253b7338b30f6325183356146cccc,PennController,32,0,test_conc,NULL,PennController,43,_Header_,Start,1730481495517,undefined,2054,flourish,abstract-positive,abstract,concrete,A,NULL
1730481915,32d253b7338b30f6325183356146cccc,PennController,32,0,test_conc,NULL,PennController,43,_Header_,End,1730481495767,undefined,2054,flourish,abstract-positive,abstract,concrete,A,NULL
1730481915,32d253b7338b30f6325183356146cccc,PennController,32,0,test_conc,NULL,Selector,unnamed-Selector,Selection,abstract,1730481498323,undefined,2054,flourish,abstract-positive,abstract,concrete,A,abstract;concrete
1730481915,32d253b7338b30f6325183356146cccc,PennController,32,0,test_conc,NULL,PennController,43,_Trial_,End,1730481498324,undefined,2054,flourish,abstract-positive,abstract,concrete,A,NULL
1730481915,32d253b7338b30f6325183356146cccc,PennController,21,0,test_conc,NULL,PennController,32,_Trial_,Start,1730481498324,undefined,2828,fail,concrete-negative,abstract,concrete,A,NULL
1730481915,32d253b7338b30f6325183356146cccc,PennController,21,0,test_conc,NULL,PennController,32,_Header_,Start,1730481498324,undefined,2828,fail,concrete-negative,abstract,concrete,A,NULL
1730481915,32d253b7338b30f6325183356146cccc,PennController,21,0,test_conc,NULL,PennController,32,_Header_,End,1730481498575,undefined,2828,fail,concrete-negative,abstract,concrete,A,NULL
1730481915,32d253b7338b30f6325183356146cccc,PennController,21,0,test_conc,NULL,Selector,unnamed-Selector,Selection,concrete,1730481501907,undefined,2828,fail,concrete-negative,abstract,concrete,A,abstract;concrete
1730481915,32d253b7338b30f6325183356146cccc,PennController,21,0,test_conc,NULL,PennController,32,_Trial_,End,1730481501908,undefined,2828,fail,concrete-negative,abstract,concrete,A,NULL
1730481915,32d253b7338b30f6325183356146cccc,PennController,16,0,test_conc,NULL,PennController,27,_Trial_,Start,1730481501908,undefined,700,demolish,concrete-negative,abstract,concrete,A,NULL
1730481915,32d253b7338b30f6325183356146cccc,PennController,16,0,test_conc,NULL,PennController,27,_Header_,Start,1730481501908,undefined,700,demolish,concrete-negative,abstract,concrete,A,NULL
1730481915,32d253b7338b30f6325183356146cccc,PennController,16,0,test_conc,NULL,PennController,27,_Header_,End,1730481502163,undefined,700,demolish,concrete-negative,abstract,concrete,A,NULL
1730481915,32d253b7338b30f6325183356146cccc,PennController,16,0,test_conc,NULL,Selector,unnamed-Selector,Selection,concrete,1730481503363,undefined,700,demolish,concrete-negative,abstract,concrete,A,abstract;concrete
1730481915,32d253b7338b30f6325183356146cccc,PennController,16,0,test_conc,NULL,PennController,27,_Trial_,End,1730481503364,undefined,700,demolish,concrete-negative,abstract,concrete,A,NULL
1730481915,32d253b7338b30f6325183356146cccc,PennController,8,0,test_conc,NULL,PennController,19,_Trial_,Start,1730481503364,undefined,999,smile,concrete-positive,abstract,concrete,A,NULL
1730481915,32d253b7338b30f6325183356146cccc,PennController,8,0,test_conc,NULL,PennController,19,_Header_,Start,1730481503364,undefined,999,smile,concrete-positive,abstract,concrete,A,NULL
1730481915,32d253b7338b30f6325183356146cccc,PennController,8,0,test_conc,NULL,PennController,19,_Header_,End,1730481503615,undefined,999,smile,concrete-positive,abstract,concrete,A,NULL
1730481915,32d253b7338b30f6325183356146cccc,PennController,8,0,test_conc,NULL,Selector,unnamed-Selector,Selection,concrete,1730481505115,undefined,999,smile,concrete-positive,abstract,concrete,A,abstract;concrete
1730481915,32d253b7338b30f6325183356146cccc,PennController,8,0,test_conc,NULL,PennController,19,_Trial_,End,1730481505116,undefined,999,smile,concrete-positive,abstract,concrete,A,NULL
1730481915,32d253b7338b30f6325183356146cccc,PennController,20,0,test_conc,NULL,PennController,31,_Trial_,Start,1730481505116,undefined,5067,irritate,concrete-negative,abstract,concrete,A,NULL
1730481915,32d253b7338b30f6325183356146cccc,PennController,20,0,test_conc,NULL,PennController,31,_Header_,Start,1730481505116,undefined,5067,irritate,concrete-negative,abstract,concrete,A,NULL
1730481915,32d253b7338b30f6325183356146cccc,PennController,20,0,test_conc,NULL,PennController,31,_Header_,End,1730481505369,undefined,5067,irritate,concrete-negative,abstract,concrete,A,NULL
1730481915,32d253b7338b30f6325183356146cccc,PennController,20,0,test_conc,NULL,Selector,unnamed-Selector,Selection,abstract,1730481510939,undefined,5067,irritate,concrete-negative,abstract,concrete,A,abstract;concrete
1730481915,32d253b7338b30f6325183356146cccc,PennController,20,0,test_conc,NULL,PennController,31,_Trial_,End,1730481510940,undefined,5067,irritate,concrete-negative,abstract,concrete,A,NULL
1730481915,32d253b7338b30f6325183356146cccc,PennController,4,0,test_conc,NULL,PennController,15,_Trial_,Start,1730481510941,undefined,906,prosper,concrete-positive,abstract,concrete,A,NULL
1730481915,32d253b7338b30f6325183356146cccc,PennController,4,0,test_conc,NULL,PennController,15,_Header_,Start,1730481510941,undefined,906,prosper,concrete-positive,abstract,concrete,A,NULL
1730481915,32d253b7338b30f6325183356146cccc,PennController,4,0,test_conc,NULL,PennController,15,_Header_,End,1730481511193,undefined,906,prosper,concrete-positive,abstract,concrete,A,NULL
1730481915,32d253b7338b30f6325183356146cccc,PennController,4,0,test_conc,NULL,Selector,unnamed-Selector,Selection,abstract,1730481512603,undefined,906,prosper,concrete-positive,abstract,concrete,A,abstract;concrete
1730481915,32d253b7338b30f6325183356146cccc,PennController,4,0,test_conc,NULL,PennController,15,_Trial_,End,1730481512604,undefined,906,prosper,concrete-positive,abstract,concrete,A,NULL
1730481915,32d253b7338b30f6325183356146cccc,PennController,25,0,test_conc,NULL,PennController,36,_Trial_,Start,1730481512604,undefined,846,admire,abstract-positive,abstract,concrete,A,NULL
1730481915,32d253b7338b30f6325183356146cccc,PennController,25,0,test_conc,NULL,PennController,36,_Header_,Start,1730481512604,undefined,846,admire,abstract-positive,abstract,concrete,A,NULL
1730481915,32d253b7338b30f6325183356146cccc,PennController,25,0,test_conc,NULL,PennController,36,_Header_,End,1730481512856,undefined,846,admire,abstract-positive,abstract,concrete,A,NULL
1730481915,32d253b7338b30f6325183356146cccc,PennController,25,0,test_conc,NULL,Selector,unnamed-Selector,Selection,abstract,1730481514203,undefined,846,admire,abstract-positive,abstract,concrete,A,abstract;concrete
1730481915,32d253b7338b30f6325183356146cccc,PennController,25,0,test_conc,NULL,PennController,36,_Trial_,End,1730481514204,undefined,846,admire,abstract-positive,abstract,concrete,A,NULL
1730481915,32d253b7338b30f6325183356146cccc,PennController,12,0,test_conc,NULL,PennController,23,_Trial_,Start,1730481514204,undefined,1020,relax,concrete-positive,abstract,concrete,A,NULL
1730481915,32d253b7338b30f6325183356146cccc,PennController,12,0,test_conc,NULL,PennController,23,_Header_,Start,1730481514204,undefined,1020,relax,concrete-positive,abstract,concrete,A,NULL
1730481915,32d253b7338b30f6325183356146cccc,PennController,12,0,test_conc,NULL,PennController,23,_Header_,End,1730481514458,undefined,1020,relax,concrete-positive,abstract,concrete,A,NULL
1730481915,32d253b7338b30f6325183356146cccc,PennController,12,0,test_conc,NULL,Selector,unnamed-Selector,Selection,abstract,1730481515979,undefined,1020,relax,concrete-positive,abstract,concrete,A,abstract;concrete
1730481915,32d253b7338b30f6325183356146cccc,PennController,12,0,test_conc,NULL,PennController,23,_Trial_,End,1730481515980,undefined,1020,relax,concrete-positive,abstract,concrete,A,NULL
1730481915,32d253b7338b30f6325183356146cccc,PennController,9,0,test_conc,NULL,PennController,20,_Trial_,Start,1730481515980,undefined,903,rejuvenate,concrete-positive,abstract,concrete,A,NULL
1730481915,32d253b7338b30f6325183356146cccc,PennController,9,0,test_conc,NULL,PennController,20,_Header_,Start,1730481515980,undefined,903,rejuvenate,concrete-positive,abstract,concrete,A,NULL
1730481915,32d253b7338b30f6325183356146cccc,PennController,9,0,test_conc,NULL,PennController,20,_Header_,End,1730481516233,undefined,903,rejuvenate,concrete-positive,abstract,concrete,A,NULL
1730481915,32d253b7338b30f6325183356146cccc,PennController,9,0,test_conc,NULL,Selector,unnamed-Selector,Selection,abstract,1730481517635,undefined,903,rejuvenate,concrete-positive,abstract,concrete,A,abstract;concrete
1730481915,32d253b7338b30f6325183356146cccc,PennController,9,0,test_conc,NULL,PennController,20,_Trial_,End,1730481517636,undefined,903,rejuvenate,concrete-positive,abstract,concrete,A,NULL
1730481915,32d253b7338b30f6325183356146cccc,PennController,43,0,test_conc,NULL,PennController,54,_Trial_,Start,1730481517636,undefined,3423,dislike,abstract-negative,abstract,concrete,A,NULL
1730481915,32d253b7338b30f6325183356146cccc,PennController,43,0,test_conc,NULL,PennController,54,_Header_,Start,1730481517636,undefined,3423,dislike,abstract-negative,abstract,concrete,A,NULL
1730481915,32d253b7338b30f6325183356146cccc,PennController,43,0,test_conc,NULL,PennController,54,_Header_,End,1730481517889,undefined,3423,dislike,abstract-negative,abstract,concrete,A,NULL
1730481915,32d253b7338b30f6325183356146cccc,PennController,43,0,test_conc,NULL,Selector,unnamed-Selector,Selection,abstract,1730481521812,undefined,3423,dislike,abstract-negative,abstract,concrete,A,abstract;concrete
1730481915,32d253b7338b30f6325183356146cccc,PennController,43,0,test_conc,NULL,PennController,54,_Trial_,End,1730481521812,undefined,3423,dislike,abstract-negative,abstract,concrete,A,NULL
1730481915,32d253b7338b30f6325183356146cccc,PennController,41,0,test_conc,NULL,PennController,52,_Trial_,Start,1730481521813,undefined,1834,disappoint,abstract-negative,abstract,concrete,A,NULL
1730481915,32d253b7338b30f6325183356146cccc,PennController,41,0,test_conc,NULL,PennController,52,_Header_,Start,1730481521813,undefined,1834,disappoint,abstract-negative,abstract,concrete,A,NULL
1730481915,32d253b7338b30f6325183356146cccc,PennController,41,0,test_conc,NULL,PennController,52,_Header_,End,1730481522063,undefined,1834,disappoint,abstract-negative,abstract,concrete,A,NULL
1730481915,32d253b7338b30f6325183356146cccc,PennController,41,0,test_conc,NULL,Selector,unnamed-Selector,Selection,abstract,1730481524403,undefined,1834,disappoint,abstract-negative,abstract,concrete,A,abstract;concrete
1730481915,32d253b7338b30f6325183356146cccc,PennController,41,0,test_conc,NULL,PennController,52,_Trial_,End,1730481524404,undefined,1834,disappoint,abstract-negative,abstract,concrete,A,NULL
1730481915,32d253b7338b30f6325183356146cccc,PennController,14,0,test_conc,NULL,PennController,25,_Trial_,Start,1730481524404,undefined,720,die,concrete-negative,abstract,concrete,A,NULL
1730481915,32d253b7338b30f6325183356146cccc,PennController,14,0,test_conc,NULL,PennController,25,_Header_,Start,1730481524404,undefined,720,die,concrete-negative,abstract,concrete,A,NULL
1730481915,32d253b7338b30f6325183356146cccc,PennController,14,0,test_conc,NULL,PennController,25,_Header_,End,1730481524655,undefined,720,die,concrete-negative,abstract,concrete,A,NULL
1730481915,32d253b7338b30f6325183356146cccc,PennController,14,0,test_conc,NULL,Selector,unnamed-Selector,Selection,concrete,1730481525875,undefined,720,die,concrete-negative,abstract,concrete,A,abstract;concrete
1730481915,32d253b7338b30f6325183356146cccc,PennController,14,0,test_conc,NULL,PennController,25,_Trial_,End,1730481525876,undefined,720,die,concrete-negative,abstract,concrete,A,NULL
1730481915,32d253b7338b30f6325183356146cccc,PennController,30,0,test_conc,NULL,PennController,41,_Trial_,Start,1730481525876,undefined,882,excell,abstract-positive,abstract,concrete,A,NULL
1730481915,32d253b7338b30f6325183356146cccc,PennController,30,0,test_conc,NULL,PennController,41,_Header_,Start,1730481525876,undefined,882,excell,abstract-positive,abstract,concrete,A,NULL
1730481915,32d253b7338b30f6325183356146cccc,PennController,30,0,test_conc,NULL,PennController,41,_Header_,End,1730481526129,undefined,882,excell,abstract-positive,abstract,concrete,A,NULL
1730481915,32d253b7338b30f6325183356146cccc,PennController,30,0,test_conc,NULL,Selector,unnamed-Selector,Selection,abstract,1730481527515,undefined,882,excell,abstract-positive,abstract,concrete,A,abstract;concrete
1730481915,32d253b7338b30f6325183356146cccc,PennController,30,0,test_conc,NULL,PennController,41,_Trial_,End,1730481527516,undefined,882,excell,abstract-positive,abstract,concrete,A,NULL
1730481915,32d253b7338b30f6325183356146cccc,PennController,33,0,test_conc,NULL,PennController,44,_Trial_,Start,1730481527516,undefined,725,relieve,abstract-positive,abstract,concrete,A,NULL
1730481915,32d253b7338b30f6325183356146cccc,PennController,33,0,test_conc,NULL,PennController,44,_Header_,Start,1730481527516,undefined,725,relieve,abstract-positive,abstract,concrete,A,NULL
1730481915,32d253b7338b30f6325183356146cccc,PennController,33,0,test_conc,NULL,PennController,44,_Header_,End,1730481527768,undefined,725,relieve,abstract-positive,abstract,concrete,A,NULL
1730481915,32d253b7338b30f6325183356146cccc,PennController,33,0,test_conc,NULL,Selector,unnamed-Selector,Selection,abstract,1730481528995,undefined,725,relieve,abstract-positive,abstract,concrete,A,abstract;concrete
1730481915,32d253b7338b30f6325183356146cccc,PennController,33,0,test_conc,NULL,PennController,44,_Trial_,End,1730481528996,undefined,725,relieve,abstract-positive,abstract,concrete,A,NULL
1730481915,32d253b7338b30f6325183356146cccc,PennController,40,0,test_conc,NULL,PennController,51,_Trial_,Start,1730481528996,undefined,749,look down on,abstract-negative,abstract,concrete,A,NULL
1730481915,32d253b7338b30f6325183356146cccc,PennController,40,0,test_conc,NULL,PennController,51,_Header_,Start,1730481528996,undefined,749,look down on,abstract-negative,abstract,concrete,A,NULL
1730481915,32d253b7338b30f6325183356146cccc,PennController,40,0,test_conc,NULL,PennController,51,_Header_,End,1730481529249,undefined,749,look down on,abstract-negative,abstract,concrete,A,NULL
1730481915,32d253b7338b30f6325183356146cccc,PennController,40,0,test_conc,NULL,Selector,unnamed-Selector,Selection,abstract,1730481530499,undefined,749,look down on,abstract-negative,abstract,concrete,A,abstract;concrete
1730481915,32d253b7338b30f6325183356146cccc,PennController,40,0,test_conc,NULL,PennController,51,_Trial_,End,1730481530500,undefined,749,look down on,abstract-negative,abstract,concrete,A,NULL
1730481915,32d253b7338b30f6325183356146cccc,PennController,31,0,test_conc,NULL,PennController,42,_Trial_,Start,1730481530500,undefined,3479,impress,abstract-positive,abstract,concrete,A,NULL
1730481915,32d253b7338b30f6325183356146cccc,PennController,31,0,test_conc,NULL,PennController,42,_Header_,Start,1730481530500,undefined,3479,impress,abstract-positive,abstract,concrete,A,NULL
1730481915,32d253b7338b30f6325183356146cccc,PennController,31,0,test_conc,NULL,PennController,42,_Header_,End,1730481530751,undefined,3479,impress,abstract-positive,abstract,concrete,A,NULL
1730481915,32d253b7338b30f6325183356146cccc,PennController,31,0,test_conc,NULL,Selector,unnamed-Selector,Selection,abstract,1730481534732,undefined,3479,impress,abstract-positive,abstract,concrete,A,abstract;concrete
1730481915,32d253b7338b30f6325183356146cccc,PennController,31,0,test_conc,NULL,PennController,42,_Trial_,End,1730481534732,undefined,3479,impress,abstract-positive,abstract,concrete,A,NULL
1730481915,32d253b7338b30f6325183356146cccc,PennController,11,0,test_conc,NULL,PennController,22,_Trial_,Start,1730481534733,undefined,1081,reach,concrete-positive,abstract,concrete,A,NULL
1730481915,32d253b7338b30f6325183356146cccc,PennController,11,0,test_conc,NULL,PennController,22,_Header_,Start,1730481534733,undefined,1081,reach,concrete-positive,abstract,concrete,A,NULL
1730481915,32d253b7338b30f6325183356146cccc,PennController,11,0,test_conc,NULL,PennController,22,_Header_,End,1730481534986,undefined,1081,reach,concrete-positive,abstract,concrete,A,NULL
1730481915,32d253b7338b30f6325183356146cccc,PennController,11,0,test_conc,NULL,Selector,unnamed-Selector,Selection,concrete,1730481536571,undefined,1081,reach,concrete-positive,abstract,concrete,A,abstract;concrete
1730481915,32d253b7338b30f6325183356146cccc,PennController,11,0,test_conc,NULL,PennController,22,_Trial_,End,1730481536572,undefined,1081,reach,concrete-positive,abstract,concrete,A,NULL
1730481915,32d253b7338b30f6325183356146cccc,PennController,42,0,test_conc,NULL,PennController,53,_Trial_,Start,1730481536572,undefined,1114,molest,abstract-negative,abstract,concrete,A,NULL
1730481915,32d253b7338b30f6325183356146cccc,PennController,42,0,test_conc,NULL,PennController,53,_Header_,Start,1730481536572,undefined,1114,molest,abstract-negative,abstract,concrete,A,NULL
1730481915,32d253b7338b30f6325183356146cccc,PennController,42,0,test_conc,NULL,PennController,53,_Header_,End,1730481536826,undefined,1114,molest,abstract-negative,abstract,concrete,A,NULL
1730481915,32d253b7338b30f6325183356146cccc,PennController,42,0,test_conc,NULL,Selector,unnamed-Selector,Selection,concrete,1730481538443,undefined,1114,molest,abstract-negative,abstract,concrete,A,abstract;concrete
1730481915,32d253b7338b30f6325183356146cccc,PennController,42,0,test_conc,NULL,PennController,53,_Trial_,End,1730481538444,undefined,1114,molest,abstract-negative,abstract,concrete,A,NULL
1730481915,32d253b7338b30f6325183356146cccc,PennController,34,0,test_conc,NULL,PennController,45,_Trial_,Start,1730481538445,undefined,709,hate,abstract-negative,abstract,concrete,A,NULL
1730481915,32d253b7338b30f6325183356146cccc,PennController,34,0,test_conc,NULL,PennController,45,_Header_,Start,1730481538445,undefined,709,hate,abstract-negative,abstract,concrete,A,NULL
1730481915,32d253b7338b30f6325183356146cccc,PennController,34,0,test_conc,NULL,PennController,45,_Header_,End,1730481538697,undefined,709,hate,abstract-negative,abstract,concrete,A,NULL
