#
# Results on Thu, 07 Nov 2024 13:27:13 GMT
# USER AGENT: Mozilla/5.0 (Windows NT 10.0; Win64; x64) AppleWebKit/537.36 (KHTML, like Gecko) Chrome/130.0.0.0 Safari/537.36
# Design number was non-random = 0
#
# Columns below this comment are as follows:
# 1. Results reception time.
# 2. MD5 hash of participant's IP address.
# 3. Controller name.
# 4. Order number of item.
# 5. Inner element number.
# 6. Label.
# 7. Latin Square Group.
# 8. PennElementType.
# 9. PennElementName.
# 10. Parameter.
# 11. Value.
# 12. EventTime.
# 13. Comments.
1730986033,bc3a5837a5c5b6488e9c1db35d453700,PennController,1,0,welcome,NULL,PennController,0,_Trial_,Start,1730985327900,NULL
1730986033,bc3a5837a5c5b6488e9c1db35d453700,PennController,1,0,welcome,NULL,PennController,0,_Header_,Start,1730985327900,NULL
1730986033,bc3a5837a5c5b6488e9c1db35d453700,PennController,1,0,welcome,NULL,PennController,0,_Header_,End,1730985328155,NULL
1730986033,bc3a5837a5c5b6488e9c1db35d453700,PennController,1,0,welcome,NULL,PennController,0,_Trial_,End,1730985336607,NULL
# 13. ID.
# 14. Comments.
1730986033,bc3a5837a5c5b6488e9c1db35d453700,PennController,124,0,consent,NULL,PennController,2,_Trial_,Start,1730985336617,6157b6f47949b07006a288d1,NULL
1730986033,bc3a5837a5c5b6488e9c1db35d453700,PennController,124,0,consent,NULL,PennController,2,_Header_,Start,1730985336617,6157b6f47949b07006a288d1,NULL
1730986033,bc3a5837a5c5b6488e9c1db35d453700,PennController,124,0,consent,NULL,PennController,2,_Header_,End,1730985336871,6157b6f47949b07006a288d1,NULL
1730986033,bc3a5837a5c5b6488e9c1db35d453700,PennController,124,0,consent,NULL,TextInput,ID,First,,1730985352729,6157b6f47949b07006a288d1,Control
1730986033,bc3a5837a5c5b6488e9c1db35d453700,PennController,124,0,consent,NULL,TextInput,ID,Final,6157b6f47949b07006a288d1,1730985356015,6157b6f47949b07006a288d1,NULL
1730986033,bc3a5837a5c5b6488e9c1db35d453700,PennController,124,0,consent,NULL,PennController,2,_Trial_,End,1730985356016,6157b6f47949b07006a288d1,NULL
# 13. Comments.
1730986033,bc3a5837a5c5b6488e9c1db35d453700,PennController,126,0,instructions1_val,NULL,PennController,4,_Trial_,Start,1730985356022,NULL
1730986033,bc3a5837a5c5b6488e9c1db35d453700,PennController,126,0,instructions1_val,NULL,PennController,4,_Header_,Start,1730985356022,NULL
1730986033,bc3a5837a5c5b6488e9c1db35d453700,PennController,126,0,instructions1_val,NULL,PennController,4,_Header_,End,1730985356274,NULL
1730986033,bc3a5837a5c5b6488e9c1db35d453700,PennController,126,0,instructions1_val,NULL,PennController,4,_Trial_,End,1730985385471,NULL
1730986033,bc3a5837a5c5b6488e9c1db35d453700,PennController,127,0,instructions2_val,NULL,PennController,5,_Trial_,Start,1730985385473,NULL
1730986033,bc3a5837a5c5b6488e9c1db35d453700,PennController,127,0,instructions2_val,NULL,PennController,5,_Header_,Start,1730985385473,NULL
1730986033,bc3a5837a5c5b6488e9c1db35d453700,PennController,127,0,instructions2_val,NULL,PennController,5,_Header_,End,1730985385723,NULL
1730986033,bc3a5837a5c5b6488e9c1db35d453700,PennController,127,0,instructions2_val,NULL,PennController,5,_Trial_,End,1730985394617,NULL
1730986033,bc3a5837a5c5b6488e9c1db35d453700,PennController,128,0,instructions3_hands,NULL,PennController,6,_Trial_,Start,1730985394620,NULL
1730986033,bc3a5837a5c5b6488e9c1db35d453700,PennController,128,0,instructions3_hands,NULL,PennController,6,_Header_,Start,1730985394621,NULL
1730986033,bc3a5837a5c5b6488e9c1db35d453700,PennController,128,0,instructions3_hands,NULL,PennController,6,_Header_,End,1730985394875,NULL
1730986033,bc3a5837a5c5b6488e9c1db35d453700,PennController,128,0,instructions3_hands,NULL,PennController,6,_Trial_,End,1730985402346,NULL
1730986033,bc3a5837a5c5b6488e9c1db35d453700,PennController,129,0,practice_intro_val,NULL,PennController,7,_Trial_,Start,1730985402349,NULL
1730986033,bc3a5837a5c5b6488e9c1db35d453700,PennController,129,0,practice_intro_val,NULL,PennController,7,_Header_,Start,1730985402349,NULL
1730986033,bc3a5837a5c5b6488e9c1db35d453700,PennController,129,0,practice_intro_val,NULL,PennController,7,_Header_,End,1730985402600,NULL
1730986033,bc3a5837a5c5b6488e9c1db35d453700,PennController,129,0,practice_intro_val,NULL,PennController,7,_Trial_,End,1730985410735,NULL
# 13. ID.
# 14. ReactionTime.
# 15. Word.
# 16. selectedKey.
# 17. selectedValue.
# 18. Key_value_F.
# 19. Key_value_J.
# 20. Group.
# 21. Comments.
1730986033,bc3a5837a5c5b6488e9c1db35d453700,PennController,108,0,calibrator_val_feedback,NULL,PennController,119,_Trial_,Start,1730985410739,undefined,2697,industry,undefined,positive,negative,positive,A,NULL
1730986033,bc3a5837a5c5b6488e9c1db35d453700,PennController,108,0,calibrator_val_feedback,NULL,PennController,119,_Header_,Start,1730985410739,undefined,2697,industry,undefined,positive,negative,positive,A,NULL
1730986033,bc3a5837a5c5b6488e9c1db35d453700,PennController,108,0,calibrator_val_feedback,NULL,PennController,119,_Header_,End,1730985410990,undefined,2697,industry,undefined,positive,negative,positive,A,NULL
1730986033,bc3a5837a5c5b6488e9c1db35d453700,PennController,108,0,calibrator_val_feedback,NULL,Selector,Selection,Selection,positive,1730985415734,undefined,2697,industry,undefined,positive,negative,positive,A,negative;positive
1730986033,bc3a5837a5c5b6488e9c1db35d453700,PennController,108,0,calibrator_val_feedback,NULL,PennController,119,_Trial_,End,1730985416205,undefined,2697,industry,undefined,positive,negative,positive,A,NULL
1730986033,bc3a5837a5c5b6488e9c1db35d453700,PennController,106,0,calibrator_val_feedback,NULL,PennController,117,_Trial_,Start,1730985416209,undefined,1327,hat,undefined,positive,negative,positive,A,NULL
1730986033,bc3a5837a5c5b6488e9c1db35d453700,PennController,106,0,calibrator_val_feedback,NULL,PennController,117,_Header_,Start,1730985416209,undefined,1327,hat,undefined,positive,negative,positive,A,NULL
1730986033,bc3a5837a5c5b6488e9c1db35d453700,PennController,106,0,calibrator_val_feedback,NULL,PennController,117,_Header_,End,1730985416463,undefined,1327,hat,undefined,positive,negative,positive,A,NULL
1730986033,bc3a5837a5c5b6488e9c1db35d453700,PennController,106,0,calibrator_val_feedback,NULL,Selector,Selection,Selection,positive,1730985419529,undefined,1327,hat,undefined,positive,negative,positive,A,negative;positive
1730986033,bc3a5837a5c5b6488e9c1db35d453700,PennController,106,0,calibrator_val_feedback,NULL,PennController,117,_Trial_,End,1730985420309,undefined,1327,hat,undefined,positive,negative,positive,A,NULL
1730986033,bc3a5837a5c5b6488e9c1db35d453700,PennController,109,0,calibrator_val_feedback,NULL,PennController,120,_Trial_,Start,1730985420313,undefined,1157,insecure,undefined,positive,negative,positive,A,NULL
1730986033,bc3a5837a5c5b6488e9c1db35d453700,PennController,109,0,calibrator_val_feedback,NULL,PennController,120,_Header_,Start,1730985420313,undefined,1157,insecure,undefined,positive,negative,positive,A,NULL
1730986033,bc3a5837a5c5b6488e9c1db35d453700,PennController,109,0,calibrator_val_feedback,NULL,PennController,120,_Header_,End,1730985420566,undefined,1157,insecure,undefined,positive,negative,positive,A,NULL
1730986033,bc3a5837a5c5b6488e9c1db35d453700,PennController,109,0,calibrator_val_feedback,NULL,Selector,Selection,Selection,negative,1730985423113,undefined,1157,insecure,undefined,positive,negative,positive,A,negative;positive
1730986033,bc3a5837a5c5b6488e9c1db35d453700,PennController,109,0,calibrator_val_feedback,NULL,PennController,120,_Trial_,End,1730985424238,undefined,1157,insecure,undefined,positive,negative,positive,A,NULL
1730986033,bc3a5837a5c5b6488e9c1db35d453700,PennController,113,0,calibrator_val_feedback,NULL,PennController,124,_Trial_,Start,1730985424240,undefined,1119,kitten,undefined,positive,negative,positive,A,NULL
1730986033,bc3a5837a5c5b6488e9c1db35d453700,PennController,113,0,calibrator_val_feedback,NULL,PennController,124,_Header_,Start,1730985424240,undefined,1119,kitten,undefined,positive,negative,positive,A,NULL
1730986033,bc3a5837a5c5b6488e9c1db35d453700,PennController,113,0,calibrator_val_feedback,NULL,PennController,124,_Header_,End,1730985424492,undefined,1119,kitten,undefined,positive,negative,positive,A,NULL
1730986033,bc3a5837a5c5b6488e9c1db35d453700,PennController,113,0,calibrator_val_feedback,NULL,Selector,Selection,Selection,positive,1730985427678,undefined,1119,kitten,undefined,positive,negative,positive,A,negative;positive
1730986033,bc3a5837a5c5b6488e9c1db35d453700,PennController,113,0,calibrator_val_feedback,NULL,PennController,124,_Trial_,End,1730985428124,undefined,1119,kitten,undefined,positive,negative,positive,A,NULL
1730986033,bc3a5837a5c5b6488e9c1db35d453700,PennController,110,0,calibrator_val_feedback,NULL,PennController,121,_Trial_,Start,1730985428129,undefined,1194,invader,undefined,positive,negative,positive,A,NULL
1730986033,bc3a5837a5c5b6488e9c1db35d453700,PennController,110,0,calibrator_val_feedback,NULL,PennController,121,_Header_,Start,1730985428129,undefined,1194,invader,undefined,positive,negative,positive,A,NULL
1730986033,bc3a5837a5c5b6488e9c1db35d453700,PennController,110,0,calibrator_val_feedback,NULL,PennController,121,_Header_,End,1730985428384,undefined,1194,invader,undefined,positive,negative,positive,A,NULL
1730986033,bc3a5837a5c5b6488e9c1db35d453700,PennController,110,0,calibrator_val_feedback,NULL,Selector,Selection,Selection,negative,1730985431142,undefined,1194,invader,undefined,positive,negative,positive,A,negative;positive
1730986033,bc3a5837a5c5b6488e9c1db35d453700,PennController,110,0,calibrator_val_feedback,NULL,PennController,121,_Trial_,End,1730985432092,undefined,1194,invader,undefined,positive,negative,positive,A,NULL
1730986033,bc3a5837a5c5b6488e9c1db35d453700,PennController,107,0,calibrator_val_feedback,NULL,PennController,118,_Trial_,Start,1730985432096,undefined,2709,icebox,undefined,positive,negative,positive,A,NULL
1730986033,bc3a5837a5c5b6488e9c1db35d453700,PennController,107,0,calibrator_val_feedback,NULL,PennController,118,_Header_,Start,1730985432096,undefined,2709,icebox,undefined,positive,negative,positive,A,NULL
1730986033,bc3a5837a5c5b6488e9c1db35d453700,PennController,107,0,calibrator_val_feedback,NULL,PennController,118,_Header_,End,1730985432348,undefined,2709,icebox,undefined,positive,negative,positive,A,NULL
1730986033,bc3a5837a5c5b6488e9c1db35d453700,PennController,107,0,calibrator_val_feedback,NULL,Selector,Selection,Selection,positive,1730985437529,undefined,2709,icebox,undefined,positive,negative,positive,A,negative;positive
1730986033,bc3a5837a5c5b6488e9c1db35d453700,PennController,107,0,calibrator_val_feedback,NULL,PennController,118,_Trial_,End,1730985437572,undefined,2709,icebox,undefined,positive,negative,positive,A,NULL
1730986033,bc3a5837a5c5b6488e9c1db35d453700,PennController,104,0,calibrator_val_feedback,NULL,PennController,115,_Trial_,Start,1730985437576,undefined,1826,free,undefined,positive,negative,positive,A,NULL
1730986033,bc3a5837a5c5b6488e9c1db35d453700,PennController,104,0,calibrator_val_feedback,NULL,PennController,115,_Header_,Start,1730985437576,undefined,1826,free,undefined,positive,negative,positive,A,NULL
1730986033,bc3a5837a5c5b6488e9c1db35d453700,PennController,104,0,calibrator_val_feedback,NULL,PennController,115,_Header_,End,1730985437828,undefined,1826,free,undefined,positive,negative,positive,A,NULL
1730986033,bc3a5837a5c5b6488e9c1db35d453700,PennController,104,0,calibrator_val_feedback,NULL,Selector,Selection,Selection,positive,1730985440822,undefined,1826,free,undefined,positive,negative,positive,A,negative;positive
1730986033,bc3a5837a5c5b6488e9c1db35d453700,PennController,104,0,calibrator_val_feedback,NULL,PennController,115,_Trial_,End,1730985442165,undefined,1826,free,undefined,positive,negative,positive,A,NULL
1730986033,bc3a5837a5c5b6488e9c1db35d453700,PennController,112,0,calibrator_val_feedback,NULL,PennController,123,_Trial_,Start,1730985442169,undefined,1851,joke,undefined,positive,negative,positive,A,NULL
1730986033,bc3a5837a5c5b6488e9c1db35d453700,PennController,112,0,calibrator_val_feedback,NULL,PennController,123,_Header_,Start,1730985442169,undefined,1851,joke,undefined,positive,negative,positive,A,NULL
1730986033,bc3a5837a5c5b6488e9c1db35d453700,PennController,112,0,calibrator_val_feedback,NULL,PennController,123,_Header_,End,1730985442421,undefined,1851,joke,undefined,positive,negative,positive,A,NULL
1730986033,bc3a5837a5c5b6488e9c1db35d453700,PennController,112,0,calibrator_val_feedback,NULL,Selector,Selection,Selection,positive,1730985445492,undefined,1851,joke,undefined,positive,negative,positive,A,negative;positive
1730986033,bc3a5837a5c5b6488e9c1db35d453700,PennController,112,0,calibrator_val_feedback,NULL,PennController,123,_Trial_,End,1730985446788,undefined,1851,joke,undefined,positive,negative,positive,A,NULL
1730986033,bc3a5837a5c5b6488e9c1db35d453700,PennController,111,0,calibrator_val_feedback,NULL,PennController,122,_Trial_,Start,1730985446791,undefined,1584,jail,undefined,positive,negative,positive,A,NULL
1730986033,bc3a5837a5c5b6488e9c1db35d453700,PennController,111,0,calibrator_val_feedback,NULL,PennController,122,_Header_,Start,1730985446791,undefined,1584,jail,undefined,positive,negative,positive,A,NULL
1730986033,bc3a5837a5c5b6488e9c1db35d453700,PennController,111,0,calibrator_val_feedback,NULL,PennController,122,_Header_,End,1730985447046,undefined,1584,jail,undefined,positive,negative,positive,A,NULL
1730986033,bc3a5837a5c5b6488e9c1db35d453700,PennController,111,0,calibrator_val_feedback,NULL,Selector,Selection,Selection,negative,1730985449614,undefined,1584,jail,undefined,positive,negative,positive,A,negative;positive
1730986033,bc3a5837a5c5b6488e9c1db35d453700,PennController,111,0,calibrator_val_feedback,NULL,PennController,122,_Trial_,End,1730985451144,undefined,1584,jail,undefined,positive,negative,positive,A,NULL
1730986033,bc3a5837a5c5b6488e9c1db35d453700,PennController,105,0,calibrator_val_feedback,NULL,PennController,116,_Trial_,Start,1730985451147,undefined,1410,grin,undefined,positive,negative,positive,A,NULL
1730986033,bc3a5837a5c5b6488e9c1db35d453700,PennController,105,0,calibrator_val_feedback,NULL,PennController,116,_Header_,Start,1730985451147,undefined,1410,grin,undefined,positive,negative,positive,A,NULL
1730986033,bc3a5837a5c5b6488e9c1db35d453700,PennController,105,0,calibrator_val_feedback,NULL,PennController,116,_Header_,End,1730985451401,undefined,1410,grin,undefined,positive,negative,positive,A,NULL
1730986033,bc3a5837a5c5b6488e9c1db35d453700,PennController,105,0,calibrator_val_feedback,NULL,Selector,Selection,Selection,positive,1730985454811,undefined,1410,grin,undefined,positive,negative,positive,A,negative;positive
1730986033,bc3a5837a5c5b6488e9c1db35d453700,PennController,105,0,calibrator_val_feedback,NULL,PennController,116,_Trial_,End,1730985455325,undefined,1410,grin,undefined,positive,negative,positive,A,NULL
# 16. Key_value_F.
# 17. Key_value_J.
# 18. Group.
# 19. Comments.
1730986033,bc3a5837a5c5b6488e9c1db35d453700,PennController,123,0,calibrator_val_no_feedback,NULL,PennController,134,_Trial_,Start,1730985455328,undefined,1430,kitten,negative,positive,A,NULL
1730986033,bc3a5837a5c5b6488e9c1db35d453700,PennController,123,0,calibrator_val_no_feedback,NULL,PennController,134,_Header_,Start,1730985455328,undefined,1430,kitten,negative,positive,A,NULL
1730986033,bc3a5837a5c5b6488e9c1db35d453700,PennController,123,0,calibrator_val_no_feedback,NULL,PennController,134,_Header_,End,1730985455581,undefined,1430,kitten,negative,positive,A,NULL
1730986033,bc3a5837a5c5b6488e9c1db35d453700,PennController,123,0,calibrator_val_no_feedback,NULL,Selector,unnamed-Selector,Selection,positive,1730985457517,undefined,1430,kitten,negative,positive,A,negative;positive
1730986033,bc3a5837a5c5b6488e9c1db35d453700,PennController,123,0,calibrator_val_no_feedback,NULL,PennController,134,_Trial_,End,1730985457521,undefined,1430,kitten,negative,positive,A,NULL
1730986033,bc3a5837a5c5b6488e9c1db35d453700,PennController,122,0,calibrator_val_no_feedback,NULL,PennController,133,_Trial_,Start,1730985457525,undefined,823,joke,negative,positive,A,NULL
1730986033,bc3a5837a5c5b6488e9c1db35d453700,PennController,122,0,calibrator_val_no_feedback,NULL,PennController,133,_Header_,Start,1730985457525,undefined,823,joke,negative,positive,A,NULL
1730986033,bc3a5837a5c5b6488e9c1db35d453700,PennController,122,0,calibrator_val_no_feedback,NULL,PennController,133,_Header_,End,1730985457776,undefined,823,joke,negative,positive,A,NULL
1730986033,bc3a5837a5c5b6488e9c1db35d453700,PennController,122,0,calibrator_val_no_feedback,NULL,Selector,unnamed-Selector,Selection,positive,1730985459106,undefined,823,joke,negative,positive,A,negative;positive
1730986033,bc3a5837a5c5b6488e9c1db35d453700,PennController,122,0,calibrator_val_no_feedback,NULL,PennController,133,_Trial_,End,1730985459107,undefined,823,joke,negative,positive,A,NULL
1730986033,bc3a5837a5c5b6488e9c1db35d453700,PennController,120,0,calibrator_val_no_feedback,NULL,PennController,131,_Trial_,Start,1730985459108,undefined,1090,invader,negative,positive,A,NULL
1730986033,bc3a5837a5c5b6488e9c1db35d453700,PennController,120,0,calibrator_val_no_feedback,NULL,PennController,131,_Header_,Start,1730985459108,undefined,1090,invader,negative,positive,A,NULL
1730986033,bc3a5837a5c5b6488e9c1db35d453700,PennController,120,0,calibrator_val_no_feedback,NULL,PennController,131,_Header_,End,1730985459362,undefined,1090,invader,negative,positive,A,NULL
1730986033,bc3a5837a5c5b6488e9c1db35d453700,PennController,120,0,calibrator_val_no_feedback,NULL,Selector,unnamed-Selector,Selection,negative,1730985460956,undefined,1090,invader,negative,positive,A,negative;positive
1730986033,bc3a5837a5c5b6488e9c1db35d453700,PennController,120,0,calibrator_val_no_feedback,NULL,PennController,131,_Trial_,End,1730985460957,undefined,1090,invader,negative,positive,A,NULL
1730986033,bc3a5837a5c5b6488e9c1db35d453700,PennController,119,0,calibrator_val_no_feedback,NULL,PennController,130,_Trial_,Start,1730985460958,undefined,1080,insecure,negative,positive,A,NULL
1730986033,bc3a5837a5c5b6488e9c1db35d453700,PennController,119,0,calibrator_val_no_feedback,NULL,PennController,130,_Header_,Start,1730985460958,undefined,1080,insecure,negative,positive,A,NULL
1730986033,bc3a5837a5c5b6488e9c1db35d453700,PennController,119,0,calibrator_val_no_feedback,NULL,PennController,130,_Header_,End,1730985461211,undefined,1080,insecure,negative,positive,A,NULL
1730986033,bc3a5837a5c5b6488e9c1db35d453700,PennController,119,0,calibrator_val_no_feedback,NULL,Selector,unnamed-Selector,Selection,negative,1730985462797,undefined,1080,insecure,negative,positive,A,negative;positive
1730986033,bc3a5837a5c5b6488e9c1db35d453700,PennController,119,0,calibrator_val_no_feedback,NULL,PennController,130,_Trial_,End,1730985462800,undefined,1080,insecure,negative,positive,A,NULL
1730986033,bc3a5837a5c5b6488e9c1db35d453700,PennController,117,0,calibrator_val_no_feedback,NULL,PennController,128,_Trial_,Start,1730985462804,undefined,1308,icebox,negative,positive,A,NULL
1730986033,bc3a5837a5c5b6488e9c1db35d453700,PennController,117,0,calibrator_val_no_feedback,NULL,PennController,128,_Header_,Start,1730985462804,undefined,1308,icebox,negative,positive,A,NULL
1730986033,bc3a5837a5c5b6488e9c1db35d453700,PennController,117,0,calibrator_val_no_feedback,NULL,PennController,128,_Header_,End,1730985463058,undefined,1308,icebox,negative,positive,A,NULL
1730986033,bc3a5837a5c5b6488e9c1db35d453700,PennController,117,0,calibrator_val_no_feedback,NULL,Selector,unnamed-Selector,Selection,positive,1730985464871,undefined,1308,icebox,negative,positive,A,negative;positive
1730986033,bc3a5837a5c5b6488e9c1db35d453700,PennController,117,0,calibrator_val_no_feedback,NULL,PennController,128,_Trial_,End,1730985464875,undefined,1308,icebox,negative,positive,A,NULL
1730986033,bc3a5837a5c5b6488e9c1db35d453700,PennController,115,0,calibrator_val_no_feedback,NULL,PennController,126,_Trial_,Start,1730985464879,undefined,1176,grin,negative,positive,A,NULL
1730986033,bc3a5837a5c5b6488e9c1db35d453700,PennController,115,0,calibrator_val_no_feedback,NULL,PennController,126,_Header_,Start,1730985464879,undefined,1176,grin,negative,positive,A,NULL
1730986033,bc3a5837a5c5b6488e9c1db35d453700,PennController,115,0,calibrator_val_no_feedback,NULL,PennController,126,_Header_,End,1730985465133,undefined,1176,grin,negative,positive,A,NULL
1730986033,bc3a5837a5c5b6488e9c1db35d453700,PennController,115,0,calibrator_val_no_feedback,NULL,Selector,unnamed-Selector,Selection,positive,1730985466815,undefined,1176,grin,negative,positive,A,negative;positive
1730986033,bc3a5837a5c5b6488e9c1db35d453700,PennController,115,0,calibrator_val_no_feedback,NULL,PennController,126,_Trial_,End,1730985466820,undefined,1176,grin,negative,positive,A,NULL
1730986033,bc3a5837a5c5b6488e9c1db35d453700,PennController,114,0,calibrator_val_no_feedback,NULL,PennController,125,_Trial_,Start,1730985466825,undefined,1191,free,negative,positive,A,NULL
1730986033,bc3a5837a5c5b6488e9c1db35d453700,PennController,114,0,calibrator_val_no_feedback,NULL,PennController,125,_Header_,Start,1730985466825,undefined,1191,free,negative,positive,A,NULL
1730986033,bc3a5837a5c5b6488e9c1db35d453700,PennController,114,0,calibrator_val_no_feedback,NULL,PennController,125,_Header_,End,1730985467080,undefined,1191,free,negative,positive,A,NULL
1730986033,bc3a5837a5c5b6488e9c1db35d453700,PennController,114,0,calibrator_val_no_feedback,NULL,Selector,unnamed-Selector,Selection,positive,1730985468775,undefined,1191,free,negative,positive,A,negative;positive
1730986033,bc3a5837a5c5b6488e9c1db35d453700,PennController,114,0,calibrator_val_no_feedback,NULL,PennController,125,_Trial_,End,1730985468779,undefined,1191,free,negative,positive,A,NULL
1730986033,bc3a5837a5c5b6488e9c1db35d453700,PennController,121,0,calibrator_val_no_feedback,NULL,PennController,132,_Trial_,Start,1730985468782,undefined,1258,jail,negative,positive,A,NULL
1730986033,bc3a5837a5c5b6488e9c1db35d453700,PennController,121,0,calibrator_val_no_feedback,NULL,PennController,132,_Header_,Start,1730985468782,undefined,1258,jail,negative,positive,A,NULL
1730986033,bc3a5837a5c5b6488e9c1db35d453700,PennController,121,0,calibrator_val_no_feedback,NULL,PennController,132,_Header_,End,1730985469033,undefined,1258,jail,negative,positive,A,NULL
1730986033,bc3a5837a5c5b6488e9c1db35d453700,PennController,121,0,calibrator_val_no_feedback,NULL,Selector,unnamed-Selector,Selection,negative,1730985470796,undefined,1258,jail,negative,positive,A,negative;positive
1730986033,bc3a5837a5c5b6488e9c1db35d453700,PennController,121,0,calibrator_val_no_feedback,NULL,PennController,132,_Trial_,End,1730985470800,undefined,1258,jail,negative,positive,A,NULL
1730986033,bc3a5837a5c5b6488e9c1db35d453700,PennController,118,0,calibrator_val_no_feedback,NULL,PennController,129,_Trial_,Start,1730985470803,undefined,1356,industry,negative,positive,A,NULL
1730986033,bc3a5837a5c5b6488e9c1db35d453700,PennController,118,0,calibrator_val_no_feedback,NULL,PennController,129,_Header_,Start,1730985470803,undefined,1356,industry,negative,positive,A,NULL
1730986033,bc3a5837a5c5b6488e9c1db35d453700,PennController,118,0,calibrator_val_no_feedback,NULL,PennController,129,_Header_,End,1730985471054,undefined,1356,industry,negative,positive,A,NULL
1730986033,bc3a5837a5c5b6488e9c1db35d453700,PennController,118,0,calibrator_val_no_feedback,NULL,Selector,unnamed-Selector,Selection,positive,1730985472916,undefined,1356,industry,negative,positive,A,negative;positive
1730986033,bc3a5837a5c5b6488e9c1db35d453700,PennController,118,0,calibrator_val_no_feedback,NULL,PennController,129,_Trial_,End,1730985472921,undefined,1356,industry,negative,positive,A,NULL
1730986033,bc3a5837a5c5b6488e9c1db35d453700,PennController,116,0,calibrator_val_no_feedback,NULL,PennController,127,_Trial_,Start,1730985472924,undefined,1167,hat,negative,positive,A,NULL
1730986033,bc3a5837a5c5b6488e9c1db35d453700,PennController,116,0,calibrator_val_no_feedback,NULL,PennController,127,_Header_,Start,1730985472924,undefined,1167,hat,negative,positive,A,NULL
1730986033,bc3a5837a5c5b6488e9c1db35d453700,PennController,116,0,calibrator_val_no_feedback,NULL,PennController,127,_Header_,End,1730985473176,undefined,1167,hat,negative,positive,A,NULL
1730986033,bc3a5837a5c5b6488e9c1db35d453700,PennController,116,0,calibrator_val_no_feedback,NULL,Selector,unnamed-Selector,Selection,positive,1730985474850,undefined,1167,hat,negative,positive,A,negative;positive
1730986033,bc3a5837a5c5b6488e9c1db35d453700,PennController,116,0,calibrator_val_no_feedback,NULL,PennController,127,_Trial_,End,1730985474855,undefined,1167,hat,negative,positive,A,NULL
# 13. Comments.
1730986033,bc3a5837a5c5b6488e9c1db35d453700,PennController,130,0,endinstructions_val,NULL,PennController,8,_Trial_,Start,1730985474859,NULL
1730986033,bc3a5837a5c5b6488e9c1db35d453700,PennController,130,0,endinstructions_val,NULL,PennController,8,_Header_,Start,1730985474859,NULL
1730986033,bc3a5837a5c5b6488e9c1db35d453700,PennController,130,0,endinstructions_val,NULL,PennController,8,_Header_,End,1730985475110,NULL
1730986033,bc3a5837a5c5b6488e9c1db35d453700,PennController,130,0,endinstructions_val,NULL,PennController,8,_Trial_,End,1730985481852,NULL
# 13. ID.
# 14. ReactionTime.
# 15. Word.
# 16. ConcValCombo.
# 17. Key_value_F.
# 18. Key_value_J.
# 19. Group.
# 20. Comments.
1730986033,bc3a5837a5c5b6488e9c1db35d453700,PennController,48,0,test_val,NULL,PennController,59,_Trial_,Start,1730985481855,undefined,1470,repair,concrete-positive,negative,positive,A,NULL
1730986033,bc3a5837a5c5b6488e9c1db35d453700,PennController,48,0,test_val,NULL,PennController,59,_Header_,Start,1730985481855,undefined,1470,repair,concrete-positive,negative,positive,A,NULL
1730986033,bc3a5837a5c5b6488e9c1db35d453700,PennController,48,0,test_val,NULL,PennController,59,_Header_,End,1730985482107,undefined,1470,repair,concrete-positive,negative,positive,A,NULL
1730986033,bc3a5837a5c5b6488e9c1db35d453700,PennController,48,0,test_val,NULL,Selector,unnamed-Selector,Selection,positive,1730985484083,undefined,1470,repair,concrete-positive,negative,positive,A,negative;positive
1730986033,bc3a5837a5c5b6488e9c1db35d453700,PennController,48,0,test_val,NULL,PennController,59,_Trial_,End,1730985484087,undefined,1470,repair,concrete-positive,negative,positive,A,NULL
1730986033,bc3a5837a5c5b6488e9c1db35d453700,PennController,67,0,test_val,NULL,PennController,78,_Trial_,Start,1730985484092,undefined,1028,enjoy,abstract-positive,negative,positive,A,NULL
1730986033,bc3a5837a5c5b6488e9c1db35d453700,PennController,67,0,test_val,NULL,PennController,78,_Header_,Start,1730985484092,undefined,1028,enjoy,abstract-positive,negative,positive,A,NULL
1730986033,bc3a5837a5c5b6488e9c1db35d453700,PennController,67,0,test_val,NULL,PennController,78,_Header_,End,1730985484342,undefined,1028,enjoy,abstract-positive,negative,positive,A,NULL
1730986033,bc3a5837a5c5b6488e9c1db35d453700,PennController,67,0,test_val,NULL,Selector,unnamed-Selector,Selection,positive,1730985485873,undefined,1028,enjoy,abstract-positive,negative,positive,A,negative;positive
1730986033,bc3a5837a5c5b6488e9c1db35d453700,PennController,67,0,test_val,NULL,PennController,78,_Trial_,End,1730985485877,undefined,1028,enjoy,abstract-positive,negative,positive,A,NULL
1730986033,bc3a5837a5c5b6488e9c1db35d453700,PennController,63,0,test_val,NULL,PennController,74,_Trial_,Start,1730985485881,undefined,1121,infect,concrete-negative,negative,positive,A,NULL
1730986033,bc3a5837a5c5b6488e9c1db35d453700,PennController,63,0,test_val,NULL,PennController,74,_Header_,Start,1730985485881,undefined,1121,infect,concrete-negative,negative,positive,A,NULL
1730986033,bc3a5837a5c5b6488e9c1db35d453700,PennController,63,0,test_val,NULL,PennController,74,_Header_,End,1730985486135,undefined,1121,infect,concrete-negative,negative,positive,A,NULL
1730986033,bc3a5837a5c5b6488e9c1db35d453700,PennController,63,0,test_val,NULL,Selector,unnamed-Selector,Selection,negative,1730985487762,undefined,1121,infect,concrete-negative,negative,positive,A,negative;positive
1730986033,bc3a5837a5c5b6488e9c1db35d453700,PennController,63,0,test_val,NULL,PennController,74,_Trial_,End,1730985487763,undefined,1121,infect,concrete-negative,negative,positive,A,NULL
1730986033,bc3a5837a5c5b6488e9c1db35d453700,PennController,57,0,test_val,NULL,PennController,68,_Trial_,Start,1730985487764,undefined,1076,break,concrete-negative,negative,positive,A,NULL
1730986033,bc3a5837a5c5b6488e9c1db35d453700,PennController,57,0,test_val,NULL,PennController,68,_Header_,Start,1730985487764,undefined,1076,break,concrete-negative,negative,positive,A,NULL
1730986033,bc3a5837a5c5b6488e9c1db35d453700,PennController,57,0,test_val,NULL,PennController,68,_Header_,End,1730985488016,undefined,1076,break,concrete-negative,negative,positive,A,NULL
1730986033,bc3a5837a5c5b6488e9c1db35d453700,PennController,57,0,test_val,NULL,Selector,unnamed-Selector,Selection,negative,1730985489596,undefined,1076,break,concrete-negative,negative,positive,A,negative;positive
1730986033,bc3a5837a5c5b6488e9c1db35d453700,PennController,57,0,test_val,NULL,PennController,68,_Trial_,End,1730985489601,undefined,1076,break,concrete-negative,negative,positive,A,NULL
1730986033,bc3a5837a5c5b6488e9c1db35d453700,PennController,74,0,test_val,NULL,PennController,85,_Trial_,Start,1730985489604,undefined,986,criticize,abstract-negative,negative,positive,A,NULL
1730986033,bc3a5837a5c5b6488e9c1db35d453700,PennController,74,0,test_val,NULL,PennController,85,_Header_,Start,1730985489604,undefined,986,criticize,abstract-negative,negative,positive,A,NULL
1730986033,bc3a5837a5c5b6488e9c1db35d453700,PennController,74,0,test_val,NULL,PennController,85,_Header_,End,1730985489854,undefined,986,criticize,abstract-negative,negative,positive,A,NULL
1730986033,bc3a5837a5c5b6488e9c1db35d453700,PennController,74,0,test_val,NULL,Selector,unnamed-Selector,Selection,negative,1730985491346,undefined,986,criticize,abstract-negative,negative,positive,A,negative;positive
1730986033,bc3a5837a5c5b6488e9c1db35d453700,PennController,74,0,test_val,NULL,PennController,85,_Trial_,End,1730985491350,undefined,986,criticize,abstract-negative,negative,positive,A,NULL
1730986033,bc3a5837a5c5b6488e9c1db35d453700,PennController,73,0,test_val,NULL,PennController,84,_Trial_,Start,1730985491354,undefined,1120,esteem,abstract-positive,negative,positive,A,NULL
1730986033,bc3a5837a5c5b6488e9c1db35d453700,PennController,73,0,test_val,NULL,PennController,84,_Header_,Start,1730985491354,undefined,1120,esteem,abstract-positive,negative,positive,A,NULL
1730986033,bc3a5837a5c5b6488e9c1db35d453700,PennController,73,0,test_val,NULL,PennController,84,_Header_,End,1730985491606,undefined,1120,esteem,abstract-positive,negative,positive,A,NULL
1730986033,bc3a5837a5c5b6488e9c1db35d453700,PennController,73,0,test_val,NULL,Selector,unnamed-Selector,Selection,positive,1730985493231,undefined,1120,esteem,abstract-positive,negative,positive,A,negative;positive
1730986033,bc3a5837a5c5b6488e9c1db35d453700,PennController,73,0,test_val,NULL,PennController,84,_Trial_,End,1730985493235,undefined,1120,esteem,abstract-positive,negative,positive,A,NULL
1730986033,bc3a5837a5c5b6488e9c1db35d453700,PennController,77,0,test_val,NULL,PennController,88,_Trial_,Start,1730985493238,undefined,1126,loathe,abstract-negative,negative,positive,A,NULL
1730986033,bc3a5837a5c5b6488e9c1db35d453700,PennController,77,0,test_val,NULL,PennController,88,_Header_,Start,1730985493238,undefined,1126,loathe,abstract-negative,negative,positive,A,NULL
1730986033,bc3a5837a5c5b6488e9c1db35d453700,PennController,77,0,test_val,NULL,PennController,88,_Header_,End,1730985493490,undefined,1126,loathe,abstract-negative,negative,positive,A,NULL
1730986033,bc3a5837a5c5b6488e9c1db35d453700,PennController,77,0,test_val,NULL,Selector,unnamed-Selector,Selection,negative,1730985495124,undefined,1126,loathe,abstract-negative,negative,positive,A,negative;positive
1730986033,bc3a5837a5c5b6488e9c1db35d453700,PennController,77,0,test_val,NULL,PennController,88,_Trial_,End,1730985495125,undefined,1126,loathe,abstract-negative,negative,positive,A,NULL
1730986033,bc3a5837a5c5b6488e9c1db35d453700,PennController,76,0,test_val,NULL,PennController,87,_Trial_,Start,1730985495126,undefined,1220,dislike,abstract-negative,negative,positive,A,NULL
1730986033,bc3a5837a5c5b6488e9c1db35d453700,PennController,76,0,test_val,NULL,PennController,87,_Header_,Start,1730985495127,undefined,1220,dislike,abstract-negative,negative,positive,A,NULL
1730986033,bc3a5837a5c5b6488e9c1db35d453700,PennController,76,0,test_val,NULL,PennController,87,_Header_,End,1730985495377,undefined,1220,dislike,abstract-negative,negative,positive,A,NULL
1730986033,bc3a5837a5c5b6488e9c1db35d453700,PennController,76,0,test_val,NULL,Selector,unnamed-Selector,Selection,negative,1730985497105,undefined,1220,dislike,abstract-negative,negative,positive,A,negative;positive
1730986033,bc3a5837a5c5b6488e9c1db35d453700,PennController,76,0,test_val,NULL,PennController,87,_Trial_,End,1730985497109,undefined,1220,dislike,abstract-negative,negative,positive,A,NULL
1730986033,bc3a5837a5c5b6488e9c1db35d453700,PennController,56,0,test_val,NULL,PennController,67,_Trial_,Start,1730985497112,undefined,1035,slaughter,concrete-negative,negative,positive,A,NULL
1730986033,bc3a5837a5c5b6488e9c1db35d453700,PennController,56,0,test_val,NULL,PennController,67,_Header_,Start,1730985497112,undefined,1035,slaughter,concrete-negative,negative,positive,A,NULL
1730986033,bc3a5837a5c5b6488e9c1db35d453700,PennController,56,0,test_val,NULL,PennController,67,_Header_,End,1730985497363,undefined,1035,slaughter,concrete-negative,negative,positive,A,NULL
1730986033,bc3a5837a5c5b6488e9c1db35d453700,PennController,56,0,test_val,NULL,Selector,unnamed-Selector,Selection,negative,1730985498905,undefined,1035,slaughter,concrete-negative,negative,positive,A,negative;positive
1730986033,bc3a5837a5c5b6488e9c1db35d453700,PennController,56,0,test_val,NULL,PennController,67,_Trial_,End,1730985498909,undefined,1035,slaughter,concrete-negative,negative,positive,A,NULL
1730986033,bc3a5837a5c5b6488e9c1db35d453700,PennController,50,0,test_val,NULL,PennController,61,_Trial_,Start,1730985498912,undefined,1084,improve,concrete-positive,negative,positive,A,NULL
1730986033,bc3a5837a5c5b6488e9c1db35d453700,PennController,50,0,test_val,NULL,PennController,61,_Header_,Start,1730985498912,undefined,1084,improve,concrete-positive,negative,positive,A,NULL
1730986033,bc3a5837a5c5b6488e9c1db35d453700,PennController,50,0,test_val,NULL,PennController,61,_Header_,End,1730985499165,undefined,1084,improve,concrete-positive,negative,positive,A,NULL
1730986033,bc3a5837a5c5b6488e9c1db35d453700,PennController,50,0,test_val,NULL,Selector,unnamed-Selector,Selection,positive,1730985500754,undefined,1084,improve,concrete-positive,negative,positive,A,negative;positive
1730986033,bc3a5837a5c5b6488e9c1db35d453700,PennController,50,0,test_val,NULL,PennController,61,_Trial_,End,1730985500758,undefined,1084,improve,concrete-positive,negative,positive,A,NULL
1730986033,bc3a5837a5c5b6488e9c1db35d453700,PennController,54,0,test_val,NULL,PennController,65,_Trial_,Start,1730985500761,undefined,866,destroy,concrete-negative,negative,positive,A,NULL
1730986033,bc3a5837a5c5b6488e9c1db35d453700,PennController,54,0,test_val,NULL,PennController,65,_Header_,Start,1730985500761,undefined,866,destroy,concrete-negative,negative,positive,A,NULL
1730986033,bc3a5837a5c5b6488e9c1db35d453700,PennController,54,0,test_val,NULL,PennController,65,_Header_,End,1730985501013,undefined,866,destroy,concrete-negative,negative,positive,A,NULL
1730986033,bc3a5837a5c5b6488e9c1db35d453700,PennController,54,0,test_val,NULL,Selector,unnamed-Selector,Selection,negative,1730985502382,undefined,866,destroy,concrete-negative,negative,positive,A,negative;positive
1730986033,bc3a5837a5c5b6488e9c1db35d453700,PennController,54,0,test_val,NULL,PennController,65,_Trial_,End,1730985502387,undefined,866,destroy,concrete-negative,negative,positive,A,NULL
1730986033,bc3a5837a5c5b6488e9c1db35d453700,PennController,65,0,test_val,NULL,PennController,76,_Trial_,Start,1730985502390,undefined,984,encourage,abstract-positive,negative,positive,A,NULL
1730986033,bc3a5837a5c5b6488e9c1db35d453700,PennController,65,0,test_val,NULL,PennController,76,_Header_,Start,1730985502390,undefined,984,encourage,abstract-positive,negative,positive,A,NULL
1730986033,bc3a5837a5c5b6488e9c1db35d453700,PennController,65,0,test_val,NULL,PennController,76,_Header_,End,1730985502644,undefined,984,encourage,abstract-positive,negative,positive,A,NULL
1730986033,bc3a5837a5c5b6488e9c1db35d453700,PennController,65,0,test_val,NULL,Selector,unnamed-Selector,Selection,positive,1730985504133,undefined,984,encourage,abstract-positive,negative,positive,A,negative;positive
1730986033,bc3a5837a5c5b6488e9c1db35d453700,PennController,65,0,test_val,NULL,PennController,76,_Trial_,End,1730985504137,undefined,984,encourage,abstract-positive,negative,positive,A,NULL
1730986033,bc3a5837a5c5b6488e9c1db35d453700,PennController,70,0,test_val,NULL,PennController,81,_Trial_,Start,1730985504140,undefined,919,admire,abstract-positive,negative,positive,A,NULL
1730986033,bc3a5837a5c5b6488e9c1db35d453700,PennController,70,0,test_val,NULL,PennController,81,_Header_,Start,1730985504140,undefined,919,admire,abstract-positive,negative,positive,A,NULL
1730986033,bc3a5837a5c5b6488e9c1db35d453700,PennController,70,0,test_val,NULL,PennController,81,_Header_,End,1730985504393,undefined,919,admire,abstract-positive,negative,positive,A,NULL
1730986033,bc3a5837a5c5b6488e9c1db35d453700,PennController,70,0,test_val,NULL,Selector,unnamed-Selector,Selection,positive,1730985505816,undefined,919,admire,abstract-positive,negative,positive,A,negative;positive
1730986033,bc3a5837a5c5b6488e9c1db35d453700,PennController,70,0,test_val,NULL,PennController,81,_Trial_,End,1730985505820,undefined,919,admire,abstract-positive,negative,positive,A,NULL
1730986033,bc3a5837a5c5b6488e9c1db35d453700,PennController,47,0,test_val,NULL,PennController,58,_Trial_,Start,1730985505823,undefined,971,build,concrete-positive,negative,positive,A,NULL
1730986033,bc3a5837a5c5b6488e9c1db35d453700,PennController,47,0,test_val,NULL,PennController,58,_Header_,Start,1730985505823,undefined,971,build,concrete-positive,negative,positive,A,NULL
1730986033,bc3a5837a5c5b6488e9c1db35d453700,PennController,47,0,test_val,NULL,PennController,58,_Header_,End,1730985506078,undefined,971,build,concrete-positive,negative,positive,A,NULL
1730986033,bc3a5837a5c5b6488e9c1db35d453700,PennController,47,0,test_val,NULL,Selector,unnamed-Selector,Selection,positive,1730985507555,undefined,971,build,concrete-positive,negative,positive,A,negative;positive
1730986033,bc3a5837a5c5b6488e9c1db35d453700,PennController,47,0,test_val,NULL,PennController,58,_Trial_,End,1730985507559,undefined,971,build,concrete-positive,negative,positive,A,NULL
1730986033,bc3a5837a5c5b6488e9c1db35d453700,PennController,52,0,test_val,NULL,PennController,63,_Trial_,Start,1730985507562,undefined,765,heal,concrete-positive,negative,positive,A,NULL
1730986033,bc3a5837a5c5b6488e9c1db35d453700,PennController,52,0,test_val,NULL,PennController,63,_Header_,Start,1730985507562,undefined,765,heal,concrete-positive,negative,positive,A,NULL
1730986033,bc3a5837a5c5b6488e9c1db35d453700,PennController,52,0,test_val,NULL,PennController,63,_Header_,End,1730985507816,undefined,765,heal,concrete-positive,negative,positive,A,NULL
1730986033,bc3a5837a5c5b6488e9c1db35d453700,PennController,52,0,test_val,NULL,Selector,unnamed-Selector,Selection,positive,1730985509089,undefined,765,heal,concrete-positive,negative,positive,A,negative;positive
1730986033,bc3a5837a5c5b6488e9c1db35d453700,PennController,52,0,test_val,NULL,PennController,63,_Trial_,End,1730985509093,undefined,765,heal,concrete-positive,negative,positive,A,NULL
1730986033,bc3a5837a5c5b6488e9c1db35d453700,PennController,68,0,test_val,NULL,PennController,79,_Trial_,Start,1730985509096,undefined,687,respect,abstract-positive,negative,positive,A,NULL
1730986033,bc3a5837a5c5b6488e9c1db35d453700,PennController,68,0,test_val,NULL,PennController,79,_Header_,Start,1730985509096,undefined,687,respect,abstract-positive,negative,positive,A,NULL
1730986033,bc3a5837a5c5b6488e9c1db35d453700,PennController,68,0,test_val,NULL,PennController,79,_Header_,End,1730985509347,undefined,687,respect,abstract-positive,negative,positive,A,NULL
1730986033,bc3a5837a5c5b6488e9c1db35d453700,PennController,68,0,test_val,NULL,Selector,unnamed-Selector,Selection,positive,1730985510541,undefined,687,respect,abstract-positive,negative,positive,A,negative;positive
1730986033,bc3a5837a5c5b6488e9c1db35d453700,PennController,68,0,test_val,NULL,PennController,79,_Trial_,End,1730985510543,undefined,687,respect,abstract-positive,negative,positive,A,NULL
1730986033,bc3a5837a5c5b6488e9c1db35d453700,PennController,69,0,test_val,NULL,PennController,80,_Trial_,Start,1730985510544,undefined,685,praise,abstract-positive,negative,positive,A,NULL
1730986033,bc3a5837a5c5b6488e9c1db35d453700,PennController,69,0,test_val,NULL,PennController,80,_Header_,Start,1730985510544,undefined,685,praise,abstract-positive,negative,positive,A,NULL
1730986033,bc3a5837a5c5b6488e9c1db35d453700,PennController,69,0,test_val,NULL,PennController,80,_Header_,End,1730985510796,undefined,685,praise,abstract-positive,negative,positive,A,NULL
1730986033,bc3a5837a5c5b6488e9c1db35d453700,PennController,69,0,test_val,NULL,Selector,unnamed-Selector,Selection,positive,1730985511986,undefined,685,praise,abstract-positive,negative,positive,A,negative;positive
1730986033,bc3a5837a5c5b6488e9c1db35d453700,PennController,69,0,test_val,NULL,PennController,80,_Trial_,End,1730985511990,undefined,685,praise,abstract-positive,negative,positive,A,NULL
1730986033,bc3a5837a5c5b6488e9c1db35d453700,PennController,58,0,test_val,NULL,PennController,69,_Trial_,Start,1730985511994,undefined,666,kill,concrete-negative,negative,positive,A,NULL
1730986033,bc3a5837a5c5b6488e9c1db35d453700,PennController,58,0,test_val,NULL,PennController,69,_Header_,Start,1730985511994,undefined,666,kill,concrete-negative,negative,positive,A,NULL
1730986033,bc3a5837a5c5b6488e9c1db35d453700,PennController,58,0,test_val,NULL,PennController,69,_Header_,End,1730985512247,undefined,666,kill,concrete-negative,negative,positive,A,NULL
1730986033,bc3a5837a5c5b6488e9c1db35d453700,PennController,58,0,test_val,NULL,Selector,unnamed-Selector,Selection,negative,1730985513421,undefined,666,kill,concrete-negative,negative,positive,A,negative;positive
1730986033,bc3a5837a5c5b6488e9c1db35d453700,PennController,58,0,test_val,NULL,PennController,69,_Trial_,End,1730985513425,undefined,666,kill,concrete-negative,negative,positive,A,NULL
1730986033,bc3a5837a5c5b6488e9c1db35d453700,PennController,72,0,test_val,NULL,PennController,83,_Trial_,Start,1730985513428,undefined,778,adore,abstract-positive,negative,positive,A,NULL
1730986033,bc3a5837a5c5b6488e9c1db35d453700,PennController,72,0,test_val,NULL,PennController,83,_Header_,Start,1730985513428,undefined,778,adore,abstract-positive,negative,positive,A,NULL
1730986033,bc3a5837a5c5b6488e9c1db35d453700,PennController,72,0,test_val,NULL,PennController,83,_Header_,End,1730985513681,undefined,778,adore,abstract-positive,negative,positive,A,NULL
1730986033,bc3a5837a5c5b6488e9c1db35d453700,PennController,72,0,test_val,NULL,Selector,unnamed-Selector,Selection,positive,1730985514964,undefined,778,adore,abstract-positive,negative,positive,A,negative;positive
1730986033,bc3a5837a5c5b6488e9c1db35d453700,PennController,72,0,test_val,NULL,PennController,83,_Trial_,End,1730985514969,undefined,778,adore,abstract-positive,negative,positive,A,NULL
1730986033,bc3a5837a5c5b6488e9c1db35d453700,PennController,75,0,test_val,NULL,PennController,86,_Trial_,Start,1730985514972,undefined,720,hate,abstract-negative,negative,positive,A,NULL
1730986033,bc3a5837a5c5b6488e9c1db35d453700,PennController,75,0,test_val,NULL,PennController,86,_Header_,Start,1730985514973,undefined,720,hate,abstract-negative,negative,positive,A,NULL
1730986033,bc3a5837a5c5b6488e9c1db35d453700,PennController,75,0,test_val,NULL,PennController,86,_Header_,End,1730985515225,undefined,720,hate,abstract-negative,negative,positive,A,NULL
1730986033,bc3a5837a5c5b6488e9c1db35d453700,PennController,75,0,test_val,NULL,Selector,unnamed-Selector,Selection,negative,1730985516449,undefined,720,hate,abstract-negative,negative,positive,A,negative;positive
1730986033,bc3a5837a5c5b6488e9c1db35d453700,PennController,75,0,test_val,NULL,PennController,86,_Trial_,End,1730985516451,undefined,720,hate,abstract-negative,negative,positive,A,NULL
1730986033,bc3a5837a5c5b6488e9c1db35d453700,PennController,80,0,test_val,NULL,PennController,91,_Trial_,Start,1730985516452,undefined,911,abhor,abstract-negative,negative,positive,A,NULL
1730986033,bc3a5837a5c5b6488e9c1db35d453700,PennController,80,0,test_val,NULL,PennController,91,_Header_,Start,1730985516452,undefined,911,abhor,abstract-negative,negative,positive,A,NULL
1730986033,bc3a5837a5c5b6488e9c1db35d453700,PennController,80,0,test_val,NULL,PennController,91,_Header_,End,1730985516706,undefined,911,abhor,abstract-negative,negative,positive,A,NULL
1730986033,bc3a5837a5c5b6488e9c1db35d453700,PennController,80,0,test_val,NULL,Selector,unnamed-Selector,Selection,negative,1730985518126,undefined,911,abhor,abstract-negative,negative,positive,A,negative;positive
1730986033,bc3a5837a5c5b6488e9c1db35d453700,PennController,80,0,test_val,NULL,PennController,91,_Trial_,End,1730985518131,undefined,911,abhor,abstract-negative,negative,positive,A,NULL
1730986033,bc3a5837a5c5b6488e9c1db35d453700,PennController,60,0,test_val,NULL,PennController,71,_Trial_,Start,1730985518134,undefined,817,vomit,concrete-negative,negative,positive,A,NULL
1730986033,bc3a5837a5c5b6488e9c1db35d453700,PennController,60,0,test_val,NULL,PennController,71,_Header_,Start,1730985518134,undefined,817,vomit,concrete-negative,negative,positive,A,NULL
1730986033,bc3a5837a5c5b6488e9c1db35d453700,PennController,60,0,test_val,NULL,PennController,71,_Header_,End,1730985518386,undefined,817,vomit,concrete-negative,negative,positive,A,NULL
1730986033,bc3a5837a5c5b6488e9c1db35d453700,PennController,60,0,test_val,NULL,Selector,unnamed-Selector,Selection,negative,1730985519710,undefined,817,vomit,concrete-negative,negative,positive,A,negative;positive
1730986033,bc3a5837a5c5b6488e9c1db35d453700,PennController,60,0,test_val,NULL,PennController,71,_Trial_,End,1730985519715,undefined,817,vomit,concrete-negative,negative,positive,A,NULL
1730986033,bc3a5837a5c5b6488e9c1db35d453700,PennController,71,0,test_val,NULL,PennController,82,_Trial_,Start,1730985519718,undefined,678,cherish,abstract-positive,negative,positive,A,NULL
1730986033,bc3a5837a5c5b6488e9c1db35d453700,PennController,71,0,test_val,NULL,PennController,82,_Header_,Start,1730985519718,undefined,678,cherish,abstract-positive,negative,positive,A,NULL
1730986033,bc3a5837a5c5b6488e9c1db35d453700,PennController,71,0,test_val,NULL,PennController,82,_Header_,End,1730985519968,undefined,678,cherish,abstract-positive,negative,positive,A,NULL
1730986033,bc3a5837a5c5b6488e9c1db35d453700,PennController,71,0,test_val,NULL,Selector,unnamed-Selector,Selection,positive,1730985521153,undefined,678,cherish,abstract-positive,negative,positive,A,negative;positive
1730986033,bc3a5837a5c5b6488e9c1db35d453700,PennController,71,0,test_val,NULL,PennController,82,_Trial_,End,1730985521155,undefined,678,cherish,abstract-positive,negative,positive,A,NULL
1730986033,bc3a5837a5c5b6488e9c1db35d453700,PennController,49,0,test_val,NULL,PennController,60,_Trial_,Start,1730985521157,undefined,769,decorate,concrete-positive,negative,positive,A,NULL
1730986033,bc3a5837a5c5b6488e9c1db35d453700,PennController,49,0,test_val,NULL,PennController,60,_Header_,Start,1730985521157,undefined,769,decorate,concrete-positive,negative,positive,A,NULL
1730986033,bc3a5837a5c5b6488e9c1db35d453700,PennController,49,0,test_val,NULL,PennController,60,_Header_,End,1730985521409,undefined,769,decorate,concrete-positive,negative,positive,A,NULL
1730986033,bc3a5837a5c5b6488e9c1db35d453700,PennController,49,0,test_val,NULL,Selector,unnamed-Selector,Selection,positive,1730985522684,undefined,769,decorate,concrete-positive,negative,positive,A,negative;positive
1730986033,bc3a5837a5c5b6488e9c1db35d453700,PennController,49,0,test_val,NULL,PennController,60,_Trial_,End,1730985522687,undefined,769,decorate,concrete-positive,negative,positive,A,NULL
1730986033,bc3a5837a5c5b6488e9c1db35d453700,PennController,66,0,test_val,NULL,PennController,77,_Trial_,Start,1730985522689,undefined,668,care,abstract-positive,negative,positive,A,NULL
1730986033,bc3a5837a5c5b6488e9c1db35d453700,PennController,66,0,test_val,NULL,PennController,77,_Header_,Start,1730985522689,undefined,668,care,abstract-positive,negative,positive,A,NULL
1730986033,bc3a5837a5c5b6488e9c1db35d453700,PennController,66,0,test_val,NULL,PennController,77,_Header_,End,1730985522940,undefined,668,care,abstract-positive,negative,positive,A,NULL
1730986033,bc3a5837a5c5b6488e9c1db35d453700,PennController,66,0,test_val,NULL,Selector,unnamed-Selector,Selection,positive,1730985524112,undefined,668,care,abstract-positive,negative,positive,A,negative;positive
1730986033,bc3a5837a5c5b6488e9c1db35d453700,PennController,66,0,test_val,NULL,PennController,77,_Trial_,End,1730985524118,undefined,668,care,abstract-positive,negative,positive,A,NULL
1730986033,bc3a5837a5c5b6488e9c1db35d453700,PennController,64,0,test_val,NULL,PennController,75,_Trial_,Start,1730985524121,undefined,595,love,abstract-positive,negative,positive,A,NULL
1730986033,bc3a5837a5c5b6488e9c1db35d453700,PennController,64,0,test_val,NULL,PennController,75,_Header_,Start,1730985524121,undefined,595,love,abstract-positive,negative,positive,A,NULL
1730986033,bc3a5837a5c5b6488e9c1db35d453700,PennController,64,0,test_val,NULL,PennController,75,_Header_,End,1730985524372,undefined,595,love,abstract-positive,negative,positive,A,NULL
1730986033,bc3a5837a5c5b6488e9c1db35d453700,PennController,64,0,test_val,NULL,Selector,unnamed-Selector,Selection,positive,1730985525473,undefined,595,love,abstract-positive,negative,positive,A,negative;positive
1730986033,bc3a5837a5c5b6488e9c1db35d453700,PennController,64,0,test_val,NULL,PennController,75,_Trial_,End,1730985525477,undefined,595,love,abstract-positive,negative,positive,A,NULL
1730986033,bc3a5837a5c5b6488e9c1db35d453700,PennController,46,0,test_val,NULL,PennController,57,_Trial_,Start,1730985525480,undefined,570,cuddle,concrete-positive,negative,positive,A,NULL
1730986033,bc3a5837a5c5b6488e9c1db35d453700,PennController,46,0,test_val,NULL,PennController,57,_Header_,Start,1730985525480,undefined,570,cuddle,concrete-positive,negative,positive,A,NULL
1730986033,bc3a5837a5c5b6488e9c1db35d453700,PennController,46,0,test_val,NULL,PennController,57,_Header_,End,1730985525732,undefined,570,cuddle,concrete-positive,negative,positive,A,NULL
1730986033,bc3a5837a5c5b6488e9c1db35d453700,PennController,46,0,test_val,NULL,Selector,unnamed-Selector,Selection,positive,1730985526808,undefined,570,cuddle,concrete-positive,negative,positive,A,negative;positive
1730986033,bc3a5837a5c5b6488e9c1db35d453700,PennController,46,0,test_val,NULL,PennController,57,_Trial_,End,1730985526812,undefined,570,cuddle,concrete-positive,negative,positive,A,NULL
1730986033,bc3a5837a5c5b6488e9c1db35d453700,PennController,51,0,test_val,NULL,PennController,62,_Trial_,Start,1730985526815,undefined,827,embellish,concrete-positive,negative,positive,A,NULL
1730986033,bc3a5837a5c5b6488e9c1db35d453700,PennController,51,0,test_val,NULL,PennController,62,_Header_,Start,1730985526815,undefined,827,embellish,concrete-positive,negative,positive,A,NULL
1730986033,bc3a5837a5c5b6488e9c1db35d453700,PennController,51,0,test_val,NULL,PennController,62,_Header_,End,1730985527070,undefined,827,embellish,concrete-positive,negative,positive,A,NULL
1730986033,bc3a5837a5c5b6488e9c1db35d453700,PennController,51,0,test_val,NULL,Selector,unnamed-Selector,Selection,positive,1730985528402,undefined,827,embellish,concrete-positive,negative,positive,A,negative;positive
1730986033,bc3a5837a5c5b6488e9c1db35d453700,PennController,51,0,test_val,NULL,PennController,62,_Trial_,End,1730985528406,undefined,827,embellish,concrete-positive,negative,positive,A,NULL
1730986033,bc3a5837a5c5b6488e9c1db35d453700,PennController,62,0,test_val,NULL,PennController,73,_Trial_,Start,1730985528409,undefined,835,stab,concrete-negative,negative,positive,A,NULL
1730986033,bc3a5837a5c5b6488e9c1db35d453700,PennController,62,0,test_val,NULL,PennController,73,_Header_,Start,1730985528409,undefined,835,stab,concrete-negative,negative,positive,A,NULL
1730986033,bc3a5837a5c5b6488e9c1db35d453700,PennController,62,0,test_val,NULL,PennController,73,_Header_,End,1730985528660,undefined,835,stab,concrete-negative,negative,positive,A,NULL
1730986033,bc3a5837a5c5b6488e9c1db35d453700,PennController,62,0,test_val,NULL,Selector,unnamed-Selector,Selection,negative,1730985530001,undefined,835,stab,concrete-negative,negative,positive,A,negative;positive
1730986033,bc3a5837a5c5b6488e9c1db35d453700,PennController,62,0,test_val,NULL,PennController,73,_Trial_,End,1730985530005,undefined,835,stab,concrete-negative,negative,positive,A,NULL
1730986033,bc3a5837a5c5b6488e9c1db35d453700,PennController,81,0,test_val,NULL,PennController,92,_Trial_,Start,1730985530008,undefined,677,mourn,abstract-negative,negative,positive,A,NULL
1730986033,bc3a5837a5c5b6488e9c1db35d453700,PennController,81,0,test_val,NULL,PennController,92,_Header_,Start,1730985530008,undefined,677,mourn,abstract-negative,negative,positive,A,NULL
1730986033,bc3a5837a5c5b6488e9c1db35d453700,PennController,81,0,test_val,NULL,PennController,92,_Header_,End,1730985530262,undefined,677,mourn,abstract-negative,negative,positive,A,NULL
1730986033,bc3a5837a5c5b6488e9c1db35d453700,PennController,81,0,test_val,NULL,Selector,unnamed-Selector,Selection,negative,1730985531444,undefined,677,mourn,abstract-negative,negative,positive,A,negative;positive
1730986033,bc3a5837a5c5b6488e9c1db35d453700,PennController,81,0,test_val,NULL,PennController,92,_Trial_,End,1730985531448,undefined,677,mourn,abstract-negative,negative,positive,A,NULL
1730986033,bc3a5837a5c5b6488e9c1db35d453700,PennController,78,0,test_val,NULL,PennController,89,_Trial_,Start,1730985531449,undefined,652,scorn,abstract-negative,negative,positive,A,NULL
1730986033,bc3a5837a5c5b6488e9c1db35d453700,PennController,78,0,test_val,NULL,PennController,89,_Header_,Start,1730985531449,undefined,652,scorn,abstract-negative,negative,positive,A,NULL
1730986033,bc3a5837a5c5b6488e9c1db35d453700,PennController,78,0,test_val,NULL,PennController,89,_Header_,End,1730985531700,undefined,652,scorn,abstract-negative,negative,positive,A,NULL
1730986033,bc3a5837a5c5b6488e9c1db35d453700,PennController,78,0,test_val,NULL,Selector,unnamed-Selector,Selection,negative,1730985532859,undefined,652,scorn,abstract-negative,negative,positive,A,negative;positive
1730986033,bc3a5837a5c5b6488e9c1db35d453700,PennController,78,0,test_val,NULL,PennController,89,_Trial_,End,1730985532863,undefined,652,scorn,abstract-negative,negative,positive,A,NULL
1730986033,bc3a5837a5c5b6488e9c1db35d453700,PennController,53,0,test_val,NULL,PennController,64,_Trial_,Start,1730985532866,undefined,672,adorn,concrete-positive,negative,positive,A,NULL
1730986033,bc3a5837a5c5b6488e9c1db35d453700,PennController,53,0,test_val,NULL,PennController,64,_Header_,Start,1730985532866,undefined,672,adorn,concrete-positive,negative,positive,A,NULL
1730986033,bc3a5837a5c5b6488e9c1db35d453700,PennController,53,0,test_val,NULL,PennController,64,_Header_,End,1730985533120,undefined,672,adorn,concrete-positive,negative,positive,A,NULL
1730986033,bc3a5837a5c5b6488e9c1db35d453700,PennController,53,0,test_val,NULL,Selector,unnamed-Selector,Selection,positive,1730985534297,undefined,672,adorn,concrete-positive,negative,positive,A,negative;positive
1730986033,bc3a5837a5c5b6488e9c1db35d453700,PennController,53,0,test_val,NULL,PennController,64,_Trial_,End,1730985534301,undefined,672,adorn,concrete-positive,negative,positive,A,NULL
1730986033,bc3a5837a5c5b6488e9c1db35d453700,PennController,59,0,test_val,NULL,PennController,70,_Trial_,Start,1730985534303,undefined,1023,spit,concrete-negative,negative,positive,A,NULL
1730986033,bc3a5837a5c5b6488e9c1db35d453700,PennController,59,0,test_val,NULL,PennController,70,_Header_,Start,1730985534303,undefined,1023,spit,concrete-negative,negative,positive,A,NULL
1730986033,bc3a5837a5c5b6488e9c1db35d453700,PennController,59,0,test_val,NULL,PennController,70,_Header_,End,1730985534554,undefined,1023,spit,concrete-negative,negative,positive,A,NULL
1730986033,bc3a5837a5c5b6488e9c1db35d453700,PennController,59,0,test_val,NULL,Selector,unnamed-Selector,Selection,negative,1730985536081,undefined,1023,spit,concrete-negative,negative,positive,A,negative;positive
1730986033,bc3a5837a5c5b6488e9c1db35d453700,PennController,59,0,test_val,NULL,PennController,70,_Trial_,End,1730985536085,undefined,1023,spit,concrete-negative,negative,positive,A,NULL
1730986033,bc3a5837a5c5b6488e9c1db35d453700,PennController,83,0,test_val,NULL,PennController,94,_Trial_,Start,1730985536089,undefined,675,irritate,abstract-negative,negative,positive,A,NULL
1730986033,bc3a5837a5c5b6488e9c1db35d453700,PennController,83,0,test_val,NULL,PennController,94,_Header_,Start,1730985536089,undefined,675,irritate,abstract-negative,negative,positive,A,NULL
1730986033,bc3a5837a5c5b6488e9c1db35d453700,PennController,83,0,test_val,NULL,PennController,94,_Header_,End,1730985536339,undefined,675,irritate,abstract-negative,negative,positive,A,NULL
1730986033,bc3a5837a5c5b6488e9c1db35d453700,PennController,83,0,test_val,NULL,Selector,unnamed-Selector,Selection,negative,1730985537521,undefined,675,irritate,abstract-negative,negative,positive,A,negative;positive
1730986033,bc3a5837a5c5b6488e9c1db35d453700,PennController,83,0,test_val,NULL,PennController,94,_Trial_,End,1730985537525,undefined,675,irritate,abstract-negative,negative,positive,A,NULL
1730986033,bc3a5837a5c5b6488e9c1db35d453700,PennController,82,0,test_val,NULL,PennController,93,_Trial_,Start,1730985537528,undefined,600,distrust,abstract-negative,negative,positive,A,NULL
1730986033,bc3a5837a5c5b6488e9c1db35d453700,PennController,82,0,test_val,NULL,PennController,93,_Header_,Start,1730985537528,undefined,600,distrust,abstract-negative,negative,positive,A,NULL
1730986033,bc3a5837a5c5b6488e9c1db35d453700,PennController,82,0,test_val,NULL,PennController,93,_Header_,End,1730985537781,undefined,600,distrust,abstract-negative,negative,positive,A,NULL
1730986033,bc3a5837a5c5b6488e9c1db35d453700,PennController,82,0,test_val,NULL,Selector,unnamed-Selector,Selection,negative,1730985538888,undefined,600,distrust,abstract-negative,negative,positive,A,negative;positive
1730986033,bc3a5837a5c5b6488e9c1db35d453700,PennController,82,0,test_val,NULL,PennController,93,_Trial_,End,1730985538891,undefined,600,distrust,abstract-negative,negative,positive,A,NULL
1730986033,bc3a5837a5c5b6488e9c1db35d453700,PennController,45,0,test_val,NULL,PennController,56,_Trial_,Start,1730985538894,undefined,667,hug,concrete-positive,negative,positive,A,NULL
1730986033,bc3a5837a5c5b6488e9c1db35d453700,PennController,45,0,test_val,NULL,PennController,56,_Header_,Start,1730985538894,undefined,667,hug,concrete-positive,negative,positive,A,NULL
1730986033,bc3a5837a5c5b6488e9c1db35d453700,PennController,45,0,test_val,NULL,PennController,56,_Header_,End,1730985539146,undefined,667,hug,concrete-positive,negative,positive,A,NULL
1730986033,bc3a5837a5c5b6488e9c1db35d453700,PennController,45,0,test_val,NULL,Selector,unnamed-Selector,Selection,positive,1730985540317,undefined,667,hug,concrete-positive,negative,positive,A,negative;positive
1730986033,bc3a5837a5c5b6488e9c1db35d453700,PennController,45,0,test_val,NULL,PennController,56,_Trial_,End,1730985540321,undefined,667,hug,concrete-positive,negative,positive,A,NULL
1730986033,bc3a5837a5c5b6488e9c1db35d453700,PennController,79,0,test_val,NULL,PennController,90,_Trial_,Start,1730985540324,undefined,938,despise,abstract-negative,negative,positive,A,NULL
1730986033,bc3a5837a5c5b6488e9c1db35d453700,PennController,79,0,test_val,NULL,PennController,90,_Header_,Start,1730985540324,undefined,938,despise,abstract-negative,negative,positive,A,NULL
1730986033,bc3a5837a5c5b6488e9c1db35d453700,PennController,79,0,test_val,NULL,PennController,90,_Header_,End,1730985540579,undefined,938,despise,abstract-negative,negative,positive,A,NULL
1730986033,bc3a5837a5c5b6488e9c1db35d453700,PennController,79,0,test_val,NULL,Selector,unnamed-Selector,Selection,negative,1730985542019,undefined,938,despise,abstract-negative,negative,positive,A,negative;positive
1730986033,bc3a5837a5c5b6488e9c1db35d453700,PennController,79,0,test_val,NULL,PennController,90,_Trial_,End,1730985542021,undefined,938,despise,abstract-negative,negative,positive,A,NULL
1730986033,bc3a5837a5c5b6488e9c1db35d453700,PennController,55,0,test_val,NULL,PennController,66,_Trial_,Start,1730985542022,undefined,555,murder,concrete-negative,negative,positive,A,NULL
1730986033,bc3a5837a5c5b6488e9c1db35d453700,PennController,55,0,test_val,NULL,PennController,66,_Header_,Start,1730985542022,undefined,555,murder,concrete-negative,negative,positive,A,NULL
1730986033,bc3a5837a5c5b6488e9c1db35d453700,PennController,55,0,test_val,NULL,PennController,66,_Header_,End,1730985542276,undefined,555,murder,concrete-negative,negative,positive,A,NULL
1730986033,bc3a5837a5c5b6488e9c1db35d453700,PennController,55,0,test_val,NULL,Selector,unnamed-Selector,Selection,negative,1730985543334,undefined,555,murder,concrete-negative,negative,positive,A,negative;positive
1730986033,bc3a5837a5c5b6488e9c1db35d453700,PennController,55,0,test_val,NULL,PennController,66,_Trial_,End,1730985543338,undefined,555,murder,concrete-negative,negative,positive,A,NULL
1730986033,bc3a5837a5c5b6488e9c1db35d453700,PennController,44,0,test_val,NULL,PennController,55,_Trial_,Start,1730985543341,undefined,598,kiss,concrete-positive,negative,positive,A,NULL
1730986033,bc3a5837a5c5b6488e9c1db35d453700,PennController,44,0,test_val,NULL,PennController,55,_Header_,Start,1730985543341,undefined,598,kiss,concrete-positive,negative,positive,A,NULL
1730986033,bc3a5837a5c5b6488e9c1db35d453700,PennController,44,0,test_val,NULL,PennController,55,_Header_,End,1730985543592,undefined,598,kiss,concrete-positive,negative,positive,A,NULL
1730986033,bc3a5837a5c5b6488e9c1db35d453700,PennController,44,0,test_val,NULL,Selector,unnamed-Selector,Selection,positive,1730985544697,undefined,598,kiss,concrete-positive,negative,positive,A,negative;positive
1730986033,bc3a5837a5c5b6488e9c1db35d453700,PennController,44,0,test_val,NULL,PennController,55,_Trial_,End,1730985544699,undefined,598,kiss,concrete-positive,negative,positive,A,NULL
1730986033,bc3a5837a5c5b6488e9c1db35d453700,PennController,61,0,test_val,NULL,PennController,72,_Trial_,Start,1730985544700,undefined,725,pollute,concrete-negative,negative,positive,A,NULL
1730986033,bc3a5837a5c5b6488e9c1db35d453700,PennController,61,0,test_val,NULL,PennController,72,_Header_,Start,1730985544700,undefined,725,pollute,concrete-negative,negative,positive,A,NULL
1730986033,bc3a5837a5c5b6488e9c1db35d453700,PennController,61,0,test_val,NULL,PennController,72,_Header_,End,1730985544950,undefined,725,pollute,concrete-negative,negative,positive,A,NULL
1730986033,bc3a5837a5c5b6488e9c1db35d453700,PennController,61,0,test_val,NULL,Selector,unnamed-Selector,Selection,negative,1730985546182,undefined,725,pollute,concrete-negative,negative,positive,A,negative;positive
1730986033,bc3a5837a5c5b6488e9c1db35d453700,PennController,61,0,test_val,NULL,PennController,72,_Trial_,End,1730985546186,undefined,725,pollute,concrete-negative,negative,positive,A,NULL
1730986033,bc3a5837a5c5b6488e9c1db35d453700,PennController,45,0,test_val,NULL,PennController,56,_Trial_,Start,1730985546189,undefined,847,hug,concrete-positive,negative,positive,A,NULL
1730986033,bc3a5837a5c5b6488e9c1db35d453700,PennController,45,0,test_val,NULL,PennController,56,_Header_,Start,1730985546189,undefined,847,hug,concrete-positive,negative,positive,A,NULL
1730986033,bc3a5837a5c5b6488e9c1db35d453700,PennController,45,0,test_val,NULL,PennController,56,_Header_,End,1730985546444,undefined,847,hug,concrete-positive,negative,positive,A,NULL
1730986033,bc3a5837a5c5b6488e9c1db35d453700,PennController,45,0,test_val,NULL,Selector,unnamed-Selector,Selection,positive,1730985547795,undefined,847,hug,concrete-positive,negative,positive,A,negative;positive
1730986033,bc3a5837a5c5b6488e9c1db35d453700,PennController,45,0,test_val,NULL,PennController,56,_Trial_,End,1730985547800,undefined,847,hug,concrete-positive,negative,positive,A,NULL
1730986033,bc3a5837a5c5b6488e9c1db35d453700,PennController,59,0,test_val,NULL,PennController,70,_Trial_,Start,1730985547803,undefined,638,spit,concrete-negative,negative,positive,A,NULL
1730986033,bc3a5837a5c5b6488e9c1db35d453700,PennController,59,0,test_val,NULL,PennController,70,_Header_,Start,1730985547803,undefined,638,spit,concrete-negative,negative,positive,A,NULL
1730986033,bc3a5837a5c5b6488e9c1db35d453700,PennController,59,0,test_val,NULL,PennController,70,_Header_,End,1730985548053,undefined,638,spit,concrete-negative,negative,positive,A,NULL
1730986033,bc3a5837a5c5b6488e9c1db35d453700,PennController,59,0,test_val,NULL,Selector,unnamed-Selector,Selection,negative,1730985549199,undefined,638,spit,concrete-negative,negative,positive,A,negative;positive
1730986033,bc3a5837a5c5b6488e9c1db35d453700,PennController,59,0,test_val,NULL,PennController,70,_Trial_,End,1730985549205,undefined,638,spit,concrete-negative,negative,positive,A,NULL
1730986033,bc3a5837a5c5b6488e9c1db35d453700,PennController,51,0,test_val,NULL,PennController,62,_Trial_,Start,1730985549209,undefined,993,embellish,concrete-positive,negative,positive,A,NULL
1730986033,bc3a5837a5c5b6488e9c1db35d453700,PennController,51,0,test_val,NULL,PennController,62,_Header_,Start,1730985549209,undefined,993,embellish,concrete-positive,negative,positive,A,NULL
1730986033,bc3a5837a5c5b6488e9c1db35d453700,PennController,51,0,test_val,NULL,PennController,62,_Header_,End,1730985549462,undefined,993,embellish,concrete-positive,negative,positive,A,NULL
1730986033,bc3a5837a5c5b6488e9c1db35d453700,PennController,51,0,test_val,NULL,Selector,unnamed-Selector,Selection,positive,1730985550959,undefined,993,embellish,concrete-positive,negative,positive,A,negative;positive
1730986033,bc3a5837a5c5b6488e9c1db35d453700,PennController,51,0,test_val,NULL,PennController,62,_Trial_,End,1730985550963,undefined,993,embellish,concrete-positive,negative,positive,A,NULL
1730986033,bc3a5837a5c5b6488e9c1db35d453700,PennController,83,0,test_val,NULL,PennController,94,_Trial_,Start,1730985550966,undefined,672,irritate,abstract-negative,negative,positive,A,NULL
1730986033,bc3a5837a5c5b6488e9c1db35d453700,PennController,83,0,test_val,NULL,PennController,94,_Header_,Start,1730985550966,undefined,672,irritate,abstract-negative,negative,positive,A,NULL
1730986033,bc3a5837a5c5b6488e9c1db35d453700,PennController,83,0,test_val,NULL,PennController,94,_Header_,End,1730985551216,undefined,672,irritate,abstract-negative,negative,positive,A,NULL
1730986033,bc3a5837a5c5b6488e9c1db35d453700,PennController,83,0,test_val,NULL,Selector,unnamed-Selector,Selection,negative,1730985552392,undefined,672,irritate,abstract-negative,negative,positive,A,negative;positive
1730986033,bc3a5837a5c5b6488e9c1db35d453700,PennController,83,0,test_val,NULL,PennController,94,_Trial_,End,1730985552396,undefined,672,irritate,abstract-negative,negative,positive,A,NULL
1730986033,bc3a5837a5c5b6488e9c1db35d453700,PennController,68,0,test_val,NULL,PennController,79,_Trial_,Start,1730985552399,undefined,881,respect,abstract-positive,negative,positive,A,NULL
1730986033,bc3a5837a5c5b6488e9c1db35d453700,PennController,68,0,test_val,NULL,PennController,79,_Header_,Start,1730985552399,undefined,881,respect,abstract-positive,negative,positive,A,NULL
1730986033,bc3a5837a5c5b6488e9c1db35d453700,PennController,68,0,test_val,NULL,PennController,79,_Header_,End,1730985552649,undefined,881,respect,abstract-positive,negative,positive,A,NULL
1730986033,bc3a5837a5c5b6488e9c1db35d453700,PennController,68,0,test_val,NULL,Selector,unnamed-Selector,Selection,positive,1730985554036,undefined,881,respect,abstract-positive,negative,positive,A,negative;positive
1730986033,bc3a5837a5c5b6488e9c1db35d453700,PennController,68,0,test_val,NULL,PennController,79,_Trial_,End,1730985554040,undefined,881,respect,abstract-positive,negative,positive,A,NULL
1730986033,bc3a5837a5c5b6488e9c1db35d453700,PennController,82,0,test_val,NULL,PennController,93,_Trial_,Start,1730985554043,undefined,723,distrust,abstract-negative,negative,positive,A,NULL
1730986033,bc3a5837a5c5b6488e9c1db35d453700,PennController,82,0,test_val,NULL,PennController,93,_Header_,Start,1730985554043,undefined,723,distrust,abstract-negative,negative,positive,A,NULL
1730986033,bc3a5837a5c5b6488e9c1db35d453700,PennController,82,0,test_val,NULL,PennController,93,_Header_,End,1730985554296,undefined,723,distrust,abstract-negative,negative,positive,A,NULL
1730986033,bc3a5837a5c5b6488e9c1db35d453700,PennController,82,0,test_val,NULL,Selector,unnamed-Selector,Selection,negative,1730985555524,undefined,723,distrust,abstract-negative,negative,positive,A,negative;positive
1730986033,bc3a5837a5c5b6488e9c1db35d453700,PennController,82,0,test_val,NULL,PennController,93,_Trial_,End,1730985555528,undefined,723,distrust,abstract-negative,negative,positive,A,NULL
1730986033,bc3a5837a5c5b6488e9c1db35d453700,PennController,54,0,test_val,NULL,PennController,65,_Trial_,Start,1730985555532,undefined,622,destroy,concrete-negative,negative,positive,A,NULL
1730986033,bc3a5837a5c5b6488e9c1db35d453700,PennController,54,0,test_val,NULL,PennController,65,_Header_,Start,1730985555532,undefined,622,destroy,concrete-negative,negative,positive,A,NULL
1730986033,bc3a5837a5c5b6488e9c1db35d453700,PennController,54,0,test_val,NULL,PennController,65,_Header_,End,1730985555783,undefined,622,destroy,concrete-negative,negative,positive,A,NULL
1730986033,bc3a5837a5c5b6488e9c1db35d453700,PennController,54,0,test_val,NULL,Selector,unnamed-Selector,Selection,negative,1730985556913,undefined,622,destroy,concrete-negative,negative,positive,A,negative;positive
1730986033,bc3a5837a5c5b6488e9c1db35d453700,PennController,54,0,test_val,NULL,PennController,65,_Trial_,End,1730985556917,undefined,622,destroy,concrete-negative,negative,positive,A,NULL
1730986033,bc3a5837a5c5b6488e9c1db35d453700,PennController,55,0,test_val,NULL,PennController,66,_Trial_,Start,1730985556920,undefined,587,murder,concrete-negative,negative,positive,A,NULL
1730986033,bc3a5837a5c5b6488e9c1db35d453700,PennController,55,0,test_val,NULL,PennController,66,_Header_,Start,1730985556920,undefined,587,murder,concrete-negative,negative,positive,A,NULL
1730986033,bc3a5837a5c5b6488e9c1db35d453700,PennController,55,0,test_val,NULL,PennController,66,_Header_,End,1730985557173,undefined,587,murder,concrete-negative,negative,positive,A,NULL
1730986033,bc3a5837a5c5b6488e9c1db35d453700,PennController,55,0,test_val,NULL,Selector,unnamed-Selector,Selection,negative,1730985558266,undefined,587,murder,concrete-negative,negative,positive,A,negative;positive
1730986033,bc3a5837a5c5b6488e9c1db35d453700,PennController,55,0,test_val,NULL,PennController,66,_Trial_,End,1730985558270,undefined,587,murder,concrete-negative,negative,positive,A,NULL
1730986033,bc3a5837a5c5b6488e9c1db35d453700,PennController,77,0,test_val,NULL,PennController,88,_Trial_,Start,1730985558273,undefined,568,loathe,abstract-negative,negative,positive,A,NULL
1730986033,bc3a5837a5c5b6488e9c1db35d453700,PennController,77,0,test_val,NULL,PennController,88,_Header_,Start,1730985558273,undefined,568,loathe,abstract-negative,negative,positive,A,NULL
1730986033,bc3a5837a5c5b6488e9c1db35d453700,PennController,77,0,test_val,NULL,PennController,88,_Header_,End,1730985558526,undefined,568,loathe,abstract-negative,negative,positive,A,NULL
1730986033,bc3a5837a5c5b6488e9c1db35d453700,PennController,77,0,test_val,NULL,Selector,unnamed-Selector,Selection,negative,1730985559600,undefined,568,loathe,abstract-negative,negative,positive,A,negative;positive
1730986033,bc3a5837a5c5b6488e9c1db35d453700,PennController,77,0,test_val,NULL,PennController,88,_Trial_,End,1730985559604,undefined,568,loathe,abstract-negative,negative,positive,A,NULL
1730986033,bc3a5837a5c5b6488e9c1db35d453700,PennController,63,0,test_val,NULL,PennController,74,_Trial_,Start,1730985559607,undefined,554,infect,concrete-negative,negative,positive,A,NULL
1730986033,bc3a5837a5c5b6488e9c1db35d453700,PennController,63,0,test_val,NULL,PennController,74,_Header_,Start,1730985559607,undefined,554,infect,concrete-negative,negative,positive,A,NULL
1730986033,bc3a5837a5c5b6488e9c1db35d453700,PennController,63,0,test_val,NULL,PennController,74,_Header_,End,1730985559860,undefined,554,infect,concrete-negative,negative,positive,A,NULL
1730986033,bc3a5837a5c5b6488e9c1db35d453700,PennController,63,0,test_val,NULL,Selector,unnamed-Selector,Selection,negative,1730985560917,undefined,554,infect,concrete-negative,negative,positive,A,negative;positive
1730986033,bc3a5837a5c5b6488e9c1db35d453700,PennController,63,0,test_val,NULL,PennController,74,_Trial_,End,1730985560921,undefined,554,infect,concrete-negative,negative,positive,A,NULL
1730986033,bc3a5837a5c5b6488e9c1db35d453700,PennController,73,0,test_val,NULL,PennController,84,_Trial_,Start,1730985560924,undefined,574,esteem,abstract-positive,negative,positive,A,NULL
1730986033,bc3a5837a5c5b6488e9c1db35d453700,PennController,73,0,test_val,NULL,PennController,84,_Header_,Start,1730985560924,undefined,574,esteem,abstract-positive,negative,positive,A,NULL
1730986033,bc3a5837a5c5b6488e9c1db35d453700,PennController,73,0,test_val,NULL,PennController,84,_Header_,End,1730985561177,undefined,574,esteem,abstract-positive,negative,positive,A,NULL
1730986033,bc3a5837a5c5b6488e9c1db35d453700,PennController,73,0,test_val,NULL,Selector,unnamed-Selector,Selection,positive,1730985562256,undefined,574,esteem,abstract-positive,negative,positive,A,negative;positive
1730986033,bc3a5837a5c5b6488e9c1db35d453700,PennController,73,0,test_val,NULL,PennController,84,_Trial_,End,1730985562260,undefined,574,esteem,abstract-positive,negative,positive,A,NULL
1730986033,bc3a5837a5c5b6488e9c1db35d453700,PennController,60,0,test_val,NULL,PennController,71,_Trial_,Start,1730985562263,undefined,608,vomit,concrete-negative,negative,positive,A,NULL
1730986033,bc3a5837a5c5b6488e9c1db35d453700,PennController,60,0,test_val,NULL,PennController,71,_Header_,Start,1730985562263,undefined,608,vomit,concrete-negative,negative,positive,A,NULL
1730986033,bc3a5837a5c5b6488e9c1db35d453700,PennController,60,0,test_val,NULL,PennController,71,_Header_,End,1730985562513,undefined,608,vomit,concrete-negative,negative,positive,A,NULL
1730986033,bc3a5837a5c5b6488e9c1db35d453700,PennController,60,0,test_val,NULL,Selector,unnamed-Selector,Selection,negative,1730985563630,undefined,608,vomit,concrete-negative,negative,positive,A,negative;positive
1730986033,bc3a5837a5c5b6488e9c1db35d453700,PennController,60,0,test_val,NULL,PennController,71,_Trial_,End,1730985563634,undefined,608,vomit,concrete-negative,negative,positive,A,NULL
1730986033,bc3a5837a5c5b6488e9c1db35d453700,PennController,74,0,test_val,NULL,PennController,85,_Trial_,Start,1730985563637,undefined,631,criticize,abstract-negative,negative,positive,A,NULL
1730986033,bc3a5837a5c5b6488e9c1db35d453700,PennController,74,0,test_val,NULL,PennController,85,_Header_,Start,1730985563637,undefined,631,criticize,abstract-negative,negative,positive,A,NULL
1730986033,bc3a5837a5c5b6488e9c1db35d453700,PennController,74,0,test_val,NULL,PennController,85,_Header_,End,1730985563890,undefined,631,criticize,abstract-negative,negative,positive,A,NULL
1730986033,bc3a5837a5c5b6488e9c1db35d453700,PennController,74,0,test_val,NULL,Selector,unnamed-Selector,Selection,negative,1730985565028,undefined,631,criticize,abstract-negative,negative,positive,A,negative;positive
1730986033,bc3a5837a5c5b6488e9c1db35d453700,PennController,74,0,test_val,NULL,PennController,85,_Trial_,End,1730985565033,undefined,631,criticize,abstract-negative,negative,positive,A,NULL
1730986033,bc3a5837a5c5b6488e9c1db35d453700,PennController,56,0,test_val,NULL,PennController,67,_Trial_,Start,1730985565035,undefined,621,slaughter,concrete-negative,negative,positive,A,NULL
1730986033,bc3a5837a5c5b6488e9c1db35d453700,PennController,56,0,test_val,NULL,PennController,67,_Header_,Start,1730985565035,undefined,621,slaughter,concrete-negative,negative,positive,A,NULL
1730986033,bc3a5837a5c5b6488e9c1db35d453700,PennController,56,0,test_val,NULL,PennController,67,_Header_,End,1730985565286,undefined,621,slaughter,concrete-negative,negative,positive,A,NULL
1730986033,bc3a5837a5c5b6488e9c1db35d453700,PennController,56,0,test_val,NULL,Selector,unnamed-Selector,Selection,negative,1730985566412,undefined,621,slaughter,concrete-negative,negative,positive,A,negative;positive
1730986033,bc3a5837a5c5b6488e9c1db35d453700,PennController,56,0,test_val,NULL,PennController,67,_Trial_,End,1730985566415,undefined,621,slaughter,concrete-negative,negative,positive,A,NULL
1730986033,bc3a5837a5c5b6488e9c1db35d453700,PennController,50,0,test_val,NULL,PennController,61,_Trial_,Start,1730985566419,undefined,649,improve,concrete-positive,negative,positive,A,NULL
1730986033,bc3a5837a5c5b6488e9c1db35d453700,PennController,50,0,test_val,NULL,PennController,61,_Header_,Start,1730985566419,undefined,649,improve,concrete-positive,negative,positive,A,NULL
1730986033,bc3a5837a5c5b6488e9c1db35d453700,PennController,50,0,test_val,NULL,PennController,61,_Header_,End,1730985566672,undefined,649,improve,concrete-positive,negative,positive,A,NULL
1730986033,bc3a5837a5c5b6488e9c1db35d453700,PennController,50,0,test_val,NULL,Selector,unnamed-Selector,Selection,positive,1730985567825,undefined,649,improve,concrete-positive,negative,positive,A,negative;positive
1730986033,bc3a5837a5c5b6488e9c1db35d453700,PennController,50,0,test_val,NULL,PennController,61,_Trial_,End,1730985567829,undefined,649,improve,concrete-positive,negative,positive,A,NULL
1730986033,bc3a5837a5c5b6488e9c1db35d453700,PennController,62,0,test_val,NULL,PennController,73,_Trial_,Start,1730985567832,undefined,599,stab,concrete-negative,negative,positive,A,NULL
1730986033,bc3a5837a5c5b6488e9c1db35d453700,PennController,62,0,test_val,NULL,PennController,73,_Header_,Start,1730985567832,undefined,599,stab,concrete-negative,negative,positive,A,NULL
1730986033,bc3a5837a5c5b6488e9c1db35d453700,PennController,62,0,test_val,NULL,PennController,73,_Header_,End,1730985568085,undefined,599,stab,concrete-negative,negative,positive,A,NULL
1730986033,bc3a5837a5c5b6488e9c1db35d453700,PennController,62,0,test_val,NULL,Selector,unnamed-Selector,Selection,negative,1730985569188,undefined,599,stab,concrete-negative,negative,positive,A,negative;positive
1730986033,bc3a5837a5c5b6488e9c1db35d453700,PennController,62,0,test_val,NULL,PennController,73,_Trial_,End,1730985569192,undefined,599,stab,concrete-negative,negative,positive,A,NULL
1730986033,bc3a5837a5c5b6488e9c1db35d453700,PennController,64,0,test_val,NULL,PennController,75,_Trial_,Start,1730985569195,undefined,835,love,abstract-positive,negative,positive,A,NULL
1730986033,bc3a5837a5c5b6488e9c1db35d453700,PennController,64,0,test_val,NULL,PennController,75,_Header_,Start,1730985569195,undefined,835,love,abstract-positive,negative,positive,A,NULL
1730986033,bc3a5837a5c5b6488e9c1db35d453700,PennController,64,0,test_val,NULL,PennController,75,_Header_,End,1730985569445,undefined,835,love,abstract-positive,negative,positive,A,NULL
1730986033,bc3a5837a5c5b6488e9c1db35d453700,PennController,64,0,test_val,NULL,Selector,unnamed-Selector,Selection,positive,1730985570787,undefined,835,love,abstract-positive,negative,positive,A,negative;positive
1730986033,bc3a5837a5c5b6488e9c1db35d453700,PennController,64,0,test_val,NULL,PennController,75,_Trial_,End,1730985570791,undefined,835,love,abstract-positive,negative,positive,A,NULL
1730986033,bc3a5837a5c5b6488e9c1db35d453700,PennController,58,0,test_val,NULL,PennController,69,_Trial_,Start,1730985570794,undefined,644,kill,concrete-negative,negative,positive,A,NULL
1730986033,bc3a5837a5c5b6488e9c1db35d453700,PennController,58,0,test_val,NULL,PennController,69,_Header_,Start,1730985570794,undefined,644,kill,concrete-negative,negative,positive,A,NULL
1730986033,bc3a5837a5c5b6488e9c1db35d453700,PennController,58,0,test_val,NULL,PennController,69,_Header_,End,1730985571046,undefined,644,kill,concrete-negative,negative,positive,A,NULL
1730986033,bc3a5837a5c5b6488e9c1db35d453700,PennController,58,0,test_val,NULL,Selector,unnamed-Selector,Selection,negative,1730985572195,undefined,644,kill,concrete-negative,negative,positive,A,negative;positive
1730986033,bc3a5837a5c5b6488e9c1db35d453700,PennController,58,0,test_val,NULL,PennController,69,_Trial_,End,1730985572200,undefined,644,kill,concrete-negative,negative,positive,A,NULL
1730986033,bc3a5837a5c5b6488e9c1db35d453700,PennController,66,0,test_val,NULL,PennController,77,_Trial_,Start,1730985572203,undefined,658,care,abstract-positive,negative,positive,A,NULL
1730986033,bc3a5837a5c5b6488e9c1db35d453700,PennController,66,0,test_val,NULL,PennController,77,_Header_,Start,1730985572203,undefined,658,care,abstract-positive,negative,positive,A,NULL
1730986033,bc3a5837a5c5b6488e9c1db35d453700,PennController,66,0,test_val,NULL,PennController,77,_Header_,End,1730985572457,undefined,658,care,abstract-positive,negative,positive,A,NULL
1730986033,bc3a5837a5c5b6488e9c1db35d453700,PennController,66,0,test_val,NULL,Selector,unnamed-Selector,Selection,positive,1730985573619,undefined,658,care,abstract-positive,negative,positive,A,negative;positive
1730986033,bc3a5837a5c5b6488e9c1db35d453700,PennController,66,0,test_val,NULL,PennController,77,_Trial_,End,1730985573620,undefined,658,care,abstract-positive,negative,positive,A,NULL
1730986033,bc3a5837a5c5b6488e9c1db35d453700,PennController,71,0,test_val,NULL,PennController,82,_Trial_,Start,1730985573621,undefined,577,cherish,abstract-positive,negative,positive,A,NULL
1730986033,bc3a5837a5c5b6488e9c1db35d453700,PennController,71,0,test_val,NULL,PennController,82,_Header_,Start,1730985573621,undefined,577,cherish,abstract-positive,negative,positive,A,NULL
1730986033,bc3a5837a5c5b6488e9c1db35d453700,PennController,71,0,test_val,NULL,PennController,82,_Header_,End,1730985573872,undefined,577,cherish,abstract-positive,negative,positive,A,NULL
1730986033,bc3a5837a5c5b6488e9c1db35d453700,PennController,71,0,test_val,NULL,Selector,unnamed-Selector,Selection,positive,1730985574953,undefined,577,cherish,abstract-positive,negative,positive,A,negative;positive
1730986033,bc3a5837a5c5b6488e9c1db35d453700,PennController,71,0,test_val,NULL,PennController,82,_Trial_,End,1730985574957,undefined,577,cherish,abstract-positive,negative,positive,A,NULL
1730986033,bc3a5837a5c5b6488e9c1db35d453700,PennController,70,0,test_val,NULL,PennController,81,_Trial_,Start,1730985574960,undefined,518,admire,abstract-positive,negative,positive,A,NULL
1730986033,bc3a5837a5c5b6488e9c1db35d453700,PennController,70,0,test_val,NULL,PennController,81,_Header_,Start,1730985574960,undefined,518,admire,abstract-positive,negative,positive,A,NULL
1730986033,bc3a5837a5c5b6488e9c1db35d453700,PennController,70,0,test_val,NULL,PennController,81,_Header_,End,1730985575213,undefined,518,admire,abstract-positive,negative,positive,A,NULL
1730986033,bc3a5837a5c5b6488e9c1db35d453700,PennController,70,0,test_val,NULL,Selector,unnamed-Selector,Selection,positive,1730985576238,undefined,518,admire,abstract-positive,negative,positive,A,negative;positive
1730986033,bc3a5837a5c5b6488e9c1db35d453700,PennController,70,0,test_val,NULL,PennController,81,_Trial_,End,1730985576242,undefined,518,admire,abstract-positive,negative,positive,A,NULL
1730986033,bc3a5837a5c5b6488e9c1db35d453700,PennController,61,0,test_val,NULL,PennController,72,_Trial_,Start,1730985576245,undefined,600,pollute,concrete-negative,negative,positive,A,NULL
1730986033,bc3a5837a5c5b6488e9c1db35d453700,PennController,61,0,test_val,NULL,PennController,72,_Header_,Start,1730985576245,undefined,600,pollute,concrete-negative,negative,positive,A,NULL
1730986033,bc3a5837a5c5b6488e9c1db35d453700,PennController,61,0,test_val,NULL,PennController,72,_Header_,End,1730985576496,undefined,600,pollute,concrete-negative,negative,positive,A,NULL
1730986033,bc3a5837a5c5b6488e9c1db35d453700,PennController,61,0,test_val,NULL,Selector,unnamed-Selector,Selection,negative,1730985577601,undefined,600,pollute,concrete-negative,negative,positive,A,negative;positive
1730986033,bc3a5837a5c5b6488e9c1db35d453700,PennController,61,0,test_val,NULL,PennController,72,_Trial_,End,1730985577606,undefined,600,pollute,concrete-negative,negative,positive,A,NULL
1730986033,bc3a5837a5c5b6488e9c1db35d453700,PennController,44,0,test_val,NULL,PennController,55,_Trial_,Start,1730985577609,undefined,582,kiss,concrete-positive,negative,positive,A,NULL
1730986033,bc3a5837a5c5b6488e9c1db35d453700,PennController,44,0,test_val,NULL,PennController,55,_Header_,Start,1730985577609,undefined,582,kiss,concrete-positive,negative,positive,A,NULL
1730986033,bc3a5837a5c5b6488e9c1db35d453700,PennController,44,0,test_val,NULL,PennController,55,_Header_,End,1730985577863,undefined,582,kiss,concrete-positive,negative,positive,A,NULL
1730986033,bc3a5837a5c5b6488e9c1db35d453700,PennController,44,0,test_val,NULL,Selector,unnamed-Selector,Selection,positive,1730985578953,undefined,582,kiss,concrete-positive,negative,positive,A,negative;positive
1730986033,bc3a5837a5c5b6488e9c1db35d453700,PennController,44,0,test_val,NULL,PennController,55,_Trial_,End,1730985578957,undefined,582,kiss,concrete-positive,negative,positive,A,NULL
1730986033,bc3a5837a5c5b6488e9c1db35d453700,PennController,49,0,test_val,NULL,PennController,60,_Trial_,Start,1730985578960,undefined,643,decorate,concrete-positive,negative,positive,A,NULL
1730986033,bc3a5837a5c5b6488e9c1db35d453700,PennController,49,0,test_val,NULL,PennController,60,_Header_,Start,1730985578960,undefined,643,decorate,concrete-positive,negative,positive,A,NULL
1730986033,bc3a5837a5c5b6488e9c1db35d453700,PennController,49,0,test_val,NULL,PennController,60,_Header_,End,1730985579212,undefined,643,decorate,concrete-positive,negative,positive,A,NULL
1730986033,bc3a5837a5c5b6488e9c1db35d453700,PennController,49,0,test_val,NULL,Selector,unnamed-Selector,Selection,positive,1730985580361,undefined,643,decorate,concrete-positive,negative,positive,A,negative;positive
1730986033,bc3a5837a5c5b6488e9c1db35d453700,PennController,49,0,test_val,NULL,PennController,60,_Trial_,End,1730985580365,undefined,643,decorate,concrete-positive,negative,positive,A,NULL
1730986033,bc3a5837a5c5b6488e9c1db35d453700,PennController,67,0,test_val,NULL,PennController,78,_Trial_,Start,1730985580368,undefined,579,enjoy,abstract-positive,negative,positive,A,NULL
1730986033,bc3a5837a5c5b6488e9c1db35d453700,PennController,67,0,test_val,NULL,PennController,78,_Header_,Start,1730985580368,undefined,579,enjoy,abstract-positive,negative,positive,A,NULL
1730986033,bc3a5837a5c5b6488e9c1db35d453700,PennController,67,0,test_val,NULL,PennController,78,_Header_,End,1730985580620,undefined,579,enjoy,abstract-positive,negative,positive,A,NULL
1730986033,bc3a5837a5c5b6488e9c1db35d453700,PennController,67,0,test_val,NULL,Selector,unnamed-Selector,Selection,positive,1730985581705,undefined,579,enjoy,abstract-positive,negative,positive,A,negative;positive
1730986033,bc3a5837a5c5b6488e9c1db35d453700,PennController,67,0,test_val,NULL,PennController,78,_Trial_,End,1730985581709,undefined,579,enjoy,abstract-positive,negative,positive,A,NULL
1730986033,bc3a5837a5c5b6488e9c1db35d453700,PennController,57,0,test_val,NULL,PennController,68,_Trial_,Start,1730985581712,undefined,711,break,concrete-negative,negative,positive,A,NULL
1730986033,bc3a5837a5c5b6488e9c1db35d453700,PennController,57,0,test_val,NULL,PennController,68,_Header_,Start,1730985581712,undefined,711,break,concrete-negative,negative,positive,A,NULL
1730986033,bc3a5837a5c5b6488e9c1db35d453700,PennController,57,0,test_val,NULL,PennController,68,_Header_,End,1730985581965,undefined,711,break,concrete-negative,negative,positive,A,NULL
1730986033,bc3a5837a5c5b6488e9c1db35d453700,PennController,57,0,test_val,NULL,Selector,unnamed-Selector,Selection,negative,1730985583179,undefined,711,break,concrete-negative,negative,positive,A,negative;positive
1730986033,bc3a5837a5c5b6488e9c1db35d453700,PennController,57,0,test_val,NULL,PennController,68,_Trial_,End,1730985583183,undefined,711,break,concrete-negative,negative,positive,A,NULL
1730986033,bc3a5837a5c5b6488e9c1db35d453700,PennController,78,0,test_val,NULL,PennController,89,_Trial_,Start,1730985583187,undefined,634,scorn,abstract-negative,negative,positive,A,NULL
1730986033,bc3a5837a5c5b6488e9c1db35d453700,PennController,78,0,test_val,NULL,PennController,89,_Header_,Start,1730985583187,undefined,634,scorn,abstract-negative,negative,positive,A,NULL
1730986033,bc3a5837a5c5b6488e9c1db35d453700,PennController,78,0,test_val,NULL,PennController,89,_Header_,End,1730985583438,undefined,634,scorn,abstract-negative,negative,positive,A,NULL
1730986033,bc3a5837a5c5b6488e9c1db35d453700,PennController,78,0,test_val,NULL,Selector,unnamed-Selector,Selection,negative,1730985584576,undefined,634,scorn,abstract-negative,negative,positive,A,negative;positive
1730986033,bc3a5837a5c5b6488e9c1db35d453700,PennController,78,0,test_val,NULL,PennController,89,_Trial_,End,1730985584580,undefined,634,scorn,abstract-negative,negative,positive,A,NULL
1730986033,bc3a5837a5c5b6488e9c1db35d453700,PennController,72,0,test_val,NULL,PennController,83,_Trial_,Start,1730985584583,undefined,723,adore,abstract-positive,negative,positive,A,NULL
1730986033,bc3a5837a5c5b6488e9c1db35d453700,PennController,72,0,test_val,NULL,PennController,83,_Header_,Start,1730985584583,undefined,723,adore,abstract-positive,negative,positive,A,NULL
1730986033,bc3a5837a5c5b6488e9c1db35d453700,PennController,72,0,test_val,NULL,PennController,83,_Header_,End,1730985584836,undefined,723,adore,abstract-positive,negative,positive,A,NULL
1730986033,bc3a5837a5c5b6488e9c1db35d453700,PennController,72,0,test_val,NULL,Selector,unnamed-Selector,Selection,positive,1730985586066,undefined,723,adore,abstract-positive,negative,positive,A,negative;positive
1730986033,bc3a5837a5c5b6488e9c1db35d453700,PennController,72,0,test_val,NULL,PennController,83,_Trial_,End,1730985586072,undefined,723,adore,abstract-positive,negative,positive,A,NULL
1730986033,bc3a5837a5c5b6488e9c1db35d453700,PennController,76,0,test_val,NULL,PennController,87,_Trial_,Start,1730985586075,undefined,656,dislike,abstract-negative,negative,positive,A,NULL
1730986033,bc3a5837a5c5b6488e9c1db35d453700,PennController,76,0,test_val,NULL,PennController,87,_Header_,Start,1730985586075,undefined,656,dislike,abstract-negative,negative,positive,A,NULL
1730986033,bc3a5837a5c5b6488e9c1db35d453700,PennController,76,0,test_val,NULL,PennController,87,_Header_,End,1730985586328,undefined,656,dislike,abstract-negative,negative,positive,A,NULL
1730986033,bc3a5837a5c5b6488e9c1db35d453700,PennController,76,0,test_val,NULL,Selector,unnamed-Selector,Selection,negative,1730985587489,undefined,656,dislike,abstract-negative,negative,positive,A,negative;positive
1730986033,bc3a5837a5c5b6488e9c1db35d453700,PennController,76,0,test_val,NULL,PennController,87,_Trial_,End,1730985587493,undefined,656,dislike,abstract-negative,negative,positive,A,NULL
1730986033,bc3a5837a5c5b6488e9c1db35d453700,PennController,80,0,test_val,NULL,PennController,91,_Trial_,Start,1730985587496,undefined,680,abhor,abstract-negative,negative,positive,A,NULL
1730986033,bc3a5837a5c5b6488e9c1db35d453700,PennController,80,0,test_val,NULL,PennController,91,_Header_,Start,1730985587496,undefined,680,abhor,abstract-negative,negative,positive,A,NULL
1730986033,bc3a5837a5c5b6488e9c1db35d453700,PennController,80,0,test_val,NULL,PennController,91,_Header_,End,1730985587747,undefined,680,abhor,abstract-negative,negative,positive,A,NULL
1730986033,bc3a5837a5c5b6488e9c1db35d453700,PennController,80,0,test_val,NULL,Selector,unnamed-Selector,Selection,negative,1730985588931,undefined,680,abhor,abstract-negative,negative,positive,A,negative;positive
1730986033,bc3a5837a5c5b6488e9c1db35d453700,PennController,80,0,test_val,NULL,PennController,91,_Trial_,End,1730985588937,undefined,680,abhor,abstract-negative,negative,positive,A,NULL
1730986033,bc3a5837a5c5b6488e9c1db35d453700,PennController,48,0,test_val,NULL,PennController,59,_Trial_,Start,1730985588940,undefined,2539,repair,concrete-positive,negative,positive,A,NULL
1730986033,bc3a5837a5c5b6488e9c1db35d453700,PennController,48,0,test_val,NULL,PennController,59,_Header_,Start,1730985588940,undefined,2539,repair,concrete-positive,negative,positive,A,NULL
1730986033,bc3a5837a5c5b6488e9c1db35d453700,PennController,48,0,test_val,NULL,PennController,59,_Header_,End,1730985589192,undefined,2539,repair,concrete-positive,negative,positive,A,NULL
1730986033,bc3a5837a5c5b6488e9c1db35d453700,PennController,48,0,test_val,NULL,Selector,unnamed-Selector,Selection,positive,1730985592235,undefined,2539,repair,concrete-positive,negative,positive,A,negative;positive
1730986033,bc3a5837a5c5b6488e9c1db35d453700,PennController,48,0,test_val,NULL,PennController,59,_Trial_,End,1730985592239,undefined,2539,repair,concrete-positive,negative,positive,A,NULL
1730986033,bc3a5837a5c5b6488e9c1db35d453700,PennController,46,0,test_val,NULL,PennController,57,_Trial_,Start,1730985592242,undefined,1006,cuddle,concrete-positive,negative,positive,A,NULL
1730986033,bc3a5837a5c5b6488e9c1db35d453700,PennController,46,0,test_val,NULL,PennController,57,_Header_,Start,1730985592242,undefined,1006,cuddle,concrete-positive,negative,positive,A,NULL
1730986033,bc3a5837a5c5b6488e9c1db35d453700,PennController,46,0,test_val,NULL,PennController,57,_Header_,End,1730985592494,undefined,1006,cuddle,concrete-positive,negative,positive,A,NULL
1730986033,bc3a5837a5c5b6488e9c1db35d453700,PennController,46,0,test_val,NULL,Selector,unnamed-Selector,Selection,positive,1730985594004,undefined,1006,cuddle,concrete-positive,negative,positive,A,negative;positive
1730986033,bc3a5837a5c5b6488e9c1db35d453700,PennController,46,0,test_val,NULL,PennController,57,_Trial_,End,1730985594008,undefined,1006,cuddle,concrete-positive,negative,positive,A,NULL
1730986033,bc3a5837a5c5b6488e9c1db35d453700,PennController,69,0,test_val,NULL,PennController,80,_Trial_,Start,1730985594011,undefined,915,praise,abstract-positive,negative,positive,A,NULL
1730986033,bc3a5837a5c5b6488e9c1db35d453700,PennController,69,0,test_val,NULL,PennController,80,_Header_,Start,1730985594011,undefined,915,praise,abstract-positive,negative,positive,A,NULL
1730986033,bc3a5837a5c5b6488e9c1db35d453700,PennController,69,0,test_val,NULL,PennController,80,_Header_,End,1730985594266,undefined,915,praise,abstract-positive,negative,positive,A,NULL
1730986033,bc3a5837a5c5b6488e9c1db35d453700,PennController,69,0,test_val,NULL,Selector,unnamed-Selector,Selection,positive,1730985595684,undefined,915,praise,abstract-positive,negative,positive,A,negative;positive
1730986033,bc3a5837a5c5b6488e9c1db35d453700,PennController,69,0,test_val,NULL,PennController,80,_Trial_,End,1730985595688,undefined,915,praise,abstract-positive,negative,positive,A,NULL
1730986033,bc3a5837a5c5b6488e9c1db35d453700,PennController,65,0,test_val,NULL,PennController,76,_Trial_,Start,1730985595691,undefined,683,encourage,abstract-positive,negative,positive,A,NULL
1730986033,bc3a5837a5c5b6488e9c1db35d453700,PennController,65,0,test_val,NULL,PennController,76,_Header_,Start,1730985595691,undefined,683,encourage,abstract-positive,negative,positive,A,NULL
1730986033,bc3a5837a5c5b6488e9c1db35d453700,PennController,65,0,test_val,NULL,PennController,76,_Header_,End,1730985595942,undefined,683,encourage,abstract-positive,negative,positive,A,NULL
1730986033,bc3a5837a5c5b6488e9c1db35d453700,PennController,65,0,test_val,NULL,Selector,unnamed-Selector,Selection,positive,1730985597128,undefined,683,encourage,abstract-positive,negative,positive,A,negative;positive
1730986033,bc3a5837a5c5b6488e9c1db35d453700,PennController,65,0,test_val,NULL,PennController,76,_Trial_,End,1730985597132,undefined,683,encourage,abstract-positive,negative,positive,A,NULL
1730986033,bc3a5837a5c5b6488e9c1db35d453700,PennController,75,0,test_val,NULL,PennController,86,_Trial_,Start,1730985597135,undefined,654,hate,abstract-negative,negative,positive,A,NULL
1730986033,bc3a5837a5c5b6488e9c1db35d453700,PennController,75,0,test_val,NULL,PennController,86,_Header_,Start,1730985597135,undefined,654,hate,abstract-negative,negative,positive,A,NULL
1730986033,bc3a5837a5c5b6488e9c1db35d453700,PennController,75,0,test_val,NULL,PennController,86,_Header_,End,1730985597386,undefined,654,hate,abstract-negative,negative,positive,A,NULL
1730986033,bc3a5837a5c5b6488e9c1db35d453700,PennController,75,0,test_val,NULL,Selector,unnamed-Selector,Selection,negative,1730985598545,undefined,654,hate,abstract-negative,negative,positive,A,negative;positive
1730986033,bc3a5837a5c5b6488e9c1db35d453700,PennController,75,0,test_val,NULL,PennController,86,_Trial_,End,1730985598549,undefined,654,hate,abstract-negative,negative,positive,A,NULL
1730986033,bc3a5837a5c5b6488e9c1db35d453700,PennController,81,0,test_val,NULL,PennController,92,_Trial_,Start,1730985598552,undefined,647,mourn,abstract-negative,negative,positive,A,NULL
1730986033,bc3a5837a5c5b6488e9c1db35d453700,PennController,81,0,test_val,NULL,PennController,92,_Header_,Start,1730985598552,undefined,647,mourn,abstract-negative,negative,positive,A,NULL
1730986033,bc3a5837a5c5b6488e9c1db35d453700,PennController,81,0,test_val,NULL,PennController,92,_Header_,End,1730985598805,undefined,647,mourn,abstract-negative,negative,positive,A,NULL
1730986033,bc3a5837a5c5b6488e9c1db35d453700,PennController,81,0,test_val,NULL,Selector,unnamed-Selector,Selection,negative,1730985599959,undefined,647,mourn,abstract-negative,negative,positive,A,negative;positive
1730986033,bc3a5837a5c5b6488e9c1db35d453700,PennController,81,0,test_val,NULL,PennController,92,_Trial_,End,1730985599963,undefined,647,mourn,abstract-negative,negative,positive,A,NULL
1730986033,bc3a5837a5c5b6488e9c1db35d453700,PennController,47,0,test_val,NULL,PennController,58,_Trial_,Start,1730985599966,undefined,693,build,concrete-positive,negative,positive,A,NULL
1730986033,bc3a5837a5c5b6488e9c1db35d453700,PennController,47,0,test_val,NULL,PennController,58,_Header_,Start,1730985599966,undefined,693,build,concrete-positive,negative,positive,A,NULL
1730986033,bc3a5837a5c5b6488e9c1db35d453700,PennController,47,0,test_val,NULL,PennController,58,_Header_,End,1730985600217,undefined,693,build,concrete-positive,negative,positive,A,NULL
1730986033,bc3a5837a5c5b6488e9c1db35d453700,PennController,47,0,test_val,NULL,Selector,unnamed-Selector,Selection,positive,1730985601412,undefined,693,build,concrete-positive,negative,positive,A,negative;positive
1730986033,bc3a5837a5c5b6488e9c1db35d453700,PennController,47,0,test_val,NULL,PennController,58,_Trial_,End,1730985601416,undefined,693,build,concrete-positive,negative,positive,A,NULL
1730986033,bc3a5837a5c5b6488e9c1db35d453700,PennController,52,0,test_val,NULL,PennController,63,_Trial_,Start,1730985601419,undefined,1169,heal,concrete-positive,negative,positive,A,NULL
