#
# Results on Thu, 07 Nov 2024 16:17:47 GMT
# USER AGENT: Mozilla/5.0 (Windows NT 10.0; Win64; x64) AppleWebKit/537.36 (KHTML, like Gecko) Chrome/130.0.0.0 Safari/537.36
# Design number was non-random = 0
#
# Columns below this comment are as follows:
# 1. Results reception time.
# 2. MD5 hash of participant's IP address.
# 3. Controller name.
# 4. Order number of item.
# 5. Inner element number.
# 6. Label.
# 7. Latin Square Group.
# 8. PennElementType.
# 9. PennElementName.
# 10. Parameter.
# 11. Value.
# 12. EventTime.
# 13. Comments.
1730996267,0c0e3d3682fea6f9ca52f227fe770901,PennController,1,0,welcome,NULL,PennController,0,_Trial_,Start,1730995662970,NULL
1730996267,0c0e3d3682fea6f9ca52f227fe770901,PennController,1,0,welcome,NULL,PennController,0,_Header_,Start,1730995662970,NULL
1730996267,0c0e3d3682fea6f9ca52f227fe770901,PennController,1,0,welcome,NULL,PennController,0,_Header_,End,1730995663223,NULL
1730996267,0c0e3d3682fea6f9ca52f227fe770901,PennController,1,0,welcome,NULL,PennController,0,_Trial_,End,1730995667286,NULL
# 13. ID.
# 14. Comments.
1730996267,0c0e3d3682fea6f9ca52f227fe770901,PennController,124,0,consent,NULL,PennController,2,_Trial_,Start,1730995667293,5c330cefca23620001b262b1,NULL
1730996267,0c0e3d3682fea6f9ca52f227fe770901,PennController,124,0,consent,NULL,PennController,2,_Header_,Start,1730995667293,5c330cefca23620001b262b1,NULL
1730996267,0c0e3d3682fea6f9ca52f227fe770901,PennController,124,0,consent,NULL,PennController,2,_Header_,End,1730995667554,5c330cefca23620001b262b1,NULL
1730996267,0c0e3d3682fea6f9ca52f227fe770901,PennController,124,0,consent,NULL,TextInput,ID,Final,5c330cefca23620001b262b1,1730995693399,5c330cefca23620001b262b1,NULL
1730996267,0c0e3d3682fea6f9ca52f227fe770901,PennController,124,0,consent,NULL,PennController,2,_Trial_,End,1730995693400,5c330cefca23620001b262b1,NULL
# 13. Comments.
1730996267,0c0e3d3682fea6f9ca52f227fe770901,PennController,126,0,instructions1_val,NULL,PennController,4,_Trial_,Start,1730995693404,NULL
1730996267,0c0e3d3682fea6f9ca52f227fe770901,PennController,126,0,instructions1_val,NULL,PennController,4,_Header_,Start,1730995693404,NULL
1730996267,0c0e3d3682fea6f9ca52f227fe770901,PennController,126,0,instructions1_val,NULL,PennController,4,_Header_,End,1730995693655,NULL
1730996267,0c0e3d3682fea6f9ca52f227fe770901,PennController,126,0,instructions1_val,NULL,PennController,4,_Trial_,End,1730995719241,NULL
1730996267,0c0e3d3682fea6f9ca52f227fe770901,PennController,127,0,instructions2_val,NULL,PennController,5,_Trial_,Start,1730995719243,NULL
1730996267,0c0e3d3682fea6f9ca52f227fe770901,PennController,127,0,instructions2_val,NULL,PennController,5,_Header_,Start,1730995719243,NULL
1730996267,0c0e3d3682fea6f9ca52f227fe770901,PennController,127,0,instructions2_val,NULL,PennController,5,_Header_,End,1730995719496,NULL
1730996267,0c0e3d3682fea6f9ca52f227fe770901,PennController,127,0,instructions2_val,NULL,PennController,5,_Trial_,End,1730995726643,NULL
1730996267,0c0e3d3682fea6f9ca52f227fe770901,PennController,128,0,instructions3_hands,NULL,PennController,6,_Trial_,Start,1730995726645,NULL
1730996267,0c0e3d3682fea6f9ca52f227fe770901,PennController,128,0,instructions3_hands,NULL,PennController,6,_Header_,Start,1730995726645,NULL
1730996267,0c0e3d3682fea6f9ca52f227fe770901,PennController,128,0,instructions3_hands,NULL,PennController,6,_Header_,End,1730995726900,NULL
1730996267,0c0e3d3682fea6f9ca52f227fe770901,PennController,128,0,instructions3_hands,NULL,PennController,6,_Trial_,End,1730995732935,NULL
1730996267,0c0e3d3682fea6f9ca52f227fe770901,PennController,129,0,practice_intro_val,NULL,PennController,7,_Trial_,Start,1730995732939,NULL
1730996267,0c0e3d3682fea6f9ca52f227fe770901,PennController,129,0,practice_intro_val,NULL,PennController,7,_Header_,Start,1730995732939,NULL
1730996267,0c0e3d3682fea6f9ca52f227fe770901,PennController,129,0,practice_intro_val,NULL,PennController,7,_Header_,End,1730995733193,NULL
1730996267,0c0e3d3682fea6f9ca52f227fe770901,PennController,129,0,practice_intro_val,NULL,PennController,7,_Trial_,End,1730995734901,NULL
# 13. ID.
# 14. ReactionTime.
# 15. Word.
# 16. selectedKey.
# 17. selectedValue.
# 18. Key_value_F.
# 19. Key_value_J.
# 20. Group.
# 21. Comments.
1730996267,0c0e3d3682fea6f9ca52f227fe770901,PennController,105,0,calibrator_val_feedback,NULL,PennController,116,_Trial_,Start,1730995734905,undefined,2988,grin,undefined,positive,negative,positive,A,NULL
1730996267,0c0e3d3682fea6f9ca52f227fe770901,PennController,105,0,calibrator_val_feedback,NULL,PennController,116,_Header_,Start,1730995734905,undefined,2988,grin,undefined,positive,negative,positive,A,NULL
1730996267,0c0e3d3682fea6f9ca52f227fe770901,PennController,105,0,calibrator_val_feedback,NULL,PennController,116,_Header_,End,1730995735159,undefined,2988,grin,undefined,positive,negative,positive,A,NULL
1730996267,0c0e3d3682fea6f9ca52f227fe770901,PennController,105,0,calibrator_val_feedback,NULL,Selector,Selection,Selection,positive,1730995738651,undefined,2988,grin,undefined,positive,negative,positive,A,negative;positive
1730996267,0c0e3d3682fea6f9ca52f227fe770901,PennController,105,0,calibrator_val_feedback,NULL,PennController,116,_Trial_,End,1730995740663,undefined,2988,grin,undefined,positive,negative,positive,A,NULL
1730996267,0c0e3d3682fea6f9ca52f227fe770901,PennController,106,0,calibrator_val_feedback,NULL,PennController,117,_Trial_,Start,1730995740667,undefined,1325,hat,undefined,positive,negative,positive,A,NULL
1730996267,0c0e3d3682fea6f9ca52f227fe770901,PennController,106,0,calibrator_val_feedback,NULL,PennController,117,_Header_,Start,1730995740667,undefined,1325,hat,undefined,positive,negative,positive,A,NULL
1730996267,0c0e3d3682fea6f9ca52f227fe770901,PennController,106,0,calibrator_val_feedback,NULL,PennController,117,_Header_,End,1730995740918,undefined,1325,hat,undefined,positive,negative,positive,A,NULL
1730996267,0c0e3d3682fea6f9ca52f227fe770901,PennController,106,0,calibrator_val_feedback,NULL,Selector,Selection,Selection,positive,1730995742746,undefined,1325,hat,undefined,positive,negative,positive,A,negative;positive
1730996267,0c0e3d3682fea6f9ca52f227fe770901,PennController,106,0,calibrator_val_feedback,NULL,PennController,117,_Trial_,End,1730995744759,undefined,1325,hat,undefined,positive,negative,positive,A,NULL
1730996267,0c0e3d3682fea6f9ca52f227fe770901,PennController,109,0,calibrator_val_feedback,NULL,PennController,120,_Trial_,Start,1730995744764,undefined,1245,insecure,undefined,positive,negative,positive,A,NULL
1730996267,0c0e3d3682fea6f9ca52f227fe770901,PennController,109,0,calibrator_val_feedback,NULL,PennController,120,_Header_,Start,1730995744764,undefined,1245,insecure,undefined,positive,negative,positive,A,NULL
1730996267,0c0e3d3682fea6f9ca52f227fe770901,PennController,109,0,calibrator_val_feedback,NULL,PennController,120,_Header_,End,1730995745014,undefined,1245,insecure,undefined,positive,negative,positive,A,NULL
1730996267,0c0e3d3682fea6f9ca52f227fe770901,PennController,109,0,calibrator_val_feedback,NULL,Selector,Selection,Selection,negative,1730995746768,undefined,1245,insecure,undefined,positive,negative,positive,A,negative;positive
1730996267,0c0e3d3682fea6f9ca52f227fe770901,PennController,109,0,calibrator_val_feedback,NULL,PennController,120,_Trial_,End,1730995748784,undefined,1245,insecure,undefined,positive,negative,positive,A,NULL
1730996267,0c0e3d3682fea6f9ca52f227fe770901,PennController,110,0,calibrator_val_feedback,NULL,PennController,121,_Trial_,Start,1730995748786,undefined,1014,invader,undefined,positive,negative,positive,A,NULL
1730996267,0c0e3d3682fea6f9ca52f227fe770901,PennController,110,0,calibrator_val_feedback,NULL,PennController,121,_Header_,Start,1730995748786,undefined,1014,invader,undefined,positive,negative,positive,A,NULL
1730996267,0c0e3d3682fea6f9ca52f227fe770901,PennController,110,0,calibrator_val_feedback,NULL,PennController,121,_Header_,End,1730995749043,undefined,1014,invader,undefined,positive,negative,positive,A,NULL
1730996267,0c0e3d3682fea6f9ca52f227fe770901,PennController,110,0,calibrator_val_feedback,NULL,Selector,Selection,Selection,negative,1730995750560,undefined,1014,invader,undefined,positive,negative,positive,A,negative;positive
1730996267,0c0e3d3682fea6f9ca52f227fe770901,PennController,110,0,calibrator_val_feedback,NULL,PennController,121,_Trial_,End,1730995752571,undefined,1014,invader,undefined,positive,negative,positive,A,NULL
1730996267,0c0e3d3682fea6f9ca52f227fe770901,PennController,108,0,calibrator_val_feedback,NULL,PennController,119,_Trial_,Start,1730995752575,undefined,1843,industry,undefined,positive,negative,positive,A,NULL
1730996267,0c0e3d3682fea6f9ca52f227fe770901,PennController,108,0,calibrator_val_feedback,NULL,PennController,119,_Header_,Start,1730995752575,undefined,1843,industry,undefined,positive,negative,positive,A,NULL
1730996267,0c0e3d3682fea6f9ca52f227fe770901,PennController,108,0,calibrator_val_feedback,NULL,PennController,119,_Header_,End,1730995752827,undefined,1843,industry,undefined,positive,negative,positive,A,NULL
1730996267,0c0e3d3682fea6f9ca52f227fe770901,PennController,108,0,calibrator_val_feedback,NULL,Selector,Selection,Selection,positive,1730995755178,undefined,1843,industry,undefined,positive,negative,positive,A,negative;positive
1730996267,0c0e3d3682fea6f9ca52f227fe770901,PennController,108,0,calibrator_val_feedback,NULL,PennController,119,_Trial_,End,1730995757196,undefined,1843,industry,undefined,positive,negative,positive,A,NULL
1730996267,0c0e3d3682fea6f9ca52f227fe770901,PennController,104,0,calibrator_val_feedback,NULL,PennController,115,_Trial_,Start,1730995757199,undefined,1612,free,undefined,positive,negative,positive,A,NULL
1730996267,0c0e3d3682fea6f9ca52f227fe770901,PennController,104,0,calibrator_val_feedback,NULL,PennController,115,_Header_,Start,1730995757199,undefined,1612,free,undefined,positive,negative,positive,A,NULL
1730996267,0c0e3d3682fea6f9ca52f227fe770901,PennController,104,0,calibrator_val_feedback,NULL,PennController,115,_Header_,End,1730995757456,undefined,1612,free,undefined,positive,negative,positive,A,NULL
1730996267,0c0e3d3682fea6f9ca52f227fe770901,PennController,104,0,calibrator_val_feedback,NULL,Selector,Selection,Selection,positive,1730995759572,undefined,1612,free,undefined,positive,negative,positive,A,negative;positive
1730996267,0c0e3d3682fea6f9ca52f227fe770901,PennController,104,0,calibrator_val_feedback,NULL,PennController,115,_Trial_,End,1730995761579,undefined,1612,free,undefined,positive,negative,positive,A,NULL
1730996267,0c0e3d3682fea6f9ca52f227fe770901,PennController,113,0,calibrator_val_feedback,NULL,PennController,124,_Trial_,Start,1730995761583,undefined,1511,kitten,undefined,positive,negative,positive,A,NULL
1730996267,0c0e3d3682fea6f9ca52f227fe770901,PennController,113,0,calibrator_val_feedback,NULL,PennController,124,_Header_,Start,1730995761583,undefined,1511,kitten,undefined,positive,negative,positive,A,NULL
1730996267,0c0e3d3682fea6f9ca52f227fe770901,PennController,113,0,calibrator_val_feedback,NULL,PennController,124,_Header_,End,1730995761836,undefined,1511,kitten,undefined,positive,negative,positive,A,NULL
1730996267,0c0e3d3682fea6f9ca52f227fe770901,PennController,113,0,calibrator_val_feedback,NULL,Selector,Selection,Selection,positive,1730995763853,undefined,1511,kitten,undefined,positive,negative,positive,A,negative;positive
1730996267,0c0e3d3682fea6f9ca52f227fe770901,PennController,113,0,calibrator_val_feedback,NULL,PennController,124,_Trial_,End,1730995765859,undefined,1511,kitten,undefined,positive,negative,positive,A,NULL
1730996267,0c0e3d3682fea6f9ca52f227fe770901,PennController,112,0,calibrator_val_feedback,NULL,PennController,123,_Trial_,Start,1730995765860,undefined,1300,joke,undefined,positive,negative,positive,A,NULL
1730996267,0c0e3d3682fea6f9ca52f227fe770901,PennController,112,0,calibrator_val_feedback,NULL,PennController,123,_Header_,Start,1730995765860,undefined,1300,joke,undefined,positive,negative,positive,A,NULL
1730996267,0c0e3d3682fea6f9ca52f227fe770901,PennController,112,0,calibrator_val_feedback,NULL,PennController,123,_Header_,End,1730995766117,undefined,1300,joke,undefined,positive,negative,positive,A,NULL
1730996267,0c0e3d3682fea6f9ca52f227fe770901,PennController,112,0,calibrator_val_feedback,NULL,Selector,Selection,Selection,positive,1730995767923,undefined,1300,joke,undefined,positive,negative,positive,A,negative;positive
1730996267,0c0e3d3682fea6f9ca52f227fe770901,PennController,112,0,calibrator_val_feedback,NULL,PennController,123,_Trial_,End,1730995769934,undefined,1300,joke,undefined,positive,negative,positive,A,NULL
1730996267,0c0e3d3682fea6f9ca52f227fe770901,PennController,107,0,calibrator_val_feedback,NULL,PennController,118,_Trial_,Start,1730995769937,undefined,1235,icebox,undefined,positive,negative,positive,A,NULL
1730996267,0c0e3d3682fea6f9ca52f227fe770901,PennController,107,0,calibrator_val_feedback,NULL,PennController,118,_Header_,Start,1730995769937,undefined,1235,icebox,undefined,positive,negative,positive,A,NULL
1730996267,0c0e3d3682fea6f9ca52f227fe770901,PennController,107,0,calibrator_val_feedback,NULL,PennController,118,_Header_,End,1730995770189,undefined,1235,icebox,undefined,positive,negative,positive,A,NULL
1730996267,0c0e3d3682fea6f9ca52f227fe770901,PennController,107,0,calibrator_val_feedback,NULL,Selector,Selection,Selection,positive,1730995771930,undefined,1235,icebox,undefined,positive,negative,positive,A,negative;positive
1730996267,0c0e3d3682fea6f9ca52f227fe770901,PennController,107,0,calibrator_val_feedback,NULL,PennController,118,_Trial_,End,1730995773946,undefined,1235,icebox,undefined,positive,negative,positive,A,NULL
1730996267,0c0e3d3682fea6f9ca52f227fe770901,PennController,111,0,calibrator_val_feedback,NULL,PennController,122,_Trial_,Start,1730995773949,undefined,1551,jail,undefined,positive,negative,positive,A,NULL
1730996267,0c0e3d3682fea6f9ca52f227fe770901,PennController,111,0,calibrator_val_feedback,NULL,PennController,122,_Header_,Start,1730995773949,undefined,1551,jail,undefined,positive,negative,positive,A,NULL
1730996267,0c0e3d3682fea6f9ca52f227fe770901,PennController,111,0,calibrator_val_feedback,NULL,PennController,122,_Header_,End,1730995774206,undefined,1551,jail,undefined,positive,negative,positive,A,NULL
1730996267,0c0e3d3682fea6f9ca52f227fe770901,PennController,111,0,calibrator_val_feedback,NULL,Selector,Selection,Selection,negative,1730995776260,undefined,1551,jail,undefined,positive,negative,positive,A,negative;positive
1730996267,0c0e3d3682fea6f9ca52f227fe770901,PennController,111,0,calibrator_val_feedback,NULL,PennController,122,_Trial_,End,1730995778267,undefined,1551,jail,undefined,positive,negative,positive,A,NULL
# 16. Key_value_F.
# 17. Key_value_J.
# 18. Group.
# 19. Comments.
1730996267,0c0e3d3682fea6f9ca52f227fe770901,PennController,120,0,calibrator_val_no_feedback,NULL,PennController,131,_Trial_,Start,1730995778270,undefined,1597,invader,negative,positive,A,NULL
1730996267,0c0e3d3682fea6f9ca52f227fe770901,PennController,120,0,calibrator_val_no_feedback,NULL,PennController,131,_Header_,Start,1730995778270,undefined,1597,invader,negative,positive,A,NULL
1730996267,0c0e3d3682fea6f9ca52f227fe770901,PennController,120,0,calibrator_val_no_feedback,NULL,PennController,131,_Header_,End,1730995778520,undefined,1597,invader,negative,positive,A,NULL
1730996267,0c0e3d3682fea6f9ca52f227fe770901,PennController,120,0,calibrator_val_no_feedback,NULL,Selector,unnamed-Selector,Selection,negative,1730995780620,undefined,1597,invader,negative,positive,A,negative;positive
1730996267,0c0e3d3682fea6f9ca52f227fe770901,PennController,120,0,calibrator_val_no_feedback,NULL,PennController,131,_Trial_,End,1730995780625,undefined,1597,invader,negative,positive,A,NULL
1730996267,0c0e3d3682fea6f9ca52f227fe770901,PennController,118,0,calibrator_val_no_feedback,NULL,PennController,129,_Trial_,Start,1730995780629,undefined,1046,industry,negative,positive,A,NULL
1730996267,0c0e3d3682fea6f9ca52f227fe770901,PennController,118,0,calibrator_val_no_feedback,NULL,PennController,129,_Header_,Start,1730995780629,undefined,1046,industry,negative,positive,A,NULL
1730996267,0c0e3d3682fea6f9ca52f227fe770901,PennController,118,0,calibrator_val_no_feedback,NULL,PennController,129,_Header_,End,1730995780881,undefined,1046,industry,negative,positive,A,NULL
1730996267,0c0e3d3682fea6f9ca52f227fe770901,PennController,118,0,calibrator_val_no_feedback,NULL,Selector,unnamed-Selector,Selection,positive,1730995782431,undefined,1046,industry,negative,positive,A,negative;positive
1730996267,0c0e3d3682fea6f9ca52f227fe770901,PennController,118,0,calibrator_val_no_feedback,NULL,PennController,129,_Trial_,End,1730995782434,undefined,1046,industry,negative,positive,A,NULL
1730996267,0c0e3d3682fea6f9ca52f227fe770901,PennController,123,0,calibrator_val_no_feedback,NULL,PennController,134,_Trial_,Start,1730995782437,undefined,966,kitten,negative,positive,A,NULL
1730996267,0c0e3d3682fea6f9ca52f227fe770901,PennController,123,0,calibrator_val_no_feedback,NULL,PennController,134,_Header_,Start,1730995782437,undefined,966,kitten,negative,positive,A,NULL
1730996267,0c0e3d3682fea6f9ca52f227fe770901,PennController,123,0,calibrator_val_no_feedback,NULL,PennController,134,_Header_,End,1730995782692,undefined,966,kitten,negative,positive,A,NULL
1730996267,0c0e3d3682fea6f9ca52f227fe770901,PennController,123,0,calibrator_val_no_feedback,NULL,Selector,unnamed-Selector,Selection,positive,1730995784169,undefined,966,kitten,negative,positive,A,negative;positive
1730996267,0c0e3d3682fea6f9ca52f227fe770901,PennController,123,0,calibrator_val_no_feedback,NULL,PennController,134,_Trial_,End,1730995784172,undefined,966,kitten,negative,positive,A,NULL
1730996267,0c0e3d3682fea6f9ca52f227fe770901,PennController,115,0,calibrator_val_no_feedback,NULL,PennController,126,_Trial_,Start,1730995784175,undefined,756,grin,negative,positive,A,NULL
1730996267,0c0e3d3682fea6f9ca52f227fe770901,PennController,115,0,calibrator_val_no_feedback,NULL,PennController,126,_Header_,Start,1730995784175,undefined,756,grin,negative,positive,A,NULL
1730996267,0c0e3d3682fea6f9ca52f227fe770901,PennController,115,0,calibrator_val_no_feedback,NULL,PennController,126,_Header_,End,1730995784429,undefined,756,grin,negative,positive,A,NULL
1730996267,0c0e3d3682fea6f9ca52f227fe770901,PennController,115,0,calibrator_val_no_feedback,NULL,Selector,unnamed-Selector,Selection,positive,1730995785693,undefined,756,grin,negative,positive,A,negative;positive
1730996267,0c0e3d3682fea6f9ca52f227fe770901,PennController,115,0,calibrator_val_no_feedback,NULL,PennController,126,_Trial_,End,1730995785696,undefined,756,grin,negative,positive,A,NULL
1730996267,0c0e3d3682fea6f9ca52f227fe770901,PennController,117,0,calibrator_val_no_feedback,NULL,PennController,128,_Trial_,Start,1730995785699,undefined,649,icebox,negative,positive,A,NULL
1730996267,0c0e3d3682fea6f9ca52f227fe770901,PennController,117,0,calibrator_val_no_feedback,NULL,PennController,128,_Header_,Start,1730995785699,undefined,649,icebox,negative,positive,A,NULL
1730996267,0c0e3d3682fea6f9ca52f227fe770901,PennController,117,0,calibrator_val_no_feedback,NULL,PennController,128,_Header_,End,1730995785950,undefined,649,icebox,negative,positive,A,NULL
1730996267,0c0e3d3682fea6f9ca52f227fe770901,PennController,117,0,calibrator_val_no_feedback,NULL,Selector,unnamed-Selector,Selection,positive,1730995787102,undefined,649,icebox,negative,positive,A,negative;positive
1730996267,0c0e3d3682fea6f9ca52f227fe770901,PennController,117,0,calibrator_val_no_feedback,NULL,PennController,128,_Trial_,End,1730995787105,undefined,649,icebox,negative,positive,A,NULL
1730996267,0c0e3d3682fea6f9ca52f227fe770901,PennController,122,0,calibrator_val_no_feedback,NULL,PennController,133,_Trial_,Start,1730995787108,undefined,553,joke,negative,positive,A,NULL
1730996267,0c0e3d3682fea6f9ca52f227fe770901,PennController,122,0,calibrator_val_no_feedback,NULL,PennController,133,_Header_,Start,1730995787108,undefined,553,joke,negative,positive,A,NULL
1730996267,0c0e3d3682fea6f9ca52f227fe770901,PennController,122,0,calibrator_val_no_feedback,NULL,PennController,133,_Header_,End,1730995787365,undefined,553,joke,negative,positive,A,NULL
1730996267,0c0e3d3682fea6f9ca52f227fe770901,PennController,122,0,calibrator_val_no_feedback,NULL,Selector,unnamed-Selector,Selection,positive,1730995788426,undefined,553,joke,negative,positive,A,negative;positive
1730996267,0c0e3d3682fea6f9ca52f227fe770901,PennController,122,0,calibrator_val_no_feedback,NULL,PennController,133,_Trial_,End,1730995788429,undefined,553,joke,negative,positive,A,NULL
1730996267,0c0e3d3682fea6f9ca52f227fe770901,PennController,121,0,calibrator_val_no_feedback,NULL,PennController,132,_Trial_,Start,1730995788432,undefined,750,jail,negative,positive,A,NULL
1730996267,0c0e3d3682fea6f9ca52f227fe770901,PennController,121,0,calibrator_val_no_feedback,NULL,PennController,132,_Header_,Start,1730995788432,undefined,750,jail,negative,positive,A,NULL
1730996267,0c0e3d3682fea6f9ca52f227fe770901,PennController,121,0,calibrator_val_no_feedback,NULL,PennController,132,_Header_,End,1730995788688,undefined,750,jail,negative,positive,A,NULL
1730996267,0c0e3d3682fea6f9ca52f227fe770901,PennController,121,0,calibrator_val_no_feedback,NULL,Selector,unnamed-Selector,Selection,negative,1730995789947,undefined,750,jail,negative,positive,A,negative;positive
1730996267,0c0e3d3682fea6f9ca52f227fe770901,PennController,121,0,calibrator_val_no_feedback,NULL,PennController,132,_Trial_,End,1730995789950,undefined,750,jail,negative,positive,A,NULL
1730996267,0c0e3d3682fea6f9ca52f227fe770901,PennController,114,0,calibrator_val_no_feedback,NULL,PennController,125,_Trial_,Start,1730995789954,undefined,717,free,negative,positive,A,NULL
1730996267,0c0e3d3682fea6f9ca52f227fe770901,PennController,114,0,calibrator_val_no_feedback,NULL,PennController,125,_Header_,Start,1730995789954,undefined,717,free,negative,positive,A,NULL
1730996267,0c0e3d3682fea6f9ca52f227fe770901,PennController,114,0,calibrator_val_no_feedback,NULL,PennController,125,_Header_,End,1730995790211,undefined,717,free,negative,positive,A,NULL
1730996267,0c0e3d3682fea6f9ca52f227fe770901,PennController,114,0,calibrator_val_no_feedback,NULL,Selector,unnamed-Selector,Selection,positive,1730995791438,undefined,717,free,negative,positive,A,negative;positive
1730996267,0c0e3d3682fea6f9ca52f227fe770901,PennController,114,0,calibrator_val_no_feedback,NULL,PennController,125,_Trial_,End,1730995791442,undefined,717,free,negative,positive,A,NULL
1730996267,0c0e3d3682fea6f9ca52f227fe770901,PennController,119,0,calibrator_val_no_feedback,NULL,PennController,130,_Trial_,Start,1730995791444,undefined,619,insecure,negative,positive,A,NULL
1730996267,0c0e3d3682fea6f9ca52f227fe770901,PennController,119,0,calibrator_val_no_feedback,NULL,PennController,130,_Header_,Start,1730995791444,undefined,619,insecure,negative,positive,A,NULL
1730996267,0c0e3d3682fea6f9ca52f227fe770901,PennController,119,0,calibrator_val_no_feedback,NULL,PennController,130,_Header_,End,1730995791702,undefined,619,insecure,negative,positive,A,NULL
1730996267,0c0e3d3682fea6f9ca52f227fe770901,PennController,119,0,calibrator_val_no_feedback,NULL,Selector,unnamed-Selector,Selection,negative,1730995792825,undefined,619,insecure,negative,positive,A,negative;positive
1730996267,0c0e3d3682fea6f9ca52f227fe770901,PennController,119,0,calibrator_val_no_feedback,NULL,PennController,130,_Trial_,End,1730995792829,undefined,619,insecure,negative,positive,A,NULL
1730996267,0c0e3d3682fea6f9ca52f227fe770901,PennController,116,0,calibrator_val_no_feedback,NULL,PennController,127,_Trial_,Start,1730995792832,undefined,677,hat,negative,positive,A,NULL
1730996267,0c0e3d3682fea6f9ca52f227fe770901,PennController,116,0,calibrator_val_no_feedback,NULL,PennController,127,_Header_,Start,1730995792832,undefined,677,hat,negative,positive,A,NULL
1730996267,0c0e3d3682fea6f9ca52f227fe770901,PennController,116,0,calibrator_val_no_feedback,NULL,PennController,127,_Header_,End,1730995793082,undefined,677,hat,negative,positive,A,NULL
1730996267,0c0e3d3682fea6f9ca52f227fe770901,PennController,116,0,calibrator_val_no_feedback,NULL,Selector,unnamed-Selector,Selection,positive,1730995794262,undefined,677,hat,negative,positive,A,negative;positive
1730996267,0c0e3d3682fea6f9ca52f227fe770901,PennController,116,0,calibrator_val_no_feedback,NULL,PennController,127,_Trial_,End,1730995794266,undefined,677,hat,negative,positive,A,NULL
# 13. Comments.
1730996267,0c0e3d3682fea6f9ca52f227fe770901,PennController,130,0,endinstructions_val,NULL,PennController,8,_Trial_,Start,1730995794269,NULL
1730996267,0c0e3d3682fea6f9ca52f227fe770901,PennController,130,0,endinstructions_val,NULL,PennController,8,_Header_,Start,1730995794269,NULL
1730996267,0c0e3d3682fea6f9ca52f227fe770901,PennController,130,0,endinstructions_val,NULL,PennController,8,_Header_,End,1730995794519,NULL
1730996267,0c0e3d3682fea6f9ca52f227fe770901,PennController,130,0,endinstructions_val,NULL,PennController,8,_Trial_,End,1730995800618,NULL
# 13. ID.
# 14. ReactionTime.
# 15. Word.
# 16. ConcValCombo.
# 17. Key_value_F.
# 18. Key_value_J.
# 19. Group.
# 20. Comments.
1730996267,0c0e3d3682fea6f9ca52f227fe770901,PennController,48,0,test_val,NULL,PennController,59,_Trial_,Start,1730995800621,undefined,993,clean,concrete-positive,negative,positive,A,NULL
1730996267,0c0e3d3682fea6f9ca52f227fe770901,PennController,48,0,test_val,NULL,PennController,59,_Header_,Start,1730995800621,undefined,993,clean,concrete-positive,negative,positive,A,NULL
1730996267,0c0e3d3682fea6f9ca52f227fe770901,PennController,48,0,test_val,NULL,PennController,59,_Header_,End,1730995800876,undefined,993,clean,concrete-positive,negative,positive,A,NULL
1730996267,0c0e3d3682fea6f9ca52f227fe770901,PennController,48,0,test_val,NULL,Selector,unnamed-Selector,Selection,positive,1730995802377,undefined,993,clean,concrete-positive,negative,positive,A,negative;positive
1730996267,0c0e3d3682fea6f9ca52f227fe770901,PennController,48,0,test_val,NULL,PennController,59,_Trial_,End,1730995802380,undefined,993,clean,concrete-positive,negative,positive,A,NULL
1730996267,0c0e3d3682fea6f9ca52f227fe770901,PennController,76,0,test_val,NULL,PennController,87,_Trial_,Start,1730995802383,undefined,747,worry,abstract-negative,negative,positive,A,NULL
1730996267,0c0e3d3682fea6f9ca52f227fe770901,PennController,76,0,test_val,NULL,PennController,87,_Header_,Start,1730995802383,undefined,747,worry,abstract-negative,negative,positive,A,NULL
1730996267,0c0e3d3682fea6f9ca52f227fe770901,PennController,76,0,test_val,NULL,PennController,87,_Header_,End,1730995802637,undefined,747,worry,abstract-negative,negative,positive,A,NULL
1730996267,0c0e3d3682fea6f9ca52f227fe770901,PennController,76,0,test_val,NULL,Selector,unnamed-Selector,Selection,negative,1730995803891,undefined,747,worry,abstract-negative,negative,positive,A,negative;positive
1730996267,0c0e3d3682fea6f9ca52f227fe770901,PennController,76,0,test_val,NULL,PennController,87,_Trial_,End,1730995803895,undefined,747,worry,abstract-negative,negative,positive,A,NULL
1730996267,0c0e3d3682fea6f9ca52f227fe770901,PennController,50,0,test_val,NULL,PennController,61,_Trial_,Start,1730995803898,undefined,526,play,concrete-positive,negative,positive,A,NULL
1730996267,0c0e3d3682fea6f9ca52f227fe770901,PennController,50,0,test_val,NULL,PennController,61,_Header_,Start,1730995803898,undefined,526,play,concrete-positive,negative,positive,A,NULL
1730996267,0c0e3d3682fea6f9ca52f227fe770901,PennController,50,0,test_val,NULL,PennController,61,_Header_,End,1730995804156,undefined,526,play,concrete-positive,negative,positive,A,NULL
1730996267,0c0e3d3682fea6f9ca52f227fe770901,PennController,50,0,test_val,NULL,Selector,unnamed-Selector,Selection,positive,1730995805188,undefined,526,play,concrete-positive,negative,positive,A,negative;positive
1730996267,0c0e3d3682fea6f9ca52f227fe770901,PennController,50,0,test_val,NULL,PennController,61,_Trial_,End,1730995805191,undefined,526,play,concrete-positive,negative,positive,A,NULL
1730996267,0c0e3d3682fea6f9ca52f227fe770901,PennController,70,0,test_val,NULL,PennController,81,_Trial_,Start,1730995805194,undefined,716,revitalize,abstract-positive,negative,positive,A,NULL
1730996267,0c0e3d3682fea6f9ca52f227fe770901,PennController,70,0,test_val,NULL,PennController,81,_Header_,Start,1730995805194,undefined,716,revitalize,abstract-positive,negative,positive,A,NULL
1730996267,0c0e3d3682fea6f9ca52f227fe770901,PennController,70,0,test_val,NULL,PennController,81,_Header_,End,1730995805449,undefined,716,revitalize,abstract-positive,negative,positive,A,NULL
1730996267,0c0e3d3682fea6f9ca52f227fe770901,PennController,70,0,test_val,NULL,Selector,unnamed-Selector,Selection,positive,1730995806671,undefined,716,revitalize,abstract-positive,negative,positive,A,negative;positive
1730996267,0c0e3d3682fea6f9ca52f227fe770901,PennController,70,0,test_val,NULL,PennController,81,_Trial_,End,1730995806674,undefined,716,revitalize,abstract-positive,negative,positive,A,NULL
1730996267,0c0e3d3682fea6f9ca52f227fe770901,PennController,59,0,test_val,NULL,PennController,70,_Trial_,Start,1730995806677,undefined,810,steal,concrete-negative,negative,positive,A,NULL
1730996267,0c0e3d3682fea6f9ca52f227fe770901,PennController,59,0,test_val,NULL,PennController,70,_Header_,Start,1730995806677,undefined,810,steal,concrete-negative,negative,positive,A,NULL
1730996267,0c0e3d3682fea6f9ca52f227fe770901,PennController,59,0,test_val,NULL,PennController,70,_Header_,End,1730995806930,undefined,810,steal,concrete-negative,negative,positive,A,NULL
1730996267,0c0e3d3682fea6f9ca52f227fe770901,PennController,59,0,test_val,NULL,Selector,unnamed-Selector,Selection,negative,1730995808248,undefined,810,steal,concrete-negative,negative,positive,A,negative;positive
1730996267,0c0e3d3682fea6f9ca52f227fe770901,PennController,59,0,test_val,NULL,PennController,70,_Trial_,End,1730995808251,undefined,810,steal,concrete-negative,negative,positive,A,NULL
1730996267,0c0e3d3682fea6f9ca52f227fe770901,PennController,46,0,test_val,NULL,PennController,57,_Trial_,Start,1730995808254,undefined,731,support,concrete-positive,negative,positive,A,NULL
1730996267,0c0e3d3682fea6f9ca52f227fe770901,PennController,46,0,test_val,NULL,PennController,57,_Header_,Start,1730995808254,undefined,731,support,concrete-positive,negative,positive,A,NULL
1730996267,0c0e3d3682fea6f9ca52f227fe770901,PennController,46,0,test_val,NULL,PennController,57,_Header_,End,1730995808507,undefined,731,support,concrete-positive,negative,positive,A,NULL
1730996267,0c0e3d3682fea6f9ca52f227fe770901,PennController,46,0,test_val,NULL,Selector,unnamed-Selector,Selection,positive,1730995809746,undefined,731,support,concrete-positive,negative,positive,A,negative;positive
1730996267,0c0e3d3682fea6f9ca52f227fe770901,PennController,46,0,test_val,NULL,PennController,57,_Trial_,End,1730995809749,undefined,731,support,concrete-positive,negative,positive,A,NULL
1730996267,0c0e3d3682fea6f9ca52f227fe770901,PennController,54,0,test_val,NULL,PennController,65,_Trial_,Start,1730995809752,undefined,595,punch,concrete-negative,negative,positive,A,NULL
1730996267,0c0e3d3682fea6f9ca52f227fe770901,PennController,54,0,test_val,NULL,PennController,65,_Header_,Start,1730995809752,undefined,595,punch,concrete-negative,negative,positive,A,NULL
1730996267,0c0e3d3682fea6f9ca52f227fe770901,PennController,54,0,test_val,NULL,PennController,65,_Header_,End,1730995810003,undefined,595,punch,concrete-negative,negative,positive,A,NULL
1730996267,0c0e3d3682fea6f9ca52f227fe770901,PennController,54,0,test_val,NULL,Selector,unnamed-Selector,Selection,positive,1730995811109,undefined,595,punch,concrete-negative,negative,positive,A,negative;positive
1730996267,0c0e3d3682fea6f9ca52f227fe770901,PennController,54,0,test_val,NULL,PennController,65,_Trial_,End,1730995811112,undefined,595,punch,concrete-negative,negative,positive,A,NULL
1730996267,0c0e3d3682fea6f9ca52f227fe770901,PennController,74,0,test_val,NULL,PennController,85,_Trial_,Start,1730995811115,undefined,885,dread,abstract-negative,negative,positive,A,NULL
1730996267,0c0e3d3682fea6f9ca52f227fe770901,PennController,74,0,test_val,NULL,PennController,85,_Header_,Start,1730995811115,undefined,885,dread,abstract-negative,negative,positive,A,NULL
1730996267,0c0e3d3682fea6f9ca52f227fe770901,PennController,74,0,test_val,NULL,PennController,85,_Header_,End,1730995811371,undefined,885,dread,abstract-negative,negative,positive,A,NULL
1730996267,0c0e3d3682fea6f9ca52f227fe770901,PennController,74,0,test_val,NULL,Selector,unnamed-Selector,Selection,negative,1730995812766,undefined,885,dread,abstract-negative,negative,positive,A,negative;positive
1730996267,0c0e3d3682fea6f9ca52f227fe770901,PennController,74,0,test_val,NULL,PennController,85,_Trial_,End,1730995812769,undefined,885,dread,abstract-negative,negative,positive,A,NULL
1730996267,0c0e3d3682fea6f9ca52f227fe770901,PennController,81,0,test_val,NULL,PennController,92,_Trial_,Start,1730995812772,undefined,695,betray,abstract-negative,negative,positive,A,NULL
1730996267,0c0e3d3682fea6f9ca52f227fe770901,PennController,81,0,test_val,NULL,PennController,92,_Header_,Start,1730995812772,undefined,695,betray,abstract-negative,negative,positive,A,NULL
1730996267,0c0e3d3682fea6f9ca52f227fe770901,PennController,81,0,test_val,NULL,PennController,92,_Header_,End,1730995813024,undefined,695,betray,abstract-negative,negative,positive,A,NULL
1730996267,0c0e3d3682fea6f9ca52f227fe770901,PennController,81,0,test_val,NULL,Selector,unnamed-Selector,Selection,negative,1730995814223,undefined,695,betray,abstract-negative,negative,positive,A,negative;positive
1730996267,0c0e3d3682fea6f9ca52f227fe770901,PennController,81,0,test_val,NULL,PennController,92,_Trial_,End,1730995814227,undefined,695,betray,abstract-negative,negative,positive,A,NULL
1730996267,0c0e3d3682fea6f9ca52f227fe770901,PennController,47,0,test_val,NULL,PennController,58,_Trial_,Start,1730995814230,undefined,671,deliver,concrete-positive,negative,positive,A,NULL
1730996267,0c0e3d3682fea6f9ca52f227fe770901,PennController,47,0,test_val,NULL,PennController,58,_Header_,Start,1730995814230,undefined,671,deliver,concrete-positive,negative,positive,A,NULL
1730996267,0c0e3d3682fea6f9ca52f227fe770901,PennController,47,0,test_val,NULL,PennController,58,_Header_,End,1730995814481,undefined,671,deliver,concrete-positive,negative,positive,A,NULL
1730996267,0c0e3d3682fea6f9ca52f227fe770901,PennController,47,0,test_val,NULL,Selector,unnamed-Selector,Selection,positive,1730995815657,undefined,671,deliver,concrete-positive,negative,positive,A,negative;positive
1730996267,0c0e3d3682fea6f9ca52f227fe770901,PennController,47,0,test_val,NULL,PennController,58,_Trial_,End,1730995815660,undefined,671,deliver,concrete-positive,negative,positive,A,NULL
1730996267,0c0e3d3682fea6f9ca52f227fe770901,PennController,68,0,test_val,NULL,PennController,79,_Trial_,Start,1730995815663,undefined,713,inspire,abstract-positive,negative,positive,A,NULL
1730996267,0c0e3d3682fea6f9ca52f227fe770901,PennController,68,0,test_val,NULL,PennController,79,_Header_,Start,1730995815663,undefined,713,inspire,abstract-positive,negative,positive,A,NULL
1730996267,0c0e3d3682fea6f9ca52f227fe770901,PennController,68,0,test_val,NULL,PennController,79,_Header_,End,1730995815914,undefined,713,inspire,abstract-positive,negative,positive,A,NULL
1730996267,0c0e3d3682fea6f9ca52f227fe770901,PennController,68,0,test_val,NULL,Selector,unnamed-Selector,Selection,positive,1730995817137,undefined,713,inspire,abstract-positive,negative,positive,A,negative;positive
1730996267,0c0e3d3682fea6f9ca52f227fe770901,PennController,68,0,test_val,NULL,PennController,79,_Trial_,End,1730995817140,undefined,713,inspire,abstract-positive,negative,positive,A,NULL
1730996267,0c0e3d3682fea6f9ca52f227fe770901,PennController,51,0,test_val,NULL,PennController,62,_Trial_,Start,1730995817143,undefined,606,lift,concrete-positive,negative,positive,A,NULL
1730996267,0c0e3d3682fea6f9ca52f227fe770901,PennController,51,0,test_val,NULL,PennController,62,_Header_,Start,1730995817143,undefined,606,lift,concrete-positive,negative,positive,A,NULL
1730996267,0c0e3d3682fea6f9ca52f227fe770901,PennController,51,0,test_val,NULL,PennController,62,_Header_,End,1730995817398,undefined,606,lift,concrete-positive,negative,positive,A,NULL
1730996267,0c0e3d3682fea6f9ca52f227fe770901,PennController,51,0,test_val,NULL,Selector,unnamed-Selector,Selection,positive,1730995818507,undefined,606,lift,concrete-positive,negative,positive,A,negative;positive
1730996267,0c0e3d3682fea6f9ca52f227fe770901,PennController,51,0,test_val,NULL,PennController,62,_Trial_,End,1730995818511,undefined,606,lift,concrete-positive,negative,positive,A,NULL
1730996267,0c0e3d3682fea6f9ca52f227fe770901,PennController,60,0,test_val,NULL,PennController,71,_Trial_,Start,1730995818513,undefined,564,slap,concrete-negative,negative,positive,A,NULL
1730996267,0c0e3d3682fea6f9ca52f227fe770901,PennController,60,0,test_val,NULL,PennController,71,_Header_,Start,1730995818513,undefined,564,slap,concrete-negative,negative,positive,A,NULL
1730996267,0c0e3d3682fea6f9ca52f227fe770901,PennController,60,0,test_val,NULL,PennController,71,_Header_,End,1730995818771,undefined,564,slap,concrete-negative,negative,positive,A,NULL
1730996267,0c0e3d3682fea6f9ca52f227fe770901,PennController,60,0,test_val,NULL,Selector,unnamed-Selector,Selection,negative,1730995819843,undefined,564,slap,concrete-negative,negative,positive,A,negative;positive
1730996267,0c0e3d3682fea6f9ca52f227fe770901,PennController,60,0,test_val,NULL,PennController,71,_Trial_,End,1730995819847,undefined,564,slap,concrete-negative,negative,positive,A,NULL
1730996267,0c0e3d3682fea6f9ca52f227fe770901,PennController,71,0,test_val,NULL,PennController,82,_Trial_,Start,1730995819849,undefined,667,thrive,abstract-positive,negative,positive,A,NULL
1730996267,0c0e3d3682fea6f9ca52f227fe770901,PennController,71,0,test_val,NULL,PennController,82,_Header_,Start,1730995819849,undefined,667,thrive,abstract-positive,negative,positive,A,NULL
1730996267,0c0e3d3682fea6f9ca52f227fe770901,PennController,71,0,test_val,NULL,PennController,82,_Header_,End,1730995820102,undefined,667,thrive,abstract-positive,negative,positive,A,NULL
1730996267,0c0e3d3682fea6f9ca52f227fe770901,PennController,71,0,test_val,NULL,Selector,unnamed-Selector,Selection,positive,1730995821276,undefined,667,thrive,abstract-positive,negative,positive,A,negative;positive
1730996267,0c0e3d3682fea6f9ca52f227fe770901,PennController,71,0,test_val,NULL,PennController,82,_Trial_,End,1730995821279,undefined,667,thrive,abstract-positive,negative,positive,A,NULL
1730996267,0c0e3d3682fea6f9ca52f227fe770901,PennController,82,0,test_val,NULL,PennController,93,_Trial_,Start,1730995821282,undefined,947,manipulate,abstract-negative,negative,positive,A,NULL
1730996267,0c0e3d3682fea6f9ca52f227fe770901,PennController,82,0,test_val,NULL,PennController,93,_Header_,Start,1730995821282,undefined,947,manipulate,abstract-negative,negative,positive,A,NULL
1730996267,0c0e3d3682fea6f9ca52f227fe770901,PennController,82,0,test_val,NULL,PennController,93,_Header_,End,1730995821539,undefined,947,manipulate,abstract-negative,negative,positive,A,NULL
1730996267,0c0e3d3682fea6f9ca52f227fe770901,PennController,82,0,test_val,NULL,Selector,unnamed-Selector,Selection,negative,1730995822989,undefined,947,manipulate,abstract-negative,negative,positive,A,negative;positive
1730996267,0c0e3d3682fea6f9ca52f227fe770901,PennController,82,0,test_val,NULL,PennController,93,_Trial_,End,1730995822992,undefined,947,manipulate,abstract-negative,negative,positive,A,NULL
1730996267,0c0e3d3682fea6f9ca52f227fe770901,PennController,53,0,test_val,NULL,PennController,64,_Trial_,Start,1730995822996,undefined,736,explore,concrete-positive,negative,positive,A,NULL
1730996267,0c0e3d3682fea6f9ca52f227fe770901,PennController,53,0,test_val,NULL,PennController,64,_Header_,Start,1730995822996,undefined,736,explore,concrete-positive,negative,positive,A,NULL
1730996267,0c0e3d3682fea6f9ca52f227fe770901,PennController,53,0,test_val,NULL,PennController,64,_Header_,End,1730995823249,undefined,736,explore,concrete-positive,negative,positive,A,NULL
1730996267,0c0e3d3682fea6f9ca52f227fe770901,PennController,53,0,test_val,NULL,Selector,unnamed-Selector,Selection,positive,1730995824488,undefined,736,explore,concrete-positive,negative,positive,A,negative;positive
1730996267,0c0e3d3682fea6f9ca52f227fe770901,PennController,53,0,test_val,NULL,PennController,64,_Trial_,End,1730995824492,undefined,736,explore,concrete-positive,negative,positive,A,NULL
1730996267,0c0e3d3682fea6f9ca52f227fe770901,PennController,44,0,test_val,NULL,PennController,55,_Trial_,Start,1730995824495,undefined,758,construct,concrete-positive,negative,positive,A,NULL
1730996267,0c0e3d3682fea6f9ca52f227fe770901,PennController,44,0,test_val,NULL,PennController,55,_Header_,Start,1730995824495,undefined,758,construct,concrete-positive,negative,positive,A,NULL
1730996267,0c0e3d3682fea6f9ca52f227fe770901,PennController,44,0,test_val,NULL,PennController,55,_Header_,End,1730995824752,undefined,758,construct,concrete-positive,negative,positive,A,NULL
1730996267,0c0e3d3682fea6f9ca52f227fe770901,PennController,44,0,test_val,NULL,Selector,unnamed-Selector,Selection,positive,1730995826018,undefined,758,construct,concrete-positive,negative,positive,A,negative;positive
1730996267,0c0e3d3682fea6f9ca52f227fe770901,PennController,44,0,test_val,NULL,PennController,55,_Trial_,End,1730995826021,undefined,758,construct,concrete-positive,negative,positive,A,NULL
1730996267,0c0e3d3682fea6f9ca52f227fe770901,PennController,45,0,test_val,NULL,PennController,56,_Trial_,Start,1730995826024,undefined,774,help,concrete-positive,negative,positive,A,NULL
1730996267,0c0e3d3682fea6f9ca52f227fe770901,PennController,45,0,test_val,NULL,PennController,56,_Header_,Start,1730995826024,undefined,774,help,concrete-positive,negative,positive,A,NULL
1730996267,0c0e3d3682fea6f9ca52f227fe770901,PennController,45,0,test_val,NULL,PennController,56,_Header_,End,1730995826279,undefined,774,help,concrete-positive,negative,positive,A,NULL
1730996267,0c0e3d3682fea6f9ca52f227fe770901,PennController,45,0,test_val,NULL,Selector,unnamed-Selector,Selection,positive,1730995827557,undefined,774,help,concrete-positive,negative,positive,A,negative;positive
1730996267,0c0e3d3682fea6f9ca52f227fe770901,PennController,45,0,test_val,NULL,PennController,56,_Trial_,End,1730995827561,undefined,774,help,concrete-positive,negative,positive,A,NULL
1730996267,0c0e3d3682fea6f9ca52f227fe770901,PennController,61,0,test_val,NULL,PennController,72,_Trial_,Start,1730995827564,undefined,570,stab,concrete-negative,negative,positive,A,NULL
1730996267,0c0e3d3682fea6f9ca52f227fe770901,PennController,61,0,test_val,NULL,PennController,72,_Header_,Start,1730995827564,undefined,570,stab,concrete-negative,negative,positive,A,NULL
1730996267,0c0e3d3682fea6f9ca52f227fe770901,PennController,61,0,test_val,NULL,PennController,72,_Header_,End,1730995827819,undefined,570,stab,concrete-negative,negative,positive,A,NULL
1730996267,0c0e3d3682fea6f9ca52f227fe770901,PennController,61,0,test_val,NULL,Selector,unnamed-Selector,Selection,negative,1730995828893,undefined,570,stab,concrete-negative,negative,positive,A,negative;positive
1730996267,0c0e3d3682fea6f9ca52f227fe770901,PennController,61,0,test_val,NULL,PennController,72,_Trial_,End,1730995828896,undefined,570,stab,concrete-negative,negative,positive,A,NULL
1730996267,0c0e3d3682fea6f9ca52f227fe770901,PennController,83,0,test_val,NULL,PennController,94,_Trial_,Start,1730995828899,undefined,572,neglect,abstract-negative,negative,positive,A,NULL
1730996267,0c0e3d3682fea6f9ca52f227fe770901,PennController,83,0,test_val,NULL,PennController,94,_Header_,Start,1730995828899,undefined,572,neglect,abstract-negative,negative,positive,A,NULL
1730996267,0c0e3d3682fea6f9ca52f227fe770901,PennController,83,0,test_val,NULL,PennController,94,_Header_,End,1730995829157,undefined,572,neglect,abstract-negative,negative,positive,A,NULL
1730996267,0c0e3d3682fea6f9ca52f227fe770901,PennController,83,0,test_val,NULL,Selector,unnamed-Selector,Selection,negative,1730995830232,undefined,572,neglect,abstract-negative,negative,positive,A,negative;positive
1730996267,0c0e3d3682fea6f9ca52f227fe770901,PennController,83,0,test_val,NULL,PennController,94,_Trial_,End,1730995830235,undefined,572,neglect,abstract-negative,negative,positive,A,NULL
1730996267,0c0e3d3682fea6f9ca52f227fe770901,PennController,75,0,test_val,NULL,PennController,86,_Trial_,Start,1730995830238,undefined,848,obsess,abstract-negative,negative,positive,A,NULL
1730996267,0c0e3d3682fea6f9ca52f227fe770901,PennController,75,0,test_val,NULL,PennController,86,_Header_,Start,1730995830238,undefined,848,obsess,abstract-negative,negative,positive,A,NULL
1730996267,0c0e3d3682fea6f9ca52f227fe770901,PennController,75,0,test_val,NULL,PennController,86,_Header_,End,1730995830494,undefined,848,obsess,abstract-negative,negative,positive,A,NULL
1730996267,0c0e3d3682fea6f9ca52f227fe770901,PennController,75,0,test_val,NULL,Selector,unnamed-Selector,Selection,negative,1730995831846,undefined,848,obsess,abstract-negative,negative,positive,A,negative;positive
1730996267,0c0e3d3682fea6f9ca52f227fe770901,PennController,75,0,test_val,NULL,PennController,86,_Trial_,End,1730995831850,undefined,848,obsess,abstract-negative,negative,positive,A,NULL
1730996267,0c0e3d3682fea6f9ca52f227fe770901,PennController,63,0,test_val,NULL,PennController,74,_Trial_,Start,1730995831853,undefined,677,suffocate,concrete-negative,negative,positive,A,NULL
1730996267,0c0e3d3682fea6f9ca52f227fe770901,PennController,63,0,test_val,NULL,PennController,74,_Header_,Start,1730995831853,undefined,677,suffocate,concrete-negative,negative,positive,A,NULL
1730996267,0c0e3d3682fea6f9ca52f227fe770901,PennController,63,0,test_val,NULL,PennController,74,_Header_,End,1730995832106,undefined,677,suffocate,concrete-negative,negative,positive,A,NULL
1730996267,0c0e3d3682fea6f9ca52f227fe770901,PennController,63,0,test_val,NULL,Selector,unnamed-Selector,Selection,negative,1730995833289,undefined,677,suffocate,concrete-negative,negative,positive,A,negative;positive
1730996267,0c0e3d3682fea6f9ca52f227fe770901,PennController,63,0,test_val,NULL,PennController,74,_Trial_,End,1730995833292,undefined,677,suffocate,concrete-negative,negative,positive,A,NULL
1730996267,0c0e3d3682fea6f9ca52f227fe770901,PennController,79,0,test_val,NULL,PennController,90,_Trial_,Start,1730995833295,undefined,612,doubt,abstract-negative,negative,positive,A,NULL
1730996267,0c0e3d3682fea6f9ca52f227fe770901,PennController,79,0,test_val,NULL,PennController,90,_Header_,Start,1730995833295,undefined,612,doubt,abstract-negative,negative,positive,A,NULL
1730996267,0c0e3d3682fea6f9ca52f227fe770901,PennController,79,0,test_val,NULL,PennController,90,_Header_,End,1730995833547,undefined,612,doubt,abstract-negative,negative,positive,A,NULL
1730996267,0c0e3d3682fea6f9ca52f227fe770901,PennController,79,0,test_val,NULL,Selector,unnamed-Selector,Selection,negative,1730995834665,undefined,612,doubt,abstract-negative,negative,positive,A,negative;positive
1730996267,0c0e3d3682fea6f9ca52f227fe770901,PennController,79,0,test_val,NULL,PennController,90,_Trial_,End,1730995834669,undefined,612,doubt,abstract-negative,negative,positive,A,NULL
1730996267,0c0e3d3682fea6f9ca52f227fe770901,PennController,77,0,test_val,NULL,PennController,88,_Trial_,Start,1730995834672,undefined,651,resent,abstract-negative,negative,positive,A,NULL
1730996267,0c0e3d3682fea6f9ca52f227fe770901,PennController,77,0,test_val,NULL,PennController,88,_Header_,Start,1730995834672,undefined,651,resent,abstract-negative,negative,positive,A,NULL
1730996267,0c0e3d3682fea6f9ca52f227fe770901,PennController,77,0,test_val,NULL,PennController,88,_Header_,End,1730995834929,undefined,651,resent,abstract-negative,negative,positive,A,NULL
1730996267,0c0e3d3682fea6f9ca52f227fe770901,PennController,77,0,test_val,NULL,Selector,unnamed-Selector,Selection,negative,1730995836085,undefined,651,resent,abstract-negative,negative,positive,A,negative;positive
1730996267,0c0e3d3682fea6f9ca52f227fe770901,PennController,77,0,test_val,NULL,PennController,88,_Trial_,End,1730995836088,undefined,651,resent,abstract-negative,negative,positive,A,NULL
1730996267,0c0e3d3682fea6f9ca52f227fe770901,PennController,52,0,test_val,NULL,PennController,63,_Trial_,Start,1730995836091,undefined,554,play,concrete-positive,negative,positive,A,NULL
1730996267,0c0e3d3682fea6f9ca52f227fe770901,PennController,52,0,test_val,NULL,PennController,63,_Header_,Start,1730995836091,undefined,554,play,concrete-positive,negative,positive,A,NULL
1730996267,0c0e3d3682fea6f9ca52f227fe770901,PennController,52,0,test_val,NULL,PennController,63,_Header_,End,1730995836342,undefined,554,play,concrete-positive,negative,positive,A,NULL
1730996267,0c0e3d3682fea6f9ca52f227fe770901,PennController,52,0,test_val,NULL,Selector,unnamed-Selector,Selection,positive,1730995837402,undefined,554,play,concrete-positive,negative,positive,A,negative;positive
1730996267,0c0e3d3682fea6f9ca52f227fe770901,PennController,52,0,test_val,NULL,PennController,63,_Trial_,End,1730995837405,undefined,554,play,concrete-positive,negative,positive,A,NULL
1730996267,0c0e3d3682fea6f9ca52f227fe770901,PennController,78,0,test_val,NULL,PennController,89,_Trial_,Start,1730995837408,undefined,652,envy,abstract-negative,negative,positive,A,NULL
1730996267,0c0e3d3682fea6f9ca52f227fe770901,PennController,78,0,test_val,NULL,PennController,89,_Header_,Start,1730995837408,undefined,652,envy,abstract-negative,negative,positive,A,NULL
1730996267,0c0e3d3682fea6f9ca52f227fe770901,PennController,78,0,test_val,NULL,PennController,89,_Header_,End,1730995837658,undefined,652,envy,abstract-negative,negative,positive,A,NULL
1730996267,0c0e3d3682fea6f9ca52f227fe770901,PennController,78,0,test_val,NULL,Selector,unnamed-Selector,Selection,negative,1730995838813,undefined,652,envy,abstract-negative,negative,positive,A,negative;positive
1730996267,0c0e3d3682fea6f9ca52f227fe770901,PennController,78,0,test_val,NULL,PennController,89,_Trial_,End,1730995838816,undefined,652,envy,abstract-negative,negative,positive,A,NULL
1730996267,0c0e3d3682fea6f9ca52f227fe770901,PennController,69,0,test_val,NULL,PennController,80,_Trial_,Start,1730995838819,undefined,621,encourage,abstract-positive,negative,positive,A,NULL
1730996267,0c0e3d3682fea6f9ca52f227fe770901,PennController,69,0,test_val,NULL,PennController,80,_Header_,Start,1730995838819,undefined,621,encourage,abstract-positive,negative,positive,A,NULL
1730996267,0c0e3d3682fea6f9ca52f227fe770901,PennController,69,0,test_val,NULL,PennController,80,_Header_,End,1730995839072,undefined,621,encourage,abstract-positive,negative,positive,A,NULL
1730996267,0c0e3d3682fea6f9ca52f227fe770901,PennController,69,0,test_val,NULL,Selector,unnamed-Selector,Selection,positive,1730995840198,undefined,621,encourage,abstract-positive,negative,positive,A,negative;positive
1730996267,0c0e3d3682fea6f9ca52f227fe770901,PennController,69,0,test_val,NULL,PennController,80,_Trial_,End,1730995840201,undefined,621,encourage,abstract-positive,negative,positive,A,NULL
1730996267,0c0e3d3682fea6f9ca52f227fe770901,PennController,80,0,test_val,NULL,PennController,91,_Trial_,Start,1730995840204,undefined,638,deceive,abstract-negative,negative,positive,A,NULL
1730996267,0c0e3d3682fea6f9ca52f227fe770901,PennController,80,0,test_val,NULL,PennController,91,_Header_,Start,1730995840204,undefined,638,deceive,abstract-negative,negative,positive,A,NULL
1730996267,0c0e3d3682fea6f9ca52f227fe770901,PennController,80,0,test_val,NULL,PennController,91,_Header_,End,1730995840457,undefined,638,deceive,abstract-negative,negative,positive,A,NULL
1730996267,0c0e3d3682fea6f9ca52f227fe770901,PennController,80,0,test_val,NULL,Selector,unnamed-Selector,Selection,negative,1730995841596,undefined,638,deceive,abstract-negative,negative,positive,A,negative;positive
1730996267,0c0e3d3682fea6f9ca52f227fe770901,PennController,80,0,test_val,NULL,PennController,91,_Trial_,End,1730995841600,undefined,638,deceive,abstract-negative,negative,positive,A,NULL
1730996267,0c0e3d3682fea6f9ca52f227fe770901,PennController,56,0,test_val,NULL,PennController,67,_Trial_,Start,1730995841602,undefined,747,scratch,concrete-negative,negative,positive,A,NULL
1730996267,0c0e3d3682fea6f9ca52f227fe770901,PennController,56,0,test_val,NULL,PennController,67,_Header_,Start,1730995841602,undefined,747,scratch,concrete-negative,negative,positive,A,NULL
1730996267,0c0e3d3682fea6f9ca52f227fe770901,PennController,56,0,test_val,NULL,PennController,67,_Header_,End,1730995841854,undefined,747,scratch,concrete-negative,negative,positive,A,NULL
1730996267,0c0e3d3682fea6f9ca52f227fe770901,PennController,56,0,test_val,NULL,Selector,unnamed-Selector,Selection,negative,1730995843106,undefined,747,scratch,concrete-negative,negative,positive,A,negative;positive
1730996267,0c0e3d3682fea6f9ca52f227fe770901,PennController,56,0,test_val,NULL,PennController,67,_Trial_,End,1730995843109,undefined,747,scratch,concrete-negative,negative,positive,A,NULL
1730996267,0c0e3d3682fea6f9ca52f227fe770901,PennController,49,0,test_val,NULL,PennController,60,_Trial_,Start,1730995843112,undefined,702,dance,concrete-positive,negative,positive,A,NULL
1730996267,0c0e3d3682fea6f9ca52f227fe770901,PennController,49,0,test_val,NULL,PennController,60,_Header_,Start,1730995843112,undefined,702,dance,concrete-positive,negative,positive,A,NULL
1730996267,0c0e3d3682fea6f9ca52f227fe770901,PennController,49,0,test_val,NULL,PennController,60,_Header_,End,1730995843371,undefined,702,dance,concrete-positive,negative,positive,A,NULL
1730996267,0c0e3d3682fea6f9ca52f227fe770901,PennController,49,0,test_val,NULL,Selector,unnamed-Selector,Selection,positive,1730995844578,undefined,702,dance,concrete-positive,negative,positive,A,negative;positive
1730996267,0c0e3d3682fea6f9ca52f227fe770901,PennController,49,0,test_val,NULL,PennController,60,_Trial_,End,1730995844581,undefined,702,dance,concrete-positive,negative,positive,A,NULL
1730996267,0c0e3d3682fea6f9ca52f227fe770901,PennController,58,0,test_val,NULL,PennController,69,_Trial_,Start,1730995844584,undefined,673,destroy,concrete-negative,negative,positive,A,NULL
1730996267,0c0e3d3682fea6f9ca52f227fe770901,PennController,58,0,test_val,NULL,PennController,69,_Header_,Start,1730995844584,undefined,673,destroy,concrete-negative,negative,positive,A,NULL
1730996267,0c0e3d3682fea6f9ca52f227fe770901,PennController,58,0,test_val,NULL,PennController,69,_Header_,End,1730995844839,undefined,673,destroy,concrete-negative,negative,positive,A,NULL
1730996267,0c0e3d3682fea6f9ca52f227fe770901,PennController,58,0,test_val,NULL,Selector,unnamed-Selector,Selection,negative,1730995846018,undefined,673,destroy,concrete-negative,negative,positive,A,negative;positive
1730996267,0c0e3d3682fea6f9ca52f227fe770901,PennController,58,0,test_val,NULL,PennController,69,_Trial_,End,1730995846021,undefined,673,destroy,concrete-negative,negative,positive,A,NULL
1730996267,0c0e3d3682fea6f9ca52f227fe770901,PennController,65,0,test_val,NULL,PennController,76,_Trial_,Start,1730995846024,undefined,691,empower,abstract-positive,negative,positive,A,NULL
1730996267,0c0e3d3682fea6f9ca52f227fe770901,PennController,65,0,test_val,NULL,PennController,76,_Header_,Start,1730995846024,undefined,691,empower,abstract-positive,negative,positive,A,NULL
1730996267,0c0e3d3682fea6f9ca52f227fe770901,PennController,65,0,test_val,NULL,PennController,76,_Header_,End,1730995846275,undefined,691,empower,abstract-positive,negative,positive,A,NULL
1730996267,0c0e3d3682fea6f9ca52f227fe770901,PennController,65,0,test_val,NULL,Selector,unnamed-Selector,Selection,positive,1730995847471,undefined,691,empower,abstract-positive,negative,positive,A,negative;positive
1730996267,0c0e3d3682fea6f9ca52f227fe770901,PennController,65,0,test_val,NULL,PennController,76,_Trial_,End,1730995847475,undefined,691,empower,abstract-positive,negative,positive,A,NULL
1730996267,0c0e3d3682fea6f9ca52f227fe770901,PennController,73,0,test_val,NULL,PennController,84,_Trial_,Start,1730995847477,undefined,789,validate,abstract-positive,negative,positive,A,NULL
1730996267,0c0e3d3682fea6f9ca52f227fe770901,PennController,73,0,test_val,NULL,PennController,84,_Header_,Start,1730995847477,undefined,789,validate,abstract-positive,negative,positive,A,NULL
1730996267,0c0e3d3682fea6f9ca52f227fe770901,PennController,73,0,test_val,NULL,PennController,84,_Header_,End,1730995847735,undefined,789,validate,abstract-positive,negative,positive,A,NULL
1730996267,0c0e3d3682fea6f9ca52f227fe770901,PennController,73,0,test_val,NULL,Selector,unnamed-Selector,Selection,positive,1730995849031,undefined,789,validate,abstract-positive,negative,positive,A,negative;positive
1730996267,0c0e3d3682fea6f9ca52f227fe770901,PennController,73,0,test_val,NULL,PennController,84,_Trial_,End,1730995849034,undefined,789,validate,abstract-positive,negative,positive,A,NULL
1730996267,0c0e3d3682fea6f9ca52f227fe770901,PennController,55,0,test_val,NULL,PennController,66,_Trial_,Start,1730995849037,undefined,567,strangle,concrete-negative,negative,positive,A,NULL
1730996267,0c0e3d3682fea6f9ca52f227fe770901,PennController,55,0,test_val,NULL,PennController,66,_Header_,Start,1730995849037,undefined,567,strangle,concrete-negative,negative,positive,A,NULL
1730996267,0c0e3d3682fea6f9ca52f227fe770901,PennController,55,0,test_val,NULL,PennController,66,_Header_,End,1730995849287,undefined,567,strangle,concrete-negative,negative,positive,A,NULL
1730996267,0c0e3d3682fea6f9ca52f227fe770901,PennController,55,0,test_val,NULL,Selector,unnamed-Selector,Selection,negative,1730995850364,undefined,567,strangle,concrete-negative,negative,positive,A,negative;positive
1730996267,0c0e3d3682fea6f9ca52f227fe770901,PennController,55,0,test_val,NULL,PennController,66,_Trial_,End,1730995850367,undefined,567,strangle,concrete-negative,negative,positive,A,NULL
1730996267,0c0e3d3682fea6f9ca52f227fe770901,PennController,67,0,test_val,NULL,PennController,78,_Trial_,Start,1730995850370,undefined,556,harmonize,abstract-positive,negative,positive,A,NULL
1730996267,0c0e3d3682fea6f9ca52f227fe770901,PennController,67,0,test_val,NULL,PennController,78,_Header_,Start,1730995850370,undefined,556,harmonize,abstract-positive,negative,positive,A,NULL
1730996267,0c0e3d3682fea6f9ca52f227fe770901,PennController,67,0,test_val,NULL,PennController,78,_Header_,End,1730995850627,undefined,556,harmonize,abstract-positive,negative,positive,A,NULL
1730996267,0c0e3d3682fea6f9ca52f227fe770901,PennController,67,0,test_val,NULL,Selector,unnamed-Selector,Selection,positive,1730995851686,undefined,556,harmonize,abstract-positive,negative,positive,A,negative;positive
1730996267,0c0e3d3682fea6f9ca52f227fe770901,PennController,67,0,test_val,NULL,PennController,78,_Trial_,End,1730995851690,undefined,556,harmonize,abstract-positive,negative,positive,A,NULL
1730996267,0c0e3d3682fea6f9ca52f227fe770901,PennController,64,0,test_val,NULL,PennController,75,_Trial_,Start,1730995851693,undefined,624,appreciate,abstract-positive,negative,positive,A,NULL
1730996267,0c0e3d3682fea6f9ca52f227fe770901,PennController,64,0,test_val,NULL,PennController,75,_Header_,Start,1730995851693,undefined,624,appreciate,abstract-positive,negative,positive,A,NULL
1730996267,0c0e3d3682fea6f9ca52f227fe770901,PennController,64,0,test_val,NULL,PennController,75,_Header_,End,1730995851944,undefined,624,appreciate,abstract-positive,negative,positive,A,NULL
1730996267,0c0e3d3682fea6f9ca52f227fe770901,PennController,64,0,test_val,NULL,Selector,unnamed-Selector,Selection,positive,1730995853073,undefined,624,appreciate,abstract-positive,negative,positive,A,negative;positive
1730996267,0c0e3d3682fea6f9ca52f227fe770901,PennController,64,0,test_val,NULL,PennController,75,_Trial_,End,1730995853077,undefined,624,appreciate,abstract-positive,negative,positive,A,NULL
1730996267,0c0e3d3682fea6f9ca52f227fe770901,PennController,62,0,test_val,NULL,PennController,73,_Trial_,Start,1730995853079,undefined,654,choke,concrete-negative,negative,positive,A,NULL
1730996267,0c0e3d3682fea6f9ca52f227fe770901,PennController,62,0,test_val,NULL,PennController,73,_Header_,Start,1730995853079,undefined,654,choke,concrete-negative,negative,positive,A,NULL
1730996267,0c0e3d3682fea6f9ca52f227fe770901,PennController,62,0,test_val,NULL,PennController,73,_Header_,End,1730995853334,undefined,654,choke,concrete-negative,negative,positive,A,NULL
1730996267,0c0e3d3682fea6f9ca52f227fe770901,PennController,62,0,test_val,NULL,Selector,unnamed-Selector,Selection,negative,1730995854495,undefined,654,choke,concrete-negative,negative,positive,A,negative;positive
1730996267,0c0e3d3682fea6f9ca52f227fe770901,PennController,62,0,test_val,NULL,PennController,73,_Trial_,End,1730995854498,undefined,654,choke,concrete-negative,negative,positive,A,NULL
1730996267,0c0e3d3682fea6f9ca52f227fe770901,PennController,66,0,test_val,NULL,PennController,77,_Trial_,Start,1730995854501,undefined,582,innovate,abstract-positive,negative,positive,A,NULL
1730996267,0c0e3d3682fea6f9ca52f227fe770901,PennController,66,0,test_val,NULL,PennController,77,_Header_,Start,1730995854501,undefined,582,innovate,abstract-positive,negative,positive,A,NULL
1730996267,0c0e3d3682fea6f9ca52f227fe770901,PennController,66,0,test_val,NULL,PennController,77,_Header_,End,1730995854760,undefined,582,innovate,abstract-positive,negative,positive,A,NULL
1730996267,0c0e3d3682fea6f9ca52f227fe770901,PennController,66,0,test_val,NULL,Selector,unnamed-Selector,Selection,positive,1730995855846,undefined,582,innovate,abstract-positive,negative,positive,A,negative;positive
1730996267,0c0e3d3682fea6f9ca52f227fe770901,PennController,66,0,test_val,NULL,PennController,77,_Trial_,End,1730995855850,undefined,582,innovate,abstract-positive,negative,positive,A,NULL
1730996267,0c0e3d3682fea6f9ca52f227fe770901,PennController,57,0,test_val,NULL,PennController,68,_Trial_,Start,1730995855853,undefined,595,smash,concrete-negative,negative,positive,A,NULL
1730996267,0c0e3d3682fea6f9ca52f227fe770901,PennController,57,0,test_val,NULL,PennController,68,_Header_,Start,1730995855853,undefined,595,smash,concrete-negative,negative,positive,A,NULL
1730996267,0c0e3d3682fea6f9ca52f227fe770901,PennController,57,0,test_val,NULL,PennController,68,_Header_,End,1730995856109,undefined,595,smash,concrete-negative,negative,positive,A,NULL
1730996267,0c0e3d3682fea6f9ca52f227fe770901,PennController,57,0,test_val,NULL,Selector,unnamed-Selector,Selection,negative,1730995857207,undefined,595,smash,concrete-negative,negative,positive,A,negative;positive
1730996267,0c0e3d3682fea6f9ca52f227fe770901,PennController,57,0,test_val,NULL,PennController,68,_Trial_,End,1730995857208,undefined,595,smash,concrete-negative,negative,positive,A,NULL
1730996267,0c0e3d3682fea6f9ca52f227fe770901,PennController,72,0,test_val,NULL,PennController,83,_Trial_,Start,1730995857209,undefined,629,embolden,abstract-positive,negative,positive,A,NULL
1730996267,0c0e3d3682fea6f9ca52f227fe770901,PennController,72,0,test_val,NULL,PennController,83,_Header_,Start,1730995857209,undefined,629,embolden,abstract-positive,negative,positive,A,NULL
1730996267,0c0e3d3682fea6f9ca52f227fe770901,PennController,72,0,test_val,NULL,PennController,83,_Header_,End,1730995857465,undefined,629,embolden,abstract-positive,negative,positive,A,NULL
1730996267,0c0e3d3682fea6f9ca52f227fe770901,PennController,72,0,test_val,NULL,Selector,unnamed-Selector,Selection,positive,1730995858597,undefined,629,embolden,abstract-positive,negative,positive,A,negative;positive
1730996267,0c0e3d3682fea6f9ca52f227fe770901,PennController,72,0,test_val,NULL,PennController,83,_Trial_,End,1730995858598,undefined,629,embolden,abstract-positive,negative,positive,A,NULL
1730996267,0c0e3d3682fea6f9ca52f227fe770901,PennController,63,0,test_val,NULL,PennController,74,_Trial_,Start,1730995858599,undefined,674,suffocate,concrete-negative,negative,positive,A,NULL
1730996267,0c0e3d3682fea6f9ca52f227fe770901,PennController,63,0,test_val,NULL,PennController,74,_Header_,Start,1730995858599,undefined,674,suffocate,concrete-negative,negative,positive,A,NULL
1730996267,0c0e3d3682fea6f9ca52f227fe770901,PennController,63,0,test_val,NULL,PennController,74,_Header_,End,1730995858857,undefined,674,suffocate,concrete-negative,negative,positive,A,NULL
1730996267,0c0e3d3682fea6f9ca52f227fe770901,PennController,63,0,test_val,NULL,Selector,unnamed-Selector,Selection,negative,1730995860036,undefined,674,suffocate,concrete-negative,negative,positive,A,negative;positive
1730996267,0c0e3d3682fea6f9ca52f227fe770901,PennController,63,0,test_val,NULL,PennController,74,_Trial_,End,1730995860040,undefined,674,suffocate,concrete-negative,negative,positive,A,NULL
1730996267,0c0e3d3682fea6f9ca52f227fe770901,PennController,50,0,test_val,NULL,PennController,61,_Trial_,Start,1730995860042,undefined,626,play,concrete-positive,negative,positive,A,NULL
1730996267,0c0e3d3682fea6f9ca52f227fe770901,PennController,50,0,test_val,NULL,PennController,61,_Header_,Start,1730995860042,undefined,626,play,concrete-positive,negative,positive,A,NULL
1730996267,0c0e3d3682fea6f9ca52f227fe770901,PennController,50,0,test_val,NULL,PennController,61,_Header_,End,1730995860294,undefined,626,play,concrete-positive,negative,positive,A,NULL
1730996267,0c0e3d3682fea6f9ca52f227fe770901,PennController,50,0,test_val,NULL,Selector,unnamed-Selector,Selection,positive,1730995861424,undefined,626,play,concrete-positive,negative,positive,A,negative;positive
1730996267,0c0e3d3682fea6f9ca52f227fe770901,PennController,50,0,test_val,NULL,PennController,61,_Trial_,End,1730995861428,undefined,626,play,concrete-positive,negative,positive,A,NULL
1730996267,0c0e3d3682fea6f9ca52f227fe770901,PennController,74,0,test_val,NULL,PennController,85,_Trial_,Start,1730995861431,undefined,580,dread,abstract-negative,negative,positive,A,NULL
1730996267,0c0e3d3682fea6f9ca52f227fe770901,PennController,74,0,test_val,NULL,PennController,85,_Header_,Start,1730995861431,undefined,580,dread,abstract-negative,negative,positive,A,NULL
1730996267,0c0e3d3682fea6f9ca52f227fe770901,PennController,74,0,test_val,NULL,PennController,85,_Header_,End,1730995861684,undefined,580,dread,abstract-negative,negative,positive,A,NULL
1730996267,0c0e3d3682fea6f9ca52f227fe770901,PennController,74,0,test_val,NULL,Selector,unnamed-Selector,Selection,negative,1730995862773,undefined,580,dread,abstract-negative,negative,positive,A,negative;positive
1730996267,0c0e3d3682fea6f9ca52f227fe770901,PennController,74,0,test_val,NULL,PennController,85,_Trial_,End,1730995862777,undefined,580,dread,abstract-negative,negative,positive,A,NULL
1730996267,0c0e3d3682fea6f9ca52f227fe770901,PennController,54,0,test_val,NULL,PennController,65,_Trial_,Start,1730995862780,undefined,623,punch,concrete-negative,negative,positive,A,NULL
1730996267,0c0e3d3682fea6f9ca52f227fe770901,PennController,54,0,test_val,NULL,PennController,65,_Header_,Start,1730995862780,undefined,623,punch,concrete-negative,negative,positive,A,NULL
1730996267,0c0e3d3682fea6f9ca52f227fe770901,PennController,54,0,test_val,NULL,PennController,65,_Header_,End,1730995863035,undefined,623,punch,concrete-negative,negative,positive,A,NULL
1730996267,0c0e3d3682fea6f9ca52f227fe770901,PennController,54,0,test_val,NULL,Selector,unnamed-Selector,Selection,negative,1730995864165,undefined,623,punch,concrete-negative,negative,positive,A,negative;positive
1730996267,0c0e3d3682fea6f9ca52f227fe770901,PennController,54,0,test_val,NULL,PennController,65,_Trial_,End,1730995864168,undefined,623,punch,concrete-negative,negative,positive,A,NULL
1730996267,0c0e3d3682fea6f9ca52f227fe770901,PennController,75,0,test_val,NULL,PennController,86,_Trial_,Start,1730995864171,undefined,662,obsess,abstract-negative,negative,positive,A,NULL
1730996267,0c0e3d3682fea6f9ca52f227fe770901,PennController,75,0,test_val,NULL,PennController,86,_Header_,Start,1730995864171,undefined,662,obsess,abstract-negative,negative,positive,A,NULL
1730996267,0c0e3d3682fea6f9ca52f227fe770901,PennController,75,0,test_val,NULL,PennController,86,_Header_,End,1730995864426,undefined,662,obsess,abstract-negative,negative,positive,A,NULL
1730996267,0c0e3d3682fea6f9ca52f227fe770901,PennController,75,0,test_val,NULL,Selector,unnamed-Selector,Selection,negative,1730995865593,undefined,662,obsess,abstract-negative,negative,positive,A,negative;positive
1730996267,0c0e3d3682fea6f9ca52f227fe770901,PennController,75,0,test_val,NULL,PennController,86,_Trial_,End,1730995865596,undefined,662,obsess,abstract-negative,negative,positive,A,NULL
1730996267,0c0e3d3682fea6f9ca52f227fe770901,PennController,72,0,test_val,NULL,PennController,83,_Trial_,Start,1730995865599,undefined,763,embolden,abstract-positive,negative,positive,A,NULL
1730996267,0c0e3d3682fea6f9ca52f227fe770901,PennController,72,0,test_val,NULL,PennController,83,_Header_,Start,1730995865599,undefined,763,embolden,abstract-positive,negative,positive,A,NULL
1730996267,0c0e3d3682fea6f9ca52f227fe770901,PennController,72,0,test_val,NULL,PennController,83,_Header_,End,1730995865851,undefined,763,embolden,abstract-positive,negative,positive,A,NULL
1730996267,0c0e3d3682fea6f9ca52f227fe770901,PennController,72,0,test_val,NULL,Selector,unnamed-Selector,Selection,negative,1730995867123,undefined,763,embolden,abstract-positive,negative,positive,A,negative;positive
1730996267,0c0e3d3682fea6f9ca52f227fe770901,PennController,72,0,test_val,NULL,PennController,83,_Trial_,End,1730995867126,undefined,763,embolden,abstract-positive,negative,positive,A,NULL
1730996267,0c0e3d3682fea6f9ca52f227fe770901,PennController,67,0,test_val,NULL,PennController,78,_Trial_,Start,1730995867129,undefined,724,harmonize,abstract-positive,negative,positive,A,NULL
1730996267,0c0e3d3682fea6f9ca52f227fe770901,PennController,67,0,test_val,NULL,PennController,78,_Header_,Start,1730995867129,undefined,724,harmonize,abstract-positive,negative,positive,A,NULL
1730996267,0c0e3d3682fea6f9ca52f227fe770901,PennController,67,0,test_val,NULL,PennController,78,_Header_,End,1730995867386,undefined,724,harmonize,abstract-positive,negative,positive,A,NULL
1730996267,0c0e3d3682fea6f9ca52f227fe770901,PennController,67,0,test_val,NULL,Selector,unnamed-Selector,Selection,positive,1730995868612,undefined,724,harmonize,abstract-positive,negative,positive,A,negative;positive
1730996267,0c0e3d3682fea6f9ca52f227fe770901,PennController,67,0,test_val,NULL,PennController,78,_Trial_,End,1730995868613,undefined,724,harmonize,abstract-positive,negative,positive,A,NULL
1730996267,0c0e3d3682fea6f9ca52f227fe770901,PennController,77,0,test_val,NULL,PennController,88,_Trial_,Start,1730995868614,undefined,650,resent,abstract-negative,negative,positive,A,NULL
1730996267,0c0e3d3682fea6f9ca52f227fe770901,PennController,77,0,test_val,NULL,PennController,88,_Header_,Start,1730995868614,undefined,650,resent,abstract-negative,negative,positive,A,NULL
1730996267,0c0e3d3682fea6f9ca52f227fe770901,PennController,77,0,test_val,NULL,PennController,88,_Header_,End,1730995868865,undefined,650,resent,abstract-negative,negative,positive,A,NULL
1730996267,0c0e3d3682fea6f9ca52f227fe770901,PennController,77,0,test_val,NULL,Selector,unnamed-Selector,Selection,negative,1730995870023,undefined,650,resent,abstract-negative,negative,positive,A,negative;positive
1730996267,0c0e3d3682fea6f9ca52f227fe770901,PennController,77,0,test_val,NULL,PennController,88,_Trial_,End,1730995870026,undefined,650,resent,abstract-negative,negative,positive,A,NULL
1730996267,0c0e3d3682fea6f9ca52f227fe770901,PennController,53,0,test_val,NULL,PennController,64,_Trial_,Start,1730995870029,undefined,671,explore,concrete-positive,negative,positive,A,NULL
1730996267,0c0e3d3682fea6f9ca52f227fe770901,PennController,53,0,test_val,NULL,PennController,64,_Header_,Start,1730995870029,undefined,671,explore,concrete-positive,negative,positive,A,NULL
1730996267,0c0e3d3682fea6f9ca52f227fe770901,PennController,53,0,test_val,NULL,PennController,64,_Header_,End,1730995870286,undefined,671,explore,concrete-positive,negative,positive,A,NULL
1730996267,0c0e3d3682fea6f9ca52f227fe770901,PennController,53,0,test_val,NULL,Selector,unnamed-Selector,Selection,positive,1730995871462,undefined,671,explore,concrete-positive,negative,positive,A,negative;positive
1730996267,0c0e3d3682fea6f9ca52f227fe770901,PennController,53,0,test_val,NULL,PennController,64,_Trial_,End,1730995871465,undefined,671,explore,concrete-positive,negative,positive,A,NULL
1730996267,0c0e3d3682fea6f9ca52f227fe770901,PennController,73,0,test_val,NULL,PennController,84,_Trial_,Start,1730995871468,undefined,985,validate,abstract-positive,negative,positive,A,NULL
1730996267,0c0e3d3682fea6f9ca52f227fe770901,PennController,73,0,test_val,NULL,PennController,84,_Header_,Start,1730995871468,undefined,985,validate,abstract-positive,negative,positive,A,NULL
1730996267,0c0e3d3682fea6f9ca52f227fe770901,PennController,73,0,test_val,NULL,PennController,84,_Header_,End,1730995871723,undefined,985,validate,abstract-positive,negative,positive,A,NULL
1730996267,0c0e3d3682fea6f9ca52f227fe770901,PennController,73,0,test_val,NULL,Selector,unnamed-Selector,Selection,positive,1730995873213,undefined,985,validate,abstract-positive,negative,positive,A,negative;positive
1730996267,0c0e3d3682fea6f9ca52f227fe770901,PennController,73,0,test_val,NULL,PennController,84,_Trial_,End,1730995873217,undefined,985,validate,abstract-positive,negative,positive,A,NULL
1730996267,0c0e3d3682fea6f9ca52f227fe770901,PennController,62,0,test_val,NULL,PennController,73,_Trial_,Start,1730995873219,undefined,567,choke,concrete-negative,negative,positive,A,NULL
1730996267,0c0e3d3682fea6f9ca52f227fe770901,PennController,62,0,test_val,NULL,PennController,73,_Header_,Start,1730995873219,undefined,567,choke,concrete-negative,negative,positive,A,NULL
1730996267,0c0e3d3682fea6f9ca52f227fe770901,PennController,62,0,test_val,NULL,PennController,73,_Header_,End,1730995873472,undefined,567,choke,concrete-negative,negative,positive,A,NULL
1730996267,0c0e3d3682fea6f9ca52f227fe770901,PennController,62,0,test_val,NULL,Selector,unnamed-Selector,Selection,negative,1730995874551,undefined,567,choke,concrete-negative,negative,positive,A,negative;positive
1730996267,0c0e3d3682fea6f9ca52f227fe770901,PennController,62,0,test_val,NULL,PennController,73,_Trial_,End,1730995874554,undefined,567,choke,concrete-negative,negative,positive,A,NULL
1730996267,0c0e3d3682fea6f9ca52f227fe770901,PennController,81,0,test_val,NULL,PennController,92,_Trial_,Start,1730995874557,undefined,548,betray,abstract-negative,negative,positive,A,NULL
1730996267,0c0e3d3682fea6f9ca52f227fe770901,PennController,81,0,test_val,NULL,PennController,92,_Header_,Start,1730995874557,undefined,548,betray,abstract-negative,negative,positive,A,NULL
1730996267,0c0e3d3682fea6f9ca52f227fe770901,PennController,81,0,test_val,NULL,PennController,92,_Header_,End,1730995874811,undefined,548,betray,abstract-negative,negative,positive,A,NULL
1730996267,0c0e3d3682fea6f9ca52f227fe770901,PennController,81,0,test_val,NULL,Selector,unnamed-Selector,Selection,negative,1730995875864,undefined,548,betray,abstract-negative,negative,positive,A,negative;positive
1730996267,0c0e3d3682fea6f9ca52f227fe770901,PennController,81,0,test_val,NULL,PennController,92,_Trial_,End,1730995875867,undefined,548,betray,abstract-negative,negative,positive,A,NULL
1730996267,0c0e3d3682fea6f9ca52f227fe770901,PennController,58,0,test_val,NULL,PennController,69,_Trial_,Start,1730995875870,undefined,500,destroy,concrete-negative,negative,positive,A,NULL
1730996267,0c0e3d3682fea6f9ca52f227fe770901,PennController,58,0,test_val,NULL,PennController,69,_Header_,Start,1730995875870,undefined,500,destroy,concrete-negative,negative,positive,A,NULL
1730996267,0c0e3d3682fea6f9ca52f227fe770901,PennController,58,0,test_val,NULL,PennController,69,_Header_,End,1730995876124,undefined,500,destroy,concrete-negative,negative,positive,A,NULL
1730996267,0c0e3d3682fea6f9ca52f227fe770901,PennController,58,0,test_val,NULL,Selector,unnamed-Selector,Selection,negative,1730995877130,undefined,500,destroy,concrete-negative,negative,positive,A,negative;positive
1730996267,0c0e3d3682fea6f9ca52f227fe770901,PennController,58,0,test_val,NULL,PennController,69,_Trial_,End,1730995877133,undefined,500,destroy,concrete-negative,negative,positive,A,NULL
1730996267,0c0e3d3682fea6f9ca52f227fe770901,PennController,70,0,test_val,NULL,PennController,81,_Trial_,Start,1730995877136,undefined,551,revitalize,abstract-positive,negative,positive,A,NULL
1730996267,0c0e3d3682fea6f9ca52f227fe770901,PennController,70,0,test_val,NULL,PennController,81,_Header_,Start,1730995877136,undefined,551,revitalize,abstract-positive,negative,positive,A,NULL
1730996267,0c0e3d3682fea6f9ca52f227fe770901,PennController,70,0,test_val,NULL,PennController,81,_Header_,End,1730995877387,undefined,551,revitalize,abstract-positive,negative,positive,A,NULL
1730996267,0c0e3d3682fea6f9ca52f227fe770901,PennController,70,0,test_val,NULL,Selector,unnamed-Selector,Selection,positive,1730995878443,undefined,551,revitalize,abstract-positive,negative,positive,A,negative;positive
1730996267,0c0e3d3682fea6f9ca52f227fe770901,PennController,70,0,test_val,NULL,PennController,81,_Trial_,End,1730995878447,undefined,551,revitalize,abstract-positive,negative,positive,A,NULL
1730996267,0c0e3d3682fea6f9ca52f227fe770901,PennController,46,0,test_val,NULL,PennController,57,_Trial_,Start,1730995878450,undefined,562,support,concrete-positive,negative,positive,A,NULL
1730996267,0c0e3d3682fea6f9ca52f227fe770901,PennController,46,0,test_val,NULL,PennController,57,_Header_,Start,1730995878450,undefined,562,support,concrete-positive,negative,positive,A,NULL
1730996267,0c0e3d3682fea6f9ca52f227fe770901,PennController,46,0,test_val,NULL,PennController,57,_Header_,End,1730995878707,undefined,562,support,concrete-positive,negative,positive,A,NULL
1730996267,0c0e3d3682fea6f9ca52f227fe770901,PennController,46,0,test_val,NULL,Selector,unnamed-Selector,Selection,positive,1730995879773,undefined,562,support,concrete-positive,negative,positive,A,negative;positive
1730996267,0c0e3d3682fea6f9ca52f227fe770901,PennController,46,0,test_val,NULL,PennController,57,_Trial_,End,1730995879776,undefined,562,support,concrete-positive,negative,positive,A,NULL
1730996267,0c0e3d3682fea6f9ca52f227fe770901,PennController,52,0,test_val,NULL,PennController,63,_Trial_,Start,1730995879779,undefined,603,play,concrete-positive,negative,positive,A,NULL
1730996267,0c0e3d3682fea6f9ca52f227fe770901,PennController,52,0,test_val,NULL,PennController,63,_Header_,Start,1730995879779,undefined,603,play,concrete-positive,negative,positive,A,NULL
1730996267,0c0e3d3682fea6f9ca52f227fe770901,PennController,52,0,test_val,NULL,PennController,63,_Header_,End,1730995880035,undefined,603,play,concrete-positive,negative,positive,A,NULL
1730996267,0c0e3d3682fea6f9ca52f227fe770901,PennController,52,0,test_val,NULL,Selector,unnamed-Selector,Selection,positive,1730995881141,undefined,603,play,concrete-positive,negative,positive,A,negative;positive
1730996267,0c0e3d3682fea6f9ca52f227fe770901,PennController,52,0,test_val,NULL,PennController,63,_Trial_,End,1730995881144,undefined,603,play,concrete-positive,negative,positive,A,NULL
1730996267,0c0e3d3682fea6f9ca52f227fe770901,PennController,71,0,test_val,NULL,PennController,82,_Trial_,Start,1730995881147,undefined,643,thrive,abstract-positive,negative,positive,A,NULL
1730996267,0c0e3d3682fea6f9ca52f227fe770901,PennController,71,0,test_val,NULL,PennController,82,_Header_,Start,1730995881147,undefined,643,thrive,abstract-positive,negative,positive,A,NULL
1730996267,0c0e3d3682fea6f9ca52f227fe770901,PennController,71,0,test_val,NULL,PennController,82,_Header_,End,1730995881403,undefined,643,thrive,abstract-positive,negative,positive,A,NULL
1730996267,0c0e3d3682fea6f9ca52f227fe770901,PennController,71,0,test_val,NULL,Selector,unnamed-Selector,Selection,positive,1730995882550,undefined,643,thrive,abstract-positive,negative,positive,A,negative;positive
1730996267,0c0e3d3682fea6f9ca52f227fe770901,PennController,71,0,test_val,NULL,PennController,82,_Trial_,End,1730995882553,undefined,643,thrive,abstract-positive,negative,positive,A,NULL
1730996267,0c0e3d3682fea6f9ca52f227fe770901,PennController,68,0,test_val,NULL,PennController,79,_Trial_,Start,1730995882556,undefined,533,inspire,abstract-positive,negative,positive,A,NULL
1730996267,0c0e3d3682fea6f9ca52f227fe770901,PennController,68,0,test_val,NULL,PennController,79,_Header_,Start,1730995882556,undefined,533,inspire,abstract-positive,negative,positive,A,NULL
1730996267,0c0e3d3682fea6f9ca52f227fe770901,PennController,68,0,test_val,NULL,PennController,79,_Header_,End,1730995882814,undefined,533,inspire,abstract-positive,negative,positive,A,NULL
1730996267,0c0e3d3682fea6f9ca52f227fe770901,PennController,68,0,test_val,NULL,Selector,unnamed-Selector,Selection,positive,1730995883853,undefined,533,inspire,abstract-positive,negative,positive,A,negative;positive
1730996267,0c0e3d3682fea6f9ca52f227fe770901,PennController,68,0,test_val,NULL,PennController,79,_Trial_,End,1730995883856,undefined,533,inspire,abstract-positive,negative,positive,A,NULL
1730996267,0c0e3d3682fea6f9ca52f227fe770901,PennController,78,0,test_val,NULL,PennController,89,_Trial_,Start,1730995883859,undefined,465,envy,abstract-negative,negative,positive,A,NULL
1730996267,0c0e3d3682fea6f9ca52f227fe770901,PennController,78,0,test_val,NULL,PennController,89,_Header_,Start,1730995883859,undefined,465,envy,abstract-negative,negative,positive,A,NULL
1730996267,0c0e3d3682fea6f9ca52f227fe770901,PennController,78,0,test_val,NULL,PennController,89,_Header_,End,1730995884111,undefined,465,envy,abstract-negative,negative,positive,A,NULL
1730996267,0c0e3d3682fea6f9ca52f227fe770901,PennController,78,0,test_val,NULL,Selector,unnamed-Selector,Selection,negative,1730995885081,undefined,465,envy,abstract-negative,negative,positive,A,negative;positive
1730996267,0c0e3d3682fea6f9ca52f227fe770901,PennController,78,0,test_val,NULL,PennController,89,_Trial_,End,1730995885084,undefined,465,envy,abstract-negative,negative,positive,A,NULL
1730996267,0c0e3d3682fea6f9ca52f227fe770901,PennController,45,0,test_val,NULL,PennController,56,_Trial_,Start,1730995885087,undefined,768,help,concrete-positive,negative,positive,A,NULL
1730996267,0c0e3d3682fea6f9ca52f227fe770901,PennController,45,0,test_val,NULL,PennController,56,_Header_,Start,1730995885087,undefined,768,help,concrete-positive,negative,positive,A,NULL
1730996267,0c0e3d3682fea6f9ca52f227fe770901,PennController,45,0,test_val,NULL,PennController,56,_Header_,End,1730995885341,undefined,768,help,concrete-positive,negative,positive,A,NULL
1730996267,0c0e3d3682fea6f9ca52f227fe770901,PennController,45,0,test_val,NULL,Selector,unnamed-Selector,Selection,positive,1730995886613,undefined,768,help,concrete-positive,negative,positive,A,negative;positive
1730996267,0c0e3d3682fea6f9ca52f227fe770901,PennController,45,0,test_val,NULL,PennController,56,_Trial_,End,1730995886617,undefined,768,help,concrete-positive,negative,positive,A,NULL
1730996267,0c0e3d3682fea6f9ca52f227fe770901,PennController,79,0,test_val,NULL,PennController,90,_Trial_,Start,1730995886620,undefined,532,doubt,abstract-negative,negative,positive,A,NULL
1730996267,0c0e3d3682fea6f9ca52f227fe770901,PennController,79,0,test_val,NULL,PennController,90,_Header_,Start,1730995886620,undefined,532,doubt,abstract-negative,negative,positive,A,NULL
1730996267,0c0e3d3682fea6f9ca52f227fe770901,PennController,79,0,test_val,NULL,PennController,90,_Header_,End,1730995886870,undefined,532,doubt,abstract-negative,negative,positive,A,NULL
1730996267,0c0e3d3682fea6f9ca52f227fe770901,PennController,79,0,test_val,NULL,Selector,unnamed-Selector,Selection,negative,1730995887906,undefined,532,doubt,abstract-negative,negative,positive,A,negative;positive
1730996267,0c0e3d3682fea6f9ca52f227fe770901,PennController,79,0,test_val,NULL,PennController,90,_Trial_,End,1730995887909,undefined,532,doubt,abstract-negative,negative,positive,A,NULL
1730996267,0c0e3d3682fea6f9ca52f227fe770901,PennController,82,0,test_val,NULL,PennController,93,_Trial_,Start,1730995887912,undefined,739,manipulate,abstract-negative,negative,positive,A,NULL
1730996267,0c0e3d3682fea6f9ca52f227fe770901,PennController,82,0,test_val,NULL,PennController,93,_Header_,Start,1730995887912,undefined,739,manipulate,abstract-negative,negative,positive,A,NULL
1730996267,0c0e3d3682fea6f9ca52f227fe770901,PennController,82,0,test_val,NULL,PennController,93,_Header_,End,1730995888164,undefined,739,manipulate,abstract-negative,negative,positive,A,NULL
1730996267,0c0e3d3682fea6f9ca52f227fe770901,PennController,82,0,test_val,NULL,Selector,unnamed-Selector,Selection,negative,1730995889412,undefined,739,manipulate,abstract-negative,negative,positive,A,negative;positive
1730996267,0c0e3d3682fea6f9ca52f227fe770901,PennController,82,0,test_val,NULL,PennController,93,_Trial_,End,1730995889416,undefined,739,manipulate,abstract-negative,negative,positive,A,NULL
1730996267,0c0e3d3682fea6f9ca52f227fe770901,PennController,47,0,test_val,NULL,PennController,58,_Trial_,Start,1730995889419,undefined,622,deliver,concrete-positive,negative,positive,A,NULL
1730996267,0c0e3d3682fea6f9ca52f227fe770901,PennController,47,0,test_val,NULL,PennController,58,_Header_,Start,1730995889419,undefined,622,deliver,concrete-positive,negative,positive,A,NULL
1730996267,0c0e3d3682fea6f9ca52f227fe770901,PennController,47,0,test_val,NULL,PennController,58,_Header_,End,1730995889672,undefined,622,deliver,concrete-positive,negative,positive,A,NULL
1730996267,0c0e3d3682fea6f9ca52f227fe770901,PennController,47,0,test_val,NULL,Selector,unnamed-Selector,Selection,positive,1730995890796,undefined,622,deliver,concrete-positive,negative,positive,A,negative;positive
1730996267,0c0e3d3682fea6f9ca52f227fe770901,PennController,47,0,test_val,NULL,PennController,58,_Trial_,End,1730995890798,undefined,622,deliver,concrete-positive,negative,positive,A,NULL
1730996267,0c0e3d3682fea6f9ca52f227fe770901,PennController,44,0,test_val,NULL,PennController,55,_Trial_,Start,1730995890800,undefined,615,construct,concrete-positive,negative,positive,A,NULL
1730996267,0c0e3d3682fea6f9ca52f227fe770901,PennController,44,0,test_val,NULL,PennController,55,_Header_,Start,1730995890800,undefined,615,construct,concrete-positive,negative,positive,A,NULL
1730996267,0c0e3d3682fea6f9ca52f227fe770901,PennController,44,0,test_val,NULL,PennController,55,_Header_,End,1730995891051,undefined,615,construct,concrete-positive,negative,positive,A,NULL
1730996267,0c0e3d3682fea6f9ca52f227fe770901,PennController,44,0,test_val,NULL,Selector,unnamed-Selector,Selection,positive,1730995892172,undefined,615,construct,concrete-positive,negative,positive,A,negative;positive
1730996267,0c0e3d3682fea6f9ca52f227fe770901,PennController,44,0,test_val,NULL,PennController,55,_Trial_,End,1730995892174,undefined,615,construct,concrete-positive,negative,positive,A,NULL
1730996267,0c0e3d3682fea6f9ca52f227fe770901,PennController,60,0,test_val,NULL,PennController,71,_Trial_,Start,1730995892175,undefined,538,slap,concrete-negative,negative,positive,A,NULL
1730996267,0c0e3d3682fea6f9ca52f227fe770901,PennController,60,0,test_val,NULL,PennController,71,_Header_,Start,1730995892175,undefined,538,slap,concrete-negative,negative,positive,A,NULL
1730996267,0c0e3d3682fea6f9ca52f227fe770901,PennController,60,0,test_val,NULL,PennController,71,_Header_,End,1730995892430,undefined,538,slap,concrete-negative,negative,positive,A,NULL
1730996267,0c0e3d3682fea6f9ca52f227fe770901,PennController,60,0,test_val,NULL,Selector,unnamed-Selector,Selection,negative,1730995893475,undefined,538,slap,concrete-negative,negative,positive,A,negative;positive
1730996267,0c0e3d3682fea6f9ca52f227fe770901,PennController,60,0,test_val,NULL,PennController,71,_Trial_,End,1730995893478,undefined,538,slap,concrete-negative,negative,positive,A,NULL
1730996267,0c0e3d3682fea6f9ca52f227fe770901,PennController,69,0,test_val,NULL,PennController,80,_Trial_,Start,1730995893480,undefined,582,encourage,abstract-positive,negative,positive,A,NULL
1730996267,0c0e3d3682fea6f9ca52f227fe770901,PennController,69,0,test_val,NULL,PennController,80,_Header_,Start,1730995893480,undefined,582,encourage,abstract-positive,negative,positive,A,NULL
1730996267,0c0e3d3682fea6f9ca52f227fe770901,PennController,69,0,test_val,NULL,PennController,80,_Header_,End,1730995893737,undefined,582,encourage,abstract-positive,negative,positive,A,NULL
1730996267,0c0e3d3682fea6f9ca52f227fe770901,PennController,69,0,test_val,NULL,Selector,unnamed-Selector,Selection,positive,1730995894828,undefined,582,encourage,abstract-positive,negative,positive,A,negative;positive
1730996267,0c0e3d3682fea6f9ca52f227fe770901,PennController,69,0,test_val,NULL,PennController,80,_Trial_,End,1730995894829,undefined,582,encourage,abstract-positive,negative,positive,A,NULL
1730996267,0c0e3d3682fea6f9ca52f227fe770901,PennController,55,0,test_val,NULL,PennController,66,_Trial_,Start,1730995894830,undefined,517,strangle,concrete-negative,negative,positive,A,NULL
1730996267,0c0e3d3682fea6f9ca52f227fe770901,PennController,55,0,test_val,NULL,PennController,66,_Header_,Start,1730995894830,undefined,517,strangle,concrete-negative,negative,positive,A,NULL
1730996267,0c0e3d3682fea6f9ca52f227fe770901,PennController,55,0,test_val,NULL,PennController,66,_Header_,End,1730995895085,undefined,517,strangle,concrete-negative,negative,positive,A,NULL
1730996267,0c0e3d3682fea6f9ca52f227fe770901,PennController,55,0,test_val,NULL,Selector,unnamed-Selector,Selection,negative,1730995896107,undefined,517,strangle,concrete-negative,negative,positive,A,negative;positive
1730996267,0c0e3d3682fea6f9ca52f227fe770901,PennController,55,0,test_val,NULL,PennController,66,_Trial_,End,1730995896110,undefined,517,strangle,concrete-negative,negative,positive,A,NULL
1730996267,0c0e3d3682fea6f9ca52f227fe770901,PennController,83,0,test_val,NULL,PennController,94,_Trial_,Start,1730995896113,undefined,600,neglect,abstract-negative,negative,positive,A,NULL
1730996267,0c0e3d3682fea6f9ca52f227fe770901,PennController,83,0,test_val,NULL,PennController,94,_Header_,Start,1730995896113,undefined,600,neglect,abstract-negative,negative,positive,A,NULL
1730996267,0c0e3d3682fea6f9ca52f227fe770901,PennController,83,0,test_val,NULL,PennController,94,_Header_,End,1730995896370,undefined,600,neglect,abstract-negative,negative,positive,A,NULL
1730996267,0c0e3d3682fea6f9ca52f227fe770901,PennController,83,0,test_val,NULL,Selector,unnamed-Selector,Selection,negative,1730995897474,undefined,600,neglect,abstract-negative,negative,positive,A,negative;positive
1730996267,0c0e3d3682fea6f9ca52f227fe770901,PennController,83,0,test_val,NULL,PennController,94,_Trial_,End,1730995897477,undefined,600,neglect,abstract-negative,negative,positive,A,NULL
1730996267,0c0e3d3682fea6f9ca52f227fe770901,PennController,80,0,test_val,NULL,PennController,91,_Trial_,Start,1730995897480,undefined,615,deceive,abstract-negative,negative,positive,A,NULL
1730996267,0c0e3d3682fea6f9ca52f227fe770901,PennController,80,0,test_val,NULL,PennController,91,_Header_,Start,1730995897480,undefined,615,deceive,abstract-negative,negative,positive,A,NULL
1730996267,0c0e3d3682fea6f9ca52f227fe770901,PennController,80,0,test_val,NULL,PennController,91,_Header_,End,1730995897736,undefined,615,deceive,abstract-negative,negative,positive,A,NULL
1730996267,0c0e3d3682fea6f9ca52f227fe770901,PennController,80,0,test_val,NULL,Selector,unnamed-Selector,Selection,negative,1730995898857,undefined,615,deceive,abstract-negative,negative,positive,A,negative;positive
1730996267,0c0e3d3682fea6f9ca52f227fe770901,PennController,80,0,test_val,NULL,PennController,91,_Trial_,End,1730995898860,undefined,615,deceive,abstract-negative,negative,positive,A,NULL
1730996267,0c0e3d3682fea6f9ca52f227fe770901,PennController,49,0,test_val,NULL,PennController,60,_Trial_,Start,1730995898863,undefined,690,dance,concrete-positive,negative,positive,A,NULL
1730996267,0c0e3d3682fea6f9ca52f227fe770901,PennController,49,0,test_val,NULL,PennController,60,_Header_,Start,1730995898863,undefined,690,dance,concrete-positive,negative,positive,A,NULL
1730996267,0c0e3d3682fea6f9ca52f227fe770901,PennController,49,0,test_val,NULL,PennController,60,_Header_,End,1730995899118,undefined,690,dance,concrete-positive,negative,positive,A,NULL
1730996267,0c0e3d3682fea6f9ca52f227fe770901,PennController,49,0,test_val,NULL,Selector,unnamed-Selector,Selection,positive,1730995900312,undefined,690,dance,concrete-positive,negative,positive,A,negative;positive
1730996267,0c0e3d3682fea6f9ca52f227fe770901,PennController,49,0,test_val,NULL,PennController,60,_Trial_,End,1730995900315,undefined,690,dance,concrete-positive,negative,positive,A,NULL
1730996267,0c0e3d3682fea6f9ca52f227fe770901,PennController,65,0,test_val,NULL,PennController,76,_Trial_,Start,1730995900318,undefined,757,empower,abstract-positive,negative,positive,A,NULL
1730996267,0c0e3d3682fea6f9ca52f227fe770901,PennController,65,0,test_val,NULL,PennController,76,_Header_,Start,1730995900318,undefined,757,empower,abstract-positive,negative,positive,A,NULL
1730996267,0c0e3d3682fea6f9ca52f227fe770901,PennController,65,0,test_val,NULL,PennController,76,_Header_,End,1730995900573,undefined,757,empower,abstract-positive,negative,positive,A,NULL
1730996267,0c0e3d3682fea6f9ca52f227fe770901,PennController,65,0,test_val,NULL,Selector,unnamed-Selector,Selection,positive,1730995901842,undefined,757,empower,abstract-positive,negative,positive,A,negative;positive
1730996267,0c0e3d3682fea6f9ca52f227fe770901,PennController,65,0,test_val,NULL,PennController,76,_Trial_,End,1730995901845,undefined,757,empower,abstract-positive,negative,positive,A,NULL
1730996267,0c0e3d3682fea6f9ca52f227fe770901,PennController,59,0,test_val,NULL,PennController,70,_Trial_,Start,1730995901848,undefined,762,steal,concrete-negative,negative,positive,A,NULL
1730996267,0c0e3d3682fea6f9ca52f227fe770901,PennController,59,0,test_val,NULL,PennController,70,_Header_,Start,1730995901848,undefined,762,steal,concrete-negative,negative,positive,A,NULL
1730996267,0c0e3d3682fea6f9ca52f227fe770901,PennController,59,0,test_val,NULL,PennController,70,_Header_,End,1730995902101,undefined,762,steal,concrete-negative,negative,positive,A,NULL
1730996267,0c0e3d3682fea6f9ca52f227fe770901,PennController,59,0,test_val,NULL,Selector,unnamed-Selector,Selection,negative,1730995903366,undefined,762,steal,concrete-negative,negative,positive,A,negative;positive
1730996267,0c0e3d3682fea6f9ca52f227fe770901,PennController,59,0,test_val,NULL,PennController,70,_Trial_,End,1730995903370,undefined,762,steal,concrete-negative,negative,positive,A,NULL
1730996267,0c0e3d3682fea6f9ca52f227fe770901,PennController,66,0,test_val,NULL,PennController,77,_Trial_,Start,1730995903374,undefined,705,innovate,abstract-positive,negative,positive,A,NULL
1730996267,0c0e3d3682fea6f9ca52f227fe770901,PennController,66,0,test_val,NULL,PennController,77,_Header_,Start,1730995903374,undefined,705,innovate,abstract-positive,negative,positive,A,NULL
1730996267,0c0e3d3682fea6f9ca52f227fe770901,PennController,66,0,test_val,NULL,PennController,77,_Header_,End,1730995903630,undefined,705,innovate,abstract-positive,negative,positive,A,NULL
1730996267,0c0e3d3682fea6f9ca52f227fe770901,PennController,66,0,test_val,NULL,Selector,unnamed-Selector,Selection,positive,1730995904843,undefined,705,innovate,abstract-positive,negative,positive,A,negative;positive
1730996267,0c0e3d3682fea6f9ca52f227fe770901,PennController,66,0,test_val,NULL,PennController,77,_Trial_,End,1730995904846,undefined,705,innovate,abstract-positive,negative,positive,A,NULL
1730996267,0c0e3d3682fea6f9ca52f227fe770901,PennController,76,0,test_val,NULL,PennController,87,_Trial_,Start,1730995904849,undefined,594,worry,abstract-negative,negative,positive,A,NULL
1730996267,0c0e3d3682fea6f9ca52f227fe770901,PennController,76,0,test_val,NULL,PennController,87,_Header_,Start,1730995904849,undefined,594,worry,abstract-negative,negative,positive,A,NULL
1730996267,0c0e3d3682fea6f9ca52f227fe770901,PennController,76,0,test_val,NULL,PennController,87,_Header_,End,1730995905106,undefined,594,worry,abstract-negative,negative,positive,A,NULL
1730996267,0c0e3d3682fea6f9ca52f227fe770901,PennController,76,0,test_val,NULL,Selector,unnamed-Selector,Selection,negative,1730995906205,undefined,594,worry,abstract-negative,negative,positive,A,negative;positive
1730996267,0c0e3d3682fea6f9ca52f227fe770901,PennController,76,0,test_val,NULL,PennController,87,_Trial_,End,1730995906208,undefined,594,worry,abstract-negative,negative,positive,A,NULL
1730996267,0c0e3d3682fea6f9ca52f227fe770901,PennController,61,0,test_val,NULL,PennController,72,_Trial_,Start,1730995906211,undefined,611,stab,concrete-negative,negative,positive,A,NULL
1730996267,0c0e3d3682fea6f9ca52f227fe770901,PennController,61,0,test_val,NULL,PennController,72,_Header_,Start,1730995906211,undefined,611,stab,concrete-negative,negative,positive,A,NULL
1730996267,0c0e3d3682fea6f9ca52f227fe770901,PennController,61,0,test_val,NULL,PennController,72,_Header_,End,1730995906470,undefined,611,stab,concrete-negative,negative,positive,A,NULL
1730996267,0c0e3d3682fea6f9ca52f227fe770901,PennController,61,0,test_val,NULL,Selector,unnamed-Selector,Selection,negative,1730995907585,undefined,611,stab,concrete-negative,negative,positive,A,negative;positive
1730996267,0c0e3d3682fea6f9ca52f227fe770901,PennController,61,0,test_val,NULL,PennController,72,_Trial_,End,1730995907588,undefined,611,stab,concrete-negative,negative,positive,A,NULL
1730996267,0c0e3d3682fea6f9ca52f227fe770901,PennController,48,0,test_val,NULL,PennController,59,_Trial_,Start,1730995907590,undefined,706,clean,concrete-positive,negative,positive,A,NULL
1730996267,0c0e3d3682fea6f9ca52f227fe770901,PennController,48,0,test_val,NULL,PennController,59,_Header_,Start,1730995907590,undefined,706,clean,concrete-positive,negative,positive,A,NULL
1730996267,0c0e3d3682fea6f9ca52f227fe770901,PennController,48,0,test_val,NULL,PennController,59,_Header_,End,1730995907843,undefined,706,clean,concrete-positive,negative,positive,A,NULL
1730996267,0c0e3d3682fea6f9ca52f227fe770901,PennController,48,0,test_val,NULL,Selector,unnamed-Selector,Selection,positive,1730995909057,undefined,706,clean,concrete-positive,negative,positive,A,negative;positive
1730996267,0c0e3d3682fea6f9ca52f227fe770901,PennController,48,0,test_val,NULL,PennController,59,_Trial_,End,1730995909060,undefined,706,clean,concrete-positive,negative,positive,A,NULL
1730996267,0c0e3d3682fea6f9ca52f227fe770901,PennController,57,0,test_val,NULL,PennController,68,_Trial_,Start,1730995909063,undefined,1191,smash,concrete-negative,negative,positive,A,NULL
1730996267,0c0e3d3682fea6f9ca52f227fe770901,PennController,57,0,test_val,NULL,PennController,68,_Header_,Start,1730995909063,undefined,1191,smash,concrete-negative,negative,positive,A,NULL
1730996267,0c0e3d3682fea6f9ca52f227fe770901,PennController,57,0,test_val,NULL,PennController,68,_Header_,End,1730995909320,undefined,1191,smash,concrete-negative,negative,positive,A,NULL
1730996267,0c0e3d3682fea6f9ca52f227fe770901,PennController,57,0,test_val,NULL,Selector,unnamed-Selector,Selection,negative,1730995911013,undefined,1191,smash,concrete-negative,negative,positive,A,negative;positive
1730996267,0c0e3d3682fea6f9ca52f227fe770901,PennController,57,0,test_val,NULL,PennController,68,_Trial_,End,1730995911016,undefined,1191,smash,concrete-negative,negative,positive,A,NULL
1730996267,0c0e3d3682fea6f9ca52f227fe770901,PennController,56,0,test_val,NULL,PennController,67,_Trial_,Start,1730995911019,undefined,668,scratch,concrete-negative,negative,positive,A,NULL
1730996267,0c0e3d3682fea6f9ca52f227fe770901,PennController,56,0,test_val,NULL,PennController,67,_Header_,Start,1730995911019,undefined,668,scratch,concrete-negative,negative,positive,A,NULL
