#
# Results on Tue, 11 Feb 2025 17:45:55 GMT
# USER AGENT: Mozilla/5.0 (Macintosh; Intel Mac OS X 10_15_7) AppleWebKit/537.36 (KHTML, like Gecko) Chrome/132.0.0.0 Safari/537.36
# Design number was non-random = 0
#
# Columns below this comment are as follows:
# 1. Results reception time.
# 2. MD5 hash of participant's IP address.
# 3. Controller name.
# 4. Order number of item.
# 5. Inner element number.
# 6. Label.
# 7. Latin Square Group.
# 8. PennElementType.
# 9. PennElementName.
# 10. Parameter.
# 11. Value.
# 12. EventTime.
# 13. Comments.
1739295955,95510d8c9638cb8bf3e988dc35c945c9,PennController,1,0,welcome,NULL,PennController,0,_Trial_,Start,1739295326334,NULL
1739295955,95510d8c9638cb8bf3e988dc35c945c9,PennController,1,0,welcome,NULL,PennController,0,_Header_,Start,1739295326334,NULL
1739295955,95510d8c9638cb8bf3e988dc35c945c9,PennController,1,0,welcome,NULL,PennController,0,_Header_,End,1739295326586,NULL
1739295955,95510d8c9638cb8bf3e988dc35c945c9,PennController,1,0,welcome,NULL,PennController,0,_Trial_,End,1739295327951,NULL
# 13. ID.
# 14. Comments.
1739295955,95510d8c9638cb8bf3e988dc35c945c9,PennController,124,0,consent,NULL,PennController,2,_Trial_,Start,1739295327953,5f36e3d19ff99d12681ffca7,NULL
1739295955,95510d8c9638cb8bf3e988dc35c945c9,PennController,124,0,consent,NULL,PennController,2,_Header_,Start,1739295327953,5f36e3d19ff99d12681ffca7,NULL
1739295955,95510d8c9638cb8bf3e988dc35c945c9,PennController,124,0,consent,NULL,PennController,2,_Header_,End,1739295328210,5f36e3d19ff99d12681ffca7,NULL
1739295955,95510d8c9638cb8bf3e988dc35c945c9,PennController,124,0,consent,NULL,TextInput,ID,Final,5f36e3d19ff99d12681ffca7,1739295333005,5f36e3d19ff99d12681ffca7,NULL
1739295955,95510d8c9638cb8bf3e988dc35c945c9,PennController,124,0,consent,NULL,TextInput,ID,First,,1739295330303,5f36e3d19ff99d12681ffca7,Meta
1739295955,95510d8c9638cb8bf3e988dc35c945c9,PennController,124,0,consent,NULL,PennController,2,_Trial_,End,1739295333005,5f36e3d19ff99d12681ffca7,NULL
# 13. Comments.
1739295955,95510d8c9638cb8bf3e988dc35c945c9,PennController,126,0,instructions1_val,NULL,PennController,4,_Trial_,Start,1739295333006,NULL
1739295955,95510d8c9638cb8bf3e988dc35c945c9,PennController,126,0,instructions1_val,NULL,PennController,4,_Header_,Start,1739295333006,NULL
1739295955,95510d8c9638cb8bf3e988dc35c945c9,PennController,126,0,instructions1_val,NULL,PennController,4,_Header_,End,1739295333259,NULL
1739295955,95510d8c9638cb8bf3e988dc35c945c9,PennController,126,0,instructions1_val,NULL,PennController,4,_Trial_,End,1739295361638,NULL
1739295955,95510d8c9638cb8bf3e988dc35c945c9,PennController,127,0,instructions2_val,NULL,PennController,5,_Trial_,Start,1739295361640,NULL
1739295955,95510d8c9638cb8bf3e988dc35c945c9,PennController,127,0,instructions2_val,NULL,PennController,5,_Header_,Start,1739295361640,NULL
1739295955,95510d8c9638cb8bf3e988dc35c945c9,PennController,127,0,instructions2_val,NULL,PennController,5,_Header_,End,1739295361891,NULL
1739295955,95510d8c9638cb8bf3e988dc35c945c9,PennController,127,0,instructions2_val,NULL,PennController,5,_Trial_,End,1739295375948,NULL
1739295955,95510d8c9638cb8bf3e988dc35c945c9,PennController,128,0,instructions3_hands,NULL,PennController,6,_Trial_,Start,1739295375949,NULL
1739295955,95510d8c9638cb8bf3e988dc35c945c9,PennController,128,0,instructions3_hands,NULL,PennController,6,_Header_,Start,1739295375949,NULL
1739295955,95510d8c9638cb8bf3e988dc35c945c9,PennController,128,0,instructions3_hands,NULL,PennController,6,_Header_,End,1739295376200,NULL
1739295955,95510d8c9638cb8bf3e988dc35c945c9,PennController,128,0,instructions3_hands,NULL,PennController,6,_Trial_,End,1739295385177,NULL
1739295955,95510d8c9638cb8bf3e988dc35c945c9,PennController,129,0,practice_intro_val,NULL,PennController,7,_Trial_,Start,1739295385178,NULL
1739295955,95510d8c9638cb8bf3e988dc35c945c9,PennController,129,0,practice_intro_val,NULL,PennController,7,_Header_,Start,1739295385178,NULL
1739295955,95510d8c9638cb8bf3e988dc35c945c9,PennController,129,0,practice_intro_val,NULL,PennController,7,_Header_,End,1739295385432,NULL
1739295955,95510d8c9638cb8bf3e988dc35c945c9,PennController,129,0,practice_intro_val,NULL,PennController,7,_Trial_,End,1739295389472,NULL
# 13. ID.
# 14. ReactionTime.
# 15. Word.
# 16. selectedKey.
# 17. selectedValue.
# 18. Key_value_F.
# 19. Key_value_J.
# 20. Group.
# 21. Comments.
1739295955,95510d8c9638cb8bf3e988dc35c945c9,PennController,111,0,calibrator_val_feedback,NULL,PennController,122,_Trial_,Start,1739295389474,undefined,1745,jail,undefined,positive,negative,positive,B,NULL
1739295955,95510d8c9638cb8bf3e988dc35c945c9,PennController,111,0,calibrator_val_feedback,NULL,PennController,122,_Header_,Start,1739295389474,undefined,1745,jail,undefined,positive,negative,positive,B,NULL
1739295955,95510d8c9638cb8bf3e988dc35c945c9,PennController,111,0,calibrator_val_feedback,NULL,PennController,122,_Header_,End,1739295389726,undefined,1745,jail,undefined,positive,negative,positive,B,NULL
1739295955,95510d8c9638cb8bf3e988dc35c945c9,PennController,111,0,calibrator_val_feedback,NULL,Selector,Selection,Selection,negative,1739295393299,undefined,1745,jail,undefined,positive,negative,positive,B,negative;positive
1739295955,95510d8c9638cb8bf3e988dc35c945c9,PennController,111,0,calibrator_val_feedback,NULL,PennController,122,_Trial_,End,1739295393978,undefined,1745,jail,undefined,positive,negative,positive,B,NULL
1739295955,95510d8c9638cb8bf3e988dc35c945c9,PennController,109,0,calibrator_val_feedback,NULL,PennController,120,_Trial_,Start,1739295393980,undefined,1466,insecure,undefined,positive,negative,positive,B,NULL
1739295955,95510d8c9638cb8bf3e988dc35c945c9,PennController,109,0,calibrator_val_feedback,NULL,PennController,120,_Header_,Start,1739295393980,undefined,1466,insecure,undefined,positive,negative,positive,B,NULL
1739295955,95510d8c9638cb8bf3e988dc35c945c9,PennController,109,0,calibrator_val_feedback,NULL,PennController,120,_Header_,End,1739295394233,undefined,1466,insecure,undefined,positive,negative,positive,B,NULL
1739295955,95510d8c9638cb8bf3e988dc35c945c9,PennController,109,0,calibrator_val_feedback,NULL,Selector,Selection,Selection,negative,1739295396741,undefined,1466,insecure,undefined,positive,negative,positive,B,negative;positive
1739295955,95510d8c9638cb8bf3e988dc35c945c9,PennController,109,0,calibrator_val_feedback,NULL,PennController,120,_Trial_,End,1739295398206,undefined,1466,insecure,undefined,positive,negative,positive,B,NULL
1739295955,95510d8c9638cb8bf3e988dc35c945c9,PennController,108,0,calibrator_val_feedback,NULL,PennController,119,_Trial_,Start,1739295398207,undefined,1974,industry,undefined,positive,negative,positive,B,NULL
1739295955,95510d8c9638cb8bf3e988dc35c945c9,PennController,108,0,calibrator_val_feedback,NULL,PennController,119,_Header_,Start,1739295398207,undefined,1974,industry,undefined,positive,negative,positive,B,NULL
1739295955,95510d8c9638cb8bf3e988dc35c945c9,PennController,108,0,calibrator_val_feedback,NULL,PennController,119,_Header_,End,1739295398458,undefined,1974,industry,undefined,positive,negative,positive,B,NULL
1739295955,95510d8c9638cb8bf3e988dc35c945c9,PennController,108,0,calibrator_val_feedback,NULL,Selector,Selection,Selection,positive,1739295400934,undefined,1974,industry,undefined,positive,negative,positive,B,negative;positive
1739295955,95510d8c9638cb8bf3e988dc35c945c9,PennController,108,0,calibrator_val_feedback,NULL,PennController,119,_Trial_,End,1739295402942,undefined,1974,industry,undefined,positive,negative,positive,B,NULL
1739295955,95510d8c9638cb8bf3e988dc35c945c9,PennController,107,0,calibrator_val_feedback,NULL,PennController,118,_Trial_,Start,1739295402944,undefined,1781,icebox,undefined,positive,negative,positive,B,NULL
1739295955,95510d8c9638cb8bf3e988dc35c945c9,PennController,107,0,calibrator_val_feedback,NULL,PennController,118,_Header_,Start,1739295402944,undefined,1781,icebox,undefined,positive,negative,positive,B,NULL
1739295955,95510d8c9638cb8bf3e988dc35c945c9,PennController,107,0,calibrator_val_feedback,NULL,PennController,118,_Header_,End,1739295403195,undefined,1781,icebox,undefined,positive,negative,positive,B,NULL
1739295955,95510d8c9638cb8bf3e988dc35c945c9,PennController,107,0,calibrator_val_feedback,NULL,Selector,Selection,Selection,positive,1739295405479,undefined,1781,icebox,undefined,positive,negative,positive,B,negative;positive
1739295955,95510d8c9638cb8bf3e988dc35c945c9,PennController,107,0,calibrator_val_feedback,NULL,PennController,118,_Trial_,End,1739295407482,undefined,1781,icebox,undefined,positive,negative,positive,B,NULL
1739295955,95510d8c9638cb8bf3e988dc35c945c9,PennController,112,0,calibrator_val_feedback,NULL,PennController,123,_Trial_,Start,1739295407484,undefined,1411,joke,undefined,positive,negative,positive,B,NULL
1739295955,95510d8c9638cb8bf3e988dc35c945c9,PennController,112,0,calibrator_val_feedback,NULL,PennController,123,_Header_,Start,1739295407484,undefined,1411,joke,undefined,positive,negative,positive,B,NULL
1739295955,95510d8c9638cb8bf3e988dc35c945c9,PennController,112,0,calibrator_val_feedback,NULL,PennController,123,_Header_,End,1739295407734,undefined,1411,joke,undefined,positive,negative,positive,B,NULL
1739295955,95510d8c9638cb8bf3e988dc35c945c9,PennController,112,0,calibrator_val_feedback,NULL,Selector,Selection,Selection,positive,1739295409648,undefined,1411,joke,undefined,positive,negative,positive,B,negative;positive
1739295955,95510d8c9638cb8bf3e988dc35c945c9,PennController,112,0,calibrator_val_feedback,NULL,PennController,123,_Trial_,End,1739295411658,undefined,1411,joke,undefined,positive,negative,positive,B,NULL
1739295955,95510d8c9638cb8bf3e988dc35c945c9,PennController,113,0,calibrator_val_feedback,NULL,PennController,124,_Trial_,Start,1739295411659,undefined,1283,kitten,undefined,positive,negative,positive,B,NULL
1739295955,95510d8c9638cb8bf3e988dc35c945c9,PennController,113,0,calibrator_val_feedback,NULL,PennController,124,_Header_,Start,1739295411659,undefined,1283,kitten,undefined,positive,negative,positive,B,NULL
1739295955,95510d8c9638cb8bf3e988dc35c945c9,PennController,113,0,calibrator_val_feedback,NULL,PennController,124,_Header_,End,1739295411910,undefined,1283,kitten,undefined,positive,negative,positive,B,NULL
1739295955,95510d8c9638cb8bf3e988dc35c945c9,PennController,113,0,calibrator_val_feedback,NULL,Selector,Selection,Selection,positive,1739295413699,undefined,1283,kitten,undefined,positive,negative,positive,B,negative;positive
1739295955,95510d8c9638cb8bf3e988dc35c945c9,PennController,113,0,calibrator_val_feedback,NULL,PennController,124,_Trial_,End,1739295415707,undefined,1283,kitten,undefined,positive,negative,positive,B,NULL
1739295955,95510d8c9638cb8bf3e988dc35c945c9,PennController,104,0,calibrator_val_feedback,NULL,PennController,115,_Trial_,Start,1739295415708,undefined,1246,free,undefined,positive,negative,positive,B,NULL
1739295955,95510d8c9638cb8bf3e988dc35c945c9,PennController,104,0,calibrator_val_feedback,NULL,PennController,115,_Header_,Start,1739295415708,undefined,1246,free,undefined,positive,negative,positive,B,NULL
1739295955,95510d8c9638cb8bf3e988dc35c945c9,PennController,104,0,calibrator_val_feedback,NULL,PennController,115,_Header_,End,1739295415962,undefined,1246,free,undefined,positive,negative,positive,B,NULL
1739295955,95510d8c9638cb8bf3e988dc35c945c9,PennController,104,0,calibrator_val_feedback,NULL,Selector,Selection,Selection,positive,1739295417711,undefined,1246,free,undefined,positive,negative,positive,B,negative;positive
1739295955,95510d8c9638cb8bf3e988dc35c945c9,PennController,104,0,calibrator_val_feedback,NULL,PennController,115,_Trial_,End,1739295419719,undefined,1246,free,undefined,positive,negative,positive,B,NULL
1739295955,95510d8c9638cb8bf3e988dc35c945c9,PennController,105,0,calibrator_val_feedback,NULL,PennController,116,_Trial_,Start,1739295419723,undefined,1182,grin,undefined,positive,negative,positive,B,NULL
1739295955,95510d8c9638cb8bf3e988dc35c945c9,PennController,105,0,calibrator_val_feedback,NULL,PennController,116,_Header_,Start,1739295419723,undefined,1182,grin,undefined,positive,negative,positive,B,NULL
1739295955,95510d8c9638cb8bf3e988dc35c945c9,PennController,105,0,calibrator_val_feedback,NULL,PennController,116,_Header_,End,1739295419976,undefined,1182,grin,undefined,positive,negative,positive,B,NULL
1739295955,95510d8c9638cb8bf3e988dc35c945c9,PennController,105,0,calibrator_val_feedback,NULL,Selector,Selection,Selection,positive,1739295421663,undefined,1182,grin,undefined,positive,negative,positive,B,negative;positive
1739295955,95510d8c9638cb8bf3e988dc35c945c9,PennController,105,0,calibrator_val_feedback,NULL,PennController,116,_Trial_,End,1739295423669,undefined,1182,grin,undefined,positive,negative,positive,B,NULL
1739295955,95510d8c9638cb8bf3e988dc35c945c9,PennController,110,0,calibrator_val_feedback,NULL,PennController,121,_Trial_,Start,1739295423672,undefined,1827,invader,undefined,positive,negative,positive,B,NULL
1739295955,95510d8c9638cb8bf3e988dc35c945c9,PennController,110,0,calibrator_val_feedback,NULL,PennController,121,_Header_,Start,1739295423672,undefined,1827,invader,undefined,positive,negative,positive,B,NULL
1739295955,95510d8c9638cb8bf3e988dc35c945c9,PennController,110,0,calibrator_val_feedback,NULL,PennController,121,_Header_,End,1739295423923,undefined,1827,invader,undefined,positive,negative,positive,B,NULL
1739295955,95510d8c9638cb8bf3e988dc35c945c9,PennController,110,0,calibrator_val_feedback,NULL,Selector,Selection,Selection,negative,1739295426254,undefined,1827,invader,undefined,positive,negative,positive,B,negative;positive
1739295955,95510d8c9638cb8bf3e988dc35c945c9,PennController,110,0,calibrator_val_feedback,NULL,PennController,121,_Trial_,End,1739295428260,undefined,1827,invader,undefined,positive,negative,positive,B,NULL
1739295955,95510d8c9638cb8bf3e988dc35c945c9,PennController,106,0,calibrator_val_feedback,NULL,PennController,117,_Trial_,Start,1739295428262,undefined,1445,hat,undefined,positive,negative,positive,B,NULL
1739295955,95510d8c9638cb8bf3e988dc35c945c9,PennController,106,0,calibrator_val_feedback,NULL,PennController,117,_Header_,Start,1739295428262,undefined,1445,hat,undefined,positive,negative,positive,B,NULL
1739295955,95510d8c9638cb8bf3e988dc35c945c9,PennController,106,0,calibrator_val_feedback,NULL,PennController,117,_Header_,End,1739295428513,undefined,1445,hat,undefined,positive,negative,positive,B,NULL
1739295955,95510d8c9638cb8bf3e988dc35c945c9,PennController,106,0,calibrator_val_feedback,NULL,Selector,Selection,Selection,positive,1739295430461,undefined,1445,hat,undefined,positive,negative,positive,B,negative;positive
1739295955,95510d8c9638cb8bf3e988dc35c945c9,PennController,106,0,calibrator_val_feedback,NULL,PennController,117,_Trial_,End,1739295432467,undefined,1445,hat,undefined,positive,negative,positive,B,NULL
# 16. Key_value_F.
# 17. Key_value_J.
# 18. Group.
# 19. Comments.
1739295955,95510d8c9638cb8bf3e988dc35c945c9,PennController,122,0,calibrator_val_no_feedback,NULL,PennController,133,_Trial_,Start,1739295432469,undefined,967,joke,negative,positive,B,NULL
1739295955,95510d8c9638cb8bf3e988dc35c945c9,PennController,122,0,calibrator_val_no_feedback,NULL,PennController,133,_Header_,Start,1739295432469,undefined,967,joke,negative,positive,B,NULL
1739295955,95510d8c9638cb8bf3e988dc35c945c9,PennController,122,0,calibrator_val_no_feedback,NULL,PennController,133,_Header_,End,1739295432720,undefined,967,joke,negative,positive,B,NULL
1739295955,95510d8c9638cb8bf3e988dc35c945c9,PennController,122,0,calibrator_val_no_feedback,NULL,Selector,unnamed-Selector,Selection,positive,1739295434191,undefined,967,joke,negative,positive,B,negative;positive
1739295955,95510d8c9638cb8bf3e988dc35c945c9,PennController,122,0,calibrator_val_no_feedback,NULL,PennController,133,_Trial_,End,1739295434192,undefined,967,joke,negative,positive,B,NULL
1739295955,95510d8c9638cb8bf3e988dc35c945c9,PennController,120,0,calibrator_val_no_feedback,NULL,PennController,131,_Trial_,Start,1739295434193,undefined,1260,invader,negative,positive,B,NULL
1739295955,95510d8c9638cb8bf3e988dc35c945c9,PennController,120,0,calibrator_val_no_feedback,NULL,PennController,131,_Header_,Start,1739295434193,undefined,1260,invader,negative,positive,B,NULL
1739295955,95510d8c9638cb8bf3e988dc35c945c9,PennController,120,0,calibrator_val_no_feedback,NULL,PennController,131,_Header_,End,1739295434446,undefined,1260,invader,negative,positive,B,NULL
1739295955,95510d8c9638cb8bf3e988dc35c945c9,PennController,120,0,calibrator_val_no_feedback,NULL,Selector,unnamed-Selector,Selection,negative,1739295436207,undefined,1260,invader,negative,positive,B,negative;positive
1739295955,95510d8c9638cb8bf3e988dc35c945c9,PennController,120,0,calibrator_val_no_feedback,NULL,PennController,131,_Trial_,End,1739295436209,undefined,1260,invader,negative,positive,B,NULL
1739295955,95510d8c9638cb8bf3e988dc35c945c9,PennController,119,0,calibrator_val_no_feedback,NULL,PennController,130,_Trial_,Start,1739295436211,undefined,1154,insecure,negative,positive,B,NULL
1739295955,95510d8c9638cb8bf3e988dc35c945c9,PennController,119,0,calibrator_val_no_feedback,NULL,PennController,130,_Header_,Start,1739295436211,undefined,1154,insecure,negative,positive,B,NULL
1739295955,95510d8c9638cb8bf3e988dc35c945c9,PennController,119,0,calibrator_val_no_feedback,NULL,PennController,130,_Header_,End,1739295436463,undefined,1154,insecure,negative,positive,B,NULL
1739295955,95510d8c9638cb8bf3e988dc35c945c9,PennController,119,0,calibrator_val_no_feedback,NULL,Selector,unnamed-Selector,Selection,negative,1739295438121,undefined,1154,insecure,negative,positive,B,negative;positive
1739295955,95510d8c9638cb8bf3e988dc35c945c9,PennController,119,0,calibrator_val_no_feedback,NULL,PennController,130,_Trial_,End,1739295438122,undefined,1154,insecure,negative,positive,B,NULL
1739295955,95510d8c9638cb8bf3e988dc35c945c9,PennController,116,0,calibrator_val_no_feedback,NULL,PennController,127,_Trial_,Start,1739295438123,undefined,1040,hat,negative,positive,B,NULL
1739295955,95510d8c9638cb8bf3e988dc35c945c9,PennController,116,0,calibrator_val_no_feedback,NULL,PennController,127,_Header_,Start,1739295438123,undefined,1040,hat,negative,positive,B,NULL
1739295955,95510d8c9638cb8bf3e988dc35c945c9,PennController,116,0,calibrator_val_no_feedback,NULL,PennController,127,_Header_,End,1739295438375,undefined,1040,hat,negative,positive,B,NULL
1739295955,95510d8c9638cb8bf3e988dc35c945c9,PennController,116,0,calibrator_val_no_feedback,NULL,Selector,unnamed-Selector,Selection,positive,1739295439916,undefined,1040,hat,negative,positive,B,negative;positive
1739295955,95510d8c9638cb8bf3e988dc35c945c9,PennController,116,0,calibrator_val_no_feedback,NULL,PennController,127,_Trial_,End,1739295439918,undefined,1040,hat,negative,positive,B,NULL
1739295955,95510d8c9638cb8bf3e988dc35c945c9,PennController,121,0,calibrator_val_no_feedback,NULL,PennController,132,_Trial_,Start,1739295439919,undefined,1074,jail,negative,positive,B,NULL
1739295955,95510d8c9638cb8bf3e988dc35c945c9,PennController,121,0,calibrator_val_no_feedback,NULL,PennController,132,_Header_,Start,1739295439919,undefined,1074,jail,negative,positive,B,NULL
1739295955,95510d8c9638cb8bf3e988dc35c945c9,PennController,121,0,calibrator_val_no_feedback,NULL,PennController,132,_Header_,End,1739295440171,undefined,1074,jail,negative,positive,B,NULL
1739295955,95510d8c9638cb8bf3e988dc35c945c9,PennController,121,0,calibrator_val_no_feedback,NULL,Selector,unnamed-Selector,Selection,negative,1739295441747,undefined,1074,jail,negative,positive,B,negative;positive
1739295955,95510d8c9638cb8bf3e988dc35c945c9,PennController,121,0,calibrator_val_no_feedback,NULL,PennController,132,_Trial_,End,1739295441748,undefined,1074,jail,negative,positive,B,NULL
1739295955,95510d8c9638cb8bf3e988dc35c945c9,PennController,118,0,calibrator_val_no_feedback,NULL,PennController,129,_Trial_,Start,1739295441749,undefined,1004,industry,negative,positive,B,NULL
1739295955,95510d8c9638cb8bf3e988dc35c945c9,PennController,118,0,calibrator_val_no_feedback,NULL,PennController,129,_Header_,Start,1739295441749,undefined,1004,industry,negative,positive,B,NULL
1739295955,95510d8c9638cb8bf3e988dc35c945c9,PennController,118,0,calibrator_val_no_feedback,NULL,PennController,129,_Header_,End,1739295442003,undefined,1004,industry,negative,positive,B,NULL
1739295955,95510d8c9638cb8bf3e988dc35c945c9,PennController,118,0,calibrator_val_no_feedback,NULL,Selector,unnamed-Selector,Selection,positive,1739295443507,undefined,1004,industry,negative,positive,B,negative;positive
1739295955,95510d8c9638cb8bf3e988dc35c945c9,PennController,118,0,calibrator_val_no_feedback,NULL,PennController,129,_Trial_,End,1739295443509,undefined,1004,industry,negative,positive,B,NULL
1739295955,95510d8c9638cb8bf3e988dc35c945c9,PennController,117,0,calibrator_val_no_feedback,NULL,PennController,128,_Trial_,Start,1739295443509,undefined,1212,icebox,negative,positive,B,NULL
1739295955,95510d8c9638cb8bf3e988dc35c945c9,PennController,117,0,calibrator_val_no_feedback,NULL,PennController,128,_Header_,Start,1739295443509,undefined,1212,icebox,negative,positive,B,NULL
1739295955,95510d8c9638cb8bf3e988dc35c945c9,PennController,117,0,calibrator_val_no_feedback,NULL,PennController,128,_Header_,End,1739295443762,undefined,1212,icebox,negative,positive,B,NULL
1739295955,95510d8c9638cb8bf3e988dc35c945c9,PennController,117,0,calibrator_val_no_feedback,NULL,Selector,unnamed-Selector,Selection,positive,1739295445477,undefined,1212,icebox,negative,positive,B,negative;positive
1739295955,95510d8c9638cb8bf3e988dc35c945c9,PennController,117,0,calibrator_val_no_feedback,NULL,PennController,128,_Trial_,End,1739295445477,undefined,1212,icebox,negative,positive,B,NULL
1739295955,95510d8c9638cb8bf3e988dc35c945c9,PennController,115,0,calibrator_val_no_feedback,NULL,PennController,126,_Trial_,Start,1739295445478,undefined,764,grin,negative,positive,B,NULL
1739295955,95510d8c9638cb8bf3e988dc35c945c9,PennController,115,0,calibrator_val_no_feedback,NULL,PennController,126,_Header_,Start,1739295445478,undefined,764,grin,negative,positive,B,NULL
1739295955,95510d8c9638cb8bf3e988dc35c945c9,PennController,115,0,calibrator_val_no_feedback,NULL,PennController,126,_Header_,End,1739295445731,undefined,764,grin,negative,positive,B,NULL
1739295955,95510d8c9638cb8bf3e988dc35c945c9,PennController,115,0,calibrator_val_no_feedback,NULL,Selector,unnamed-Selector,Selection,positive,1739295446996,undefined,764,grin,negative,positive,B,negative;positive
1739295955,95510d8c9638cb8bf3e988dc35c945c9,PennController,115,0,calibrator_val_no_feedback,NULL,PennController,126,_Trial_,End,1739295446997,undefined,764,grin,negative,positive,B,NULL
1739295955,95510d8c9638cb8bf3e988dc35c945c9,PennController,123,0,calibrator_val_no_feedback,NULL,PennController,134,_Trial_,Start,1739295446998,undefined,696,kitten,negative,positive,B,NULL
1739295955,95510d8c9638cb8bf3e988dc35c945c9,PennController,123,0,calibrator_val_no_feedback,NULL,PennController,134,_Header_,Start,1739295446998,undefined,696,kitten,negative,positive,B,NULL
1739295955,95510d8c9638cb8bf3e988dc35c945c9,PennController,123,0,calibrator_val_no_feedback,NULL,PennController,134,_Header_,End,1739295447250,undefined,696,kitten,negative,positive,B,NULL
1739295955,95510d8c9638cb8bf3e988dc35c945c9,PennController,123,0,calibrator_val_no_feedback,NULL,Selector,unnamed-Selector,Selection,positive,1739295448450,undefined,696,kitten,negative,positive,B,negative;positive
1739295955,95510d8c9638cb8bf3e988dc35c945c9,PennController,123,0,calibrator_val_no_feedback,NULL,PennController,134,_Trial_,End,1739295448451,undefined,696,kitten,negative,positive,B,NULL
1739295955,95510d8c9638cb8bf3e988dc35c945c9,PennController,114,0,calibrator_val_no_feedback,NULL,PennController,125,_Trial_,Start,1739295448452,undefined,1047,free,negative,positive,B,NULL
1739295955,95510d8c9638cb8bf3e988dc35c945c9,PennController,114,0,calibrator_val_no_feedback,NULL,PennController,125,_Header_,Start,1739295448452,undefined,1047,free,negative,positive,B,NULL
1739295955,95510d8c9638cb8bf3e988dc35c945c9,PennController,114,0,calibrator_val_no_feedback,NULL,PennController,125,_Header_,End,1739295448703,undefined,1047,free,negative,positive,B,NULL
1739295955,95510d8c9638cb8bf3e988dc35c945c9,PennController,114,0,calibrator_val_no_feedback,NULL,Selector,unnamed-Selector,Selection,positive,1739295450255,undefined,1047,free,negative,positive,B,negative;positive
1739295955,95510d8c9638cb8bf3e988dc35c945c9,PennController,114,0,calibrator_val_no_feedback,NULL,PennController,125,_Trial_,End,1739295450256,undefined,1047,free,negative,positive,B,NULL
# 13. Comments.
1739295955,95510d8c9638cb8bf3e988dc35c945c9,PennController,130,0,endinstructions_val,NULL,PennController,8,_Trial_,Start,1739295450257,NULL
1739295955,95510d8c9638cb8bf3e988dc35c945c9,PennController,130,0,endinstructions_val,NULL,PennController,8,_Header_,Start,1739295450257,NULL
1739295955,95510d8c9638cb8bf3e988dc35c945c9,PennController,130,0,endinstructions_val,NULL,PennController,8,_Header_,End,1739295450510,NULL
1739295955,95510d8c9638cb8bf3e988dc35c945c9,PennController,130,0,endinstructions_val,NULL,PennController,8,_Trial_,End,1739295455559,NULL
# 13. ID.
# 14. ReactionTime.
# 15. Word.
# 16. ConcValCombo.
# 17. Key_value_F.
# 18. Key_value_J.
# 19. Group.
# 20. Comments.
1739295955,95510d8c9638cb8bf3e988dc35c945c9,PennController,72,0,test_val,NULL,PennController,83,_Trial_,Start,1739295455560,undefined,1057,Greasy,concrete-negative,negative,positive,B,NULL
1739295955,95510d8c9638cb8bf3e988dc35c945c9,PennController,72,0,test_val,NULL,PennController,83,_Header_,Start,1739295455560,undefined,1057,Greasy,concrete-negative,negative,positive,B,NULL
1739295955,95510d8c9638cb8bf3e988dc35c945c9,PennController,72,0,test_val,NULL,PennController,83,_Header_,End,1739295455810,undefined,1057,Greasy,concrete-negative,negative,positive,B,NULL
1739295955,95510d8c9638cb8bf3e988dc35c945c9,PennController,72,0,test_val,NULL,Selector,unnamed-Selector,Selection,negative,1739295457375,undefined,1057,Greasy,concrete-negative,negative,positive,B,negative;positive
1739295955,95510d8c9638cb8bf3e988dc35c945c9,PennController,72,0,test_val,NULL,PennController,83,_Trial_,End,1739295457376,undefined,1057,Greasy,concrete-negative,negative,positive,B,NULL
1739295955,95510d8c9638cb8bf3e988dc35c945c9,PennController,71,0,test_val,NULL,PennController,82,_Trial_,Start,1739295457376,undefined,684,Rotten,concrete-negative,negative,positive,B,NULL
1739295955,95510d8c9638cb8bf3e988dc35c945c9,PennController,71,0,test_val,NULL,PennController,82,_Header_,Start,1739295457376,undefined,684,Rotten,concrete-negative,negative,positive,B,NULL
1739295955,95510d8c9638cb8bf3e988dc35c945c9,PennController,71,0,test_val,NULL,PennController,82,_Header_,End,1739295457627,undefined,684,Rotten,concrete-negative,negative,positive,B,NULL
1739295955,95510d8c9638cb8bf3e988dc35c945c9,PennController,71,0,test_val,NULL,Selector,unnamed-Selector,Selection,negative,1739295458813,undefined,684,Rotten,concrete-negative,negative,positive,B,negative;positive
1739295955,95510d8c9638cb8bf3e988dc35c945c9,PennController,71,0,test_val,NULL,PennController,82,_Trial_,End,1739295458814,undefined,684,Rotten,concrete-negative,negative,positive,B,NULL
1739295955,95510d8c9638cb8bf3e988dc35c945c9,PennController,57,0,test_val,NULL,PennController,68,_Trial_,Start,1739295458815,undefined,696,Kind,abstract-positive,negative,positive,B,NULL
1739295955,95510d8c9638cb8bf3e988dc35c945c9,PennController,57,0,test_val,NULL,PennController,68,_Header_,Start,1739295458815,undefined,696,Kind,abstract-positive,negative,positive,B,NULL
1739295955,95510d8c9638cb8bf3e988dc35c945c9,PennController,57,0,test_val,NULL,PennController,68,_Header_,End,1739295459066,undefined,696,Kind,abstract-positive,negative,positive,B,NULL
1739295955,95510d8c9638cb8bf3e988dc35c945c9,PennController,57,0,test_val,NULL,Selector,unnamed-Selector,Selection,positive,1739295460264,undefined,696,Kind,abstract-positive,negative,positive,B,negative;positive
1739295955,95510d8c9638cb8bf3e988dc35c945c9,PennController,57,0,test_val,NULL,PennController,68,_Trial_,End,1739295460265,undefined,696,Kind,abstract-positive,negative,positive,B,NULL
1739295955,95510d8c9638cb8bf3e988dc35c945c9,PennController,83,0,test_val,NULL,PennController,94,_Trial_,Start,1739295460266,undefined,883,Despairing,abstract-negative,negative,positive,B,NULL
1739295955,95510d8c9638cb8bf3e988dc35c945c9,PennController,83,0,test_val,NULL,PennController,94,_Header_,Start,1739295460266,undefined,883,Despairing,abstract-negative,negative,positive,B,NULL
1739295955,95510d8c9638cb8bf3e988dc35c945c9,PennController,83,0,test_val,NULL,PennController,94,_Header_,End,1739295460517,undefined,883,Despairing,abstract-negative,negative,positive,B,NULL
1739295955,95510d8c9638cb8bf3e988dc35c945c9,PennController,83,0,test_val,NULL,Selector,unnamed-Selector,Selection,negative,1739295461904,undefined,883,Despairing,abstract-negative,negative,positive,B,negative;positive
1739295955,95510d8c9638cb8bf3e988dc35c945c9,PennController,83,0,test_val,NULL,PennController,94,_Trial_,End,1739295461905,undefined,883,Despairing,abstract-negative,negative,positive,B,NULL
1739295955,95510d8c9638cb8bf3e988dc35c945c9,PennController,79,0,test_val,NULL,PennController,90,_Trial_,Start,1739295461906,undefined,822,Anxious,abstract-negative,negative,positive,B,NULL
1739295955,95510d8c9638cb8bf3e988dc35c945c9,PennController,79,0,test_val,NULL,PennController,90,_Header_,Start,1739295461906,undefined,822,Anxious,abstract-negative,negative,positive,B,NULL
1739295955,95510d8c9638cb8bf3e988dc35c945c9,PennController,79,0,test_val,NULL,PennController,90,_Header_,End,1739295462157,undefined,822,Anxious,abstract-negative,negative,positive,B,NULL
1739295955,95510d8c9638cb8bf3e988dc35c945c9,PennController,79,0,test_val,NULL,Selector,unnamed-Selector,Selection,negative,1739295463484,undefined,822,Anxious,abstract-negative,negative,positive,B,negative;positive
1739295955,95510d8c9638cb8bf3e988dc35c945c9,PennController,79,0,test_val,NULL,PennController,90,_Trial_,End,1739295463485,undefined,822,Anxious,abstract-negative,negative,positive,B,NULL
1739295955,95510d8c9638cb8bf3e988dc35c945c9,PennController,74,0,test_val,NULL,PennController,85,_Trial_,Start,1739295463486,undefined,868,Hopeless,abstract-negative,negative,positive,B,NULL
1739295955,95510d8c9638cb8bf3e988dc35c945c9,PennController,74,0,test_val,NULL,PennController,85,_Header_,Start,1739295463486,undefined,868,Hopeless,abstract-negative,negative,positive,B,NULL
1739295955,95510d8c9638cb8bf3e988dc35c945c9,PennController,74,0,test_val,NULL,PennController,85,_Header_,End,1739295463736,undefined,868,Hopeless,abstract-negative,negative,positive,B,NULL
1739295955,95510d8c9638cb8bf3e988dc35c945c9,PennController,74,0,test_val,NULL,Selector,unnamed-Selector,Selection,negative,1739295465105,undefined,868,Hopeless,abstract-negative,negative,positive,B,negative;positive
1739295955,95510d8c9638cb8bf3e988dc35c945c9,PennController,74,0,test_val,NULL,PennController,85,_Trial_,End,1739295465106,undefined,868,Hopeless,abstract-negative,negative,positive,B,NULL
1739295955,95510d8c9638cb8bf3e988dc35c945c9,PennController,81,0,test_val,NULL,PennController,92,_Trial_,Start,1739295465107,undefined,662,Ashamed,abstract-negative,negative,positive,B,NULL
1739295955,95510d8c9638cb8bf3e988dc35c945c9,PennController,81,0,test_val,NULL,PennController,92,_Header_,Start,1739295465107,undefined,662,Ashamed,abstract-negative,negative,positive,B,NULL
1739295955,95510d8c9638cb8bf3e988dc35c945c9,PennController,81,0,test_val,NULL,PennController,92,_Header_,End,1739295465360,undefined,662,Ashamed,abstract-negative,negative,positive,B,NULL
1739295955,95510d8c9638cb8bf3e988dc35c945c9,PennController,81,0,test_val,NULL,Selector,unnamed-Selector,Selection,negative,1739295466523,undefined,662,Ashamed,abstract-negative,negative,positive,B,negative;positive
1739295955,95510d8c9638cb8bf3e988dc35c945c9,PennController,81,0,test_val,NULL,PennController,92,_Trial_,End,1739295466525,undefined,662,Ashamed,abstract-negative,negative,positive,B,NULL
1739295955,95510d8c9638cb8bf3e988dc35c945c9,PennController,51,0,test_val,NULL,PennController,62,_Trial_,Start,1739295466526,undefined,670,Smooth,concrete-positive,negative,positive,B,NULL
1739295955,95510d8c9638cb8bf3e988dc35c945c9,PennController,51,0,test_val,NULL,PennController,62,_Header_,Start,1739295466526,undefined,670,Smooth,concrete-positive,negative,positive,B,NULL
1739295955,95510d8c9638cb8bf3e988dc35c945c9,PennController,51,0,test_val,NULL,PennController,62,_Header_,End,1739295466778,undefined,670,Smooth,concrete-positive,negative,positive,B,NULL
1739295955,95510d8c9638cb8bf3e988dc35c945c9,PennController,51,0,test_val,NULL,Selector,unnamed-Selector,Selection,positive,1739295467954,undefined,670,Smooth,concrete-positive,negative,positive,B,negative;positive
1739295955,95510d8c9638cb8bf3e988dc35c945c9,PennController,51,0,test_val,NULL,PennController,62,_Trial_,End,1739295467955,undefined,670,Smooth,concrete-positive,negative,positive,B,NULL
1739295955,95510d8c9638cb8bf3e988dc35c945c9,PennController,62,0,test_val,NULL,PennController,73,_Trial_,Start,1739295467957,undefined,892,Harmonious,abstract-positive,negative,positive,B,NULL
1739295955,95510d8c9638cb8bf3e988dc35c945c9,PennController,62,0,test_val,NULL,PennController,73,_Header_,Start,1739295467957,undefined,892,Harmonious,abstract-positive,negative,positive,B,NULL
1739295955,95510d8c9638cb8bf3e988dc35c945c9,PennController,62,0,test_val,NULL,PennController,73,_Header_,End,1739295468208,undefined,892,Harmonious,abstract-positive,negative,positive,B,NULL
1739295955,95510d8c9638cb8bf3e988dc35c945c9,PennController,62,0,test_val,NULL,Selector,unnamed-Selector,Selection,negative,1739295469605,undefined,892,Harmonious,abstract-positive,negative,positive,B,negative;positive
1739295955,95510d8c9638cb8bf3e988dc35c945c9,PennController,62,0,test_val,NULL,PennController,73,_Trial_,End,1739295469606,undefined,892,Harmonious,abstract-positive,negative,positive,B,NULL
1739295955,95510d8c9638cb8bf3e988dc35c945c9,PennController,45,0,test_val,NULL,PennController,56,_Trial_,Start,1739295469608,undefined,726,Fresh,concrete-positive,negative,positive,B,NULL
1739295955,95510d8c9638cb8bf3e988dc35c945c9,PennController,45,0,test_val,NULL,PennController,56,_Header_,Start,1739295469608,undefined,726,Fresh,concrete-positive,negative,positive,B,NULL
1739295955,95510d8c9638cb8bf3e988dc35c945c9,PennController,45,0,test_val,NULL,PennController,56,_Header_,End,1739295469859,undefined,726,Fresh,concrete-positive,negative,positive,B,NULL
1739295955,95510d8c9638cb8bf3e988dc35c945c9,PennController,45,0,test_val,NULL,Selector,unnamed-Selector,Selection,positive,1739295471089,undefined,726,Fresh,concrete-positive,negative,positive,B,negative;positive
1739295955,95510d8c9638cb8bf3e988dc35c945c9,PennController,45,0,test_val,NULL,PennController,56,_Trial_,End,1739295471091,undefined,726,Fresh,concrete-positive,negative,positive,B,NULL
1739295955,95510d8c9638cb8bf3e988dc35c945c9,PennController,52,0,test_val,NULL,PennController,63,_Trial_,Start,1739295471092,undefined,694,Delicious,concrete-positive,negative,positive,B,NULL
1739295955,95510d8c9638cb8bf3e988dc35c945c9,PennController,52,0,test_val,NULL,PennController,63,_Header_,Start,1739295471092,undefined,694,Delicious,concrete-positive,negative,positive,B,NULL
1739295955,95510d8c9638cb8bf3e988dc35c945c9,PennController,52,0,test_val,NULL,PennController,63,_Header_,End,1739295471346,undefined,694,Delicious,concrete-positive,negative,positive,B,NULL
1739295955,95510d8c9638cb8bf3e988dc35c945c9,PennController,52,0,test_val,NULL,Selector,unnamed-Selector,Selection,positive,1739295472543,undefined,694,Delicious,concrete-positive,negative,positive,B,negative;positive
1739295955,95510d8c9638cb8bf3e988dc35c945c9,PennController,52,0,test_val,NULL,PennController,63,_Trial_,End,1739295472544,undefined,694,Delicious,concrete-positive,negative,positive,B,NULL
1739295955,95510d8c9638cb8bf3e988dc35c945c9,PennController,55,0,test_val,NULL,PennController,66,_Trial_,Start,1739295472545,undefined,648,Loving,abstract-positive,negative,positive,B,NULL
1739295955,95510d8c9638cb8bf3e988dc35c945c9,PennController,55,0,test_val,NULL,PennController,66,_Header_,Start,1739295472545,undefined,648,Loving,abstract-positive,negative,positive,B,NULL
1739295955,95510d8c9638cb8bf3e988dc35c945c9,PennController,55,0,test_val,NULL,PennController,66,_Header_,End,1739295472796,undefined,648,Loving,abstract-positive,negative,positive,B,NULL
1739295955,95510d8c9638cb8bf3e988dc35c945c9,PennController,55,0,test_val,NULL,Selector,unnamed-Selector,Selection,positive,1739295473948,undefined,648,Loving,abstract-positive,negative,positive,B,negative;positive
1739295955,95510d8c9638cb8bf3e988dc35c945c9,PennController,55,0,test_val,NULL,PennController,66,_Trial_,End,1739295473949,undefined,648,Loving,abstract-positive,negative,positive,B,NULL
1739295955,95510d8c9638cb8bf3e988dc35c945c9,PennController,66,0,test_val,NULL,PennController,77,_Trial_,Start,1739295473952,undefined,687,Smelly,concrete-negative,negative,positive,B,NULL
1739295955,95510d8c9638cb8bf3e988dc35c945c9,PennController,66,0,test_val,NULL,PennController,77,_Header_,Start,1739295473952,undefined,687,Smelly,concrete-negative,negative,positive,B,NULL
1739295955,95510d8c9638cb8bf3e988dc35c945c9,PennController,66,0,test_val,NULL,PennController,77,_Header_,End,1739295474203,undefined,687,Smelly,concrete-negative,negative,positive,B,NULL
1739295955,95510d8c9638cb8bf3e988dc35c945c9,PennController,66,0,test_val,NULL,Selector,unnamed-Selector,Selection,negative,1739295475392,undefined,687,Smelly,concrete-negative,negative,positive,B,negative;positive
1739295955,95510d8c9638cb8bf3e988dc35c945c9,PennController,66,0,test_val,NULL,PennController,77,_Trial_,End,1739295475393,undefined,687,Smelly,concrete-negative,negative,positive,B,NULL
1739295955,95510d8c9638cb8bf3e988dc35c945c9,PennController,54,0,test_val,NULL,PennController,65,_Trial_,Start,1739295475394,undefined,670,Hopeful,abstract-positive,negative,positive,B,NULL
1739295955,95510d8c9638cb8bf3e988dc35c945c9,PennController,54,0,test_val,NULL,PennController,65,_Header_,Start,1739295475394,undefined,670,Hopeful,abstract-positive,negative,positive,B,NULL
1739295955,95510d8c9638cb8bf3e988dc35c945c9,PennController,54,0,test_val,NULL,PennController,65,_Header_,End,1739295475648,undefined,670,Hopeful,abstract-positive,negative,positive,B,NULL
1739295955,95510d8c9638cb8bf3e988dc35c945c9,PennController,54,0,test_val,NULL,Selector,unnamed-Selector,Selection,positive,1739295476821,undefined,670,Hopeful,abstract-positive,negative,positive,B,negative;positive
1739295955,95510d8c9638cb8bf3e988dc35c945c9,PennController,54,0,test_val,NULL,PennController,65,_Trial_,End,1739295476823,undefined,670,Hopeful,abstract-positive,negative,positive,B,NULL
1739295955,95510d8c9638cb8bf3e988dc35c945c9,PennController,56,0,test_val,NULL,PennController,67,_Trial_,Start,1739295476825,undefined,515,Grateful,abstract-positive,negative,positive,B,NULL
1739295955,95510d8c9638cb8bf3e988dc35c945c9,PennController,56,0,test_val,NULL,PennController,67,_Header_,Start,1739295476825,undefined,515,Grateful,abstract-positive,negative,positive,B,NULL
1739295955,95510d8c9638cb8bf3e988dc35c945c9,PennController,56,0,test_val,NULL,PennController,67,_Header_,End,1739295477076,undefined,515,Grateful,abstract-positive,negative,positive,B,NULL
1739295955,95510d8c9638cb8bf3e988dc35c945c9,PennController,56,0,test_val,NULL,Selector,unnamed-Selector,Selection,positive,1739295478094,undefined,515,Grateful,abstract-positive,negative,positive,B,negative;positive
1739295955,95510d8c9638cb8bf3e988dc35c945c9,PennController,56,0,test_val,NULL,PennController,67,_Trial_,End,1739295478095,undefined,515,Grateful,abstract-positive,negative,positive,B,NULL
1739295955,95510d8c9638cb8bf3e988dc35c945c9,PennController,61,0,test_val,NULL,PennController,72,_Trial_,Start,1739295478096,undefined,618,Generous,abstract-positive,negative,positive,B,NULL
1739295955,95510d8c9638cb8bf3e988dc35c945c9,PennController,61,0,test_val,NULL,PennController,72,_Header_,Start,1739295478096,undefined,618,Generous,abstract-positive,negative,positive,B,NULL
1739295955,95510d8c9638cb8bf3e988dc35c945c9,PennController,61,0,test_val,NULL,PennController,72,_Header_,End,1739295478347,undefined,618,Generous,abstract-positive,negative,positive,B,NULL
1739295955,95510d8c9638cb8bf3e988dc35c945c9,PennController,61,0,test_val,NULL,Selector,unnamed-Selector,Selection,positive,1739295479469,undefined,618,Generous,abstract-positive,negative,positive,B,negative;positive
1739295955,95510d8c9638cb8bf3e988dc35c945c9,PennController,61,0,test_val,NULL,PennController,72,_Trial_,End,1739295479471,undefined,618,Generous,abstract-positive,negative,positive,B,NULL
1739295955,95510d8c9638cb8bf3e988dc35c945c9,PennController,82,0,test_val,NULL,PennController,93,_Trial_,Start,1739295479473,undefined,663,Fearful,abstract-negative,negative,positive,B,NULL
1739295955,95510d8c9638cb8bf3e988dc35c945c9,PennController,82,0,test_val,NULL,PennController,93,_Header_,Start,1739295479473,undefined,663,Fearful,abstract-negative,negative,positive,B,NULL
1739295955,95510d8c9638cb8bf3e988dc35c945c9,PennController,82,0,test_val,NULL,PennController,93,_Header_,End,1739295479723,undefined,663,Fearful,abstract-negative,negative,positive,B,NULL
1739295955,95510d8c9638cb8bf3e988dc35c945c9,PennController,82,0,test_val,NULL,Selector,unnamed-Selector,Selection,negative,1739295480886,undefined,663,Fearful,abstract-negative,negative,positive,B,negative;positive
1739295955,95510d8c9638cb8bf3e988dc35c945c9,PennController,82,0,test_val,NULL,PennController,93,_Trial_,End,1739295480888,undefined,663,Fearful,abstract-negative,negative,positive,B,NULL
1739295955,95510d8c9638cb8bf3e988dc35c945c9,PennController,65,0,test_val,NULL,PennController,76,_Trial_,Start,1739295480888,undefined,782,Sticky,concrete-negative,negative,positive,B,NULL
1739295955,95510d8c9638cb8bf3e988dc35c945c9,PennController,65,0,test_val,NULL,PennController,76,_Header_,Start,1739295480888,undefined,782,Sticky,concrete-negative,negative,positive,B,NULL
1739295955,95510d8c9638cb8bf3e988dc35c945c9,PennController,65,0,test_val,NULL,PennController,76,_Header_,End,1739295481139,undefined,782,Sticky,concrete-negative,negative,positive,B,NULL
1739295955,95510d8c9638cb8bf3e988dc35c945c9,PennController,65,0,test_val,NULL,Selector,unnamed-Selector,Selection,negative,1739295482427,undefined,782,Sticky,concrete-negative,negative,positive,B,negative;positive
1739295955,95510d8c9638cb8bf3e988dc35c945c9,PennController,65,0,test_val,NULL,PennController,76,_Trial_,End,1739295482428,undefined,782,Sticky,concrete-negative,negative,positive,B,NULL
1739295955,95510d8c9638cb8bf3e988dc35c945c9,PennController,59,0,test_val,NULL,PennController,70,_Trial_,Start,1739295482429,undefined,743,Peaceful,abstract-positive,negative,positive,B,NULL
1739295955,95510d8c9638cb8bf3e988dc35c945c9,PennController,59,0,test_val,NULL,PennController,70,_Header_,Start,1739295482429,undefined,743,Peaceful,abstract-positive,negative,positive,B,NULL
1739295955,95510d8c9638cb8bf3e988dc35c945c9,PennController,59,0,test_val,NULL,PennController,70,_Header_,End,1739295482682,undefined,743,Peaceful,abstract-positive,negative,positive,B,NULL
1739295955,95510d8c9638cb8bf3e988dc35c945c9,PennController,59,0,test_val,NULL,Selector,unnamed-Selector,Selection,positive,1739295483928,undefined,743,Peaceful,abstract-positive,negative,positive,B,negative;positive
1739295955,95510d8c9638cb8bf3e988dc35c945c9,PennController,59,0,test_val,NULL,PennController,70,_Trial_,End,1739295483929,undefined,743,Peaceful,abstract-positive,negative,positive,B,NULL
1739295955,95510d8c9638cb8bf3e988dc35c945c9,PennController,70,0,test_val,NULL,PennController,81,_Trial_,Start,1739295483930,undefined,1129,Noisy,concrete-negative,negative,positive,B,NULL
1739295955,95510d8c9638cb8bf3e988dc35c945c9,PennController,70,0,test_val,NULL,PennController,81,_Header_,Start,1739295483930,undefined,1129,Noisy,concrete-negative,negative,positive,B,NULL
1739295955,95510d8c9638cb8bf3e988dc35c945c9,PennController,70,0,test_val,NULL,PennController,81,_Header_,End,1739295484180,undefined,1129,Noisy,concrete-negative,negative,positive,B,NULL
1739295955,95510d8c9638cb8bf3e988dc35c945c9,PennController,70,0,test_val,NULL,Selector,unnamed-Selector,Selection,negative,1739295485815,undefined,1129,Noisy,concrete-negative,negative,positive,B,negative;positive
1739295955,95510d8c9638cb8bf3e988dc35c945c9,PennController,70,0,test_val,NULL,PennController,81,_Trial_,End,1739295485816,undefined,1129,Noisy,concrete-negative,negative,positive,B,NULL
1739295955,95510d8c9638cb8bf3e988dc35c945c9,PennController,58,0,test_val,NULL,PennController,69,_Trial_,Start,1739295485817,undefined,687,Joyful,abstract-positive,negative,positive,B,NULL
1739295955,95510d8c9638cb8bf3e988dc35c945c9,PennController,58,0,test_val,NULL,PennController,69,_Header_,Start,1739295485817,undefined,687,Joyful,abstract-positive,negative,positive,B,NULL
1739295955,95510d8c9638cb8bf3e988dc35c945c9,PennController,58,0,test_val,NULL,PennController,69,_Header_,End,1739295486068,undefined,687,Joyful,abstract-positive,negative,positive,B,NULL
1739295955,95510d8c9638cb8bf3e988dc35c945c9,PennController,58,0,test_val,NULL,Selector,unnamed-Selector,Selection,positive,1739295487258,undefined,687,Joyful,abstract-positive,negative,positive,B,negative;positive
1739295955,95510d8c9638cb8bf3e988dc35c945c9,PennController,58,0,test_val,NULL,PennController,69,_Trial_,End,1739295487259,undefined,687,Joyful,abstract-positive,negative,positive,B,NULL
1739295955,95510d8c9638cb8bf3e988dc35c945c9,PennController,50,0,test_val,NULL,PennController,61,_Trial_,Start,1739295487261,undefined,764,Colorful,concrete-positive,negative,positive,B,NULL
1739295955,95510d8c9638cb8bf3e988dc35c945c9,PennController,50,0,test_val,NULL,PennController,61,_Header_,Start,1739295487261,undefined,764,Colorful,concrete-positive,negative,positive,B,NULL
1739295955,95510d8c9638cb8bf3e988dc35c945c9,PennController,50,0,test_val,NULL,PennController,61,_Header_,End,1739295487514,undefined,764,Colorful,concrete-positive,negative,positive,B,NULL
1739295955,95510d8c9638cb8bf3e988dc35c945c9,PennController,50,0,test_val,NULL,Selector,unnamed-Selector,Selection,positive,1739295488780,undefined,764,Colorful,concrete-positive,negative,positive,B,negative;positive
1739295955,95510d8c9638cb8bf3e988dc35c945c9,PennController,50,0,test_val,NULL,PennController,61,_Trial_,End,1739295488781,undefined,764,Colorful,concrete-positive,negative,positive,B,NULL
1739295955,95510d8c9638cb8bf3e988dc35c945c9,PennController,73,0,test_val,NULL,PennController,84,_Trial_,Start,1739295488782,undefined,918,Bitter,concrete-negative,negative,positive,B,NULL
1739295955,95510d8c9638cb8bf3e988dc35c945c9,PennController,73,0,test_val,NULL,PennController,84,_Header_,Start,1739295488782,undefined,918,Bitter,concrete-negative,negative,positive,B,NULL
1739295955,95510d8c9638cb8bf3e988dc35c945c9,PennController,73,0,test_val,NULL,PennController,84,_Header_,End,1739295489035,undefined,918,Bitter,concrete-negative,negative,positive,B,NULL
1739295955,95510d8c9638cb8bf3e988dc35c945c9,PennController,73,0,test_val,NULL,Selector,unnamed-Selector,Selection,negative,1739295490458,undefined,918,Bitter,concrete-negative,negative,positive,B,negative;positive
1739295955,95510d8c9638cb8bf3e988dc35c945c9,PennController,73,0,test_val,NULL,PennController,84,_Trial_,End,1739295490459,undefined,918,Bitter,concrete-negative,negative,positive,B,NULL
1739295955,95510d8c9638cb8bf3e988dc35c945c9,PennController,75,0,test_val,NULL,PennController,86,_Trial_,Start,1739295490460,undefined,801,Worthless,abstract-negative,negative,positive,B,NULL
1739295955,95510d8c9638cb8bf3e988dc35c945c9,PennController,75,0,test_val,NULL,PennController,86,_Header_,Start,1739295490460,undefined,801,Worthless,abstract-negative,negative,positive,B,NULL
1739295955,95510d8c9638cb8bf3e988dc35c945c9,PennController,75,0,test_val,NULL,PennController,86,_Header_,End,1739295490714,undefined,801,Worthless,abstract-negative,negative,positive,B,NULL
1739295955,95510d8c9638cb8bf3e988dc35c945c9,PennController,75,0,test_val,NULL,Selector,unnamed-Selector,Selection,negative,1739295492020,undefined,801,Worthless,abstract-negative,negative,positive,B,negative;positive
1739295955,95510d8c9638cb8bf3e988dc35c945c9,PennController,75,0,test_val,NULL,PennController,86,_Trial_,End,1739295492021,undefined,801,Worthless,abstract-negative,negative,positive,B,NULL
1739295955,95510d8c9638cb8bf3e988dc35c945c9,PennController,49,0,test_val,NULL,PennController,60,_Trial_,Start,1739295492022,undefined,690,Fragrant,concrete-positive,negative,positive,B,NULL
1739295955,95510d8c9638cb8bf3e988dc35c945c9,PennController,49,0,test_val,NULL,PennController,60,_Header_,Start,1739295492022,undefined,690,Fragrant,concrete-positive,negative,positive,B,NULL
1739295955,95510d8c9638cb8bf3e988dc35c945c9,PennController,49,0,test_val,NULL,PennController,60,_Header_,End,1739295492272,undefined,690,Fragrant,concrete-positive,negative,positive,B,NULL
1739295955,95510d8c9638cb8bf3e988dc35c945c9,PennController,49,0,test_val,NULL,Selector,unnamed-Selector,Selection,positive,1739295493467,undefined,690,Fragrant,concrete-positive,negative,positive,B,negative;positive
1739295955,95510d8c9638cb8bf3e988dc35c945c9,PennController,49,0,test_val,NULL,PennController,60,_Trial_,End,1739295493468,undefined,690,Fragrant,concrete-positive,negative,positive,B,NULL
1739295955,95510d8c9638cb8bf3e988dc35c945c9,PennController,64,0,test_val,NULL,PennController,75,_Trial_,Start,1739295493469,undefined,662,Dirty,concrete-negative,negative,positive,B,NULL
1739295955,95510d8c9638cb8bf3e988dc35c945c9,PennController,64,0,test_val,NULL,PennController,75,_Header_,Start,1739295493469,undefined,662,Dirty,concrete-negative,negative,positive,B,NULL
1739295955,95510d8c9638cb8bf3e988dc35c945c9,PennController,64,0,test_val,NULL,PennController,75,_Header_,End,1739295493722,undefined,662,Dirty,concrete-negative,negative,positive,B,NULL
1739295955,95510d8c9638cb8bf3e988dc35c945c9,PennController,64,0,test_val,NULL,Selector,unnamed-Selector,Selection,negative,1739295494890,undefined,662,Dirty,concrete-negative,negative,positive,B,negative;positive
1739295955,95510d8c9638cb8bf3e988dc35c945c9,PennController,64,0,test_val,NULL,PennController,75,_Trial_,End,1739295494892,undefined,662,Dirty,concrete-negative,negative,positive,B,NULL
1739295955,95510d8c9638cb8bf3e988dc35c945c9,PennController,47,0,test_val,NULL,PennController,58,_Trial_,Start,1739295494893,undefined,736,Bright,concrete-positive,negative,positive,B,NULL
1739295955,95510d8c9638cb8bf3e988dc35c945c9,PennController,47,0,test_val,NULL,PennController,58,_Header_,Start,1739295494893,undefined,736,Bright,concrete-positive,negative,positive,B,NULL
1739295955,95510d8c9638cb8bf3e988dc35c945c9,PennController,47,0,test_val,NULL,PennController,58,_Header_,End,1739295495145,undefined,736,Bright,concrete-positive,negative,positive,B,NULL
1739295955,95510d8c9638cb8bf3e988dc35c945c9,PennController,47,0,test_val,NULL,Selector,unnamed-Selector,Selection,positive,1739295496387,undefined,736,Bright,concrete-positive,negative,positive,B,negative;positive
1739295955,95510d8c9638cb8bf3e988dc35c945c9,PennController,47,0,test_val,NULL,PennController,58,_Trial_,End,1739295496388,undefined,736,Bright,concrete-positive,negative,positive,B,NULL
1739295955,95510d8c9638cb8bf3e988dc35c945c9,PennController,48,0,test_val,NULL,PennController,59,_Trial_,Start,1739295496389,undefined,620,Clean,concrete-positive,negative,positive,B,NULL
1739295955,95510d8c9638cb8bf3e988dc35c945c9,PennController,48,0,test_val,NULL,PennController,59,_Header_,Start,1739295496389,undefined,620,Clean,concrete-positive,negative,positive,B,NULL
1739295955,95510d8c9638cb8bf3e988dc35c945c9,PennController,48,0,test_val,NULL,PennController,59,_Header_,End,1739295496640,undefined,620,Clean,concrete-positive,negative,positive,B,NULL
1739295955,95510d8c9638cb8bf3e988dc35c945c9,PennController,48,0,test_val,NULL,Selector,unnamed-Selector,Selection,positive,1739295497764,undefined,620,Clean,concrete-positive,negative,positive,B,negative;positive
1739295955,95510d8c9638cb8bf3e988dc35c945c9,PennController,48,0,test_val,NULL,PennController,59,_Trial_,End,1739295497765,undefined,620,Clean,concrete-positive,negative,positive,B,NULL
1739295955,95510d8c9638cb8bf3e988dc35c945c9,PennController,53,0,test_val,NULL,PennController,64,_Trial_,Start,1739295497766,undefined,679,Cool,concrete-positive,negative,positive,B,NULL
1739295955,95510d8c9638cb8bf3e988dc35c945c9,PennController,53,0,test_val,NULL,PennController,64,_Header_,Start,1739295497766,undefined,679,Cool,concrete-positive,negative,positive,B,NULL
1739295955,95510d8c9638cb8bf3e988dc35c945c9,PennController,53,0,test_val,NULL,PennController,64,_Header_,End,1739295498016,undefined,679,Cool,concrete-positive,negative,positive,B,NULL
1739295955,95510d8c9638cb8bf3e988dc35c945c9,PennController,53,0,test_val,NULL,Selector,unnamed-Selector,Selection,positive,1739295499199,undefined,679,Cool,concrete-positive,negative,positive,B,negative;positive
1739295955,95510d8c9638cb8bf3e988dc35c945c9,PennController,53,0,test_val,NULL,PennController,64,_Trial_,End,1739295499200,undefined,679,Cool,concrete-positive,negative,positive,B,NULL
1739295955,95510d8c9638cb8bf3e988dc35c945c9,PennController,46,0,test_val,NULL,PennController,57,_Trial_,Start,1739295499201,undefined,602,Soft,concrete-positive,negative,positive,B,NULL
1739295955,95510d8c9638cb8bf3e988dc35c945c9,PennController,46,0,test_val,NULL,PennController,57,_Header_,Start,1739295499201,undefined,602,Soft,concrete-positive,negative,positive,B,NULL
1739295955,95510d8c9638cb8bf3e988dc35c945c9,PennController,46,0,test_val,NULL,PennController,57,_Header_,End,1739295499452,undefined,602,Soft,concrete-positive,negative,positive,B,NULL
1739295955,95510d8c9638cb8bf3e988dc35c945c9,PennController,46,0,test_val,NULL,Selector,unnamed-Selector,Selection,positive,1739295500559,undefined,602,Soft,concrete-positive,negative,positive,B,negative;positive
1739295955,95510d8c9638cb8bf3e988dc35c945c9,PennController,46,0,test_val,NULL,PennController,57,_Trial_,End,1739295500560,undefined,602,Soft,concrete-positive,negative,positive,B,NULL
1739295955,95510d8c9638cb8bf3e988dc35c945c9,PennController,78,0,test_val,NULL,PennController,89,_Trial_,Start,1739295500561,undefined,866,Regretful,abstract-negative,negative,positive,B,NULL
1739295955,95510d8c9638cb8bf3e988dc35c945c9,PennController,78,0,test_val,NULL,PennController,89,_Header_,Start,1739295500561,undefined,866,Regretful,abstract-negative,negative,positive,B,NULL
1739295955,95510d8c9638cb8bf3e988dc35c945c9,PennController,78,0,test_val,NULL,PennController,89,_Header_,End,1739295500816,undefined,866,Regretful,abstract-negative,negative,positive,B,NULL
1739295955,95510d8c9638cb8bf3e988dc35c945c9,PennController,78,0,test_val,NULL,Selector,unnamed-Selector,Selection,negative,1739295502185,undefined,866,Regretful,abstract-negative,negative,positive,B,negative;positive
1739295955,95510d8c9638cb8bf3e988dc35c945c9,PennController,78,0,test_val,NULL,PennController,89,_Trial_,End,1739295502186,undefined,866,Regretful,abstract-negative,negative,positive,B,NULL
1739295955,95510d8c9638cb8bf3e988dc35c945c9,PennController,67,0,test_val,NULL,PennController,78,_Trial_,Start,1739295502187,undefined,679,Cold,concrete-negative,negative,positive,B,NULL
1739295955,95510d8c9638cb8bf3e988dc35c945c9,PennController,67,0,test_val,NULL,PennController,78,_Header_,Start,1739295502187,undefined,679,Cold,concrete-negative,negative,positive,B,NULL
1739295955,95510d8c9638cb8bf3e988dc35c945c9,PennController,67,0,test_val,NULL,PennController,78,_Header_,End,1739295502438,undefined,679,Cold,concrete-negative,negative,positive,B,NULL
1739295955,95510d8c9638cb8bf3e988dc35c945c9,PennController,67,0,test_val,NULL,Selector,unnamed-Selector,Selection,positive,1739295503621,undefined,679,Cold,concrete-negative,negative,positive,B,negative;positive
1739295955,95510d8c9638cb8bf3e988dc35c945c9,PennController,67,0,test_val,NULL,PennController,78,_Trial_,End,1739295503622,undefined,679,Cold,concrete-negative,negative,positive,B,NULL
1739295955,95510d8c9638cb8bf3e988dc35c945c9,PennController,60,0,test_val,NULL,PennController,71,_Trial_,Start,1739295503623,undefined,1121,Inspiring,abstract-positive,negative,positive,B,NULL
1739295955,95510d8c9638cb8bf3e988dc35c945c9,PennController,60,0,test_val,NULL,PennController,71,_Header_,Start,1739295503623,undefined,1121,Inspiring,abstract-positive,negative,positive,B,NULL
1739295955,95510d8c9638cb8bf3e988dc35c945c9,PennController,60,0,test_val,NULL,PennController,71,_Header_,End,1739295503874,undefined,1121,Inspiring,abstract-positive,negative,positive,B,NULL
1739295955,95510d8c9638cb8bf3e988dc35c945c9,PennController,60,0,test_val,NULL,Selector,unnamed-Selector,Selection,positive,1739295505499,undefined,1121,Inspiring,abstract-positive,negative,positive,B,negative;positive
1739295955,95510d8c9638cb8bf3e988dc35c945c9,PennController,60,0,test_val,NULL,PennController,71,_Trial_,End,1739295505500,undefined,1121,Inspiring,abstract-positive,negative,positive,B,NULL
1739295955,95510d8c9638cb8bf3e988dc35c945c9,PennController,76,0,test_val,NULL,PennController,87,_Trial_,Start,1739295505501,undefined,880,Helpless,abstract-negative,negative,positive,B,NULL
1739295955,95510d8c9638cb8bf3e988dc35c945c9,PennController,76,0,test_val,NULL,PennController,87,_Header_,Start,1739295505501,undefined,880,Helpless,abstract-negative,negative,positive,B,NULL
1739295955,95510d8c9638cb8bf3e988dc35c945c9,PennController,76,0,test_val,NULL,PennController,87,_Header_,End,1739295505752,undefined,880,Helpless,abstract-negative,negative,positive,B,NULL
1739295955,95510d8c9638cb8bf3e988dc35c945c9,PennController,76,0,test_val,NULL,Selector,unnamed-Selector,Selection,negative,1739295507136,undefined,880,Helpless,abstract-negative,negative,positive,B,negative;positive
1739295955,95510d8c9638cb8bf3e988dc35c945c9,PennController,76,0,test_val,NULL,PennController,87,_Trial_,End,1739295507137,undefined,880,Helpless,abstract-negative,negative,positive,B,NULL
1739295955,95510d8c9638cb8bf3e988dc35c945c9,PennController,69,0,test_val,NULL,PennController,80,_Trial_,Start,1739295507138,undefined,635,Rough,concrete-negative,negative,positive,B,NULL
1739295955,95510d8c9638cb8bf3e988dc35c945c9,PennController,69,0,test_val,NULL,PennController,80,_Header_,Start,1739295507138,undefined,635,Rough,concrete-negative,negative,positive,B,NULL
1739295955,95510d8c9638cb8bf3e988dc35c945c9,PennController,69,0,test_val,NULL,PennController,80,_Header_,End,1739295507388,undefined,635,Rough,concrete-negative,negative,positive,B,NULL
1739295955,95510d8c9638cb8bf3e988dc35c945c9,PennController,69,0,test_val,NULL,Selector,unnamed-Selector,Selection,negative,1739295508527,undefined,635,Rough,concrete-negative,negative,positive,B,negative;positive
1739295955,95510d8c9638cb8bf3e988dc35c945c9,PennController,69,0,test_val,NULL,PennController,80,_Trial_,End,1739295508528,undefined,635,Rough,concrete-negative,negative,positive,B,NULL
1739295955,95510d8c9638cb8bf3e988dc35c945c9,PennController,44,0,test_val,NULL,PennController,55,_Trial_,Start,1739295508529,undefined,813,Warm,concrete-positive,negative,positive,B,NULL
1739295955,95510d8c9638cb8bf3e988dc35c945c9,PennController,44,0,test_val,NULL,PennController,55,_Header_,Start,1739295508529,undefined,813,Warm,concrete-positive,negative,positive,B,NULL
1739295955,95510d8c9638cb8bf3e988dc35c945c9,PennController,44,0,test_val,NULL,PennController,55,_Header_,End,1739295508781,undefined,813,Warm,concrete-positive,negative,positive,B,NULL
1739295955,95510d8c9638cb8bf3e988dc35c945c9,PennController,44,0,test_val,NULL,Selector,unnamed-Selector,Selection,positive,1739295510098,undefined,813,Warm,concrete-positive,negative,positive,B,negative;positive
1739295955,95510d8c9638cb8bf3e988dc35c945c9,PennController,44,0,test_val,NULL,PennController,55,_Trial_,End,1739295510099,undefined,813,Warm,concrete-positive,negative,positive,B,NULL
1739295955,95510d8c9638cb8bf3e988dc35c945c9,PennController,77,0,test_val,NULL,PennController,88,_Trial_,Start,1739295510099,undefined,1176,Lonely,abstract-negative,negative,positive,B,NULL
1739295955,95510d8c9638cb8bf3e988dc35c945c9,PennController,77,0,test_val,NULL,PennController,88,_Header_,Start,1739295510099,undefined,1176,Lonely,abstract-negative,negative,positive,B,NULL
1739295955,95510d8c9638cb8bf3e988dc35c945c9,PennController,77,0,test_val,NULL,PennController,88,_Header_,End,1739295510350,undefined,1176,Lonely,abstract-negative,negative,positive,B,NULL
1739295955,95510d8c9638cb8bf3e988dc35c945c9,PennController,77,0,test_val,NULL,Selector,unnamed-Selector,Selection,negative,1739295512032,undefined,1176,Lonely,abstract-negative,negative,positive,B,negative;positive
1739295955,95510d8c9638cb8bf3e988dc35c945c9,PennController,77,0,test_val,NULL,PennController,88,_Trial_,End,1739295512033,undefined,1176,Lonely,abstract-negative,negative,positive,B,NULL
1739295955,95510d8c9638cb8bf3e988dc35c945c9,PennController,68,0,test_val,NULL,PennController,79,_Trial_,Start,1739295512033,undefined,768,Dark,concrete-negative,negative,positive,B,NULL
1739295955,95510d8c9638cb8bf3e988dc35c945c9,PennController,68,0,test_val,NULL,PennController,79,_Header_,Start,1739295512033,undefined,768,Dark,concrete-negative,negative,positive,B,NULL
1739295955,95510d8c9638cb8bf3e988dc35c945c9,PennController,68,0,test_val,NULL,PennController,79,_Header_,End,1739295512285,undefined,768,Dark,concrete-negative,negative,positive,B,NULL
1739295955,95510d8c9638cb8bf3e988dc35c945c9,PennController,68,0,test_val,NULL,Selector,unnamed-Selector,Selection,negative,1739295513558,undefined,768,Dark,concrete-negative,negative,positive,B,negative;positive
1739295955,95510d8c9638cb8bf3e988dc35c945c9,PennController,68,0,test_val,NULL,PennController,79,_Trial_,End,1739295513559,undefined,768,Dark,concrete-negative,negative,positive,B,NULL
1739295955,95510d8c9638cb8bf3e988dc35c945c9,PennController,63,0,test_val,NULL,PennController,74,_Trial_,Start,1739295513560,undefined,938,Resilient,abstract-positive,negative,positive,B,NULL
1739295955,95510d8c9638cb8bf3e988dc35c945c9,PennController,63,0,test_val,NULL,PennController,74,_Header_,Start,1739295513560,undefined,938,Resilient,abstract-positive,negative,positive,B,NULL
1739295955,95510d8c9638cb8bf3e988dc35c945c9,PennController,63,0,test_val,NULL,PennController,74,_Header_,End,1739295513813,undefined,938,Resilient,abstract-positive,negative,positive,B,NULL
1739295955,95510d8c9638cb8bf3e988dc35c945c9,PennController,63,0,test_val,NULL,Selector,unnamed-Selector,Selection,positive,1739295515256,undefined,938,Resilient,abstract-positive,negative,positive,B,negative;positive
1739295955,95510d8c9638cb8bf3e988dc35c945c9,PennController,63,0,test_val,NULL,PennController,74,_Trial_,End,1739295515257,undefined,938,Resilient,abstract-positive,negative,positive,B,NULL
1739295955,95510d8c9638cb8bf3e988dc35c945c9,PennController,80,0,test_val,NULL,PennController,91,_Trial_,Start,1739295515258,undefined,888,Bitter,abstract-negative,negative,positive,B,NULL
1739295955,95510d8c9638cb8bf3e988dc35c945c9,PennController,80,0,test_val,NULL,PennController,91,_Header_,Start,1739295515258,undefined,888,Bitter,abstract-negative,negative,positive,B,NULL
1739295955,95510d8c9638cb8bf3e988dc35c945c9,PennController,80,0,test_val,NULL,PennController,91,_Header_,End,1739295515509,undefined,888,Bitter,abstract-negative,negative,positive,B,NULL
1739295955,95510d8c9638cb8bf3e988dc35c945c9,PennController,80,0,test_val,NULL,Selector,unnamed-Selector,Selection,negative,1739295516901,undefined,888,Bitter,abstract-negative,negative,positive,B,negative;positive
1739295955,95510d8c9638cb8bf3e988dc35c945c9,PennController,80,0,test_val,NULL,PennController,91,_Trial_,End,1739295516902,undefined,888,Bitter,abstract-negative,negative,positive,B,NULL
1739295955,95510d8c9638cb8bf3e988dc35c945c9,PennController,73,0,test_val,NULL,PennController,84,_Trial_,Start,1739295516902,undefined,909,Bitter,concrete-negative,negative,positive,B,NULL
1739295955,95510d8c9638cb8bf3e988dc35c945c9,PennController,73,0,test_val,NULL,PennController,84,_Header_,Start,1739295516902,undefined,909,Bitter,concrete-negative,negative,positive,B,NULL
1739295955,95510d8c9638cb8bf3e988dc35c945c9,PennController,73,0,test_val,NULL,PennController,84,_Header_,End,1739295517154,undefined,909,Bitter,concrete-negative,negative,positive,B,NULL
1739295955,95510d8c9638cb8bf3e988dc35c945c9,PennController,73,0,test_val,NULL,Selector,unnamed-Selector,Selection,negative,1739295518568,undefined,909,Bitter,concrete-negative,negative,positive,B,negative;positive
1739295955,95510d8c9638cb8bf3e988dc35c945c9,PennController,73,0,test_val,NULL,PennController,84,_Trial_,End,1739295518569,undefined,909,Bitter,concrete-negative,negative,positive,B,NULL
1739295955,95510d8c9638cb8bf3e988dc35c945c9,PennController,69,0,test_val,NULL,PennController,80,_Trial_,Start,1739295518569,undefined,935,Rough,concrete-negative,negative,positive,B,NULL
1739295955,95510d8c9638cb8bf3e988dc35c945c9,PennController,69,0,test_val,NULL,PennController,80,_Header_,Start,1739295518569,undefined,935,Rough,concrete-negative,negative,positive,B,NULL
1739295955,95510d8c9638cb8bf3e988dc35c945c9,PennController,69,0,test_val,NULL,PennController,80,_Header_,End,1739295518821,undefined,935,Rough,concrete-negative,negative,positive,B,NULL
1739295955,95510d8c9638cb8bf3e988dc35c945c9,PennController,69,0,test_val,NULL,Selector,unnamed-Selector,Selection,negative,1739295520259,undefined,935,Rough,concrete-negative,negative,positive,B,negative;positive
1739295955,95510d8c9638cb8bf3e988dc35c945c9,PennController,69,0,test_val,NULL,PennController,80,_Trial_,End,1739295520259,undefined,935,Rough,concrete-negative,negative,positive,B,NULL
1739295955,95510d8c9638cb8bf3e988dc35c945c9,PennController,54,0,test_val,NULL,PennController,65,_Trial_,Start,1739295520260,undefined,711,Hopeful,abstract-positive,negative,positive,B,NULL
1739295955,95510d8c9638cb8bf3e988dc35c945c9,PennController,54,0,test_val,NULL,PennController,65,_Header_,Start,1739295520260,undefined,711,Hopeful,abstract-positive,negative,positive,B,NULL
1739295955,95510d8c9638cb8bf3e988dc35c945c9,PennController,54,0,test_val,NULL,PennController,65,_Header_,End,1739295520511,undefined,711,Hopeful,abstract-positive,negative,positive,B,NULL
1739295955,95510d8c9638cb8bf3e988dc35c945c9,PennController,54,0,test_val,NULL,Selector,unnamed-Selector,Selection,positive,1739295521723,undefined,711,Hopeful,abstract-positive,negative,positive,B,negative;positive
1739295955,95510d8c9638cb8bf3e988dc35c945c9,PennController,54,0,test_val,NULL,PennController,65,_Trial_,End,1739295521724,undefined,711,Hopeful,abstract-positive,negative,positive,B,NULL
1739295955,95510d8c9638cb8bf3e988dc35c945c9,PennController,60,0,test_val,NULL,PennController,71,_Trial_,Start,1739295521725,undefined,580,Inspiring,abstract-positive,negative,positive,B,NULL
1739295955,95510d8c9638cb8bf3e988dc35c945c9,PennController,60,0,test_val,NULL,PennController,71,_Header_,Start,1739295521725,undefined,580,Inspiring,abstract-positive,negative,positive,B,NULL
1739295955,95510d8c9638cb8bf3e988dc35c945c9,PennController,60,0,test_val,NULL,PennController,71,_Header_,End,1739295521976,undefined,580,Inspiring,abstract-positive,negative,positive,B,NULL
1739295955,95510d8c9638cb8bf3e988dc35c945c9,PennController,60,0,test_val,NULL,Selector,unnamed-Selector,Selection,positive,1739295523062,undefined,580,Inspiring,abstract-positive,negative,positive,B,negative;positive
1739295955,95510d8c9638cb8bf3e988dc35c945c9,PennController,60,0,test_val,NULL,PennController,71,_Trial_,End,1739295523063,undefined,580,Inspiring,abstract-positive,negative,positive,B,NULL
1739295955,95510d8c9638cb8bf3e988dc35c945c9,PennController,76,0,test_val,NULL,PennController,87,_Trial_,Start,1739295523064,undefined,727,Helpless,abstract-negative,negative,positive,B,NULL
1739295955,95510d8c9638cb8bf3e988dc35c945c9,PennController,76,0,test_val,NULL,PennController,87,_Header_,Start,1739295523064,undefined,727,Helpless,abstract-negative,negative,positive,B,NULL
1739295955,95510d8c9638cb8bf3e988dc35c945c9,PennController,76,0,test_val,NULL,PennController,87,_Header_,End,1739295523316,undefined,727,Helpless,abstract-negative,negative,positive,B,NULL
1739295955,95510d8c9638cb8bf3e988dc35c945c9,PennController,76,0,test_val,NULL,Selector,unnamed-Selector,Selection,negative,1739295524548,undefined,727,Helpless,abstract-negative,negative,positive,B,negative;positive
1739295955,95510d8c9638cb8bf3e988dc35c945c9,PennController,76,0,test_val,NULL,PennController,87,_Trial_,End,1739295524549,undefined,727,Helpless,abstract-negative,negative,positive,B,NULL
1739295955,95510d8c9638cb8bf3e988dc35c945c9,PennController,56,0,test_val,NULL,PennController,67,_Trial_,Start,1739295524550,undefined,791,Grateful,abstract-positive,negative,positive,B,NULL
1739295955,95510d8c9638cb8bf3e988dc35c945c9,PennController,56,0,test_val,NULL,PennController,67,_Header_,Start,1739295524550,undefined,791,Grateful,abstract-positive,negative,positive,B,NULL
1739295955,95510d8c9638cb8bf3e988dc35c945c9,PennController,56,0,test_val,NULL,PennController,67,_Header_,End,1739295524801,undefined,791,Grateful,abstract-positive,negative,positive,B,NULL
1739295955,95510d8c9638cb8bf3e988dc35c945c9,PennController,56,0,test_val,NULL,Selector,unnamed-Selector,Selection,positive,1739295526096,undefined,791,Grateful,abstract-positive,negative,positive,B,negative;positive
1739295955,95510d8c9638cb8bf3e988dc35c945c9,PennController,56,0,test_val,NULL,PennController,67,_Trial_,End,1739295526097,undefined,791,Grateful,abstract-positive,negative,positive,B,NULL
1739295955,95510d8c9638cb8bf3e988dc35c945c9,PennController,80,0,test_val,NULL,PennController,91,_Trial_,Start,1739295526098,undefined,615,Bitter,abstract-negative,negative,positive,B,NULL
1739295955,95510d8c9638cb8bf3e988dc35c945c9,PennController,80,0,test_val,NULL,PennController,91,_Header_,Start,1739295526098,undefined,615,Bitter,abstract-negative,negative,positive,B,NULL
1739295955,95510d8c9638cb8bf3e988dc35c945c9,PennController,80,0,test_val,NULL,PennController,91,_Header_,End,1739295526349,undefined,615,Bitter,abstract-negative,negative,positive,B,NULL
1739295955,95510d8c9638cb8bf3e988dc35c945c9,PennController,80,0,test_val,NULL,Selector,unnamed-Selector,Selection,negative,1739295527470,undefined,615,Bitter,abstract-negative,negative,positive,B,negative;positive
1739295955,95510d8c9638cb8bf3e988dc35c945c9,PennController,80,0,test_val,NULL,PennController,91,_Trial_,End,1739295527470,undefined,615,Bitter,abstract-negative,negative,positive,B,NULL
1739295955,95510d8c9638cb8bf3e988dc35c945c9,PennController,70,0,test_val,NULL,PennController,81,_Trial_,Start,1739295527471,undefined,776,Noisy,concrete-negative,negative,positive,B,NULL
1739295955,95510d8c9638cb8bf3e988dc35c945c9,PennController,70,0,test_val,NULL,PennController,81,_Header_,Start,1739295527471,undefined,776,Noisy,concrete-negative,negative,positive,B,NULL
1739295955,95510d8c9638cb8bf3e988dc35c945c9,PennController,70,0,test_val,NULL,PennController,81,_Header_,End,1739295527724,undefined,776,Noisy,concrete-negative,negative,positive,B,NULL
1739295955,95510d8c9638cb8bf3e988dc35c945c9,PennController,70,0,test_val,NULL,Selector,unnamed-Selector,Selection,negative,1739295529006,undefined,776,Noisy,concrete-negative,negative,positive,B,negative;positive
1739295955,95510d8c9638cb8bf3e988dc35c945c9,PennController,70,0,test_val,NULL,PennController,81,_Trial_,End,1739295529007,undefined,776,Noisy,concrete-negative,negative,positive,B,NULL
1739295955,95510d8c9638cb8bf3e988dc35c945c9,PennController,77,0,test_val,NULL,PennController,88,_Trial_,Start,1739295529008,undefined,786,Lonely,abstract-negative,negative,positive,B,NULL
1739295955,95510d8c9638cb8bf3e988dc35c945c9,PennController,77,0,test_val,NULL,PennController,88,_Header_,Start,1739295529008,undefined,786,Lonely,abstract-negative,negative,positive,B,NULL
1739295955,95510d8c9638cb8bf3e988dc35c945c9,PennController,77,0,test_val,NULL,PennController,88,_Header_,End,1739295529260,undefined,786,Lonely,abstract-negative,negative,positive,B,NULL
1739295955,95510d8c9638cb8bf3e988dc35c945c9,PennController,77,0,test_val,NULL,Selector,unnamed-Selector,Selection,negative,1739295530550,undefined,786,Lonely,abstract-negative,negative,positive,B,negative;positive
1739295955,95510d8c9638cb8bf3e988dc35c945c9,PennController,77,0,test_val,NULL,PennController,88,_Trial_,End,1739295530551,undefined,786,Lonely,abstract-negative,negative,positive,B,NULL
1739295955,95510d8c9638cb8bf3e988dc35c945c9,PennController,66,0,test_val,NULL,PennController,77,_Trial_,Start,1739295530552,undefined,701,Smelly,concrete-negative,negative,positive,B,NULL
1739295955,95510d8c9638cb8bf3e988dc35c945c9,PennController,66,0,test_val,NULL,PennController,77,_Header_,Start,1739295530552,undefined,701,Smelly,concrete-negative,negative,positive,B,NULL
1739295955,95510d8c9638cb8bf3e988dc35c945c9,PennController,66,0,test_val,NULL,PennController,77,_Header_,End,1739295530806,undefined,701,Smelly,concrete-negative,negative,positive,B,NULL
1739295955,95510d8c9638cb8bf3e988dc35c945c9,PennController,66,0,test_val,NULL,Selector,unnamed-Selector,Selection,negative,1739295532011,undefined,701,Smelly,concrete-negative,negative,positive,B,negative;positive
1739295955,95510d8c9638cb8bf3e988dc35c945c9,PennController,66,0,test_val,NULL,PennController,77,_Trial_,End,1739295532012,undefined,701,Smelly,concrete-negative,negative,positive,B,NULL
1739295955,95510d8c9638cb8bf3e988dc35c945c9,PennController,65,0,test_val,NULL,PennController,76,_Trial_,Start,1739295532013,undefined,615,Sticky,concrete-negative,negative,positive,B,NULL
1739295955,95510d8c9638cb8bf3e988dc35c945c9,PennController,65,0,test_val,NULL,PennController,76,_Header_,Start,1739295532013,undefined,615,Sticky,concrete-negative,negative,positive,B,NULL
1739295955,95510d8c9638cb8bf3e988dc35c945c9,PennController,65,0,test_val,NULL,PennController,76,_Header_,End,1739295532265,undefined,615,Sticky,concrete-negative,negative,positive,B,NULL
1739295955,95510d8c9638cb8bf3e988dc35c945c9,PennController,65,0,test_val,NULL,Selector,unnamed-Selector,Selection,negative,1739295533383,undefined,615,Sticky,concrete-negative,negative,positive,B,negative;positive
1739295955,95510d8c9638cb8bf3e988dc35c945c9,PennController,65,0,test_val,NULL,PennController,76,_Trial_,End,1739295533385,undefined,615,Sticky,concrete-negative,negative,positive,B,NULL
1739295955,95510d8c9638cb8bf3e988dc35c945c9,PennController,62,0,test_val,NULL,PennController,73,_Trial_,Start,1739295533386,undefined,748,Harmonious,abstract-positive,negative,positive,B,NULL
1739295955,95510d8c9638cb8bf3e988dc35c945c9,PennController,62,0,test_val,NULL,PennController,73,_Header_,Start,1739295533386,undefined,748,Harmonious,abstract-positive,negative,positive,B,NULL
1739295955,95510d8c9638cb8bf3e988dc35c945c9,PennController,62,0,test_val,NULL,PennController,73,_Header_,End,1739295533638,undefined,748,Harmonious,abstract-positive,negative,positive,B,NULL
1739295955,95510d8c9638cb8bf3e988dc35c945c9,PennController,62,0,test_val,NULL,Selector,unnamed-Selector,Selection,positive,1739295534891,undefined,748,Harmonious,abstract-positive,negative,positive,B,negative;positive
1739295955,95510d8c9638cb8bf3e988dc35c945c9,PennController,62,0,test_val,NULL,PennController,73,_Trial_,End,1739295534892,undefined,748,Harmonious,abstract-positive,negative,positive,B,NULL
1739295955,95510d8c9638cb8bf3e988dc35c945c9,PennController,46,0,test_val,NULL,PennController,57,_Trial_,Start,1739295534894,undefined,586,Soft,concrete-positive,negative,positive,B,NULL
1739295955,95510d8c9638cb8bf3e988dc35c945c9,PennController,46,0,test_val,NULL,PennController,57,_Header_,Start,1739295534894,undefined,586,Soft,concrete-positive,negative,positive,B,NULL
1739295955,95510d8c9638cb8bf3e988dc35c945c9,PennController,46,0,test_val,NULL,PennController,57,_Header_,End,1739295535144,undefined,586,Soft,concrete-positive,negative,positive,B,NULL
1739295955,95510d8c9638cb8bf3e988dc35c945c9,PennController,46,0,test_val,NULL,Selector,unnamed-Selector,Selection,positive,1739295536233,undefined,586,Soft,concrete-positive,negative,positive,B,negative;positive
1739295955,95510d8c9638cb8bf3e988dc35c945c9,PennController,46,0,test_val,NULL,PennController,57,_Trial_,End,1739295536234,undefined,586,Soft,concrete-positive,negative,positive,B,NULL
1739295955,95510d8c9638cb8bf3e988dc35c945c9,PennController,55,0,test_val,NULL,PennController,66,_Trial_,Start,1739295536235,undefined,521,Loving,abstract-positive,negative,positive,B,NULL
1739295955,95510d8c9638cb8bf3e988dc35c945c9,PennController,55,0,test_val,NULL,PennController,66,_Header_,Start,1739295536235,undefined,521,Loving,abstract-positive,negative,positive,B,NULL
1739295955,95510d8c9638cb8bf3e988dc35c945c9,PennController,55,0,test_val,NULL,PennController,66,_Header_,End,1739295536485,undefined,521,Loving,abstract-positive,negative,positive,B,NULL
1739295955,95510d8c9638cb8bf3e988dc35c945c9,PennController,55,0,test_val,NULL,Selector,unnamed-Selector,Selection,positive,1739295537509,undefined,521,Loving,abstract-positive,negative,positive,B,negative;positive
1739295955,95510d8c9638cb8bf3e988dc35c945c9,PennController,55,0,test_val,NULL,PennController,66,_Trial_,End,1739295537510,undefined,521,Loving,abstract-positive,negative,positive,B,NULL
1739295955,95510d8c9638cb8bf3e988dc35c945c9,PennController,50,0,test_val,NULL,PennController,61,_Trial_,Start,1739295537511,undefined,658,Colorful,concrete-positive,negative,positive,B,NULL
1739295955,95510d8c9638cb8bf3e988dc35c945c9,PennController,50,0,test_val,NULL,PennController,61,_Header_,Start,1739295537511,undefined,658,Colorful,concrete-positive,negative,positive,B,NULL
1739295955,95510d8c9638cb8bf3e988dc35c945c9,PennController,50,0,test_val,NULL,PennController,61,_Header_,End,1739295537764,undefined,658,Colorful,concrete-positive,negative,positive,B,NULL
1739295955,95510d8c9638cb8bf3e988dc35c945c9,PennController,50,0,test_val,NULL,Selector,unnamed-Selector,Selection,positive,1739295538925,undefined,658,Colorful,concrete-positive,negative,positive,B,negative;positive
1739295955,95510d8c9638cb8bf3e988dc35c945c9,PennController,50,0,test_val,NULL,PennController,61,_Trial_,End,1739295538926,undefined,658,Colorful,concrete-positive,negative,positive,B,NULL
1739295955,95510d8c9638cb8bf3e988dc35c945c9,PennController,79,0,test_val,NULL,PennController,90,_Trial_,Start,1739295538927,undefined,685,Anxious,abstract-negative,negative,positive,B,NULL
1739295955,95510d8c9638cb8bf3e988dc35c945c9,PennController,79,0,test_val,NULL,PennController,90,_Header_,Start,1739295538927,undefined,685,Anxious,abstract-negative,negative,positive,B,NULL
1739295955,95510d8c9638cb8bf3e988dc35c945c9,PennController,79,0,test_val,NULL,PennController,90,_Header_,End,1739295539179,undefined,685,Anxious,abstract-negative,negative,positive,B,NULL
1739295955,95510d8c9638cb8bf3e988dc35c945c9,PennController,79,0,test_val,NULL,Selector,unnamed-Selector,Selection,negative,1739295540371,undefined,685,Anxious,abstract-negative,negative,positive,B,negative;positive
1739295955,95510d8c9638cb8bf3e988dc35c945c9,PennController,79,0,test_val,NULL,PennController,90,_Trial_,End,1739295540372,undefined,685,Anxious,abstract-negative,negative,positive,B,NULL
1739295955,95510d8c9638cb8bf3e988dc35c945c9,PennController,72,0,test_val,NULL,PennController,83,_Trial_,Start,1739295540373,undefined,576,Greasy,concrete-negative,negative,positive,B,NULL
1739295955,95510d8c9638cb8bf3e988dc35c945c9,PennController,72,0,test_val,NULL,PennController,83,_Header_,Start,1739295540373,undefined,576,Greasy,concrete-negative,negative,positive,B,NULL
1739295955,95510d8c9638cb8bf3e988dc35c945c9,PennController,72,0,test_val,NULL,PennController,83,_Header_,End,1739295540624,undefined,576,Greasy,concrete-negative,negative,positive,B,NULL
1739295955,95510d8c9638cb8bf3e988dc35c945c9,PennController,72,0,test_val,NULL,Selector,unnamed-Selector,Selection,negative,1739295541702,undefined,576,Greasy,concrete-negative,negative,positive,B,negative;positive
1739295955,95510d8c9638cb8bf3e988dc35c945c9,PennController,72,0,test_val,NULL,PennController,83,_Trial_,End,1739295541703,undefined,576,Greasy,concrete-negative,negative,positive,B,NULL
1739295955,95510d8c9638cb8bf3e988dc35c945c9,PennController,63,0,test_val,NULL,PennController,74,_Trial_,Start,1739295541704,undefined,889,Resilient,abstract-positive,negative,positive,B,NULL
1739295955,95510d8c9638cb8bf3e988dc35c945c9,PennController,63,0,test_val,NULL,PennController,74,_Header_,Start,1739295541704,undefined,889,Resilient,abstract-positive,negative,positive,B,NULL
1739295955,95510d8c9638cb8bf3e988dc35c945c9,PennController,63,0,test_val,NULL,PennController,74,_Header_,End,1739295541955,undefined,889,Resilient,abstract-positive,negative,positive,B,NULL
1739295955,95510d8c9638cb8bf3e988dc35c945c9,PennController,63,0,test_val,NULL,Selector,unnamed-Selector,Selection,positive,1739295543346,undefined,889,Resilient,abstract-positive,negative,positive,B,negative;positive
1739295955,95510d8c9638cb8bf3e988dc35c945c9,PennController,63,0,test_val,NULL,PennController,74,_Trial_,End,1739295543351,undefined,889,Resilient,abstract-positive,negative,positive,B,NULL
1739295955,95510d8c9638cb8bf3e988dc35c945c9,PennController,78,0,test_val,NULL,PennController,89,_Trial_,Start,1739295543354,undefined,847,Regretful,abstract-negative,negative,positive,B,NULL
1739295955,95510d8c9638cb8bf3e988dc35c945c9,PennController,78,0,test_val,NULL,PennController,89,_Header_,Start,1739295543354,undefined,847,Regretful,abstract-negative,negative,positive,B,NULL
1739295955,95510d8c9638cb8bf3e988dc35c945c9,PennController,78,0,test_val,NULL,PennController,89,_Header_,End,1739295543606,undefined,847,Regretful,abstract-negative,negative,positive,B,NULL
1739295955,95510d8c9638cb8bf3e988dc35c945c9,PennController,78,0,test_val,NULL,Selector,unnamed-Selector,Selection,negative,1739295544956,undefined,847,Regretful,abstract-negative,negative,positive,B,negative;positive
1739295955,95510d8c9638cb8bf3e988dc35c945c9,PennController,78,0,test_val,NULL,PennController,89,_Trial_,End,1739295544958,undefined,847,Regretful,abstract-negative,negative,positive,B,NULL
1739295955,95510d8c9638cb8bf3e988dc35c945c9,PennController,53,0,test_val,NULL,PennController,64,_Trial_,Start,1739295544960,undefined,593,Cool,concrete-positive,negative,positive,B,NULL
1739295955,95510d8c9638cb8bf3e988dc35c945c9,PennController,53,0,test_val,NULL,PennController,64,_Header_,Start,1739295544960,undefined,593,Cool,concrete-positive,negative,positive,B,NULL
1739295955,95510d8c9638cb8bf3e988dc35c945c9,PennController,53,0,test_val,NULL,PennController,64,_Header_,End,1739295545213,undefined,593,Cool,concrete-positive,negative,positive,B,NULL
1739295955,95510d8c9638cb8bf3e988dc35c945c9,PennController,53,0,test_val,NULL,Selector,unnamed-Selector,Selection,positive,1739295546308,undefined,593,Cool,concrete-positive,negative,positive,B,negative;positive
1739295955,95510d8c9638cb8bf3e988dc35c945c9,PennController,53,0,test_val,NULL,PennController,64,_Trial_,End,1739295546309,undefined,593,Cool,concrete-positive,negative,positive,B,NULL
1739295955,95510d8c9638cb8bf3e988dc35c945c9,PennController,75,0,test_val,NULL,PennController,86,_Trial_,Start,1739295546310,undefined,813,Worthless,abstract-negative,negative,positive,B,NULL
1739295955,95510d8c9638cb8bf3e988dc35c945c9,PennController,75,0,test_val,NULL,PennController,86,_Header_,Start,1739295546310,undefined,813,Worthless,abstract-negative,negative,positive,B,NULL
1739295955,95510d8c9638cb8bf3e988dc35c945c9,PennController,75,0,test_val,NULL,PennController,86,_Header_,End,1739295546562,undefined,813,Worthless,abstract-negative,negative,positive,B,NULL
1739295955,95510d8c9638cb8bf3e988dc35c945c9,PennController,75,0,test_val,NULL,Selector,unnamed-Selector,Selection,negative,1739295547880,undefined,813,Worthless,abstract-negative,negative,positive,B,negative;positive
1739295955,95510d8c9638cb8bf3e988dc35c945c9,PennController,75,0,test_val,NULL,PennController,86,_Trial_,End,1739295547881,undefined,813,Worthless,abstract-negative,negative,positive,B,NULL
1739295955,95510d8c9638cb8bf3e988dc35c945c9,PennController,64,0,test_val,NULL,PennController,75,_Trial_,Start,1739295547882,undefined,563,Dirty,concrete-negative,negative,positive,B,NULL
1739295955,95510d8c9638cb8bf3e988dc35c945c9,PennController,64,0,test_val,NULL,PennController,75,_Header_,Start,1739295547882,undefined,563,Dirty,concrete-negative,negative,positive,B,NULL
1739295955,95510d8c9638cb8bf3e988dc35c945c9,PennController,64,0,test_val,NULL,PennController,75,_Header_,End,1739295548133,undefined,563,Dirty,concrete-negative,negative,positive,B,NULL
1739295955,95510d8c9638cb8bf3e988dc35c945c9,PennController,64,0,test_val,NULL,Selector,unnamed-Selector,Selection,negative,1739295549199,undefined,563,Dirty,concrete-negative,negative,positive,B,negative;positive
1739295955,95510d8c9638cb8bf3e988dc35c945c9,PennController,64,0,test_val,NULL,PennController,75,_Trial_,End,1739295549201,undefined,563,Dirty,concrete-negative,negative,positive,B,NULL
1739295955,95510d8c9638cb8bf3e988dc35c945c9,PennController,44,0,test_val,NULL,PennController,55,_Trial_,Start,1739295549202,undefined,734,Warm,concrete-positive,negative,positive,B,NULL
1739295955,95510d8c9638cb8bf3e988dc35c945c9,PennController,44,0,test_val,NULL,PennController,55,_Header_,Start,1739295549202,undefined,734,Warm,concrete-positive,negative,positive,B,NULL
1739295955,95510d8c9638cb8bf3e988dc35c945c9,PennController,44,0,test_val,NULL,PennController,55,_Header_,End,1739295549453,undefined,734,Warm,concrete-positive,negative,positive,B,NULL
1739295955,95510d8c9638cb8bf3e988dc35c945c9,PennController,44,0,test_val,NULL,Selector,unnamed-Selector,Selection,positive,1739295550692,undefined,734,Warm,concrete-positive,negative,positive,B,negative;positive
1739295955,95510d8c9638cb8bf3e988dc35c945c9,PennController,44,0,test_val,NULL,PennController,55,_Trial_,End,1739295550694,undefined,734,Warm,concrete-positive,negative,positive,B,NULL
1739295955,95510d8c9638cb8bf3e988dc35c945c9,PennController,59,0,test_val,NULL,PennController,70,_Trial_,Start,1739295550695,undefined,734,Peaceful,abstract-positive,negative,positive,B,NULL
1739295955,95510d8c9638cb8bf3e988dc35c945c9,PennController,59,0,test_val,NULL,PennController,70,_Header_,Start,1739295550695,undefined,734,Peaceful,abstract-positive,negative,positive,B,NULL
1739295955,95510d8c9638cb8bf3e988dc35c945c9,PennController,59,0,test_val,NULL,PennController,70,_Header_,End,1739295550948,undefined,734,Peaceful,abstract-positive,negative,positive,B,NULL
1739295955,95510d8c9638cb8bf3e988dc35c945c9,PennController,59,0,test_val,NULL,Selector,unnamed-Selector,Selection,positive,1739295552185,undefined,734,Peaceful,abstract-positive,negative,positive,B,negative;positive
1739295955,95510d8c9638cb8bf3e988dc35c945c9,PennController,59,0,test_val,NULL,PennController,70,_Trial_,End,1739295552185,undefined,734,Peaceful,abstract-positive,negative,positive,B,NULL
1739295955,95510d8c9638cb8bf3e988dc35c945c9,PennController,49,0,test_val,NULL,PennController,60,_Trial_,Start,1739295552186,undefined,535,Fragrant,concrete-positive,negative,positive,B,NULL
1739295955,95510d8c9638cb8bf3e988dc35c945c9,PennController,49,0,test_val,NULL,PennController,60,_Header_,Start,1739295552186,undefined,535,Fragrant,concrete-positive,negative,positive,B,NULL
1739295955,95510d8c9638cb8bf3e988dc35c945c9,PennController,49,0,test_val,NULL,PennController,60,_Header_,End,1739295552437,undefined,535,Fragrant,concrete-positive,negative,positive,B,NULL
1739295955,95510d8c9638cb8bf3e988dc35c945c9,PennController,49,0,test_val,NULL,Selector,unnamed-Selector,Selection,positive,1739295553475,undefined,535,Fragrant,concrete-positive,negative,positive,B,negative;positive
1739295955,95510d8c9638cb8bf3e988dc35c945c9,PennController,49,0,test_val,NULL,PennController,60,_Trial_,End,1739295553476,undefined,535,Fragrant,concrete-positive,negative,positive,B,NULL
1739295955,95510d8c9638cb8bf3e988dc35c945c9,PennController,57,0,test_val,NULL,PennController,68,_Trial_,Start,1739295553476,undefined,661,Kind,abstract-positive,negative,positive,B,NULL
1739295955,95510d8c9638cb8bf3e988dc35c945c9,PennController,57,0,test_val,NULL,PennController,68,_Header_,Start,1739295553476,undefined,661,Kind,abstract-positive,negative,positive,B,NULL
1739295955,95510d8c9638cb8bf3e988dc35c945c9,PennController,57,0,test_val,NULL,PennController,68,_Header_,End,1739295553726,undefined,661,Kind,abstract-positive,negative,positive,B,NULL
1739295955,95510d8c9638cb8bf3e988dc35c945c9,PennController,57,0,test_val,NULL,Selector,unnamed-Selector,Selection,positive,1739295554893,undefined,661,Kind,abstract-positive,negative,positive,B,negative;positive
1739295955,95510d8c9638cb8bf3e988dc35c945c9,PennController,57,0,test_val,NULL,PennController,68,_Trial_,End,1739295554894,undefined,661,Kind,abstract-positive,negative,positive,B,NULL
1739295955,95510d8c9638cb8bf3e988dc35c945c9,PennController,47,0,test_val,NULL,PennController,58,_Trial_,Start,1739295554896,undefined,526,Bright,concrete-positive,negative,positive,B,NULL
1739295955,95510d8c9638cb8bf3e988dc35c945c9,PennController,47,0,test_val,NULL,PennController,58,_Header_,Start,1739295554896,undefined,526,Bright,concrete-positive,negative,positive,B,NULL
1739295955,95510d8c9638cb8bf3e988dc35c945c9,PennController,47,0,test_val,NULL,PennController,58,_Header_,End,1739295555148,undefined,526,Bright,concrete-positive,negative,positive,B,NULL
1739295955,95510d8c9638cb8bf3e988dc35c945c9,PennController,47,0,test_val,NULL,Selector,unnamed-Selector,Selection,positive,1739295556180,undefined,526,Bright,concrete-positive,negative,positive,B,negative;positive
1739295955,95510d8c9638cb8bf3e988dc35c945c9,PennController,47,0,test_val,NULL,PennController,58,_Trial_,End,1739295556182,undefined,526,Bright,concrete-positive,negative,positive,B,NULL
1739295955,95510d8c9638cb8bf3e988dc35c945c9,PennController,48,0,test_val,NULL,PennController,59,_Trial_,Start,1739295556184,undefined,545,Clean,concrete-positive,negative,positive,B,NULL
1739295955,95510d8c9638cb8bf3e988dc35c945c9,PennController,48,0,test_val,NULL,PennController,59,_Header_,Start,1739295556184,undefined,545,Clean,concrete-positive,negative,positive,B,NULL
1739295955,95510d8c9638cb8bf3e988dc35c945c9,PennController,48,0,test_val,NULL,PennController,59,_Header_,End,1739295556435,undefined,545,Clean,concrete-positive,negative,positive,B,NULL
1739295955,95510d8c9638cb8bf3e988dc35c945c9,PennController,48,0,test_val,NULL,Selector,unnamed-Selector,Selection,positive,1739295557482,undefined,545,Clean,concrete-positive,negative,positive,B,negative;positive
1739295955,95510d8c9638cb8bf3e988dc35c945c9,PennController,48,0,test_val,NULL,PennController,59,_Trial_,End,1739295557483,undefined,545,Clean,concrete-positive,negative,positive,B,NULL
1739295955,95510d8c9638cb8bf3e988dc35c945c9,PennController,68,0,test_val,NULL,PennController,79,_Trial_,Start,1739295557485,undefined,690,Dark,concrete-negative,negative,positive,B,NULL
1739295955,95510d8c9638cb8bf3e988dc35c945c9,PennController,68,0,test_val,NULL,PennController,79,_Header_,Start,1739295557485,undefined,690,Dark,concrete-negative,negative,positive,B,NULL
1739295955,95510d8c9638cb8bf3e988dc35c945c9,PennController,68,0,test_val,NULL,PennController,79,_Header_,End,1739295557737,undefined,690,Dark,concrete-negative,negative,positive,B,NULL
1739295955,95510d8c9638cb8bf3e988dc35c945c9,PennController,68,0,test_val,NULL,Selector,unnamed-Selector,Selection,negative,1739295558933,undefined,690,Dark,concrete-negative,negative,positive,B,negative;positive
1739295955,95510d8c9638cb8bf3e988dc35c945c9,PennController,68,0,test_val,NULL,PennController,79,_Trial_,End,1739295558934,undefined,690,Dark,concrete-negative,negative,positive,B,NULL
1739295955,95510d8c9638cb8bf3e988dc35c945c9,PennController,67,0,test_val,NULL,PennController,78,_Trial_,Start,1739295558936,undefined,639,Cold,concrete-negative,negative,positive,B,NULL
1739295955,95510d8c9638cb8bf3e988dc35c945c9,PennController,67,0,test_val,NULL,PennController,78,_Header_,Start,1739295558936,undefined,639,Cold,concrete-negative,negative,positive,B,NULL
1739295955,95510d8c9638cb8bf3e988dc35c945c9,PennController,67,0,test_val,NULL,PennController,78,_Header_,End,1739295559187,undefined,639,Cold,concrete-negative,negative,positive,B,NULL
1739295955,95510d8c9638cb8bf3e988dc35c945c9,PennController,67,0,test_val,NULL,Selector,unnamed-Selector,Selection,positive,1739295560329,undefined,639,Cold,concrete-negative,negative,positive,B,negative;positive
1739295955,95510d8c9638cb8bf3e988dc35c945c9,PennController,67,0,test_val,NULL,PennController,78,_Trial_,End,1739295560331,undefined,639,Cold,concrete-negative,negative,positive,B,NULL
1739295955,95510d8c9638cb8bf3e988dc35c945c9,PennController,82,0,test_val,NULL,PennController,93,_Trial_,Start,1739295560332,undefined,796,Fearful,abstract-negative,negative,positive,B,NULL
1739295955,95510d8c9638cb8bf3e988dc35c945c9,PennController,82,0,test_val,NULL,PennController,93,_Header_,Start,1739295560332,undefined,796,Fearful,abstract-negative,negative,positive,B,NULL
1739295955,95510d8c9638cb8bf3e988dc35c945c9,PennController,82,0,test_val,NULL,PennController,93,_Header_,End,1739295560583,undefined,796,Fearful,abstract-negative,negative,positive,B,NULL
1739295955,95510d8c9638cb8bf3e988dc35c945c9,PennController,82,0,test_val,NULL,Selector,unnamed-Selector,Selection,negative,1739295561881,undefined,796,Fearful,abstract-negative,negative,positive,B,negative;positive
1739295955,95510d8c9638cb8bf3e988dc35c945c9,PennController,82,0,test_val,NULL,PennController,93,_Trial_,End,1739295561883,undefined,796,Fearful,abstract-negative,negative,positive,B,NULL
1739295955,95510d8c9638cb8bf3e988dc35c945c9,PennController,83,0,test_val,NULL,PennController,94,_Trial_,Start,1739295561885,undefined,760,Despairing,abstract-negative,negative,positive,B,NULL
1739295955,95510d8c9638cb8bf3e988dc35c945c9,PennController,83,0,test_val,NULL,PennController,94,_Header_,Start,1739295561885,undefined,760,Despairing,abstract-negative,negative,positive,B,NULL
1739295955,95510d8c9638cb8bf3e988dc35c945c9,PennController,83,0,test_val,NULL,PennController,94,_Header_,End,1739295562135,undefined,760,Despairing,abstract-negative,negative,positive,B,NULL
1739295955,95510d8c9638cb8bf3e988dc35c945c9,PennController,83,0,test_val,NULL,Selector,unnamed-Selector,Selection,negative,1739295563401,undefined,760,Despairing,abstract-negative,negative,positive,B,negative;positive
1739295955,95510d8c9638cb8bf3e988dc35c945c9,PennController,83,0,test_val,NULL,PennController,94,_Trial_,End,1739295563403,undefined,760,Despairing,abstract-negative,negative,positive,B,NULL
1739295955,95510d8c9638cb8bf3e988dc35c945c9,PennController,51,0,test_val,NULL,PennController,62,_Trial_,Start,1739295563405,undefined,695,Smooth,concrete-positive,negative,positive,B,NULL
1739295955,95510d8c9638cb8bf3e988dc35c945c9,PennController,51,0,test_val,NULL,PennController,62,_Header_,Start,1739295563405,undefined,695,Smooth,concrete-positive,negative,positive,B,NULL
1739295955,95510d8c9638cb8bf3e988dc35c945c9,PennController,51,0,test_val,NULL,PennController,62,_Header_,End,1739295563657,undefined,695,Smooth,concrete-positive,negative,positive,B,NULL
1739295955,95510d8c9638cb8bf3e988dc35c945c9,PennController,51,0,test_val,NULL,Selector,unnamed-Selector,Selection,positive,1739295564858,undefined,695,Smooth,concrete-positive,negative,positive,B,negative;positive
1739295955,95510d8c9638cb8bf3e988dc35c945c9,PennController,51,0,test_val,NULL,PennController,62,_Trial_,End,1739295564859,undefined,695,Smooth,concrete-positive,negative,positive,B,NULL
1739295955,95510d8c9638cb8bf3e988dc35c945c9,PennController,74,0,test_val,NULL,PennController,85,_Trial_,Start,1739295564860,undefined,655,Hopeless,abstract-negative,negative,positive,B,NULL
1739295955,95510d8c9638cb8bf3e988dc35c945c9,PennController,74,0,test_val,NULL,PennController,85,_Header_,Start,1739295564860,undefined,655,Hopeless,abstract-negative,negative,positive,B,NULL
1739295955,95510d8c9638cb8bf3e988dc35c945c9,PennController,74,0,test_val,NULL,PennController,85,_Header_,End,1739295565111,undefined,655,Hopeless,abstract-negative,negative,positive,B,NULL
1739295955,95510d8c9638cb8bf3e988dc35c945c9,PennController,74,0,test_val,NULL,Selector,unnamed-Selector,Selection,positive,1739295566269,undefined,655,Hopeless,abstract-negative,negative,positive,B,negative;positive
1739295955,95510d8c9638cb8bf3e988dc35c945c9,PennController,74,0,test_val,NULL,PennController,85,_Trial_,End,1739295566269,undefined,655,Hopeless,abstract-negative,negative,positive,B,NULL
1739295955,95510d8c9638cb8bf3e988dc35c945c9,PennController,52,0,test_val,NULL,PennController,63,_Trial_,Start,1739295566270,undefined,944,Delicious,concrete-positive,negative,positive,B,NULL
1739295955,95510d8c9638cb8bf3e988dc35c945c9,PennController,52,0,test_val,NULL,PennController,63,_Header_,Start,1739295566270,undefined,944,Delicious,concrete-positive,negative,positive,B,NULL
1739295955,95510d8c9638cb8bf3e988dc35c945c9,PennController,52,0,test_val,NULL,PennController,63,_Header_,End,1739295566524,undefined,944,Delicious,concrete-positive,negative,positive,B,NULL
1739295955,95510d8c9638cb8bf3e988dc35c945c9,PennController,52,0,test_val,NULL,Selector,unnamed-Selector,Selection,positive,1739295567972,undefined,944,Delicious,concrete-positive,negative,positive,B,negative;positive
1739295955,95510d8c9638cb8bf3e988dc35c945c9,PennController,52,0,test_val,NULL,PennController,63,_Trial_,End,1739295567973,undefined,944,Delicious,concrete-positive,negative,positive,B,NULL
1739295955,95510d8c9638cb8bf3e988dc35c945c9,PennController,81,0,test_val,NULL,PennController,92,_Trial_,Start,1739295567975,undefined,828,Ashamed,abstract-negative,negative,positive,B,NULL
1739295955,95510d8c9638cb8bf3e988dc35c945c9,PennController,81,0,test_val,NULL,PennController,92,_Header_,Start,1739295567975,undefined,828,Ashamed,abstract-negative,negative,positive,B,NULL
1739295955,95510d8c9638cb8bf3e988dc35c945c9,PennController,81,0,test_val,NULL,PennController,92,_Header_,End,1739295568228,undefined,828,Ashamed,abstract-negative,negative,positive,B,NULL
1739295955,95510d8c9638cb8bf3e988dc35c945c9,PennController,81,0,test_val,NULL,Selector,unnamed-Selector,Selection,negative,1739295569559,undefined,828,Ashamed,abstract-negative,negative,positive,B,negative;positive
1739295955,95510d8c9638cb8bf3e988dc35c945c9,PennController,81,0,test_val,NULL,PennController,92,_Trial_,End,1739295569560,undefined,828,Ashamed,abstract-negative,negative,positive,B,NULL
1739295955,95510d8c9638cb8bf3e988dc35c945c9,PennController,71,0,test_val,NULL,PennController,82,_Trial_,Start,1739295569562,undefined,731,Rotten,concrete-negative,negative,positive,B,NULL
1739295955,95510d8c9638cb8bf3e988dc35c945c9,PennController,71,0,test_val,NULL,PennController,82,_Header_,Start,1739295569562,undefined,731,Rotten,concrete-negative,negative,positive,B,NULL
1739295955,95510d8c9638cb8bf3e988dc35c945c9,PennController,71,0,test_val,NULL,PennController,82,_Header_,End,1739295569816,undefined,731,Rotten,concrete-negative,negative,positive,B,NULL
1739295955,95510d8c9638cb8bf3e988dc35c945c9,PennController,71,0,test_val,NULL,Selector,unnamed-Selector,Selection,negative,1739295571053,undefined,731,Rotten,concrete-negative,negative,positive,B,negative;positive
1739295955,95510d8c9638cb8bf3e988dc35c945c9,PennController,71,0,test_val,NULL,PennController,82,_Trial_,End,1739295571054,undefined,731,Rotten,concrete-negative,negative,positive,B,NULL
