#
# Results on Tue, 11 Feb 2025 14:18:02 GMT
# USER AGENT: Mozilla/5.0 (Windows NT 10.0; Win64; x64; rv:135.0) Gecko/20100101 Firefox/135.0
# Design number was non-random = 0
#
# Columns below this comment are as follows:
# 1. Results reception time.
# 2. MD5 hash of participant's IP address.
# 3. Controller name.
# 4. Order number of item.
# 5. Inner element number.
# 6. Label.
# 7. Latin Square Group.
# 8. PennElementType.
# 9. PennElementName.
# 10. Parameter.
# 11. Value.
# 12. EventTime.
# 13. Comments.
1739283482,20ef0cdce26cbcc4b32c7c7320d2660c,PennController,1,0,welcome,NULL,PennController,0,_Trial_,Start,1739282820352,NULL
1739283482,20ef0cdce26cbcc4b32c7c7320d2660c,PennController,1,0,welcome,NULL,PennController,0,_Header_,Start,1739282820352,NULL
1739283482,20ef0cdce26cbcc4b32c7c7320d2660c,PennController,1,0,welcome,NULL,PennController,0,_Header_,End,1739282820607,NULL
1739283482,20ef0cdce26cbcc4b32c7c7320d2660c,PennController,1,0,welcome,NULL,PennController,0,_Trial_,End,1739282825711,NULL
# 13. ID.
# 14. Comments.
1739283482,20ef0cdce26cbcc4b32c7c7320d2660c,PennController,124,0,consent,NULL,PennController,2,_Trial_,Start,1739282825715,5fc2f07939c5f20b2e86607f,NULL
1739283482,20ef0cdce26cbcc4b32c7c7320d2660c,PennController,124,0,consent,NULL,PennController,2,_Header_,Start,1739282825715,5fc2f07939c5f20b2e86607f,NULL
1739283482,20ef0cdce26cbcc4b32c7c7320d2660c,PennController,124,0,consent,NULL,PennController,2,_Header_,End,1739282825978,5fc2f07939c5f20b2e86607f,NULL
1739283482,20ef0cdce26cbcc4b32c7c7320d2660c,PennController,124,0,consent,NULL,TextInput,ID,Final,5fc2f07939c5f20b2e86607f,1739282838456,5fc2f07939c5f20b2e86607f,NULL
1739283482,20ef0cdce26cbcc4b32c7c7320d2660c,PennController,124,0,consent,NULL,PennController,2,_Trial_,End,1739282838456,5fc2f07939c5f20b2e86607f,NULL
# 13. Comments.
1739283482,20ef0cdce26cbcc4b32c7c7320d2660c,PennController,126,0,instructions1_conc,NULL,PennController,4,_Trial_,Start,1739282838458,NULL
1739283482,20ef0cdce26cbcc4b32c7c7320d2660c,PennController,126,0,instructions1_conc,NULL,PennController,4,_Header_,Start,1739282838458,NULL
1739283482,20ef0cdce26cbcc4b32c7c7320d2660c,PennController,126,0,instructions1_conc,NULL,PennController,4,_Header_,End,1739282838723,NULL
1739283482,20ef0cdce26cbcc4b32c7c7320d2660c,PennController,126,0,instructions1_conc,NULL,PennController,4,_Trial_,End,1739282886581,NULL
1739283482,20ef0cdce26cbcc4b32c7c7320d2660c,PennController,127,0,instructions2_conc,NULL,PennController,5,_Trial_,Start,1739282886582,NULL
1739283482,20ef0cdce26cbcc4b32c7c7320d2660c,PennController,127,0,instructions2_conc,NULL,PennController,5,_Header_,Start,1739282886582,NULL
1739283482,20ef0cdce26cbcc4b32c7c7320d2660c,PennController,127,0,instructions2_conc,NULL,PennController,5,_Header_,End,1739282886835,NULL
1739283482,20ef0cdce26cbcc4b32c7c7320d2660c,PennController,127,0,instructions2_conc,NULL,PennController,5,_Trial_,End,1739282898147,NULL
1739283482,20ef0cdce26cbcc4b32c7c7320d2660c,PennController,134,0,instructions3_hands,NULL,PennController,12,_Trial_,Start,1739282898150,NULL
1739283482,20ef0cdce26cbcc4b32c7c7320d2660c,PennController,134,0,instructions3_hands,NULL,PennController,12,_Header_,Start,1739282898150,NULL
1739283482,20ef0cdce26cbcc4b32c7c7320d2660c,PennController,134,0,instructions3_hands,NULL,PennController,12,_Header_,End,1739282898415,NULL
1739283482,20ef0cdce26cbcc4b32c7c7320d2660c,PennController,134,0,instructions3_hands,NULL,PennController,12,_Trial_,End,1739282917315,NULL
1739283482,20ef0cdce26cbcc4b32c7c7320d2660c,PennController,129,0,practice_intro_conc,NULL,PennController,7,_Trial_,Start,1739282917316,NULL
1739283482,20ef0cdce26cbcc4b32c7c7320d2660c,PennController,129,0,practice_intro_conc,NULL,PennController,7,_Header_,Start,1739282917316,NULL
1739283482,20ef0cdce26cbcc4b32c7c7320d2660c,PennController,129,0,practice_intro_conc,NULL,PennController,7,_Header_,End,1739282917581,NULL
1739283482,20ef0cdce26cbcc4b32c7c7320d2660c,PennController,129,0,practice_intro_conc,NULL,PennController,7,_Trial_,End,1739282920094,NULL
# 13. ID.
# 14. ReactionTime.
# 15. Word.
# 16. selectedKey.
# 17. selectedValue.
# 18. Key_value_F.
# 19. Key_value_J.
# 20. Group.
# 21. Comments.
1739283482,20ef0cdce26cbcc4b32c7c7320d2660c,PennController,91,0,calibrator_conc_feedback,NULL,PennController,102,_Trial_,Start,1739282920095,undefined,3339,theory,undefined,concrete,abstract,concrete,B,NULL
1739283482,20ef0cdce26cbcc4b32c7c7320d2660c,PennController,91,0,calibrator_conc_feedback,NULL,PennController,102,_Header_,Start,1739282920095,undefined,3339,theory,undefined,concrete,abstract,concrete,B,NULL
1739283482,20ef0cdce26cbcc4b32c7c7320d2660c,PennController,91,0,calibrator_conc_feedback,NULL,PennController,102,_Header_,End,1739282920361,undefined,3339,theory,undefined,concrete,abstract,concrete,B,NULL
1739283482,20ef0cdce26cbcc4b32c7c7320d2660c,PennController,91,0,calibrator_conc_feedback,NULL,Selector,Selection,Selection,abstract,1739282924208,undefined,3339,theory,undefined,concrete,abstract,concrete,B,abstract;concrete
1739283482,20ef0cdce26cbcc4b32c7c7320d2660c,PennController,91,0,calibrator_conc_feedback,NULL,PennController,102,_Trial_,End,1739282926217,undefined,3339,theory,undefined,concrete,abstract,concrete,B,NULL
1739283482,20ef0cdce26cbcc4b32c7c7320d2660c,PennController,92,0,calibrator_conc_feedback,NULL,PennController,103,_Trial_,Start,1739282926218,undefined,2391,whistle,undefined,concrete,abstract,concrete,B,NULL
1739283482,20ef0cdce26cbcc4b32c7c7320d2660c,PennController,92,0,calibrator_conc_feedback,NULL,PennController,103,_Header_,Start,1739282926218,undefined,2391,whistle,undefined,concrete,abstract,concrete,B,NULL
1739283482,20ef0cdce26cbcc4b32c7c7320d2660c,PennController,92,0,calibrator_conc_feedback,NULL,PennController,103,_Header_,End,1739282926470,undefined,2391,whistle,undefined,concrete,abstract,concrete,B,NULL
1739283482,20ef0cdce26cbcc4b32c7c7320d2660c,PennController,92,0,calibrator_conc_feedback,NULL,Selector,Selection,Selection,abstract,1739282929373,undefined,2391,whistle,undefined,concrete,abstract,concrete,B,abstract;concrete
1739283482,20ef0cdce26cbcc4b32c7c7320d2660c,PennController,92,0,calibrator_conc_feedback,NULL,PennController,103,_Trial_,End,1739282931388,undefined,2391,whistle,undefined,concrete,abstract,concrete,B,NULL
1739283482,20ef0cdce26cbcc4b32c7c7320d2660c,PennController,84,0,calibrator_conc_feedback,NULL,PennController,95,_Trial_,Start,1739282931390,undefined,1781,gas,undefined,concrete,abstract,concrete,B,NULL
1739283482,20ef0cdce26cbcc4b32c7c7320d2660c,PennController,84,0,calibrator_conc_feedback,NULL,PennController,95,_Header_,Start,1739282931391,undefined,1781,gas,undefined,concrete,abstract,concrete,B,NULL
1739283482,20ef0cdce26cbcc4b32c7c7320d2660c,PennController,84,0,calibrator_conc_feedback,NULL,PennController,95,_Header_,End,1739282931641,undefined,1781,gas,undefined,concrete,abstract,concrete,B,NULL
1739283482,20ef0cdce26cbcc4b32c7c7320d2660c,PennController,84,0,calibrator_conc_feedback,NULL,Selector,Selection,Selection,concrete,1739282933935,undefined,1781,gas,undefined,concrete,abstract,concrete,B,abstract;concrete
1739283482,20ef0cdce26cbcc4b32c7c7320d2660c,PennController,84,0,calibrator_conc_feedback,NULL,PennController,95,_Trial_,End,1739282935944,undefined,1781,gas,undefined,concrete,abstract,concrete,B,NULL
1739283482,20ef0cdce26cbcc4b32c7c7320d2660c,PennController,85,0,calibrator_conc_feedback,NULL,PennController,96,_Trial_,Start,1739282935946,undefined,1575,grasshopper,undefined,concrete,abstract,concrete,B,NULL
1739283482,20ef0cdce26cbcc4b32c7c7320d2660c,PennController,85,0,calibrator_conc_feedback,NULL,PennController,96,_Header_,Start,1739282935946,undefined,1575,grasshopper,undefined,concrete,abstract,concrete,B,NULL
1739283482,20ef0cdce26cbcc4b32c7c7320d2660c,PennController,85,0,calibrator_conc_feedback,NULL,PennController,96,_Header_,End,1739282936199,undefined,1575,grasshopper,undefined,concrete,abstract,concrete,B,NULL
1739283482,20ef0cdce26cbcc4b32c7c7320d2660c,PennController,85,0,calibrator_conc_feedback,NULL,Selector,Selection,Selection,concrete,1739282938286,undefined,1575,grasshopper,undefined,concrete,abstract,concrete,B,abstract;concrete
1739283482,20ef0cdce26cbcc4b32c7c7320d2660c,PennController,85,0,calibrator_conc_feedback,NULL,PennController,96,_Trial_,End,1739282940291,undefined,1575,grasshopper,undefined,concrete,abstract,concrete,B,NULL
1739283482,20ef0cdce26cbcc4b32c7c7320d2660c,PennController,86,0,calibrator_conc_feedback,NULL,PennController,97,_Trial_,Start,1739282940293,undefined,2235,kick,undefined,concrete,abstract,concrete,B,NULL
1739283482,20ef0cdce26cbcc4b32c7c7320d2660c,PennController,86,0,calibrator_conc_feedback,NULL,PennController,97,_Header_,Start,1739282940293,undefined,2235,kick,undefined,concrete,abstract,concrete,B,NULL
1739283482,20ef0cdce26cbcc4b32c7c7320d2660c,PennController,86,0,calibrator_conc_feedback,NULL,PennController,97,_Header_,End,1739282940547,undefined,2235,kick,undefined,concrete,abstract,concrete,B,NULL
1739283482,20ef0cdce26cbcc4b32c7c7320d2660c,PennController,86,0,calibrator_conc_feedback,NULL,Selector,Selection,Selection,concrete,1739282943295,undefined,2235,kick,undefined,concrete,abstract,concrete,B,abstract;concrete
1739283482,20ef0cdce26cbcc4b32c7c7320d2660c,PennController,86,0,calibrator_conc_feedback,NULL,PennController,97,_Trial_,End,1739282945308,undefined,2235,kick,undefined,concrete,abstract,concrete,B,NULL
1739283482,20ef0cdce26cbcc4b32c7c7320d2660c,PennController,89,0,calibrator_conc_feedback,NULL,PennController,100,_Trial_,Start,1739282945310,undefined,1398,shirt,undefined,concrete,abstract,concrete,B,NULL
1739283482,20ef0cdce26cbcc4b32c7c7320d2660c,PennController,89,0,calibrator_conc_feedback,NULL,PennController,100,_Header_,Start,1739282945310,undefined,1398,shirt,undefined,concrete,abstract,concrete,B,NULL
1739283482,20ef0cdce26cbcc4b32c7c7320d2660c,PennController,89,0,calibrator_conc_feedback,NULL,PennController,100,_Header_,End,1739282945562,undefined,1398,shirt,undefined,concrete,abstract,concrete,B,NULL
1739283482,20ef0cdce26cbcc4b32c7c7320d2660c,PennController,89,0,calibrator_conc_feedback,NULL,Selector,Selection,Selection,concrete,1739282947471,undefined,1398,shirt,undefined,concrete,abstract,concrete,B,abstract;concrete
1739283482,20ef0cdce26cbcc4b32c7c7320d2660c,PennController,89,0,calibrator_conc_feedback,NULL,PennController,100,_Trial_,End,1739282949487,undefined,1398,shirt,undefined,concrete,abstract,concrete,B,NULL
1739283482,20ef0cdce26cbcc4b32c7c7320d2660c,PennController,93,0,calibrator_conc_feedback,NULL,PennController,104,_Trial_,Start,1739282949490,undefined,2480,insecure,undefined,concrete,abstract,concrete,B,NULL
1739283482,20ef0cdce26cbcc4b32c7c7320d2660c,PennController,93,0,calibrator_conc_feedback,NULL,PennController,104,_Header_,Start,1739282949490,undefined,2480,insecure,undefined,concrete,abstract,concrete,B,NULL
1739283482,20ef0cdce26cbcc4b32c7c7320d2660c,PennController,93,0,calibrator_conc_feedback,NULL,PennController,104,_Header_,End,1739282949741,undefined,2480,insecure,undefined,concrete,abstract,concrete,B,NULL
1739283482,20ef0cdce26cbcc4b32c7c7320d2660c,PennController,93,0,calibrator_conc_feedback,NULL,Selector,Selection,Selection,abstract,1739282952735,undefined,2480,insecure,undefined,concrete,abstract,concrete,B,abstract;concrete
1739283482,20ef0cdce26cbcc4b32c7c7320d2660c,PennController,93,0,calibrator_conc_feedback,NULL,PennController,104,_Trial_,End,1739282954738,undefined,2480,insecure,undefined,concrete,abstract,concrete,B,NULL
1739283482,20ef0cdce26cbcc4b32c7c7320d2660c,PennController,87,0,calibrator_conc_feedback,NULL,PennController,98,_Trial_,Start,1739282954741,undefined,1821,marriage,undefined,concrete,abstract,concrete,B,NULL
1739283482,20ef0cdce26cbcc4b32c7c7320d2660c,PennController,87,0,calibrator_conc_feedback,NULL,PennController,98,_Header_,Start,1739282954741,undefined,1821,marriage,undefined,concrete,abstract,concrete,B,NULL
1739283482,20ef0cdce26cbcc4b32c7c7320d2660c,PennController,87,0,calibrator_conc_feedback,NULL,PennController,98,_Header_,End,1739282954993,undefined,1821,marriage,undefined,concrete,abstract,concrete,B,NULL
1739283482,20ef0cdce26cbcc4b32c7c7320d2660c,PennController,87,0,calibrator_conc_feedback,NULL,Selector,Selection,Selection,abstract,1739282957326,undefined,1821,marriage,undefined,concrete,abstract,concrete,B,abstract;concrete
1739283482,20ef0cdce26cbcc4b32c7c7320d2660c,PennController,87,0,calibrator_conc_feedback,NULL,PennController,98,_Trial_,End,1739282959336,undefined,1821,marriage,undefined,concrete,abstract,concrete,B,NULL
1739283482,20ef0cdce26cbcc4b32c7c7320d2660c,PennController,88,0,calibrator_conc_feedback,NULL,PennController,99,_Trial_,Start,1739282959337,undefined,1608,polite,undefined,concrete,abstract,concrete,B,NULL
1739283482,20ef0cdce26cbcc4b32c7c7320d2660c,PennController,88,0,calibrator_conc_feedback,NULL,PennController,99,_Header_,Start,1739282959337,undefined,1608,polite,undefined,concrete,abstract,concrete,B,NULL
1739283482,20ef0cdce26cbcc4b32c7c7320d2660c,PennController,88,0,calibrator_conc_feedback,NULL,PennController,99,_Header_,End,1739282959591,undefined,1608,polite,undefined,concrete,abstract,concrete,B,NULL
1739283482,20ef0cdce26cbcc4b32c7c7320d2660c,PennController,88,0,calibrator_conc_feedback,NULL,Selector,Selection,Selection,abstract,1739282961711,undefined,1608,polite,undefined,concrete,abstract,concrete,B,abstract;concrete
1739283482,20ef0cdce26cbcc4b32c7c7320d2660c,PennController,88,0,calibrator_conc_feedback,NULL,PennController,99,_Trial_,End,1739282963713,undefined,1608,polite,undefined,concrete,abstract,concrete,B,NULL
1739283482,20ef0cdce26cbcc4b32c7c7320d2660c,PennController,90,0,calibrator_conc_feedback,NULL,PennController,101,_Trial_,Start,1739282963715,undefined,1552,sugar,undefined,concrete,abstract,concrete,B,NULL
1739283482,20ef0cdce26cbcc4b32c7c7320d2660c,PennController,90,0,calibrator_conc_feedback,NULL,PennController,101,_Header_,Start,1739282963715,undefined,1552,sugar,undefined,concrete,abstract,concrete,B,NULL
1739283482,20ef0cdce26cbcc4b32c7c7320d2660c,PennController,90,0,calibrator_conc_feedback,NULL,PennController,101,_Header_,End,1739282963967,undefined,1552,sugar,undefined,concrete,abstract,concrete,B,NULL
1739283482,20ef0cdce26cbcc4b32c7c7320d2660c,PennController,90,0,calibrator_conc_feedback,NULL,Selector,Selection,Selection,concrete,1739282966030,undefined,1552,sugar,undefined,concrete,abstract,concrete,B,abstract;concrete
1739283482,20ef0cdce26cbcc4b32c7c7320d2660c,PennController,90,0,calibrator_conc_feedback,NULL,PennController,101,_Trial_,End,1739282968040,undefined,1552,sugar,undefined,concrete,abstract,concrete,B,NULL
# 16. Key_value_F.
# 17. Key_value_J.
# 18. Group.
# 19. Comments.
1739283482,20ef0cdce26cbcc4b32c7c7320d2660c,PennController,97,0,calibrator_conc_no_feedback,NULL,PennController,108,_Trial_,Start,1739282968042,undefined,1448,marriage,abstract,concrete,B,NULL
1739283482,20ef0cdce26cbcc4b32c7c7320d2660c,PennController,97,0,calibrator_conc_no_feedback,NULL,PennController,108,_Header_,Start,1739282968042,undefined,1448,marriage,abstract,concrete,B,NULL
1739283482,20ef0cdce26cbcc4b32c7c7320d2660c,PennController,97,0,calibrator_conc_no_feedback,NULL,PennController,108,_Header_,End,1739282968295,undefined,1448,marriage,abstract,concrete,B,NULL
1739283482,20ef0cdce26cbcc4b32c7c7320d2660c,PennController,97,0,calibrator_conc_no_feedback,NULL,Selector,unnamed-Selector,Selection,abstract,1739282970254,undefined,1448,marriage,abstract,concrete,B,abstract;concrete
1739283482,20ef0cdce26cbcc4b32c7c7320d2660c,PennController,97,0,calibrator_conc_no_feedback,NULL,PennController,108,_Trial_,End,1739282970256,undefined,1448,marriage,abstract,concrete,B,NULL
1739283482,20ef0cdce26cbcc4b32c7c7320d2660c,PennController,101,0,calibrator_conc_no_feedback,NULL,PennController,112,_Trial_,Start,1739282970257,undefined,1613,theory,abstract,concrete,B,NULL
1739283482,20ef0cdce26cbcc4b32c7c7320d2660c,PennController,101,0,calibrator_conc_no_feedback,NULL,PennController,112,_Header_,Start,1739282970257,undefined,1613,theory,abstract,concrete,B,NULL
1739283482,20ef0cdce26cbcc4b32c7c7320d2660c,PennController,101,0,calibrator_conc_no_feedback,NULL,PennController,112,_Header_,End,1739282970513,undefined,1613,theory,abstract,concrete,B,NULL
1739283482,20ef0cdce26cbcc4b32c7c7320d2660c,PennController,101,0,calibrator_conc_no_feedback,NULL,Selector,unnamed-Selector,Selection,abstract,1739282972639,undefined,1613,theory,abstract,concrete,B,abstract;concrete
1739283482,20ef0cdce26cbcc4b32c7c7320d2660c,PennController,101,0,calibrator_conc_no_feedback,NULL,PennController,112,_Trial_,End,1739282972640,undefined,1613,theory,abstract,concrete,B,NULL
1739283482,20ef0cdce26cbcc4b32c7c7320d2660c,PennController,96,0,calibrator_conc_no_feedback,NULL,PennController,107,_Trial_,Start,1739282972642,undefined,1379,kick,abstract,concrete,B,NULL
1739283482,20ef0cdce26cbcc4b32c7c7320d2660c,PennController,96,0,calibrator_conc_no_feedback,NULL,PennController,107,_Header_,Start,1739282972642,undefined,1379,kick,abstract,concrete,B,NULL
1739283482,20ef0cdce26cbcc4b32c7c7320d2660c,PennController,96,0,calibrator_conc_no_feedback,NULL,PennController,107,_Header_,End,1739282972893,undefined,1379,kick,abstract,concrete,B,NULL
1739283482,20ef0cdce26cbcc4b32c7c7320d2660c,PennController,96,0,calibrator_conc_no_feedback,NULL,Selector,unnamed-Selector,Selection,abstract,1739282974782,undefined,1379,kick,abstract,concrete,B,abstract;concrete
1739283482,20ef0cdce26cbcc4b32c7c7320d2660c,PennController,96,0,calibrator_conc_no_feedback,NULL,PennController,107,_Trial_,End,1739282974784,undefined,1379,kick,abstract,concrete,B,NULL
1739283482,20ef0cdce26cbcc4b32c7c7320d2660c,PennController,99,0,calibrator_conc_no_feedback,NULL,PennController,110,_Trial_,Start,1739282974785,undefined,1700,shirt,abstract,concrete,B,NULL
1739283482,20ef0cdce26cbcc4b32c7c7320d2660c,PennController,99,0,calibrator_conc_no_feedback,NULL,PennController,110,_Header_,Start,1739282974785,undefined,1700,shirt,abstract,concrete,B,NULL
1739283482,20ef0cdce26cbcc4b32c7c7320d2660c,PennController,99,0,calibrator_conc_no_feedback,NULL,PennController,110,_Header_,End,1739282975051,undefined,1700,shirt,abstract,concrete,B,NULL
1739283482,20ef0cdce26cbcc4b32c7c7320d2660c,PennController,99,0,calibrator_conc_no_feedback,NULL,Selector,unnamed-Selector,Selection,concrete,1739282977263,undefined,1700,shirt,abstract,concrete,B,abstract;concrete
1739283482,20ef0cdce26cbcc4b32c7c7320d2660c,PennController,99,0,calibrator_conc_no_feedback,NULL,PennController,110,_Trial_,End,1739282977265,undefined,1700,shirt,abstract,concrete,B,NULL
1739283482,20ef0cdce26cbcc4b32c7c7320d2660c,PennController,94,0,calibrator_conc_no_feedback,NULL,PennController,105,_Trial_,Start,1739282977266,undefined,1463,gas,abstract,concrete,B,NULL
1739283482,20ef0cdce26cbcc4b32c7c7320d2660c,PennController,94,0,calibrator_conc_no_feedback,NULL,PennController,105,_Header_,Start,1739282977266,undefined,1463,gas,abstract,concrete,B,NULL
1739283482,20ef0cdce26cbcc4b32c7c7320d2660c,PennController,94,0,calibrator_conc_no_feedback,NULL,PennController,105,_Header_,End,1739282977525,undefined,1463,gas,abstract,concrete,B,NULL
1739283482,20ef0cdce26cbcc4b32c7c7320d2660c,PennController,94,0,calibrator_conc_no_feedback,NULL,Selector,unnamed-Selector,Selection,concrete,1739282979502,undefined,1463,gas,abstract,concrete,B,abstract;concrete
1739283482,20ef0cdce26cbcc4b32c7c7320d2660c,PennController,94,0,calibrator_conc_no_feedback,NULL,PennController,105,_Trial_,End,1739282979502,undefined,1463,gas,abstract,concrete,B,NULL
1739283482,20ef0cdce26cbcc4b32c7c7320d2660c,PennController,102,0,calibrator_conc_no_feedback,NULL,PennController,113,_Trial_,Start,1739282979503,undefined,1809,whistle,abstract,concrete,B,NULL
1739283482,20ef0cdce26cbcc4b32c7c7320d2660c,PennController,102,0,calibrator_conc_no_feedback,NULL,PennController,113,_Header_,Start,1739282979503,undefined,1809,whistle,abstract,concrete,B,NULL
1739283482,20ef0cdce26cbcc4b32c7c7320d2660c,PennController,102,0,calibrator_conc_no_feedback,NULL,PennController,113,_Header_,End,1739282979757,undefined,1809,whistle,abstract,concrete,B,NULL
1739283482,20ef0cdce26cbcc4b32c7c7320d2660c,PennController,102,0,calibrator_conc_no_feedback,NULL,Selector,unnamed-Selector,Selection,abstract,1739282982077,undefined,1809,whistle,abstract,concrete,B,abstract;concrete
1739283482,20ef0cdce26cbcc4b32c7c7320d2660c,PennController,102,0,calibrator_conc_no_feedback,NULL,PennController,113,_Trial_,End,1739282982078,undefined,1809,whistle,abstract,concrete,B,NULL
1739283482,20ef0cdce26cbcc4b32c7c7320d2660c,PennController,100,0,calibrator_conc_no_feedback,NULL,PennController,111,_Trial_,Start,1739282982078,undefined,1096,sugar,abstract,concrete,B,NULL
1739283482,20ef0cdce26cbcc4b32c7c7320d2660c,PennController,100,0,calibrator_conc_no_feedback,NULL,PennController,111,_Header_,Start,1739282982078,undefined,1096,sugar,abstract,concrete,B,NULL
1739283482,20ef0cdce26cbcc4b32c7c7320d2660c,PennController,100,0,calibrator_conc_no_feedback,NULL,PennController,111,_Header_,End,1739282982339,undefined,1096,sugar,abstract,concrete,B,NULL
1739283482,20ef0cdce26cbcc4b32c7c7320d2660c,PennController,100,0,calibrator_conc_no_feedback,NULL,Selector,unnamed-Selector,Selection,concrete,1739282983949,undefined,1096,sugar,abstract,concrete,B,abstract;concrete
1739283482,20ef0cdce26cbcc4b32c7c7320d2660c,PennController,100,0,calibrator_conc_no_feedback,NULL,PennController,111,_Trial_,End,1739282983950,undefined,1096,sugar,abstract,concrete,B,NULL
1739283482,20ef0cdce26cbcc4b32c7c7320d2660c,PennController,103,0,calibrator_conc_no_feedback,NULL,PennController,114,_Trial_,Start,1739282983951,undefined,865,insecure,abstract,concrete,B,NULL
1739283482,20ef0cdce26cbcc4b32c7c7320d2660c,PennController,103,0,calibrator_conc_no_feedback,NULL,PennController,114,_Header_,Start,1739282983951,undefined,865,insecure,abstract,concrete,B,NULL
1739283482,20ef0cdce26cbcc4b32c7c7320d2660c,PennController,103,0,calibrator_conc_no_feedback,NULL,PennController,114,_Header_,End,1739282984204,undefined,865,insecure,abstract,concrete,B,NULL
1739283482,20ef0cdce26cbcc4b32c7c7320d2660c,PennController,103,0,calibrator_conc_no_feedback,NULL,Selector,unnamed-Selector,Selection,concrete,1739282985582,undefined,865,insecure,abstract,concrete,B,abstract;concrete
1739283482,20ef0cdce26cbcc4b32c7c7320d2660c,PennController,103,0,calibrator_conc_no_feedback,NULL,PennController,114,_Trial_,End,1739282985583,undefined,865,insecure,abstract,concrete,B,NULL
1739283482,20ef0cdce26cbcc4b32c7c7320d2660c,PennController,95,0,calibrator_conc_no_feedback,NULL,PennController,106,_Trial_,Start,1739282985583,undefined,1645,grasshopper,abstract,concrete,B,NULL
1739283482,20ef0cdce26cbcc4b32c7c7320d2660c,PennController,95,0,calibrator_conc_no_feedback,NULL,PennController,106,_Header_,Start,1739282985583,undefined,1645,grasshopper,abstract,concrete,B,NULL
1739283482,20ef0cdce26cbcc4b32c7c7320d2660c,PennController,95,0,calibrator_conc_no_feedback,NULL,PennController,106,_Header_,End,1739282985846,undefined,1645,grasshopper,abstract,concrete,B,NULL
1739283482,20ef0cdce26cbcc4b32c7c7320d2660c,PennController,95,0,calibrator_conc_no_feedback,NULL,Selector,unnamed-Selector,Selection,concrete,1739282988000,undefined,1645,grasshopper,abstract,concrete,B,abstract;concrete
1739283482,20ef0cdce26cbcc4b32c7c7320d2660c,PennController,95,0,calibrator_conc_no_feedback,NULL,PennController,106,_Trial_,End,1739282988001,undefined,1645,grasshopper,abstract,concrete,B,NULL
1739283482,20ef0cdce26cbcc4b32c7c7320d2660c,PennController,98,0,calibrator_conc_no_feedback,NULL,PennController,109,_Trial_,Start,1739282988003,undefined,1345,polite,abstract,concrete,B,NULL
1739283482,20ef0cdce26cbcc4b32c7c7320d2660c,PennController,98,0,calibrator_conc_no_feedback,NULL,PennController,109,_Header_,Start,1739282988003,undefined,1345,polite,abstract,concrete,B,NULL
1739283482,20ef0cdce26cbcc4b32c7c7320d2660c,PennController,98,0,calibrator_conc_no_feedback,NULL,PennController,109,_Header_,End,1739282988255,undefined,1345,polite,abstract,concrete,B,NULL
1739283482,20ef0cdce26cbcc4b32c7c7320d2660c,PennController,98,0,calibrator_conc_no_feedback,NULL,Selector,unnamed-Selector,Selection,abstract,1739282990110,undefined,1345,polite,abstract,concrete,B,abstract;concrete
1739283482,20ef0cdce26cbcc4b32c7c7320d2660c,PennController,98,0,calibrator_conc_no_feedback,NULL,PennController,109,_Trial_,End,1739282990112,undefined,1345,polite,abstract,concrete,B,NULL
# 13. Comments.
1739283482,20ef0cdce26cbcc4b32c7c7320d2660c,PennController,130,0,endinstructions_conc,NULL,PennController,8,_Trial_,Start,1739282990114,NULL
1739283482,20ef0cdce26cbcc4b32c7c7320d2660c,PennController,130,0,endinstructions_conc,NULL,PennController,8,_Header_,Start,1739282990114,NULL
1739283482,20ef0cdce26cbcc4b32c7c7320d2660c,PennController,130,0,endinstructions_conc,NULL,PennController,8,_Header_,End,1739282990374,NULL
1739283482,20ef0cdce26cbcc4b32c7c7320d2660c,PennController,130,0,endinstructions_conc,NULL,PennController,8,_Trial_,End,1739282998148,NULL
# 13. ID.
# 14. ReactionTime.
# 15. Word.
# 16. ConcValCombo.
# 17. Key_value_F.
# 18. Key_value_J.
# 19. Group.
# 20. Comments.
1739283482,20ef0cdce26cbcc4b32c7c7320d2660c,PennController,20,0,test_conc,NULL,PennController,31,_Trial_,Start,1739282998149,undefined,1311,Inspiring,abstract-positive,abstract,concrete,B,NULL
1739283482,20ef0cdce26cbcc4b32c7c7320d2660c,PennController,20,0,test_conc,NULL,PennController,31,_Header_,Start,1739282998149,undefined,1311,Inspiring,abstract-positive,abstract,concrete,B,NULL
1739283482,20ef0cdce26cbcc4b32c7c7320d2660c,PennController,20,0,test_conc,NULL,PennController,31,_Header_,End,1739282998415,undefined,1311,Inspiring,abstract-positive,abstract,concrete,B,NULL
1739283482,20ef0cdce26cbcc4b32c7c7320d2660c,PennController,20,0,test_conc,NULL,Selector,unnamed-Selector,Selection,abstract,1739283000239,undefined,1311,Inspiring,abstract-positive,abstract,concrete,B,abstract;concrete
1739283482,20ef0cdce26cbcc4b32c7c7320d2660c,PennController,20,0,test_conc,NULL,PennController,31,_Trial_,End,1739283000240,undefined,1311,Inspiring,abstract-positive,abstract,concrete,B,NULL
1739283482,20ef0cdce26cbcc4b32c7c7320d2660c,PennController,5,0,test_conc,NULL,PennController,16,_Trial_,Start,1739283000241,undefined,819,Fresh,concrete-positive,abstract,concrete,B,NULL
1739283482,20ef0cdce26cbcc4b32c7c7320d2660c,PennController,5,0,test_conc,NULL,PennController,16,_Header_,Start,1739283000241,undefined,819,Fresh,concrete-positive,abstract,concrete,B,NULL
1739283482,20ef0cdce26cbcc4b32c7c7320d2660c,PennController,5,0,test_conc,NULL,PennController,16,_Header_,End,1739283000491,undefined,819,Fresh,concrete-positive,abstract,concrete,B,NULL
1739283482,20ef0cdce26cbcc4b32c7c7320d2660c,PennController,5,0,test_conc,NULL,Selector,unnamed-Selector,Selection,abstract,1739283001822,undefined,819,Fresh,concrete-positive,abstract,concrete,B,abstract;concrete
1739283482,20ef0cdce26cbcc4b32c7c7320d2660c,PennController,5,0,test_conc,NULL,PennController,16,_Trial_,End,1739283001823,undefined,819,Fresh,concrete-positive,abstract,concrete,B,NULL
1739283482,20ef0cdce26cbcc4b32c7c7320d2660c,PennController,42,0,test_conc,NULL,PennController,53,_Trial_,Start,1739283001824,undefined,886,Fearful,abstract-negative,abstract,concrete,B,NULL
1739283482,20ef0cdce26cbcc4b32c7c7320d2660c,PennController,42,0,test_conc,NULL,PennController,53,_Header_,Start,1739283001824,undefined,886,Fearful,abstract-negative,abstract,concrete,B,NULL
1739283482,20ef0cdce26cbcc4b32c7c7320d2660c,PennController,42,0,test_conc,NULL,PennController,53,_Header_,End,1739283002087,undefined,886,Fearful,abstract-negative,abstract,concrete,B,NULL
1739283482,20ef0cdce26cbcc4b32c7c7320d2660c,PennController,42,0,test_conc,NULL,Selector,unnamed-Selector,Selection,abstract,1739283003486,undefined,886,Fearful,abstract-negative,abstract,concrete,B,abstract;concrete
1739283482,20ef0cdce26cbcc4b32c7c7320d2660c,PennController,42,0,test_conc,NULL,PennController,53,_Trial_,End,1739283003487,undefined,886,Fearful,abstract-negative,abstract,concrete,B,NULL
1739283482,20ef0cdce26cbcc4b32c7c7320d2660c,PennController,17,0,test_conc,NULL,PennController,28,_Trial_,Start,1739283003489,undefined,806,Kind,abstract-positive,abstract,concrete,B,NULL
1739283482,20ef0cdce26cbcc4b32c7c7320d2660c,PennController,17,0,test_conc,NULL,PennController,28,_Header_,Start,1739283003489,undefined,806,Kind,abstract-positive,abstract,concrete,B,NULL
1739283482,20ef0cdce26cbcc4b32c7c7320d2660c,PennController,17,0,test_conc,NULL,PennController,28,_Header_,End,1739283003751,undefined,806,Kind,abstract-positive,abstract,concrete,B,NULL
1739283482,20ef0cdce26cbcc4b32c7c7320d2660c,PennController,17,0,test_conc,NULL,Selector,unnamed-Selector,Selection,abstract,1739283005070,undefined,806,Kind,abstract-positive,abstract,concrete,B,abstract;concrete
1739283482,20ef0cdce26cbcc4b32c7c7320d2660c,PennController,17,0,test_conc,NULL,PennController,28,_Trial_,End,1739283005071,undefined,806,Kind,abstract-positive,abstract,concrete,B,NULL
1739283482,20ef0cdce26cbcc4b32c7c7320d2660c,PennController,22,0,test_conc,NULL,PennController,33,_Trial_,Start,1739283005073,undefined,966,Harmonious,abstract-positive,abstract,concrete,B,NULL
1739283482,20ef0cdce26cbcc4b32c7c7320d2660c,PennController,22,0,test_conc,NULL,PennController,33,_Header_,Start,1739283005073,undefined,966,Harmonious,abstract-positive,abstract,concrete,B,NULL
1739283482,20ef0cdce26cbcc4b32c7c7320d2660c,PennController,22,0,test_conc,NULL,PennController,33,_Header_,End,1739283005335,undefined,966,Harmonious,abstract-positive,abstract,concrete,B,NULL
1739283482,20ef0cdce26cbcc4b32c7c7320d2660c,PennController,22,0,test_conc,NULL,Selector,unnamed-Selector,Selection,abstract,1739283006814,undefined,966,Harmonious,abstract-positive,abstract,concrete,B,abstract;concrete
1739283482,20ef0cdce26cbcc4b32c7c7320d2660c,PennController,22,0,test_conc,NULL,PennController,33,_Trial_,End,1739283006816,undefined,966,Harmonious,abstract-positive,abstract,concrete,B,NULL
1739283482,20ef0cdce26cbcc4b32c7c7320d2660c,PennController,32,0,test_conc,NULL,PennController,43,_Trial_,Start,1739283006818,undefined,1273,Greasy,concrete-negative,abstract,concrete,B,NULL
1739283482,20ef0cdce26cbcc4b32c7c7320d2660c,PennController,32,0,test_conc,NULL,PennController,43,_Header_,Start,1739283006818,undefined,1273,Greasy,concrete-negative,abstract,concrete,B,NULL
1739283482,20ef0cdce26cbcc4b32c7c7320d2660c,PennController,32,0,test_conc,NULL,PennController,43,_Header_,End,1739283007075,undefined,1273,Greasy,concrete-negative,abstract,concrete,B,NULL
1739283482,20ef0cdce26cbcc4b32c7c7320d2660c,PennController,32,0,test_conc,NULL,Selector,unnamed-Selector,Selection,concrete,1739283008862,undefined,1273,Greasy,concrete-negative,abstract,concrete,B,abstract;concrete
1739283482,20ef0cdce26cbcc4b32c7c7320d2660c,PennController,32,0,test_conc,NULL,PennController,43,_Trial_,End,1739283008863,undefined,1273,Greasy,concrete-negative,abstract,concrete,B,NULL
1739283482,20ef0cdce26cbcc4b32c7c7320d2660c,PennController,41,0,test_conc,NULL,PennController,52,_Trial_,Start,1739283008864,undefined,1221,Ashamed,abstract-negative,abstract,concrete,B,NULL
1739283482,20ef0cdce26cbcc4b32c7c7320d2660c,PennController,41,0,test_conc,NULL,PennController,52,_Header_,Start,1739283008864,undefined,1221,Ashamed,abstract-negative,abstract,concrete,B,NULL
1739283482,20ef0cdce26cbcc4b32c7c7320d2660c,PennController,41,0,test_conc,NULL,PennController,52,_Header_,End,1739283009115,undefined,1221,Ashamed,abstract-negative,abstract,concrete,B,NULL
1739283482,20ef0cdce26cbcc4b32c7c7320d2660c,PennController,41,0,test_conc,NULL,Selector,unnamed-Selector,Selection,abstract,1739283010846,undefined,1221,Ashamed,abstract-negative,abstract,concrete,B,abstract;concrete
1739283482,20ef0cdce26cbcc4b32c7c7320d2660c,PennController,41,0,test_conc,NULL,PennController,52,_Trial_,End,1739283010847,undefined,1221,Ashamed,abstract-negative,abstract,concrete,B,NULL
1739283482,20ef0cdce26cbcc4b32c7c7320d2660c,PennController,39,0,test_conc,NULL,PennController,50,_Trial_,Start,1739283010848,undefined,788,Anxious,abstract-negative,abstract,concrete,B,NULL
1739283482,20ef0cdce26cbcc4b32c7c7320d2660c,PennController,39,0,test_conc,NULL,PennController,50,_Header_,Start,1739283010848,undefined,788,Anxious,abstract-negative,abstract,concrete,B,NULL
1739283482,20ef0cdce26cbcc4b32c7c7320d2660c,PennController,39,0,test_conc,NULL,PennController,50,_Header_,End,1739283011113,undefined,788,Anxious,abstract-negative,abstract,concrete,B,NULL
1739283482,20ef0cdce26cbcc4b32c7c7320d2660c,PennController,39,0,test_conc,NULL,Selector,unnamed-Selector,Selection,abstract,1739283012414,undefined,788,Anxious,abstract-negative,abstract,concrete,B,abstract;concrete
1739283482,20ef0cdce26cbcc4b32c7c7320d2660c,PennController,39,0,test_conc,NULL,PennController,50,_Trial_,End,1739283012415,undefined,788,Anxious,abstract-negative,abstract,concrete,B,NULL
1739283482,20ef0cdce26cbcc4b32c7c7320d2660c,PennController,14,0,test_conc,NULL,PennController,25,_Trial_,Start,1739283012416,undefined,830,Hopeful,abstract-positive,abstract,concrete,B,NULL
1739283482,20ef0cdce26cbcc4b32c7c7320d2660c,PennController,14,0,test_conc,NULL,PennController,25,_Header_,Start,1739283012416,undefined,830,Hopeful,abstract-positive,abstract,concrete,B,NULL
1739283482,20ef0cdce26cbcc4b32c7c7320d2660c,PennController,14,0,test_conc,NULL,PennController,25,_Header_,End,1739283012673,undefined,830,Hopeful,abstract-positive,abstract,concrete,B,NULL
1739283482,20ef0cdce26cbcc4b32c7c7320d2660c,PennController,14,0,test_conc,NULL,Selector,unnamed-Selector,Selection,abstract,1739283014015,undefined,830,Hopeful,abstract-positive,abstract,concrete,B,abstract;concrete
1739283482,20ef0cdce26cbcc4b32c7c7320d2660c,PennController,14,0,test_conc,NULL,PennController,25,_Trial_,End,1739283014017,undefined,830,Hopeful,abstract-positive,abstract,concrete,B,NULL
1739283482,20ef0cdce26cbcc4b32c7c7320d2660c,PennController,8,0,test_conc,NULL,PennController,19,_Trial_,Start,1739283014019,undefined,1059,Clean,concrete-positive,abstract,concrete,B,NULL
1739283482,20ef0cdce26cbcc4b32c7c7320d2660c,PennController,8,0,test_conc,NULL,PennController,19,_Header_,Start,1739283014019,undefined,1059,Clean,concrete-positive,abstract,concrete,B,NULL
1739283482,20ef0cdce26cbcc4b32c7c7320d2660c,PennController,8,0,test_conc,NULL,PennController,19,_Header_,End,1739283014271,undefined,1059,Clean,concrete-positive,abstract,concrete,B,NULL
1739283482,20ef0cdce26cbcc4b32c7c7320d2660c,PennController,8,0,test_conc,NULL,Selector,unnamed-Selector,Selection,abstract,1739283015839,undefined,1059,Clean,concrete-positive,abstract,concrete,B,abstract;concrete
1739283482,20ef0cdce26cbcc4b32c7c7320d2660c,PennController,8,0,test_conc,NULL,PennController,19,_Trial_,End,1739283015840,undefined,1059,Clean,concrete-positive,abstract,concrete,B,NULL
1739283482,20ef0cdce26cbcc4b32c7c7320d2660c,PennController,30,0,test_conc,NULL,PennController,41,_Trial_,Start,1739283015841,undefined,936,Noisy,concrete-negative,abstract,concrete,B,NULL
1739283482,20ef0cdce26cbcc4b32c7c7320d2660c,PennController,30,0,test_conc,NULL,PennController,41,_Header_,Start,1739283015841,undefined,936,Noisy,concrete-negative,abstract,concrete,B,NULL
1739283482,20ef0cdce26cbcc4b32c7c7320d2660c,PennController,30,0,test_conc,NULL,PennController,41,_Header_,End,1739283016105,undefined,936,Noisy,concrete-negative,abstract,concrete,B,NULL
1739283482,20ef0cdce26cbcc4b32c7c7320d2660c,PennController,30,0,test_conc,NULL,Selector,unnamed-Selector,Selection,concrete,1739283017550,undefined,936,Noisy,concrete-negative,abstract,concrete,B,abstract;concrete
1739283482,20ef0cdce26cbcc4b32c7c7320d2660c,PennController,30,0,test_conc,NULL,PennController,41,_Trial_,End,1739283017552,undefined,936,Noisy,concrete-negative,abstract,concrete,B,NULL
1739283482,20ef0cdce26cbcc4b32c7c7320d2660c,PennController,27,0,test_conc,NULL,PennController,38,_Trial_,Start,1739283017553,undefined,1307,Cold,concrete-negative,abstract,concrete,B,NULL
1739283482,20ef0cdce26cbcc4b32c7c7320d2660c,PennController,27,0,test_conc,NULL,PennController,38,_Header_,Start,1739283017553,undefined,1307,Cold,concrete-negative,abstract,concrete,B,NULL
1739283482,20ef0cdce26cbcc4b32c7c7320d2660c,PennController,27,0,test_conc,NULL,PennController,38,_Header_,End,1739283017811,undefined,1307,Cold,concrete-negative,abstract,concrete,B,NULL
1739283482,20ef0cdce26cbcc4b32c7c7320d2660c,PennController,27,0,test_conc,NULL,Selector,unnamed-Selector,Selection,concrete,1739283019631,undefined,1307,Cold,concrete-negative,abstract,concrete,B,abstract;concrete
1739283482,20ef0cdce26cbcc4b32c7c7320d2660c,PennController,27,0,test_conc,NULL,PennController,38,_Trial_,End,1739283019631,undefined,1307,Cold,concrete-negative,abstract,concrete,B,NULL
1739283482,20ef0cdce26cbcc4b32c7c7320d2660c,PennController,7,0,test_conc,NULL,PennController,18,_Trial_,Start,1739283019633,undefined,800,Bright,concrete-positive,abstract,concrete,B,NULL
1739283482,20ef0cdce26cbcc4b32c7c7320d2660c,PennController,7,0,test_conc,NULL,PennController,18,_Header_,Start,1739283019633,undefined,800,Bright,concrete-positive,abstract,concrete,B,NULL
1739283482,20ef0cdce26cbcc4b32c7c7320d2660c,PennController,7,0,test_conc,NULL,PennController,18,_Header_,End,1739283019899,undefined,800,Bright,concrete-positive,abstract,concrete,B,NULL
1739283482,20ef0cdce26cbcc4b32c7c7320d2660c,PennController,7,0,test_conc,NULL,Selector,unnamed-Selector,Selection,concrete,1739283021215,undefined,800,Bright,concrete-positive,abstract,concrete,B,abstract;concrete
1739283482,20ef0cdce26cbcc4b32c7c7320d2660c,PennController,7,0,test_conc,NULL,PennController,18,_Trial_,End,1739283021216,undefined,800,Bright,concrete-positive,abstract,concrete,B,NULL
1739283482,20ef0cdce26cbcc4b32c7c7320d2660c,PennController,36,0,test_conc,NULL,PennController,47,_Trial_,Start,1739283021217,undefined,1397,Helpless,abstract-negative,abstract,concrete,B,NULL
1739283482,20ef0cdce26cbcc4b32c7c7320d2660c,PennController,36,0,test_conc,NULL,PennController,47,_Header_,Start,1739283021217,undefined,1397,Helpless,abstract-negative,abstract,concrete,B,NULL
1739283482,20ef0cdce26cbcc4b32c7c7320d2660c,PennController,36,0,test_conc,NULL,PennController,47,_Header_,End,1739283021468,undefined,1397,Helpless,abstract-negative,abstract,concrete,B,NULL
1739283482,20ef0cdce26cbcc4b32c7c7320d2660c,PennController,36,0,test_conc,NULL,Selector,unnamed-Selector,Selection,abstract,1739283023375,undefined,1397,Helpless,abstract-negative,abstract,concrete,B,abstract;concrete
1739283482,20ef0cdce26cbcc4b32c7c7320d2660c,PennController,36,0,test_conc,NULL,PennController,47,_Trial_,End,1739283023375,undefined,1397,Helpless,abstract-negative,abstract,concrete,B,NULL
1739283482,20ef0cdce26cbcc4b32c7c7320d2660c,PennController,31,0,test_conc,NULL,PennController,42,_Trial_,Start,1739283023375,undefined,1001,Rotten,concrete-negative,abstract,concrete,B,NULL
1739283482,20ef0cdce26cbcc4b32c7c7320d2660c,PennController,31,0,test_conc,NULL,PennController,42,_Header_,Start,1739283023375,undefined,1001,Rotten,concrete-negative,abstract,concrete,B,NULL
1739283482,20ef0cdce26cbcc4b32c7c7320d2660c,PennController,31,0,test_conc,NULL,PennController,42,_Header_,End,1739283023639,undefined,1001,Rotten,concrete-negative,abstract,concrete,B,NULL
1739283482,20ef0cdce26cbcc4b32c7c7320d2660c,PennController,31,0,test_conc,NULL,Selector,unnamed-Selector,Selection,abstract,1739283025151,undefined,1001,Rotten,concrete-negative,abstract,concrete,B,abstract;concrete
1739283482,20ef0cdce26cbcc4b32c7c7320d2660c,PennController,31,0,test_conc,NULL,PennController,42,_Trial_,End,1739283025152,undefined,1001,Rotten,concrete-negative,abstract,concrete,B,NULL
1739283482,20ef0cdce26cbcc4b32c7c7320d2660c,PennController,12,0,test_conc,NULL,PennController,23,_Trial_,Start,1739283025153,undefined,1340,Delicious,concrete-positive,abstract,concrete,B,NULL
1739283482,20ef0cdce26cbcc4b32c7c7320d2660c,PennController,12,0,test_conc,NULL,PennController,23,_Header_,Start,1739283025153,undefined,1340,Delicious,concrete-positive,abstract,concrete,B,NULL
1739283482,20ef0cdce26cbcc4b32c7c7320d2660c,PennController,12,0,test_conc,NULL,PennController,23,_Header_,End,1739283025411,undefined,1340,Delicious,concrete-positive,abstract,concrete,B,NULL
1739283482,20ef0cdce26cbcc4b32c7c7320d2660c,PennController,12,0,test_conc,NULL,Selector,unnamed-Selector,Selection,abstract,1739283027263,undefined,1340,Delicious,concrete-positive,abstract,concrete,B,abstract;concrete
1739283482,20ef0cdce26cbcc4b32c7c7320d2660c,PennController,12,0,test_conc,NULL,PennController,23,_Trial_,End,1739283027264,undefined,1340,Delicious,concrete-positive,abstract,concrete,B,NULL
1739283482,20ef0cdce26cbcc4b32c7c7320d2660c,PennController,37,0,test_conc,NULL,PennController,48,_Trial_,Start,1739283027265,undefined,1039,Lonely,abstract-negative,abstract,concrete,B,NULL
1739283482,20ef0cdce26cbcc4b32c7c7320d2660c,PennController,37,0,test_conc,NULL,PennController,48,_Header_,Start,1739283027265,undefined,1039,Lonely,abstract-negative,abstract,concrete,B,NULL
1739283482,20ef0cdce26cbcc4b32c7c7320d2660c,PennController,37,0,test_conc,NULL,PennController,48,_Header_,End,1739283027519,undefined,1039,Lonely,abstract-negative,abstract,concrete,B,NULL
1739283482,20ef0cdce26cbcc4b32c7c7320d2660c,PennController,37,0,test_conc,NULL,Selector,unnamed-Selector,Selection,abstract,1739283029071,undefined,1039,Lonely,abstract-negative,abstract,concrete,B,abstract;concrete
1739283482,20ef0cdce26cbcc4b32c7c7320d2660c,PennController,37,0,test_conc,NULL,PennController,48,_Trial_,End,1739283029072,undefined,1039,Lonely,abstract-negative,abstract,concrete,B,NULL
1739283482,20ef0cdce26cbcc4b32c7c7320d2660c,PennController,18,0,test_conc,NULL,PennController,29,_Trial_,Start,1739283029073,undefined,818,Joyful,abstract-positive,abstract,concrete,B,NULL
1739283482,20ef0cdce26cbcc4b32c7c7320d2660c,PennController,18,0,test_conc,NULL,PennController,29,_Header_,Start,1739283029073,undefined,818,Joyful,abstract-positive,abstract,concrete,B,NULL
1739283482,20ef0cdce26cbcc4b32c7c7320d2660c,PennController,18,0,test_conc,NULL,PennController,29,_Header_,End,1739283029338,undefined,818,Joyful,abstract-positive,abstract,concrete,B,NULL
1739283482,20ef0cdce26cbcc4b32c7c7320d2660c,PennController,18,0,test_conc,NULL,Selector,unnamed-Selector,Selection,abstract,1739283030670,undefined,818,Joyful,abstract-positive,abstract,concrete,B,abstract;concrete
1739283482,20ef0cdce26cbcc4b32c7c7320d2660c,PennController,18,0,test_conc,NULL,PennController,29,_Trial_,End,1739283030671,undefined,818,Joyful,abstract-positive,abstract,concrete,B,NULL
1739283482,20ef0cdce26cbcc4b32c7c7320d2660c,PennController,15,0,test_conc,NULL,PennController,26,_Trial_,Start,1739283030672,undefined,725,Loving,abstract-positive,abstract,concrete,B,NULL
1739283482,20ef0cdce26cbcc4b32c7c7320d2660c,PennController,15,0,test_conc,NULL,PennController,26,_Header_,Start,1739283030672,undefined,725,Loving,abstract-positive,abstract,concrete,B,NULL
1739283482,20ef0cdce26cbcc4b32c7c7320d2660c,PennController,15,0,test_conc,NULL,PennController,26,_Header_,End,1739283030937,undefined,725,Loving,abstract-positive,abstract,concrete,B,NULL
1739283482,20ef0cdce26cbcc4b32c7c7320d2660c,PennController,15,0,test_conc,NULL,Selector,unnamed-Selector,Selection,abstract,1739283032173,undefined,725,Loving,abstract-positive,abstract,concrete,B,abstract;concrete
1739283482,20ef0cdce26cbcc4b32c7c7320d2660c,PennController,15,0,test_conc,NULL,PennController,26,_Trial_,End,1739283032174,undefined,725,Loving,abstract-positive,abstract,concrete,B,NULL
1739283482,20ef0cdce26cbcc4b32c7c7320d2660c,PennController,23,0,test_conc,NULL,PennController,34,_Trial_,Start,1739283032174,undefined,986,Resilient,abstract-positive,abstract,concrete,B,NULL
1739283482,20ef0cdce26cbcc4b32c7c7320d2660c,PennController,23,0,test_conc,NULL,PennController,34,_Header_,Start,1739283032174,undefined,986,Resilient,abstract-positive,abstract,concrete,B,NULL
1739283482,20ef0cdce26cbcc4b32c7c7320d2660c,PennController,23,0,test_conc,NULL,PennController,34,_Header_,End,1739283032436,undefined,986,Resilient,abstract-positive,abstract,concrete,B,NULL
1739283482,20ef0cdce26cbcc4b32c7c7320d2660c,PennController,23,0,test_conc,NULL,Selector,unnamed-Selector,Selection,abstract,1739283033935,undefined,986,Resilient,abstract-positive,abstract,concrete,B,abstract;concrete
1739283482,20ef0cdce26cbcc4b32c7c7320d2660c,PennController,23,0,test_conc,NULL,PennController,34,_Trial_,End,1739283033936,undefined,986,Resilient,abstract-positive,abstract,concrete,B,NULL
1739283482,20ef0cdce26cbcc4b32c7c7320d2660c,PennController,29,0,test_conc,NULL,PennController,40,_Trial_,Start,1739283033937,undefined,653,Rough,concrete-negative,abstract,concrete,B,NULL
1739283482,20ef0cdce26cbcc4b32c7c7320d2660c,PennController,29,0,test_conc,NULL,PennController,40,_Header_,Start,1739283033937,undefined,653,Rough,concrete-negative,abstract,concrete,B,NULL
1739283482,20ef0cdce26cbcc4b32c7c7320d2660c,PennController,29,0,test_conc,NULL,PennController,40,_Header_,End,1739283034193,undefined,653,Rough,concrete-negative,abstract,concrete,B,NULL
1739283482,20ef0cdce26cbcc4b32c7c7320d2660c,PennController,29,0,test_conc,NULL,Selector,unnamed-Selector,Selection,abstract,1739283035358,undefined,653,Rough,concrete-negative,abstract,concrete,B,abstract;concrete
1739283482,20ef0cdce26cbcc4b32c7c7320d2660c,PennController,29,0,test_conc,NULL,PennController,40,_Trial_,End,1739283035359,undefined,653,Rough,concrete-negative,abstract,concrete,B,NULL
1739283482,20ef0cdce26cbcc4b32c7c7320d2660c,PennController,35,0,test_conc,NULL,PennController,46,_Trial_,Start,1739283035361,undefined,767,Worthless,abstract-negative,abstract,concrete,B,NULL
1739283482,20ef0cdce26cbcc4b32c7c7320d2660c,PennController,35,0,test_conc,NULL,PennController,46,_Header_,Start,1739283035361,undefined,767,Worthless,abstract-negative,abstract,concrete,B,NULL
1739283482,20ef0cdce26cbcc4b32c7c7320d2660c,PennController,35,0,test_conc,NULL,PennController,46,_Header_,End,1739283035616,undefined,767,Worthless,abstract-negative,abstract,concrete,B,NULL
1739283482,20ef0cdce26cbcc4b32c7c7320d2660c,PennController,35,0,test_conc,NULL,Selector,unnamed-Selector,Selection,abstract,1739283036895,undefined,767,Worthless,abstract-negative,abstract,concrete,B,abstract;concrete
1739283482,20ef0cdce26cbcc4b32c7c7320d2660c,PennController,35,0,test_conc,NULL,PennController,46,_Trial_,End,1739283036896,undefined,767,Worthless,abstract-negative,abstract,concrete,B,NULL
1739283482,20ef0cdce26cbcc4b32c7c7320d2660c,PennController,38,0,test_conc,NULL,PennController,49,_Trial_,Start,1739283036896,undefined,707,Regretful,abstract-negative,abstract,concrete,B,NULL
1739283482,20ef0cdce26cbcc4b32c7c7320d2660c,PennController,38,0,test_conc,NULL,PennController,49,_Header_,Start,1739283036896,undefined,707,Regretful,abstract-negative,abstract,concrete,B,NULL
1739283482,20ef0cdce26cbcc4b32c7c7320d2660c,PennController,38,0,test_conc,NULL,PennController,49,_Header_,End,1739283037149,undefined,707,Regretful,abstract-negative,abstract,concrete,B,NULL
1739283482,20ef0cdce26cbcc4b32c7c7320d2660c,PennController,38,0,test_conc,NULL,Selector,unnamed-Selector,Selection,abstract,1739283038367,undefined,707,Regretful,abstract-negative,abstract,concrete,B,abstract;concrete
1739283482,20ef0cdce26cbcc4b32c7c7320d2660c,PennController,38,0,test_conc,NULL,PennController,49,_Trial_,End,1739283038369,undefined,707,Regretful,abstract-negative,abstract,concrete,B,NULL
1739283482,20ef0cdce26cbcc4b32c7c7320d2660c,PennController,11,0,test_conc,NULL,PennController,22,_Trial_,Start,1739283038369,undefined,580,Smooth,concrete-positive,abstract,concrete,B,NULL
1739283482,20ef0cdce26cbcc4b32c7c7320d2660c,PennController,11,0,test_conc,NULL,PennController,22,_Header_,Start,1739283038369,undefined,580,Smooth,concrete-positive,abstract,concrete,B,NULL
1739283482,20ef0cdce26cbcc4b32c7c7320d2660c,PennController,11,0,test_conc,NULL,PennController,22,_Header_,End,1739283038619,undefined,580,Smooth,concrete-positive,abstract,concrete,B,NULL
1739283482,20ef0cdce26cbcc4b32c7c7320d2660c,PennController,11,0,test_conc,NULL,Selector,unnamed-Selector,Selection,abstract,1739283039711,undefined,580,Smooth,concrete-positive,abstract,concrete,B,abstract;concrete
1739283482,20ef0cdce26cbcc4b32c7c7320d2660c,PennController,11,0,test_conc,NULL,PennController,22,_Trial_,End,1739283039712,undefined,580,Smooth,concrete-positive,abstract,concrete,B,NULL
1739283482,20ef0cdce26cbcc4b32c7c7320d2660c,PennController,43,0,test_conc,NULL,PennController,54,_Trial_,Start,1739283039713,undefined,595,Despairing,abstract-negative,abstract,concrete,B,NULL
1739283482,20ef0cdce26cbcc4b32c7c7320d2660c,PennController,43,0,test_conc,NULL,PennController,54,_Header_,Start,1739283039713,undefined,595,Despairing,abstract-negative,abstract,concrete,B,NULL
1739283482,20ef0cdce26cbcc4b32c7c7320d2660c,PennController,43,0,test_conc,NULL,PennController,54,_Header_,End,1739283039977,undefined,595,Despairing,abstract-negative,abstract,concrete,B,NULL
1739283482,20ef0cdce26cbcc4b32c7c7320d2660c,PennController,43,0,test_conc,NULL,Selector,unnamed-Selector,Selection,abstract,1739283041085,undefined,595,Despairing,abstract-negative,abstract,concrete,B,abstract;concrete
1739283482,20ef0cdce26cbcc4b32c7c7320d2660c,PennController,43,0,test_conc,NULL,PennController,54,_Trial_,End,1739283041086,undefined,595,Despairing,abstract-negative,abstract,concrete,B,NULL
1739283482,20ef0cdce26cbcc4b32c7c7320d2660c,PennController,24,0,test_conc,NULL,PennController,35,_Trial_,Start,1739283041086,undefined,635,Dirty,concrete-negative,abstract,concrete,B,NULL
1739283482,20ef0cdce26cbcc4b32c7c7320d2660c,PennController,24,0,test_conc,NULL,PennController,35,_Header_,Start,1739283041086,undefined,635,Dirty,concrete-negative,abstract,concrete,B,NULL
1739283482,20ef0cdce26cbcc4b32c7c7320d2660c,PennController,24,0,test_conc,NULL,PennController,35,_Header_,End,1739283041351,undefined,635,Dirty,concrete-negative,abstract,concrete,B,NULL
1739283482,20ef0cdce26cbcc4b32c7c7320d2660c,PennController,24,0,test_conc,NULL,Selector,unnamed-Selector,Selection,abstract,1739283042495,undefined,635,Dirty,concrete-negative,abstract,concrete,B,abstract;concrete
1739283482,20ef0cdce26cbcc4b32c7c7320d2660c,PennController,24,0,test_conc,NULL,PennController,35,_Trial_,End,1739283042496,undefined,635,Dirty,concrete-negative,abstract,concrete,B,NULL
1739283482,20ef0cdce26cbcc4b32c7c7320d2660c,PennController,26,0,test_conc,NULL,PennController,37,_Trial_,Start,1739283042497,undefined,606,Smelly,concrete-negative,abstract,concrete,B,NULL
1739283482,20ef0cdce26cbcc4b32c7c7320d2660c,PennController,26,0,test_conc,NULL,PennController,37,_Header_,Start,1739283042497,undefined,606,Smelly,concrete-negative,abstract,concrete,B,NULL
1739283482,20ef0cdce26cbcc4b32c7c7320d2660c,PennController,26,0,test_conc,NULL,PennController,37,_Header_,End,1739283042752,undefined,606,Smelly,concrete-negative,abstract,concrete,B,NULL
1739283482,20ef0cdce26cbcc4b32c7c7320d2660c,PennController,26,0,test_conc,NULL,Selector,unnamed-Selector,Selection,abstract,1739283043871,undefined,606,Smelly,concrete-negative,abstract,concrete,B,abstract;concrete
1739283482,20ef0cdce26cbcc4b32c7c7320d2660c,PennController,26,0,test_conc,NULL,PennController,37,_Trial_,End,1739283043872,undefined,606,Smelly,concrete-negative,abstract,concrete,B,NULL
1739283482,20ef0cdce26cbcc4b32c7c7320d2660c,PennController,33,0,test_conc,NULL,PennController,44,_Trial_,Start,1739283043873,undefined,534,Bitter,concrete-negative,abstract,concrete,B,NULL
1739283482,20ef0cdce26cbcc4b32c7c7320d2660c,PennController,33,0,test_conc,NULL,PennController,44,_Header_,Start,1739283043873,undefined,534,Bitter,concrete-negative,abstract,concrete,B,NULL
1739283482,20ef0cdce26cbcc4b32c7c7320d2660c,PennController,33,0,test_conc,NULL,PennController,44,_Header_,End,1739283044137,undefined,534,Bitter,concrete-negative,abstract,concrete,B,NULL
1739283482,20ef0cdce26cbcc4b32c7c7320d2660c,PennController,33,0,test_conc,NULL,Selector,unnamed-Selector,Selection,abstract,1739283045183,undefined,534,Bitter,concrete-negative,abstract,concrete,B,abstract;concrete
1739283482,20ef0cdce26cbcc4b32c7c7320d2660c,PennController,33,0,test_conc,NULL,PennController,44,_Trial_,End,1739283045184,undefined,534,Bitter,concrete-negative,abstract,concrete,B,NULL
1739283482,20ef0cdce26cbcc4b32c7c7320d2660c,PennController,16,0,test_conc,NULL,PennController,27,_Trial_,Start,1739283045185,undefined,691,Grateful,abstract-positive,abstract,concrete,B,NULL
1739283482,20ef0cdce26cbcc4b32c7c7320d2660c,PennController,16,0,test_conc,NULL,PennController,27,_Header_,Start,1739283045185,undefined,691,Grateful,abstract-positive,abstract,concrete,B,NULL
1739283482,20ef0cdce26cbcc4b32c7c7320d2660c,PennController,16,0,test_conc,NULL,PennController,27,_Header_,End,1739283045448,undefined,691,Grateful,abstract-positive,abstract,concrete,B,NULL
1739283482,20ef0cdce26cbcc4b32c7c7320d2660c,PennController,16,0,test_conc,NULL,Selector,unnamed-Selector,Selection,abstract,1739283046653,undefined,691,Grateful,abstract-positive,abstract,concrete,B,abstract;concrete
1739283482,20ef0cdce26cbcc4b32c7c7320d2660c,PennController,16,0,test_conc,NULL,PennController,27,_Trial_,End,1739283046653,undefined,691,Grateful,abstract-positive,abstract,concrete,B,NULL
1739283482,20ef0cdce26cbcc4b32c7c7320d2660c,PennController,28,0,test_conc,NULL,PennController,39,_Trial_,Start,1739283046654,undefined,456,Dark,concrete-negative,abstract,concrete,B,NULL
1739283482,20ef0cdce26cbcc4b32c7c7320d2660c,PennController,28,0,test_conc,NULL,PennController,39,_Header_,Start,1739283046654,undefined,456,Dark,concrete-negative,abstract,concrete,B,NULL
1739283482,20ef0cdce26cbcc4b32c7c7320d2660c,PennController,28,0,test_conc,NULL,PennController,39,_Header_,End,1739283046919,undefined,456,Dark,concrete-negative,abstract,concrete,B,NULL
1739283482,20ef0cdce26cbcc4b32c7c7320d2660c,PennController,28,0,test_conc,NULL,Selector,unnamed-Selector,Selection,abstract,1739283047885,undefined,456,Dark,concrete-negative,abstract,concrete,B,abstract;concrete
1739283482,20ef0cdce26cbcc4b32c7c7320d2660c,PennController,28,0,test_conc,NULL,PennController,39,_Trial_,End,1739283047886,undefined,456,Dark,concrete-negative,abstract,concrete,B,NULL
1739283482,20ef0cdce26cbcc4b32c7c7320d2660c,PennController,21,0,test_conc,NULL,PennController,32,_Trial_,Start,1739283047886,undefined,459,Generous,abstract-positive,abstract,concrete,B,NULL
1739283482,20ef0cdce26cbcc4b32c7c7320d2660c,PennController,21,0,test_conc,NULL,PennController,32,_Header_,Start,1739283047886,undefined,459,Generous,abstract-positive,abstract,concrete,B,NULL
1739283482,20ef0cdce26cbcc4b32c7c7320d2660c,PennController,21,0,test_conc,NULL,PennController,32,_Header_,End,1739283048147,undefined,459,Generous,abstract-positive,abstract,concrete,B,NULL
1739283482,20ef0cdce26cbcc4b32c7c7320d2660c,PennController,21,0,test_conc,NULL,Selector,unnamed-Selector,Selection,abstract,1739283049117,undefined,459,Generous,abstract-positive,abstract,concrete,B,abstract;concrete
1739283482,20ef0cdce26cbcc4b32c7c7320d2660c,PennController,21,0,test_conc,NULL,PennController,32,_Trial_,End,1739283049118,undefined,459,Generous,abstract-positive,abstract,concrete,B,NULL
1739283482,20ef0cdce26cbcc4b32c7c7320d2660c,PennController,25,0,test_conc,NULL,PennController,36,_Trial_,Start,1739283049119,undefined,508,Sticky,concrete-negative,abstract,concrete,B,NULL
1739283482,20ef0cdce26cbcc4b32c7c7320d2660c,PennController,25,0,test_conc,NULL,PennController,36,_Header_,Start,1739283049119,undefined,508,Sticky,concrete-negative,abstract,concrete,B,NULL
1739283482,20ef0cdce26cbcc4b32c7c7320d2660c,PennController,25,0,test_conc,NULL,PennController,36,_Header_,End,1739283049377,undefined,508,Sticky,concrete-negative,abstract,concrete,B,NULL
1739283482,20ef0cdce26cbcc4b32c7c7320d2660c,PennController,25,0,test_conc,NULL,Selector,unnamed-Selector,Selection,abstract,1739283050397,undefined,508,Sticky,concrete-negative,abstract,concrete,B,abstract;concrete
1739283482,20ef0cdce26cbcc4b32c7c7320d2660c,PennController,25,0,test_conc,NULL,PennController,36,_Trial_,End,1739283050398,undefined,508,Sticky,concrete-negative,abstract,concrete,B,NULL
1739283482,20ef0cdce26cbcc4b32c7c7320d2660c,PennController,6,0,test_conc,NULL,PennController,17,_Trial_,Start,1739283050398,undefined,498,Soft,concrete-positive,abstract,concrete,B,NULL
1739283482,20ef0cdce26cbcc4b32c7c7320d2660c,PennController,6,0,test_conc,NULL,PennController,17,_Header_,Start,1739283050398,undefined,498,Soft,concrete-positive,abstract,concrete,B,NULL
1739283482,20ef0cdce26cbcc4b32c7c7320d2660c,PennController,6,0,test_conc,NULL,PennController,17,_Header_,End,1739283050655,undefined,498,Soft,concrete-positive,abstract,concrete,B,NULL
1739283482,20ef0cdce26cbcc4b32c7c7320d2660c,PennController,6,0,test_conc,NULL,Selector,unnamed-Selector,Selection,abstract,1739283051663,undefined,498,Soft,concrete-positive,abstract,concrete,B,abstract;concrete
1739283482,20ef0cdce26cbcc4b32c7c7320d2660c,PennController,6,0,test_conc,NULL,PennController,17,_Trial_,End,1739283051664,undefined,498,Soft,concrete-positive,abstract,concrete,B,NULL
1739283482,20ef0cdce26cbcc4b32c7c7320d2660c,PennController,40,0,test_conc,NULL,PennController,51,_Trial_,Start,1739283051665,undefined,449,Bitter,abstract-negative,abstract,concrete,B,NULL
1739283482,20ef0cdce26cbcc4b32c7c7320d2660c,PennController,40,0,test_conc,NULL,PennController,51,_Header_,Start,1739283051665,undefined,449,Bitter,abstract-negative,abstract,concrete,B,NULL
1739283482,20ef0cdce26cbcc4b32c7c7320d2660c,PennController,40,0,test_conc,NULL,PennController,51,_Header_,End,1739283051917,undefined,449,Bitter,abstract-negative,abstract,concrete,B,NULL
1739283482,20ef0cdce26cbcc4b32c7c7320d2660c,PennController,40,0,test_conc,NULL,Selector,unnamed-Selector,Selection,abstract,1739283052878,undefined,449,Bitter,abstract-negative,abstract,concrete,B,abstract;concrete
1739283482,20ef0cdce26cbcc4b32c7c7320d2660c,PennController,40,0,test_conc,NULL,PennController,51,_Trial_,End,1739283052879,undefined,449,Bitter,abstract-negative,abstract,concrete,B,NULL
1739283482,20ef0cdce26cbcc4b32c7c7320d2660c,PennController,34,0,test_conc,NULL,PennController,45,_Trial_,Start,1739283052881,undefined,595,Hopeless,abstract-negative,abstract,concrete,B,NULL
1739283482,20ef0cdce26cbcc4b32c7c7320d2660c,PennController,34,0,test_conc,NULL,PennController,45,_Header_,Start,1739283052881,undefined,595,Hopeless,abstract-negative,abstract,concrete,B,NULL
1739283482,20ef0cdce26cbcc4b32c7c7320d2660c,PennController,34,0,test_conc,NULL,PennController,45,_Header_,End,1739283053133,undefined,595,Hopeless,abstract-negative,abstract,concrete,B,NULL
1739283482,20ef0cdce26cbcc4b32c7c7320d2660c,PennController,34,0,test_conc,NULL,Selector,unnamed-Selector,Selection,abstract,1739283054237,undefined,595,Hopeless,abstract-negative,abstract,concrete,B,abstract;concrete
1739283482,20ef0cdce26cbcc4b32c7c7320d2660c,PennController,34,0,test_conc,NULL,PennController,45,_Trial_,End,1739283054238,undefined,595,Hopeless,abstract-negative,abstract,concrete,B,NULL
1739283482,20ef0cdce26cbcc4b32c7c7320d2660c,PennController,10,0,test_conc,NULL,PennController,21,_Trial_,Start,1739283054238,undefined,486,Colorful,concrete-positive,abstract,concrete,B,NULL
1739283482,20ef0cdce26cbcc4b32c7c7320d2660c,PennController,10,0,test_conc,NULL,PennController,21,_Header_,Start,1739283054238,undefined,486,Colorful,concrete-positive,abstract,concrete,B,NULL
1739283482,20ef0cdce26cbcc4b32c7c7320d2660c,PennController,10,0,test_conc,NULL,PennController,21,_Header_,End,1739283054488,undefined,486,Colorful,concrete-positive,abstract,concrete,B,NULL
1739283482,20ef0cdce26cbcc4b32c7c7320d2660c,PennController,10,0,test_conc,NULL,Selector,unnamed-Selector,Selection,abstract,1739283055486,undefined,486,Colorful,concrete-positive,abstract,concrete,B,abstract;concrete
1739283482,20ef0cdce26cbcc4b32c7c7320d2660c,PennController,10,0,test_conc,NULL,PennController,21,_Trial_,End,1739283055488,undefined,486,Colorful,concrete-positive,abstract,concrete,B,NULL
1739283482,20ef0cdce26cbcc4b32c7c7320d2660c,PennController,13,0,test_conc,NULL,PennController,24,_Trial_,Start,1739283055489,undefined,551,Cool,concrete-positive,abstract,concrete,B,NULL
1739283482,20ef0cdce26cbcc4b32c7c7320d2660c,PennController,13,0,test_conc,NULL,PennController,24,_Header_,Start,1739283055489,undefined,551,Cool,concrete-positive,abstract,concrete,B,NULL
1739283482,20ef0cdce26cbcc4b32c7c7320d2660c,PennController,13,0,test_conc,NULL,PennController,24,_Header_,End,1739283055751,undefined,551,Cool,concrete-positive,abstract,concrete,B,NULL
1739283482,20ef0cdce26cbcc4b32c7c7320d2660c,PennController,13,0,test_conc,NULL,Selector,unnamed-Selector,Selection,abstract,1739283056815,undefined,551,Cool,concrete-positive,abstract,concrete,B,abstract;concrete
1739283482,20ef0cdce26cbcc4b32c7c7320d2660c,PennController,13,0,test_conc,NULL,PennController,24,_Trial_,End,1739283056816,undefined,551,Cool,concrete-positive,abstract,concrete,B,NULL
1739283482,20ef0cdce26cbcc4b32c7c7320d2660c,PennController,9,0,test_conc,NULL,PennController,20,_Trial_,Start,1739283056816,undefined,619,Fragrant,concrete-positive,abstract,concrete,B,NULL
1739283482,20ef0cdce26cbcc4b32c7c7320d2660c,PennController,9,0,test_conc,NULL,PennController,20,_Header_,Start,1739283056816,undefined,619,Fragrant,concrete-positive,abstract,concrete,B,NULL
1739283482,20ef0cdce26cbcc4b32c7c7320d2660c,PennController,9,0,test_conc,NULL,PennController,20,_Header_,End,1739283057076,undefined,619,Fragrant,concrete-positive,abstract,concrete,B,NULL
1739283482,20ef0cdce26cbcc4b32c7c7320d2660c,PennController,9,0,test_conc,NULL,Selector,unnamed-Selector,Selection,abstract,1739283058207,undefined,619,Fragrant,concrete-positive,abstract,concrete,B,abstract;concrete
1739283482,20ef0cdce26cbcc4b32c7c7320d2660c,PennController,9,0,test_conc,NULL,PennController,20,_Trial_,End,1739283058208,undefined,619,Fragrant,concrete-positive,abstract,concrete,B,NULL
1739283482,20ef0cdce26cbcc4b32c7c7320d2660c,PennController,4,0,test_conc,NULL,PennController,15,_Trial_,Start,1739283058209,undefined,558,Warm,concrete-positive,abstract,concrete,B,NULL
1739283482,20ef0cdce26cbcc4b32c7c7320d2660c,PennController,4,0,test_conc,NULL,PennController,15,_Header_,Start,1739283058209,undefined,558,Warm,concrete-positive,abstract,concrete,B,NULL
1739283482,20ef0cdce26cbcc4b32c7c7320d2660c,PennController,4,0,test_conc,NULL,PennController,15,_Header_,End,1739283058465,undefined,558,Warm,concrete-positive,abstract,concrete,B,NULL
1739283482,20ef0cdce26cbcc4b32c7c7320d2660c,PennController,4,0,test_conc,NULL,Selector,unnamed-Selector,Selection,abstract,1739283059534,undefined,558,Warm,concrete-positive,abstract,concrete,B,abstract;concrete
1739283482,20ef0cdce26cbcc4b32c7c7320d2660c,PennController,4,0,test_conc,NULL,PennController,15,_Trial_,End,1739283059536,undefined,558,Warm,concrete-positive,abstract,concrete,B,NULL
1739283482,20ef0cdce26cbcc4b32c7c7320d2660c,PennController,19,0,test_conc,NULL,PennController,30,_Trial_,Start,1739283059537,undefined,544,Peaceful,abstract-positive,abstract,concrete,B,NULL
1739283482,20ef0cdce26cbcc4b32c7c7320d2660c,PennController,19,0,test_conc,NULL,PennController,30,_Header_,Start,1739283059537,undefined,544,Peaceful,abstract-positive,abstract,concrete,B,NULL
1739283482,20ef0cdce26cbcc4b32c7c7320d2660c,PennController,19,0,test_conc,NULL,PennController,30,_Header_,End,1739283059789,undefined,544,Peaceful,abstract-positive,abstract,concrete,B,NULL
1739283482,20ef0cdce26cbcc4b32c7c7320d2660c,PennController,19,0,test_conc,NULL,Selector,unnamed-Selector,Selection,abstract,1739283060845,undefined,544,Peaceful,abstract-positive,abstract,concrete,B,abstract;concrete
1739283482,20ef0cdce26cbcc4b32c7c7320d2660c,PennController,19,0,test_conc,NULL,PennController,30,_Trial_,End,1739283060846,undefined,544,Peaceful,abstract-positive,abstract,concrete,B,NULL
1739283482,20ef0cdce26cbcc4b32c7c7320d2660c,PennController,39,0,test_conc,NULL,PennController,50,_Trial_,Start,1739283060847,undefined,418,Anxious,abstract-negative,abstract,concrete,B,NULL
1739283482,20ef0cdce26cbcc4b32c7c7320d2660c,PennController,39,0,test_conc,NULL,PennController,50,_Header_,Start,1739283060847,undefined,418,Anxious,abstract-negative,abstract,concrete,B,NULL
1739283482,20ef0cdce26cbcc4b32c7c7320d2660c,PennController,39,0,test_conc,NULL,PennController,50,_Header_,End,1739283061099,undefined,418,Anxious,abstract-negative,abstract,concrete,B,NULL
1739283482,20ef0cdce26cbcc4b32c7c7320d2660c,PennController,39,0,test_conc,NULL,Selector,unnamed-Selector,Selection,abstract,1739283062029,undefined,418,Anxious,abstract-negative,abstract,concrete,B,abstract;concrete
1739283482,20ef0cdce26cbcc4b32c7c7320d2660c,PennController,39,0,test_conc,NULL,PennController,50,_Trial_,End,1739283062030,undefined,418,Anxious,abstract-negative,abstract,concrete,B,NULL
1739283482,20ef0cdce26cbcc4b32c7c7320d2660c,PennController,15,0,test_conc,NULL,PennController,26,_Trial_,Start,1739283062030,undefined,373,Loving,abstract-positive,abstract,concrete,B,NULL
1739283482,20ef0cdce26cbcc4b32c7c7320d2660c,PennController,15,0,test_conc,NULL,PennController,26,_Header_,Start,1739283062030,undefined,373,Loving,abstract-positive,abstract,concrete,B,NULL
1739283482,20ef0cdce26cbcc4b32c7c7320d2660c,PennController,15,0,test_conc,NULL,PennController,26,_Header_,End,1739283062282,undefined,373,Loving,abstract-positive,abstract,concrete,B,NULL
1739283482,20ef0cdce26cbcc4b32c7c7320d2660c,PennController,15,0,test_conc,NULL,Selector,unnamed-Selector,Selection,abstract,1739283063166,undefined,373,Loving,abstract-positive,abstract,concrete,B,abstract;concrete
1739283482,20ef0cdce26cbcc4b32c7c7320d2660c,PennController,15,0,test_conc,NULL,PennController,26,_Trial_,End,1739283063168,undefined,373,Loving,abstract-positive,abstract,concrete,B,NULL
1739283482,20ef0cdce26cbcc4b32c7c7320d2660c,PennController,41,0,test_conc,NULL,PennController,52,_Trial_,Start,1739283063169,undefined,374,Ashamed,abstract-negative,abstract,concrete,B,NULL
1739283482,20ef0cdce26cbcc4b32c7c7320d2660c,PennController,41,0,test_conc,NULL,PennController,52,_Header_,Start,1739283063169,undefined,374,Ashamed,abstract-negative,abstract,concrete,B,NULL
1739283482,20ef0cdce26cbcc4b32c7c7320d2660c,PennController,41,0,test_conc,NULL,PennController,52,_Header_,End,1739283063432,undefined,374,Ashamed,abstract-negative,abstract,concrete,B,NULL
1739283482,20ef0cdce26cbcc4b32c7c7320d2660c,PennController,41,0,test_conc,NULL,Selector,unnamed-Selector,Selection,abstract,1739283064319,undefined,374,Ashamed,abstract-negative,abstract,concrete,B,abstract;concrete
1739283482,20ef0cdce26cbcc4b32c7c7320d2660c,PennController,41,0,test_conc,NULL,PennController,52,_Trial_,End,1739283064320,undefined,374,Ashamed,abstract-negative,abstract,concrete,B,NULL
1739283482,20ef0cdce26cbcc4b32c7c7320d2660c,PennController,29,0,test_conc,NULL,PennController,40,_Trial_,Start,1739283064321,undefined,471,Rough,concrete-negative,abstract,concrete,B,NULL
1739283482,20ef0cdce26cbcc4b32c7c7320d2660c,PennController,29,0,test_conc,NULL,PennController,40,_Header_,Start,1739283064321,undefined,471,Rough,concrete-negative,abstract,concrete,B,NULL
1739283482,20ef0cdce26cbcc4b32c7c7320d2660c,PennController,29,0,test_conc,NULL,PennController,40,_Header_,End,1739283064585,undefined,471,Rough,concrete-negative,abstract,concrete,B,NULL
1739283482,20ef0cdce26cbcc4b32c7c7320d2660c,PennController,29,0,test_conc,NULL,Selector,unnamed-Selector,Selection,abstract,1739283065567,undefined,471,Rough,concrete-negative,abstract,concrete,B,abstract;concrete
1739283482,20ef0cdce26cbcc4b32c7c7320d2660c,PennController,29,0,test_conc,NULL,PennController,40,_Trial_,End,1739283065568,undefined,471,Rough,concrete-negative,abstract,concrete,B,NULL
1739283482,20ef0cdce26cbcc4b32c7c7320d2660c,PennController,17,0,test_conc,NULL,PennController,28,_Trial_,Start,1739283065569,undefined,360,Kind,abstract-positive,abstract,concrete,B,NULL
1739283482,20ef0cdce26cbcc4b32c7c7320d2660c,PennController,17,0,test_conc,NULL,PennController,28,_Header_,Start,1739283065569,undefined,360,Kind,abstract-positive,abstract,concrete,B,NULL
1739283482,20ef0cdce26cbcc4b32c7c7320d2660c,PennController,17,0,test_conc,NULL,PennController,28,_Header_,End,1739283065830,undefined,360,Kind,abstract-positive,abstract,concrete,B,NULL
1739283482,20ef0cdce26cbcc4b32c7c7320d2660c,PennController,17,0,test_conc,NULL,Selector,unnamed-Selector,Selection,abstract,1739283066702,undefined,360,Kind,abstract-positive,abstract,concrete,B,abstract;concrete
1739283482,20ef0cdce26cbcc4b32c7c7320d2660c,PennController,17,0,test_conc,NULL,PennController,28,_Trial_,End,1739283066703,undefined,360,Kind,abstract-positive,abstract,concrete,B,NULL
1739283482,20ef0cdce26cbcc4b32c7c7320d2660c,PennController,8,0,test_conc,NULL,PennController,19,_Trial_,Start,1739283066704,undefined,425,Clean,concrete-positive,abstract,concrete,B,NULL
1739283482,20ef0cdce26cbcc4b32c7c7320d2660c,PennController,8,0,test_conc,NULL,PennController,19,_Header_,Start,1739283066704,undefined,425,Clean,concrete-positive,abstract,concrete,B,NULL
1739283482,20ef0cdce26cbcc4b32c7c7320d2660c,PennController,8,0,test_conc,NULL,PennController,19,_Header_,End,1739283066964,undefined,425,Clean,concrete-positive,abstract,concrete,B,NULL
1739283482,20ef0cdce26cbcc4b32c7c7320d2660c,PennController,8,0,test_conc,NULL,Selector,unnamed-Selector,Selection,abstract,1739283067903,undefined,425,Clean,concrete-positive,abstract,concrete,B,abstract;concrete
1739283482,20ef0cdce26cbcc4b32c7c7320d2660c,PennController,8,0,test_conc,NULL,PennController,19,_Trial_,End,1739283067904,undefined,425,Clean,concrete-positive,abstract,concrete,B,NULL
1739283482,20ef0cdce26cbcc4b32c7c7320d2660c,PennController,11,0,test_conc,NULL,PennController,22,_Trial_,Start,1739283067904,undefined,316,Smooth,concrete-positive,abstract,concrete,B,NULL
1739283482,20ef0cdce26cbcc4b32c7c7320d2660c,PennController,11,0,test_conc,NULL,PennController,22,_Header_,Start,1739283067904,undefined,316,Smooth,concrete-positive,abstract,concrete,B,NULL
1739283482,20ef0cdce26cbcc4b32c7c7320d2660c,PennController,11,0,test_conc,NULL,PennController,22,_Header_,End,1739283068164,undefined,316,Smooth,concrete-positive,abstract,concrete,B,NULL
1739283482,20ef0cdce26cbcc4b32c7c7320d2660c,PennController,11,0,test_conc,NULL,Selector,unnamed-Selector,Selection,abstract,1739283068991,undefined,316,Smooth,concrete-positive,abstract,concrete,B,abstract;concrete
1739283482,20ef0cdce26cbcc4b32c7c7320d2660c,PennController,11,0,test_conc,NULL,PennController,22,_Trial_,End,1739283068992,undefined,316,Smooth,concrete-positive,abstract,concrete,B,NULL
1739283482,20ef0cdce26cbcc4b32c7c7320d2660c,PennController,9,0,test_conc,NULL,PennController,20,_Trial_,Start,1739283068992,undefined,353,Fragrant,concrete-positive,abstract,concrete,B,NULL
1739283482,20ef0cdce26cbcc4b32c7c7320d2660c,PennController,9,0,test_conc,NULL,PennController,20,_Header_,Start,1739283068992,undefined,353,Fragrant,concrete-positive,abstract,concrete,B,NULL
1739283482,20ef0cdce26cbcc4b32c7c7320d2660c,PennController,9,0,test_conc,NULL,PennController,20,_Header_,End,1739283069247,undefined,353,Fragrant,concrete-positive,abstract,concrete,B,NULL
1739283482,20ef0cdce26cbcc4b32c7c7320d2660c,PennController,9,0,test_conc,NULL,Selector,unnamed-Selector,Selection,abstract,1739283070110,undefined,353,Fragrant,concrete-positive,abstract,concrete,B,abstract;concrete
1739283482,20ef0cdce26cbcc4b32c7c7320d2660c,PennController,9,0,test_conc,NULL,PennController,20,_Trial_,End,1739283070111,undefined,353,Fragrant,concrete-positive,abstract,concrete,B,NULL
1739283482,20ef0cdce26cbcc4b32c7c7320d2660c,PennController,12,0,test_conc,NULL,PennController,23,_Trial_,Start,1739283070112,undefined,416,Delicious,concrete-positive,abstract,concrete,B,NULL
1739283482,20ef0cdce26cbcc4b32c7c7320d2660c,PennController,12,0,test_conc,NULL,PennController,23,_Header_,Start,1739283070112,undefined,416,Delicious,concrete-positive,abstract,concrete,B,NULL
1739283482,20ef0cdce26cbcc4b32c7c7320d2660c,PennController,12,0,test_conc,NULL,PennController,23,_Header_,End,1739283070366,undefined,416,Delicious,concrete-positive,abstract,concrete,B,NULL
1739283482,20ef0cdce26cbcc4b32c7c7320d2660c,PennController,12,0,test_conc,NULL,Selector,unnamed-Selector,Selection,abstract,1739283071294,undefined,416,Delicious,concrete-positive,abstract,concrete,B,abstract;concrete
1739283482,20ef0cdce26cbcc4b32c7c7320d2660c,PennController,12,0,test_conc,NULL,PennController,23,_Trial_,End,1739283071295,undefined,416,Delicious,concrete-positive,abstract,concrete,B,NULL
1739283482,20ef0cdce26cbcc4b32c7c7320d2660c,PennController,4,0,test_conc,NULL,PennController,15,_Trial_,Start,1739283071297,undefined,482,Warm,concrete-positive,abstract,concrete,B,NULL
1739283482,20ef0cdce26cbcc4b32c7c7320d2660c,PennController,4,0,test_conc,NULL,PennController,15,_Header_,Start,1739283071297,undefined,482,Warm,concrete-positive,abstract,concrete,B,NULL
1739283482,20ef0cdce26cbcc4b32c7c7320d2660c,PennController,4,0,test_conc,NULL,PennController,15,_Header_,End,1739283071547,undefined,482,Warm,concrete-positive,abstract,concrete,B,NULL
1739283482,20ef0cdce26cbcc4b32c7c7320d2660c,PennController,4,0,test_conc,NULL,Selector,unnamed-Selector,Selection,abstract,1739283072542,undefined,482,Warm,concrete-positive,abstract,concrete,B,abstract;concrete
1739283482,20ef0cdce26cbcc4b32c7c7320d2660c,PennController,4,0,test_conc,NULL,PennController,15,_Trial_,End,1739283072543,undefined,482,Warm,concrete-positive,abstract,concrete,B,NULL
1739283482,20ef0cdce26cbcc4b32c7c7320d2660c,PennController,32,0,test_conc,NULL,PennController,43,_Trial_,Start,1739283072544,undefined,356,Greasy,concrete-negative,abstract,concrete,B,NULL
1739283482,20ef0cdce26cbcc4b32c7c7320d2660c,PennController,32,0,test_conc,NULL,PennController,43,_Header_,Start,1739283072544,undefined,356,Greasy,concrete-negative,abstract,concrete,B,NULL
1739283482,20ef0cdce26cbcc4b32c7c7320d2660c,PennController,32,0,test_conc,NULL,PennController,43,_Header_,End,1739283072808,undefined,356,Greasy,concrete-negative,abstract,concrete,B,NULL
1739283482,20ef0cdce26cbcc4b32c7c7320d2660c,PennController,32,0,test_conc,NULL,Selector,unnamed-Selector,Selection,abstract,1739283073677,undefined,356,Greasy,concrete-negative,abstract,concrete,B,abstract;concrete
1739283482,20ef0cdce26cbcc4b32c7c7320d2660c,PennController,32,0,test_conc,NULL,PennController,43,_Trial_,End,1739283073677,undefined,356,Greasy,concrete-negative,abstract,concrete,B,NULL
1739283482,20ef0cdce26cbcc4b32c7c7320d2660c,PennController,5,0,test_conc,NULL,PennController,16,_Trial_,Start,1739283073678,undefined,363,Fresh,concrete-positive,abstract,concrete,B,NULL
1739283482,20ef0cdce26cbcc4b32c7c7320d2660c,PennController,5,0,test_conc,NULL,PennController,16,_Header_,Start,1739283073678,undefined,363,Fresh,concrete-positive,abstract,concrete,B,NULL
1739283482,20ef0cdce26cbcc4b32c7c7320d2660c,PennController,5,0,test_conc,NULL,PennController,16,_Header_,End,1739283073941,undefined,363,Fresh,concrete-positive,abstract,concrete,B,NULL
1739283482,20ef0cdce26cbcc4b32c7c7320d2660c,PennController,5,0,test_conc,NULL,Selector,unnamed-Selector,Selection,abstract,1739283074815,undefined,363,Fresh,concrete-positive,abstract,concrete,B,abstract;concrete
1739283482,20ef0cdce26cbcc4b32c7c7320d2660c,PennController,5,0,test_conc,NULL,PennController,16,_Trial_,End,1739283074816,undefined,363,Fresh,concrete-positive,abstract,concrete,B,NULL
1739283482,20ef0cdce26cbcc4b32c7c7320d2660c,PennController,26,0,test_conc,NULL,PennController,37,_Trial_,Start,1739283074817,undefined,368,Smelly,concrete-negative,abstract,concrete,B,NULL
1739283482,20ef0cdce26cbcc4b32c7c7320d2660c,PennController,26,0,test_conc,NULL,PennController,37,_Header_,Start,1739283074817,undefined,368,Smelly,concrete-negative,abstract,concrete,B,NULL
1739283482,20ef0cdce26cbcc4b32c7c7320d2660c,PennController,26,0,test_conc,NULL,PennController,37,_Header_,End,1739283075072,undefined,368,Smelly,concrete-negative,abstract,concrete,B,NULL
1739283482,20ef0cdce26cbcc4b32c7c7320d2660c,PennController,26,0,test_conc,NULL,Selector,unnamed-Selector,Selection,abstract,1739283075950,undefined,368,Smelly,concrete-negative,abstract,concrete,B,abstract;concrete
1739283482,20ef0cdce26cbcc4b32c7c7320d2660c,PennController,26,0,test_conc,NULL,PennController,37,_Trial_,End,1739283075952,undefined,368,Smelly,concrete-negative,abstract,concrete,B,NULL
1739283482,20ef0cdce26cbcc4b32c7c7320d2660c,PennController,7,0,test_conc,NULL,PennController,18,_Trial_,Start,1739283075953,undefined,370,Bright,concrete-positive,abstract,concrete,B,NULL
1739283482,20ef0cdce26cbcc4b32c7c7320d2660c,PennController,7,0,test_conc,NULL,PennController,18,_Header_,Start,1739283075953,undefined,370,Bright,concrete-positive,abstract,concrete,B,NULL
1739283482,20ef0cdce26cbcc4b32c7c7320d2660c,PennController,7,0,test_conc,NULL,PennController,18,_Header_,End,1739283076204,undefined,370,Bright,concrete-positive,abstract,concrete,B,NULL
1739283482,20ef0cdce26cbcc4b32c7c7320d2660c,PennController,7,0,test_conc,NULL,Selector,unnamed-Selector,Selection,abstract,1739283077086,undefined,370,Bright,concrete-positive,abstract,concrete,B,abstract;concrete
1739283482,20ef0cdce26cbcc4b32c7c7320d2660c,PennController,7,0,test_conc,NULL,PennController,18,_Trial_,End,1739283077088,undefined,370,Bright,concrete-positive,abstract,concrete,B,NULL
1739283482,20ef0cdce26cbcc4b32c7c7320d2660c,PennController,27,0,test_conc,NULL,PennController,38,_Trial_,Start,1739283077089,undefined,357,Cold,concrete-negative,abstract,concrete,B,NULL
1739283482,20ef0cdce26cbcc4b32c7c7320d2660c,PennController,27,0,test_conc,NULL,PennController,38,_Header_,Start,1739283077089,undefined,357,Cold,concrete-negative,abstract,concrete,B,NULL
1739283482,20ef0cdce26cbcc4b32c7c7320d2660c,PennController,27,0,test_conc,NULL,PennController,38,_Header_,End,1739283077353,undefined,357,Cold,concrete-negative,abstract,concrete,B,NULL
1739283482,20ef0cdce26cbcc4b32c7c7320d2660c,PennController,27,0,test_conc,NULL,Selector,unnamed-Selector,Selection,abstract,1739283078222,undefined,357,Cold,concrete-negative,abstract,concrete,B,abstract;concrete
1739283482,20ef0cdce26cbcc4b32c7c7320d2660c,PennController,27,0,test_conc,NULL,PennController,38,_Trial_,End,1739283078223,undefined,357,Cold,concrete-negative,abstract,concrete,B,NULL
1739283482,20ef0cdce26cbcc4b32c7c7320d2660c,PennController,24,0,test_conc,NULL,PennController,35,_Trial_,Start,1739283078224,undefined,313,Dirty,concrete-negative,abstract,concrete,B,NULL
1739283482,20ef0cdce26cbcc4b32c7c7320d2660c,PennController,24,0,test_conc,NULL,PennController,35,_Header_,Start,1739283078224,undefined,313,Dirty,concrete-negative,abstract,concrete,B,NULL
1739283482,20ef0cdce26cbcc4b32c7c7320d2660c,PennController,24,0,test_conc,NULL,PennController,35,_Header_,End,1739283078488,undefined,313,Dirty,concrete-negative,abstract,concrete,B,NULL
1739283482,20ef0cdce26cbcc4b32c7c7320d2660c,PennController,24,0,test_conc,NULL,Selector,unnamed-Selector,Selection,abstract,1739283079311,undefined,313,Dirty,concrete-negative,abstract,concrete,B,abstract;concrete
1739283482,20ef0cdce26cbcc4b32c7c7320d2660c,PennController,24,0,test_conc,NULL,PennController,35,_Trial_,End,1739283079312,undefined,313,Dirty,concrete-negative,abstract,concrete,B,NULL
1739283482,20ef0cdce26cbcc4b32c7c7320d2660c,PennController,23,0,test_conc,NULL,PennController,34,_Trial_,Start,1739283079313,undefined,350,Resilient,abstract-positive,abstract,concrete,B,NULL
1739283482,20ef0cdce26cbcc4b32c7c7320d2660c,PennController,23,0,test_conc,NULL,PennController,34,_Header_,Start,1739283079313,undefined,350,Resilient,abstract-positive,abstract,concrete,B,NULL
1739283482,20ef0cdce26cbcc4b32c7c7320d2660c,PennController,23,0,test_conc,NULL,PennController,34,_Header_,End,1739283079570,undefined,350,Resilient,abstract-positive,abstract,concrete,B,NULL
1739283482,20ef0cdce26cbcc4b32c7c7320d2660c,PennController,23,0,test_conc,NULL,Selector,unnamed-Selector,Selection,abstract,1739283080430,undefined,350,Resilient,abstract-positive,abstract,concrete,B,abstract;concrete
1739283482,20ef0cdce26cbcc4b32c7c7320d2660c,PennController,23,0,test_conc,NULL,PennController,34,_Trial_,End,1739283080432,undefined,350,Resilient,abstract-positive,abstract,concrete,B,NULL
1739283482,20ef0cdce26cbcc4b32c7c7320d2660c,PennController,13,0,test_conc,NULL,PennController,24,_Trial_,Start,1739283080432,undefined,367,Cool,concrete-positive,abstract,concrete,B,NULL
1739283482,20ef0cdce26cbcc4b32c7c7320d2660c,PennController,13,0,test_conc,NULL,PennController,24,_Header_,Start,1739283080432,undefined,367,Cool,concrete-positive,abstract,concrete,B,NULL
1739283482,20ef0cdce26cbcc4b32c7c7320d2660c,PennController,13,0,test_conc,NULL,PennController,24,_Header_,End,1739283080688,undefined,367,Cool,concrete-positive,abstract,concrete,B,NULL
1739283482,20ef0cdce26cbcc4b32c7c7320d2660c,PennController,13,0,test_conc,NULL,Selector,unnamed-Selector,Selection,abstract,1739283081567,undefined,367,Cool,concrete-positive,abstract,concrete,B,abstract;concrete
1739283482,20ef0cdce26cbcc4b32c7c7320d2660c,PennController,13,0,test_conc,NULL,PennController,24,_Trial_,End,1739283081568,undefined,367,Cool,concrete-positive,abstract,concrete,B,NULL
1739283482,20ef0cdce26cbcc4b32c7c7320d2660c,PennController,21,0,test_conc,NULL,PennController,32,_Trial_,Start,1739283081568,undefined,352,Generous,abstract-positive,abstract,concrete,B,NULL
1739283482,20ef0cdce26cbcc4b32c7c7320d2660c,PennController,21,0,test_conc,NULL,PennController,32,_Header_,Start,1739283081568,undefined,352,Generous,abstract-positive,abstract,concrete,B,NULL
1739283482,20ef0cdce26cbcc4b32c7c7320d2660c,PennController,21,0,test_conc,NULL,PennController,32,_Header_,End,1739283081822,undefined,352,Generous,abstract-positive,abstract,concrete,B,NULL
1739283482,20ef0cdce26cbcc4b32c7c7320d2660c,PennController,21,0,test_conc,NULL,Selector,unnamed-Selector,Selection,abstract,1739283082686,undefined,352,Generous,abstract-positive,abstract,concrete,B,abstract;concrete
1739283482,20ef0cdce26cbcc4b32c7c7320d2660c,PennController,21,0,test_conc,NULL,PennController,32,_Trial_,End,1739283082687,undefined,352,Generous,abstract-positive,abstract,concrete,B,NULL
1739283482,20ef0cdce26cbcc4b32c7c7320d2660c,PennController,36,0,test_conc,NULL,PennController,47,_Trial_,Start,1739283082688,undefined,307,Helpless,abstract-negative,abstract,concrete,B,NULL
1739283482,20ef0cdce26cbcc4b32c7c7320d2660c,PennController,36,0,test_conc,NULL,PennController,47,_Header_,Start,1739283082688,undefined,307,Helpless,abstract-negative,abstract,concrete,B,NULL
1739283482,20ef0cdce26cbcc4b32c7c7320d2660c,PennController,36,0,test_conc,NULL,PennController,47,_Header_,End,1739283082940,undefined,307,Helpless,abstract-negative,abstract,concrete,B,NULL
1739283482,20ef0cdce26cbcc4b32c7c7320d2660c,PennController,36,0,test_conc,NULL,Selector,unnamed-Selector,Selection,abstract,1739283083758,undefined,307,Helpless,abstract-negative,abstract,concrete,B,abstract;concrete
1739283482,20ef0cdce26cbcc4b32c7c7320d2660c,PennController,36,0,test_conc,NULL,PennController,47,_Trial_,End,1739283083760,undefined,307,Helpless,abstract-negative,abstract,concrete,B,NULL
1739283482,20ef0cdce26cbcc4b32c7c7320d2660c,PennController,38,0,test_conc,NULL,PennController,49,_Trial_,Start,1739283083761,undefined,405,Regretful,abstract-negative,abstract,concrete,B,NULL
1739283482,20ef0cdce26cbcc4b32c7c7320d2660c,PennController,38,0,test_conc,NULL,PennController,49,_Header_,Start,1739283083761,undefined,405,Regretful,abstract-negative,abstract,concrete,B,NULL
1739283482,20ef0cdce26cbcc4b32c7c7320d2660c,PennController,38,0,test_conc,NULL,PennController,49,_Header_,End,1739283084011,undefined,405,Regretful,abstract-negative,abstract,concrete,B,NULL
1739283482,20ef0cdce26cbcc4b32c7c7320d2660c,PennController,38,0,test_conc,NULL,Selector,unnamed-Selector,Selection,abstract,1739283084926,undefined,405,Regretful,abstract-negative,abstract,concrete,B,abstract;concrete
1739283482,20ef0cdce26cbcc4b32c7c7320d2660c,PennController,38,0,test_conc,NULL,PennController,49,_Trial_,End,1739283084927,undefined,405,Regretful,abstract-negative,abstract,concrete,B,NULL
1739283482,20ef0cdce26cbcc4b32c7c7320d2660c,PennController,31,0,test_conc,NULL,PennController,42,_Trial_,Start,1739283084928,undefined,342,Rotten,concrete-negative,abstract,concrete,B,NULL
1739283482,20ef0cdce26cbcc4b32c7c7320d2660c,PennController,31,0,test_conc,NULL,PennController,42,_Header_,Start,1739283084928,undefined,342,Rotten,concrete-negative,abstract,concrete,B,NULL
1739283482,20ef0cdce26cbcc4b32c7c7320d2660c,PennController,31,0,test_conc,NULL,PennController,42,_Header_,End,1739283085190,undefined,342,Rotten,concrete-negative,abstract,concrete,B,NULL
1739283482,20ef0cdce26cbcc4b32c7c7320d2660c,PennController,31,0,test_conc,NULL,Selector,unnamed-Selector,Selection,abstract,1739283086046,undefined,342,Rotten,concrete-negative,abstract,concrete,B,abstract;concrete
1739283482,20ef0cdce26cbcc4b32c7c7320d2660c,PennController,31,0,test_conc,NULL,PennController,42,_Trial_,End,1739283086046,undefined,342,Rotten,concrete-negative,abstract,concrete,B,NULL
1739283482,20ef0cdce26cbcc4b32c7c7320d2660c,PennController,16,0,test_conc,NULL,PennController,27,_Trial_,Start,1739283086047,undefined,298,Grateful,abstract-positive,abstract,concrete,B,NULL
1739283482,20ef0cdce26cbcc4b32c7c7320d2660c,PennController,16,0,test_conc,NULL,PennController,27,_Header_,Start,1739283086047,undefined,298,Grateful,abstract-positive,abstract,concrete,B,NULL
1739283482,20ef0cdce26cbcc4b32c7c7320d2660c,PennController,16,0,test_conc,NULL,PennController,27,_Header_,End,1739283086308,undefined,298,Grateful,abstract-positive,abstract,concrete,B,NULL
1739283482,20ef0cdce26cbcc4b32c7c7320d2660c,PennController,16,0,test_conc,NULL,Selector,unnamed-Selector,Selection,abstract,1739283087119,undefined,298,Grateful,abstract-positive,abstract,concrete,B,abstract;concrete
1739283482,20ef0cdce26cbcc4b32c7c7320d2660c,PennController,16,0,test_conc,NULL,PennController,27,_Trial_,End,1739283087120,undefined,298,Grateful,abstract-positive,abstract,concrete,B,NULL
1739283482,20ef0cdce26cbcc4b32c7c7320d2660c,PennController,25,0,test_conc,NULL,PennController,36,_Trial_,Start,1739283087121,undefined,431,Sticky,concrete-negative,abstract,concrete,B,NULL
1739283482,20ef0cdce26cbcc4b32c7c7320d2660c,PennController,25,0,test_conc,NULL,PennController,36,_Header_,Start,1739283087121,undefined,431,Sticky,concrete-negative,abstract,concrete,B,NULL
1739283482,20ef0cdce26cbcc4b32c7c7320d2660c,PennController,25,0,test_conc,NULL,PennController,36,_Header_,End,1739283087378,undefined,431,Sticky,concrete-negative,abstract,concrete,B,NULL
1739283482,20ef0cdce26cbcc4b32c7c7320d2660c,PennController,25,0,test_conc,NULL,Selector,unnamed-Selector,Selection,abstract,1739283088318,undefined,431,Sticky,concrete-negative,abstract,concrete,B,abstract;concrete
1739283482,20ef0cdce26cbcc4b32c7c7320d2660c,PennController,25,0,test_conc,NULL,PennController,36,_Trial_,End,1739283088321,undefined,431,Sticky,concrete-negative,abstract,concrete,B,NULL
1739283482,20ef0cdce26cbcc4b32c7c7320d2660c,PennController,33,0,test_conc,NULL,PennController,44,_Trial_,Start,1739283088321,undefined,337,Bitter,concrete-negative,abstract,concrete,B,NULL
1739283482,20ef0cdce26cbcc4b32c7c7320d2660c,PennController,33,0,test_conc,NULL,PennController,44,_Header_,Start,1739283088321,undefined,337,Bitter,concrete-negative,abstract,concrete,B,NULL
1739283482,20ef0cdce26cbcc4b32c7c7320d2660c,PennController,33,0,test_conc,NULL,PennController,44,_Header_,End,1739283088575,undefined,337,Bitter,concrete-negative,abstract,concrete,B,NULL
1739283482,20ef0cdce26cbcc4b32c7c7320d2660c,PennController,33,0,test_conc,NULL,Selector,unnamed-Selector,Selection,abstract,1739283089423,undefined,337,Bitter,concrete-negative,abstract,concrete,B,abstract;concrete
1739283482,20ef0cdce26cbcc4b32c7c7320d2660c,PennController,33,0,test_conc,NULL,PennController,44,_Trial_,End,1739283089425,undefined,337,Bitter,concrete-negative,abstract,concrete,B,NULL
1739283482,20ef0cdce26cbcc4b32c7c7320d2660c,PennController,18,0,test_conc,NULL,PennController,29,_Trial_,Start,1739283089426,undefined,393,Joyful,abstract-positive,abstract,concrete,B,NULL
1739283482,20ef0cdce26cbcc4b32c7c7320d2660c,PennController,18,0,test_conc,NULL,PennController,29,_Header_,Start,1739283089426,undefined,393,Joyful,abstract-positive,abstract,concrete,B,NULL
1739283482,20ef0cdce26cbcc4b32c7c7320d2660c,PennController,18,0,test_conc,NULL,PennController,29,_Header_,End,1739283089682,undefined,393,Joyful,abstract-positive,abstract,concrete,B,NULL
1739283482,20ef0cdce26cbcc4b32c7c7320d2660c,PennController,18,0,test_conc,NULL,Selector,unnamed-Selector,Selection,abstract,1739283090591,undefined,393,Joyful,abstract-positive,abstract,concrete,B,abstract;concrete
1739283482,20ef0cdce26cbcc4b32c7c7320d2660c,PennController,18,0,test_conc,NULL,PennController,29,_Trial_,End,1739283090592,undefined,393,Joyful,abstract-positive,abstract,concrete,B,NULL
1739283482,20ef0cdce26cbcc4b32c7c7320d2660c,PennController,14,0,test_conc,NULL,PennController,25,_Trial_,Start,1739283090593,undefined,346,Hopeful,abstract-positive,abstract,concrete,B,NULL
1739283482,20ef0cdce26cbcc4b32c7c7320d2660c,PennController,14,0,test_conc,NULL,PennController,25,_Header_,Start,1739283090593,undefined,346,Hopeful,abstract-positive,abstract,concrete,B,NULL
1739283482,20ef0cdce26cbcc4b32c7c7320d2660c,PennController,14,0,test_conc,NULL,PennController,25,_Header_,End,1739283090851,undefined,346,Hopeful,abstract-positive,abstract,concrete,B,NULL
1739283482,20ef0cdce26cbcc4b32c7c7320d2660c,PennController,14,0,test_conc,NULL,Selector,unnamed-Selector,Selection,abstract,1739283091710,undefined,346,Hopeful,abstract-positive,abstract,concrete,B,abstract;concrete
1739283482,20ef0cdce26cbcc4b32c7c7320d2660c,PennController,14,0,test_conc,NULL,PennController,25,_Trial_,End,1739283091710,undefined,346,Hopeful,abstract-positive,abstract,concrete,B,NULL
1739283482,20ef0cdce26cbcc4b32c7c7320d2660c,PennController,22,0,test_conc,NULL,PennController,33,_Trial_,Start,1739283091711,undefined,346,Harmonious,abstract-positive,abstract,concrete,B,NULL
1739283482,20ef0cdce26cbcc4b32c7c7320d2660c,PennController,22,0,test_conc,NULL,PennController,33,_Header_,Start,1739283091711,undefined,346,Harmonious,abstract-positive,abstract,concrete,B,NULL
1739283482,20ef0cdce26cbcc4b32c7c7320d2660c,PennController,22,0,test_conc,NULL,PennController,33,_Header_,End,1739283091972,undefined,346,Harmonious,abstract-positive,abstract,concrete,B,NULL
1739283482,20ef0cdce26cbcc4b32c7c7320d2660c,PennController,22,0,test_conc,NULL,Selector,unnamed-Selector,Selection,abstract,1739283092830,undefined,346,Harmonious,abstract-positive,abstract,concrete,B,abstract;concrete
1739283482,20ef0cdce26cbcc4b32c7c7320d2660c,PennController,22,0,test_conc,NULL,PennController,33,_Trial_,End,1739283092831,undefined,346,Harmonious,abstract-positive,abstract,concrete,B,NULL
1739283482,20ef0cdce26cbcc4b32c7c7320d2660c,PennController,30,0,test_conc,NULL,PennController,41,_Trial_,Start,1739283092832,undefined,393,Noisy,concrete-negative,abstract,concrete,B,NULL
1739283482,20ef0cdce26cbcc4b32c7c7320d2660c,PennController,30,0,test_conc,NULL,PennController,41,_Header_,Start,1739283092832,undefined,393,Noisy,concrete-negative,abstract,concrete,B,NULL
1739283482,20ef0cdce26cbcc4b32c7c7320d2660c,PennController,30,0,test_conc,NULL,PennController,41,_Header_,End,1739283093091,undefined,393,Noisy,concrete-negative,abstract,concrete,B,NULL
1739283482,20ef0cdce26cbcc4b32c7c7320d2660c,PennController,30,0,test_conc,NULL,Selector,unnamed-Selector,Selection,abstract,1739283093998,undefined,393,Noisy,concrete-negative,abstract,concrete,B,abstract;concrete
1739283482,20ef0cdce26cbcc4b32c7c7320d2660c,PennController,30,0,test_conc,NULL,PennController,41,_Trial_,End,1739283093999,undefined,393,Noisy,concrete-negative,abstract,concrete,B,NULL
1739283482,20ef0cdce26cbcc4b32c7c7320d2660c,PennController,20,0,test_conc,NULL,PennController,31,_Trial_,Start,1739283094000,undefined,347,Inspiring,abstract-positive,abstract,concrete,B,NULL
1739283482,20ef0cdce26cbcc4b32c7c7320d2660c,PennController,20,0,test_conc,NULL,PennController,31,_Header_,Start,1739283094000,undefined,347,Inspiring,abstract-positive,abstract,concrete,B,NULL
1739283482,20ef0cdce26cbcc4b32c7c7320d2660c,PennController,20,0,test_conc,NULL,PennController,31,_Header_,End,1739283094256,undefined,347,Inspiring,abstract-positive,abstract,concrete,B,NULL
1739283482,20ef0cdce26cbcc4b32c7c7320d2660c,PennController,20,0,test_conc,NULL,Selector,unnamed-Selector,Selection,abstract,1739283095118,undefined,347,Inspiring,abstract-positive,abstract,concrete,B,abstract;concrete
1739283482,20ef0cdce26cbcc4b32c7c7320d2660c,PennController,20,0,test_conc,NULL,PennController,31,_Trial_,End,1739283095119,undefined,347,Inspiring,abstract-positive,abstract,concrete,B,NULL
1739283482,20ef0cdce26cbcc4b32c7c7320d2660c,PennController,43,0,test_conc,NULL,PennController,54,_Trial_,Start,1739283095121,undefined,383,Despairing,abstract-negative,abstract,concrete,B,NULL
1739283482,20ef0cdce26cbcc4b32c7c7320d2660c,PennController,43,0,test_conc,NULL,PennController,54,_Header_,Start,1739283095121,undefined,383,Despairing,abstract-negative,abstract,concrete,B,NULL
1739283482,20ef0cdce26cbcc4b32c7c7320d2660c,PennController,43,0,test_conc,NULL,PennController,54,_Header_,End,1739283095378,undefined,383,Despairing,abstract-negative,abstract,concrete,B,NULL
1739283482,20ef0cdce26cbcc4b32c7c7320d2660c,PennController,43,0,test_conc,NULL,Selector,unnamed-Selector,Selection,abstract,1739283096271,undefined,383,Despairing,abstract-negative,abstract,concrete,B,abstract;concrete
1739283482,20ef0cdce26cbcc4b32c7c7320d2660c,PennController,43,0,test_conc,NULL,PennController,54,_Trial_,End,1739283096273,undefined,383,Despairing,abstract-negative,abstract,concrete,B,NULL
1739283482,20ef0cdce26cbcc4b32c7c7320d2660c,PennController,34,0,test_conc,NULL,PennController,45,_Trial_,Start,1739283096274,undefined,354,Hopeless,abstract-negative,abstract,concrete,B,NULL
1739283482,20ef0cdce26cbcc4b32c7c7320d2660c,PennController,34,0,test_conc,NULL,PennController,45,_Header_,Start,1739283096274,undefined,354,Hopeless,abstract-negative,abstract,concrete,B,NULL
1739283482,20ef0cdce26cbcc4b32c7c7320d2660c,PennController,34,0,test_conc,NULL,PennController,45,_Header_,End,1739283096527,undefined,354,Hopeless,abstract-negative,abstract,concrete,B,NULL
1739283482,20ef0cdce26cbcc4b32c7c7320d2660c,PennController,34,0,test_conc,NULL,Selector,unnamed-Selector,Selection,abstract,1739283097390,undefined,354,Hopeless,abstract-negative,abstract,concrete,B,abstract;concrete
1739283482,20ef0cdce26cbcc4b32c7c7320d2660c,PennController,34,0,test_conc,NULL,PennController,45,_Trial_,End,1739283097392,undefined,354,Hopeless,abstract-negative,abstract,concrete,B,NULL
1739283482,20ef0cdce26cbcc4b32c7c7320d2660c,PennController,37,0,test_conc,NULL,PennController,48,_Trial_,Start,1739283097393,undefined,342,Lonely,abstract-negative,abstract,concrete,B,NULL
1739283482,20ef0cdce26cbcc4b32c7c7320d2660c,PennController,37,0,test_conc,NULL,PennController,48,_Header_,Start,1739283097393,undefined,342,Lonely,abstract-negative,abstract,concrete,B,NULL
1739283482,20ef0cdce26cbcc4b32c7c7320d2660c,PennController,37,0,test_conc,NULL,PennController,48,_Header_,End,1739283097659,undefined,342,Lonely,abstract-negative,abstract,concrete,B,NULL
1739283482,20ef0cdce26cbcc4b32c7c7320d2660c,PennController,37,0,test_conc,NULL,Selector,unnamed-Selector,Selection,abstract,1739283098511,undefined,342,Lonely,abstract-negative,abstract,concrete,B,abstract;concrete
1739283482,20ef0cdce26cbcc4b32c7c7320d2660c,PennController,37,0,test_conc,NULL,PennController,48,_Trial_,End,1739283098512,undefined,342,Lonely,abstract-negative,abstract,concrete,B,NULL
1739283482,20ef0cdce26cbcc4b32c7c7320d2660c,PennController,40,0,test_conc,NULL,PennController,51,_Trial_,Start,1739283098513,undefined,342,Bitter,abstract-negative,abstract,concrete,B,NULL
1739283482,20ef0cdce26cbcc4b32c7c7320d2660c,PennController,40,0,test_conc,NULL,PennController,51,_Header_,Start,1739283098513,undefined,342,Bitter,abstract-negative,abstract,concrete,B,NULL
1739283482,20ef0cdce26cbcc4b32c7c7320d2660c,PennController,40,0,test_conc,NULL,PennController,51,_Header_,End,1739283098777,undefined,342,Bitter,abstract-negative,abstract,concrete,B,NULL
1739283482,20ef0cdce26cbcc4b32c7c7320d2660c,PennController,40,0,test_conc,NULL,Selector,unnamed-Selector,Selection,abstract,1739283099631,undefined,342,Bitter,abstract-negative,abstract,concrete,B,abstract;concrete
1739283482,20ef0cdce26cbcc4b32c7c7320d2660c,PennController,40,0,test_conc,NULL,PennController,51,_Trial_,End,1739283099632,undefined,342,Bitter,abstract-negative,abstract,concrete,B,NULL
1739283482,20ef0cdce26cbcc4b32c7c7320d2660c,PennController,10,0,test_conc,NULL,PennController,21,_Trial_,Start,1739283099633,undefined,346,Colorful,concrete-positive,abstract,concrete,B,NULL
1739283482,20ef0cdce26cbcc4b32c7c7320d2660c,PennController,10,0,test_conc,NULL,PennController,21,_Header_,Start,1739283099633,undefined,346,Colorful,concrete-positive,abstract,concrete,B,NULL
1739283482,20ef0cdce26cbcc4b32c7c7320d2660c,PennController,10,0,test_conc,NULL,PennController,21,_Header_,End,1739283099893,undefined,346,Colorful,concrete-positive,abstract,concrete,B,NULL
1739283482,20ef0cdce26cbcc4b32c7c7320d2660c,PennController,10,0,test_conc,NULL,Selector,unnamed-Selector,Selection,abstract,1739283100751,undefined,346,Colorful,concrete-positive,abstract,concrete,B,abstract;concrete
1739283482,20ef0cdce26cbcc4b32c7c7320d2660c,PennController,10,0,test_conc,NULL,PennController,21,_Trial_,End,1739283100753,undefined,346,Colorful,concrete-positive,abstract,concrete,B,NULL
1739283482,20ef0cdce26cbcc4b32c7c7320d2660c,PennController,35,0,test_conc,NULL,PennController,46,_Trial_,Start,1739283100753,undefined,345,Worthless,abstract-negative,abstract,concrete,B,NULL
1739283482,20ef0cdce26cbcc4b32c7c7320d2660c,PennController,35,0,test_conc,NULL,PennController,46,_Header_,Start,1739283100753,undefined,345,Worthless,abstract-negative,abstract,concrete,B,NULL
1739283482,20ef0cdce26cbcc4b32c7c7320d2660c,PennController,35,0,test_conc,NULL,PennController,46,_Header_,End,1739283101012,undefined,345,Worthless,abstract-negative,abstract,concrete,B,NULL
1739283482,20ef0cdce26cbcc4b32c7c7320d2660c,PennController,35,0,test_conc,NULL,Selector,unnamed-Selector,Selection,abstract,1739283101870,undefined,345,Worthless,abstract-negative,abstract,concrete,B,abstract;concrete
1739283482,20ef0cdce26cbcc4b32c7c7320d2660c,PennController,35,0,test_conc,NULL,PennController,46,_Trial_,End,1739283101871,undefined,345,Worthless,abstract-negative,abstract,concrete,B,NULL
1739283482,20ef0cdce26cbcc4b32c7c7320d2660c,PennController,6,0,test_conc,NULL,PennController,17,_Trial_,Start,1739283101871,undefined,332,Soft,concrete-positive,abstract,concrete,B,NULL
1739283482,20ef0cdce26cbcc4b32c7c7320d2660c,PennController,6,0,test_conc,NULL,PennController,17,_Header_,Start,1739283101871,undefined,332,Soft,concrete-positive,abstract,concrete,B,NULL
1739283482,20ef0cdce26cbcc4b32c7c7320d2660c,PennController,6,0,test_conc,NULL,PennController,17,_Header_,End,1739283102133,undefined,332,Soft,concrete-positive,abstract,concrete,B,NULL
1739283482,20ef0cdce26cbcc4b32c7c7320d2660c,PennController,6,0,test_conc,NULL,Selector,unnamed-Selector,Selection,abstract,1739283102975,undefined,332,Soft,concrete-positive,abstract,concrete,B,abstract;concrete
