#
# Results on Tue, 11 Feb 2025 12:22:15 GMT
# USER AGENT: Mozilla/5.0 (Windows NT 10.0; Win64; x64) AppleWebKit/537.36 (KHTML, like Gecko) Chrome/132.0.0.0 Safari/537.36
# Design number was non-random = 0
#
# Columns below this comment are as follows:
# 1. Results reception time.
# 2. MD5 hash of participant's IP address.
# 3. Controller name.
# 4. Order number of item.
# 5. Inner element number.
# 6. Label.
# 7. Latin Square Group.
# 8. PennElementType.
# 9. PennElementName.
# 10. Parameter.
# 11. Value.
# 12. EventTime.
# 13. Comments.
1739276535,4c07c5105cac580780e52ddef8472862,PennController,1,0,welcome,NULL,PennController,0,_Trial_,Start,1739275626843,NULL
1739276535,4c07c5105cac580780e52ddef8472862,PennController,1,0,welcome,NULL,PennController,0,_Header_,Start,1739275626843,NULL
1739276535,4c07c5105cac580780e52ddef8472862,PennController,1,0,welcome,NULL,PennController,0,_Header_,End,1739275627095,NULL
1739276535,4c07c5105cac580780e52ddef8472862,PennController,1,0,welcome,NULL,PennController,0,_Trial_,End,1739275656922,NULL
# 13. ID.
# 14. Comments.
1739276535,4c07c5105cac580780e52ddef8472862,PennController,124,0,consent,NULL,PennController,2,_Trial_,Start,1739275656925,55132578fdf99b1b0568bdb8,NULL
1739276535,4c07c5105cac580780e52ddef8472862,PennController,124,0,consent,NULL,PennController,2,_Header_,Start,1739275656925,55132578fdf99b1b0568bdb8,NULL
1739276535,4c07c5105cac580780e52ddef8472862,PennController,124,0,consent,NULL,PennController,2,_Header_,End,1739275657178,55132578fdf99b1b0568bdb8,NULL
1739276535,4c07c5105cac580780e52ddef8472862,PennController,124,0,consent,NULL,TextInput,ID,Final,55132578fdf99b1b0568bdb8,1739275671713,55132578fdf99b1b0568bdb8,NULL
1739276535,4c07c5105cac580780e52ddef8472862,PennController,124,0,consent,NULL,TextInput,ID,First,,1739275668341,55132578fdf99b1b0568bdb8,Control
1739276535,4c07c5105cac580780e52ddef8472862,PennController,124,0,consent,NULL,PennController,2,_Trial_,End,1739275671715,55132578fdf99b1b0568bdb8,NULL
# 13. Comments.
1739276535,4c07c5105cac580780e52ddef8472862,PennController,126,0,instructions1_conc,NULL,PennController,4,_Trial_,Start,1739275671716,NULL
1739276535,4c07c5105cac580780e52ddef8472862,PennController,126,0,instructions1_conc,NULL,PennController,4,_Header_,Start,1739275671716,NULL
1739276535,4c07c5105cac580780e52ddef8472862,PennController,126,0,instructions1_conc,NULL,PennController,4,_Header_,End,1739275671966,NULL
1739276535,4c07c5105cac580780e52ddef8472862,PennController,126,0,instructions1_conc,NULL,PennController,4,_Trial_,End,1739275685441,NULL
1739276535,4c07c5105cac580780e52ddef8472862,PennController,127,0,instructions2_conc,NULL,PennController,5,_Trial_,Start,1739275685441,NULL
1739276535,4c07c5105cac580780e52ddef8472862,PennController,127,0,instructions2_conc,NULL,PennController,5,_Header_,Start,1739275685441,NULL
1739276535,4c07c5105cac580780e52ddef8472862,PennController,127,0,instructions2_conc,NULL,PennController,5,_Header_,End,1739275685693,NULL
1739276535,4c07c5105cac580780e52ddef8472862,PennController,127,0,instructions2_conc,NULL,PennController,5,_Trial_,End,1739275688147,NULL
1739276535,4c07c5105cac580780e52ddef8472862,PennController,134,0,instructions3_hands,NULL,PennController,12,_Trial_,Start,1739275688148,NULL
1739276535,4c07c5105cac580780e52ddef8472862,PennController,134,0,instructions3_hands,NULL,PennController,12,_Header_,Start,1739275688148,NULL
1739276535,4c07c5105cac580780e52ddef8472862,PennController,134,0,instructions3_hands,NULL,PennController,12,_Header_,End,1739275688402,NULL
1739276535,4c07c5105cac580780e52ddef8472862,PennController,134,0,instructions3_hands,NULL,PennController,12,_Trial_,End,1739275693799,NULL
1739276535,4c07c5105cac580780e52ddef8472862,PennController,129,0,practice_intro_conc,NULL,PennController,7,_Trial_,Start,1739275693802,NULL
1739276535,4c07c5105cac580780e52ddef8472862,PennController,129,0,practice_intro_conc,NULL,PennController,7,_Header_,Start,1739275693802,NULL
1739276535,4c07c5105cac580780e52ddef8472862,PennController,129,0,practice_intro_conc,NULL,PennController,7,_Header_,End,1739275694053,NULL
1739276535,4c07c5105cac580780e52ddef8472862,PennController,129,0,practice_intro_conc,NULL,PennController,7,_Trial_,End,1739275695205,NULL
# 13. ID.
# 14. ReactionTime.
# 15. Word.
# 16. selectedKey.
# 17. selectedValue.
# 18. Key_value_F.
# 19. Key_value_J.
# 20. Group.
# 21. Comments.
1739276535,4c07c5105cac580780e52ddef8472862,PennController,85,0,calibrator_conc_feedback,NULL,PennController,96,_Trial_,Start,1739275695207,undefined,1090,grasshopper,undefined,abstract,concrete,abstract,A,NULL
1739276535,4c07c5105cac580780e52ddef8472862,PennController,85,0,calibrator_conc_feedback,NULL,PennController,96,_Header_,Start,1739275695207,undefined,1090,grasshopper,undefined,abstract,concrete,abstract,A,NULL
1739276535,4c07c5105cac580780e52ddef8472862,PennController,85,0,calibrator_conc_feedback,NULL,PennController,96,_Header_,End,1739275695460,undefined,1090,grasshopper,undefined,abstract,concrete,abstract,A,NULL
1739276535,4c07c5105cac580780e52ddef8472862,PennController,85,0,calibrator_conc_feedback,NULL,Selector,Selection,Selection,concrete,1739275698963,undefined,1090,grasshopper,undefined,abstract,concrete,abstract,A,concrete;abstract
1739276535,4c07c5105cac580780e52ddef8472862,PennController,85,0,calibrator_conc_feedback,NULL,PennController,96,_Trial_,End,1739275699066,undefined,1090,grasshopper,undefined,abstract,concrete,abstract,A,NULL
1739276535,4c07c5105cac580780e52ddef8472862,PennController,84,0,calibrator_conc_feedback,NULL,PennController,95,_Trial_,Start,1739275699068,undefined,880,gas,undefined,abstract,concrete,abstract,A,NULL
1739276535,4c07c5105cac580780e52ddef8472862,PennController,84,0,calibrator_conc_feedback,NULL,PennController,95,_Header_,Start,1739275699068,undefined,880,gas,undefined,abstract,concrete,abstract,A,NULL
1739276535,4c07c5105cac580780e52ddef8472862,PennController,84,0,calibrator_conc_feedback,NULL,PennController,95,_Header_,End,1739275699321,undefined,880,gas,undefined,abstract,concrete,abstract,A,NULL
1739276535,4c07c5105cac580780e52ddef8472862,PennController,84,0,calibrator_conc_feedback,NULL,Selector,Selection,Selection,concrete,1739275701748,undefined,880,gas,undefined,abstract,concrete,abstract,A,concrete;abstract
1739276535,4c07c5105cac580780e52ddef8472862,PennController,84,0,calibrator_conc_feedback,NULL,PennController,95,_Trial_,End,1739275702714,undefined,880,gas,undefined,abstract,concrete,abstract,A,NULL
1739276535,4c07c5105cac580780e52ddef8472862,PennController,86,0,calibrator_conc_feedback,NULL,PennController,97,_Trial_,Start,1739275702715,undefined,1080,kick,undefined,abstract,concrete,abstract,A,NULL
1739276535,4c07c5105cac580780e52ddef8472862,PennController,86,0,calibrator_conc_feedback,NULL,PennController,97,_Header_,Start,1739275702715,undefined,1080,kick,undefined,abstract,concrete,abstract,A,NULL
1739276535,4c07c5105cac580780e52ddef8472862,PennController,86,0,calibrator_conc_feedback,NULL,PennController,97,_Header_,End,1739275702969,undefined,1080,kick,undefined,abstract,concrete,abstract,A,NULL
1739276535,4c07c5105cac580780e52ddef8472862,PennController,86,0,calibrator_conc_feedback,NULL,Selector,Selection,Selection,abstract,1739275704557,undefined,1080,kick,undefined,abstract,concrete,abstract,A,concrete;abstract
1739276535,4c07c5105cac580780e52ddef8472862,PennController,86,0,calibrator_conc_feedback,NULL,PennController,97,_Trial_,End,1739275706561,undefined,1080,kick,undefined,abstract,concrete,abstract,A,NULL
1739276535,4c07c5105cac580780e52ddef8472862,PennController,88,0,calibrator_conc_feedback,NULL,PennController,99,_Trial_,Start,1739275706563,undefined,1846,polite,undefined,abstract,concrete,abstract,A,NULL
1739276535,4c07c5105cac580780e52ddef8472862,PennController,88,0,calibrator_conc_feedback,NULL,PennController,99,_Header_,Start,1739275706563,undefined,1846,polite,undefined,abstract,concrete,abstract,A,NULL
1739276535,4c07c5105cac580780e52ddef8472862,PennController,88,0,calibrator_conc_feedback,NULL,PennController,99,_Header_,End,1739275706815,undefined,1846,polite,undefined,abstract,concrete,abstract,A,NULL
1739276535,4c07c5105cac580780e52ddef8472862,PennController,88,0,calibrator_conc_feedback,NULL,Selector,Selection,Selection,abstract,1739275709166,undefined,1846,polite,undefined,abstract,concrete,abstract,A,concrete;abstract
1739276535,4c07c5105cac580780e52ddef8472862,PennController,88,0,calibrator_conc_feedback,NULL,PennController,99,_Trial_,End,1739275711174,undefined,1846,polite,undefined,abstract,concrete,abstract,A,NULL
1739276535,4c07c5105cac580780e52ddef8472862,PennController,91,0,calibrator_conc_feedback,NULL,PennController,102,_Trial_,Start,1739275711176,undefined,1026,theory,undefined,abstract,concrete,abstract,A,NULL
1739276535,4c07c5105cac580780e52ddef8472862,PennController,91,0,calibrator_conc_feedback,NULL,PennController,102,_Header_,Start,1739275711176,undefined,1026,theory,undefined,abstract,concrete,abstract,A,NULL
1739276535,4c07c5105cac580780e52ddef8472862,PennController,91,0,calibrator_conc_feedback,NULL,PennController,102,_Header_,End,1739275711427,undefined,1026,theory,undefined,abstract,concrete,abstract,A,NULL
1739276535,4c07c5105cac580780e52ddef8472862,PennController,91,0,calibrator_conc_feedback,NULL,Selector,Selection,Selection,abstract,1739275712958,undefined,1026,theory,undefined,abstract,concrete,abstract,A,concrete;abstract
1739276535,4c07c5105cac580780e52ddef8472862,PennController,91,0,calibrator_conc_feedback,NULL,PennController,102,_Trial_,End,1739275714963,undefined,1026,theory,undefined,abstract,concrete,abstract,A,NULL
1739276535,4c07c5105cac580780e52ddef8472862,PennController,87,0,calibrator_conc_feedback,NULL,PennController,98,_Trial_,Start,1739275714965,undefined,1339,marriage,undefined,abstract,concrete,abstract,A,NULL
1739276535,4c07c5105cac580780e52ddef8472862,PennController,87,0,calibrator_conc_feedback,NULL,PennController,98,_Header_,Start,1739275714965,undefined,1339,marriage,undefined,abstract,concrete,abstract,A,NULL
1739276535,4c07c5105cac580780e52ddef8472862,PennController,87,0,calibrator_conc_feedback,NULL,PennController,98,_Header_,End,1739275715218,undefined,1339,marriage,undefined,abstract,concrete,abstract,A,NULL
1739276535,4c07c5105cac580780e52ddef8472862,PennController,87,0,calibrator_conc_feedback,NULL,Selector,Selection,Selection,abstract,1739275717060,undefined,1339,marriage,undefined,abstract,concrete,abstract,A,concrete;abstract
1739276535,4c07c5105cac580780e52ddef8472862,PennController,87,0,calibrator_conc_feedback,NULL,PennController,98,_Trial_,End,1739275719067,undefined,1339,marriage,undefined,abstract,concrete,abstract,A,NULL
1739276535,4c07c5105cac580780e52ddef8472862,PennController,89,0,calibrator_conc_feedback,NULL,PennController,100,_Trial_,Start,1739275719068,undefined,867,shirt,undefined,abstract,concrete,abstract,A,NULL
1739276535,4c07c5105cac580780e52ddef8472862,PennController,89,0,calibrator_conc_feedback,NULL,PennController,100,_Header_,Start,1739275719068,undefined,867,shirt,undefined,abstract,concrete,abstract,A,NULL
1739276535,4c07c5105cac580780e52ddef8472862,PennController,89,0,calibrator_conc_feedback,NULL,PennController,100,_Header_,End,1739275719322,undefined,867,shirt,undefined,abstract,concrete,abstract,A,NULL
1739276535,4c07c5105cac580780e52ddef8472862,PennController,89,0,calibrator_conc_feedback,NULL,Selector,Selection,Selection,concrete,1739275720693,undefined,867,shirt,undefined,abstract,concrete,abstract,A,concrete;abstract
1739276535,4c07c5105cac580780e52ddef8472862,PennController,89,0,calibrator_conc_feedback,NULL,PennController,100,_Trial_,End,1739275722699,undefined,867,shirt,undefined,abstract,concrete,abstract,A,NULL
1739276535,4c07c5105cac580780e52ddef8472862,PennController,90,0,calibrator_conc_feedback,NULL,PennController,101,_Trial_,Start,1739275722700,undefined,1079,sugar,undefined,abstract,concrete,abstract,A,NULL
1739276535,4c07c5105cac580780e52ddef8472862,PennController,90,0,calibrator_conc_feedback,NULL,PennController,101,_Header_,Start,1739275722700,undefined,1079,sugar,undefined,abstract,concrete,abstract,A,NULL
1739276535,4c07c5105cac580780e52ddef8472862,PennController,90,0,calibrator_conc_feedback,NULL,PennController,101,_Header_,End,1739275722954,undefined,1079,sugar,undefined,abstract,concrete,abstract,A,NULL
1739276535,4c07c5105cac580780e52ddef8472862,PennController,90,0,calibrator_conc_feedback,NULL,Selector,Selection,Selection,concrete,1739275724535,undefined,1079,sugar,undefined,abstract,concrete,abstract,A,concrete;abstract
1739276535,4c07c5105cac580780e52ddef8472862,PennController,90,0,calibrator_conc_feedback,NULL,PennController,101,_Trial_,End,1739275726542,undefined,1079,sugar,undefined,abstract,concrete,abstract,A,NULL
1739276535,4c07c5105cac580780e52ddef8472862,PennController,93,0,calibrator_conc_feedback,NULL,PennController,104,_Trial_,Start,1739275726543,undefined,1069,insecure,undefined,abstract,concrete,abstract,A,NULL
1739276535,4c07c5105cac580780e52ddef8472862,PennController,93,0,calibrator_conc_feedback,NULL,PennController,104,_Header_,Start,1739275726543,undefined,1069,insecure,undefined,abstract,concrete,abstract,A,NULL
1739276535,4c07c5105cac580780e52ddef8472862,PennController,93,0,calibrator_conc_feedback,NULL,PennController,104,_Header_,End,1739275726796,undefined,1069,insecure,undefined,abstract,concrete,abstract,A,NULL
1739276535,4c07c5105cac580780e52ddef8472862,PennController,93,0,calibrator_conc_feedback,NULL,Selector,Selection,Selection,abstract,1739275728370,undefined,1069,insecure,undefined,abstract,concrete,abstract,A,concrete;abstract
1739276535,4c07c5105cac580780e52ddef8472862,PennController,93,0,calibrator_conc_feedback,NULL,PennController,104,_Trial_,End,1739275730377,undefined,1069,insecure,undefined,abstract,concrete,abstract,A,NULL
1739276535,4c07c5105cac580780e52ddef8472862,PennController,92,0,calibrator_conc_feedback,NULL,PennController,103,_Trial_,Start,1739275730379,undefined,1561,whistle,undefined,abstract,concrete,abstract,A,NULL
1739276535,4c07c5105cac580780e52ddef8472862,PennController,92,0,calibrator_conc_feedback,NULL,PennController,103,_Header_,Start,1739275730379,undefined,1561,whistle,undefined,abstract,concrete,abstract,A,NULL
1739276535,4c07c5105cac580780e52ddef8472862,PennController,92,0,calibrator_conc_feedback,NULL,PennController,103,_Header_,End,1739275730633,undefined,1561,whistle,undefined,abstract,concrete,abstract,A,NULL
1739276535,4c07c5105cac580780e52ddef8472862,PennController,92,0,calibrator_conc_feedback,NULL,Selector,Selection,Selection,abstract,1739275732700,undefined,1561,whistle,undefined,abstract,concrete,abstract,A,concrete;abstract
1739276535,4c07c5105cac580780e52ddef8472862,PennController,92,0,calibrator_conc_feedback,NULL,PennController,103,_Trial_,End,1739275734704,undefined,1561,whistle,undefined,abstract,concrete,abstract,A,NULL
# 16. Key_value_F.
# 17. Key_value_J.
# 18. Group.
# 19. Comments.
1739276535,4c07c5105cac580780e52ddef8472862,PennController,94,0,calibrator_conc_no_feedback,NULL,PennController,105,_Trial_,Start,1739275734706,undefined,1849,gas,concrete,abstract,A,NULL
1739276535,4c07c5105cac580780e52ddef8472862,PennController,94,0,calibrator_conc_no_feedback,NULL,PennController,105,_Header_,Start,1739275734706,undefined,1849,gas,concrete,abstract,A,NULL
1739276535,4c07c5105cac580780e52ddef8472862,PennController,94,0,calibrator_conc_no_feedback,NULL,PennController,105,_Header_,End,1739275734961,undefined,1849,gas,concrete,abstract,A,NULL
1739276535,4c07c5105cac580780e52ddef8472862,PennController,94,0,calibrator_conc_no_feedback,NULL,Selector,unnamed-Selector,Selection,concrete,1739275737315,undefined,1849,gas,concrete,abstract,A,concrete;abstract
1739276535,4c07c5105cac580780e52ddef8472862,PennController,94,0,calibrator_conc_no_feedback,NULL,PennController,105,_Trial_,End,1739275737318,undefined,1849,gas,concrete,abstract,A,NULL
1739276535,4c07c5105cac580780e52ddef8472862,PennController,100,0,calibrator_conc_no_feedback,NULL,PennController,111,_Trial_,Start,1739275737320,undefined,1045,sugar,concrete,abstract,A,NULL
1739276535,4c07c5105cac580780e52ddef8472862,PennController,100,0,calibrator_conc_no_feedback,NULL,PennController,111,_Header_,Start,1739275737320,undefined,1045,sugar,concrete,abstract,A,NULL
1739276535,4c07c5105cac580780e52ddef8472862,PennController,100,0,calibrator_conc_no_feedback,NULL,PennController,111,_Header_,End,1739275737570,undefined,1045,sugar,concrete,abstract,A,NULL
1739276535,4c07c5105cac580780e52ddef8472862,PennController,100,0,calibrator_conc_no_feedback,NULL,Selector,unnamed-Selector,Selection,concrete,1739275739123,undefined,1045,sugar,concrete,abstract,A,concrete;abstract
1739276535,4c07c5105cac580780e52ddef8472862,PennController,100,0,calibrator_conc_no_feedback,NULL,PennController,111,_Trial_,End,1739275739125,undefined,1045,sugar,concrete,abstract,A,NULL
1739276535,4c07c5105cac580780e52ddef8472862,PennController,102,0,calibrator_conc_no_feedback,NULL,PennController,113,_Trial_,Start,1739275739126,undefined,1207,whistle,concrete,abstract,A,NULL
1739276535,4c07c5105cac580780e52ddef8472862,PennController,102,0,calibrator_conc_no_feedback,NULL,PennController,113,_Header_,Start,1739275739126,undefined,1207,whistle,concrete,abstract,A,NULL
1739276535,4c07c5105cac580780e52ddef8472862,PennController,102,0,calibrator_conc_no_feedback,NULL,PennController,113,_Header_,End,1739275739378,undefined,1207,whistle,concrete,abstract,A,NULL
1739276535,4c07c5105cac580780e52ddef8472862,PennController,102,0,calibrator_conc_no_feedback,NULL,Selector,unnamed-Selector,Selection,abstract,1739275741090,undefined,1207,whistle,concrete,abstract,A,concrete;abstract
1739276535,4c07c5105cac580780e52ddef8472862,PennController,102,0,calibrator_conc_no_feedback,NULL,PennController,113,_Trial_,End,1739275741092,undefined,1207,whistle,concrete,abstract,A,NULL
1739276535,4c07c5105cac580780e52ddef8472862,PennController,103,0,calibrator_conc_no_feedback,NULL,PennController,114,_Trial_,Start,1739275741093,undefined,934,insecure,concrete,abstract,A,NULL
1739276535,4c07c5105cac580780e52ddef8472862,PennController,103,0,calibrator_conc_no_feedback,NULL,PennController,114,_Header_,Start,1739275741093,undefined,934,insecure,concrete,abstract,A,NULL
1739276535,4c07c5105cac580780e52ddef8472862,PennController,103,0,calibrator_conc_no_feedback,NULL,PennController,114,_Header_,End,1739275741346,undefined,934,insecure,concrete,abstract,A,NULL
1739276535,4c07c5105cac580780e52ddef8472862,PennController,103,0,calibrator_conc_no_feedback,NULL,Selector,unnamed-Selector,Selection,abstract,1739275742785,undefined,934,insecure,concrete,abstract,A,concrete;abstract
1739276535,4c07c5105cac580780e52ddef8472862,PennController,103,0,calibrator_conc_no_feedback,NULL,PennController,114,_Trial_,End,1739275742787,undefined,934,insecure,concrete,abstract,A,NULL
1739276535,4c07c5105cac580780e52ddef8472862,PennController,101,0,calibrator_conc_no_feedback,NULL,PennController,112,_Trial_,Start,1739275742788,undefined,857,theory,concrete,abstract,A,NULL
1739276535,4c07c5105cac580780e52ddef8472862,PennController,101,0,calibrator_conc_no_feedback,NULL,PennController,112,_Header_,Start,1739275742788,undefined,857,theory,concrete,abstract,A,NULL
1739276535,4c07c5105cac580780e52ddef8472862,PennController,101,0,calibrator_conc_no_feedback,NULL,PennController,112,_Header_,End,1739275743042,undefined,857,theory,concrete,abstract,A,NULL
1739276535,4c07c5105cac580780e52ddef8472862,PennController,101,0,calibrator_conc_no_feedback,NULL,Selector,unnamed-Selector,Selection,abstract,1739275744404,undefined,857,theory,concrete,abstract,A,concrete;abstract
1739276535,4c07c5105cac580780e52ddef8472862,PennController,101,0,calibrator_conc_no_feedback,NULL,PennController,112,_Trial_,End,1739275744406,undefined,857,theory,concrete,abstract,A,NULL
1739276535,4c07c5105cac580780e52ddef8472862,PennController,97,0,calibrator_conc_no_feedback,NULL,PennController,108,_Trial_,Start,1739275744407,undefined,709,marriage,concrete,abstract,A,NULL
1739276535,4c07c5105cac580780e52ddef8472862,PennController,97,0,calibrator_conc_no_feedback,NULL,PennController,108,_Header_,Start,1739275744407,undefined,709,marriage,concrete,abstract,A,NULL
1739276535,4c07c5105cac580780e52ddef8472862,PennController,97,0,calibrator_conc_no_feedback,NULL,PennController,108,_Header_,End,1739275744660,undefined,709,marriage,concrete,abstract,A,NULL
1739276535,4c07c5105cac580780e52ddef8472862,PennController,97,0,calibrator_conc_no_feedback,NULL,Selector,unnamed-Selector,Selection,abstract,1739275745878,undefined,709,marriage,concrete,abstract,A,concrete;abstract
1739276535,4c07c5105cac580780e52ddef8472862,PennController,97,0,calibrator_conc_no_feedback,NULL,PennController,108,_Trial_,End,1739275745878,undefined,709,marriage,concrete,abstract,A,NULL
1739276535,4c07c5105cac580780e52ddef8472862,PennController,95,0,calibrator_conc_no_feedback,NULL,PennController,106,_Trial_,Start,1739275745879,undefined,602,grasshopper,concrete,abstract,A,NULL
1739276535,4c07c5105cac580780e52ddef8472862,PennController,95,0,calibrator_conc_no_feedback,NULL,PennController,106,_Header_,Start,1739275745879,undefined,602,grasshopper,concrete,abstract,A,NULL
1739276535,4c07c5105cac580780e52ddef8472862,PennController,95,0,calibrator_conc_no_feedback,NULL,PennController,106,_Header_,End,1739275746131,undefined,602,grasshopper,concrete,abstract,A,NULL
1739276535,4c07c5105cac580780e52ddef8472862,PennController,95,0,calibrator_conc_no_feedback,NULL,Selector,unnamed-Selector,Selection,concrete,1739275747241,undefined,602,grasshopper,concrete,abstract,A,concrete;abstract
1739276535,4c07c5105cac580780e52ddef8472862,PennController,95,0,calibrator_conc_no_feedback,NULL,PennController,106,_Trial_,End,1739275747243,undefined,602,grasshopper,concrete,abstract,A,NULL
1739276535,4c07c5105cac580780e52ddef8472862,PennController,98,0,calibrator_conc_no_feedback,NULL,PennController,109,_Trial_,Start,1739275747244,undefined,684,polite,concrete,abstract,A,NULL
1739276535,4c07c5105cac580780e52ddef8472862,PennController,98,0,calibrator_conc_no_feedback,NULL,PennController,109,_Header_,Start,1739275747244,undefined,684,polite,concrete,abstract,A,NULL
1739276535,4c07c5105cac580780e52ddef8472862,PennController,98,0,calibrator_conc_no_feedback,NULL,PennController,109,_Header_,End,1739275747497,undefined,684,polite,concrete,abstract,A,NULL
1739276535,4c07c5105cac580780e52ddef8472862,PennController,98,0,calibrator_conc_no_feedback,NULL,Selector,unnamed-Selector,Selection,abstract,1739275748688,undefined,684,polite,concrete,abstract,A,concrete;abstract
1739276535,4c07c5105cac580780e52ddef8472862,PennController,98,0,calibrator_conc_no_feedback,NULL,PennController,109,_Trial_,End,1739275748691,undefined,684,polite,concrete,abstract,A,NULL
1739276535,4c07c5105cac580780e52ddef8472862,PennController,99,0,calibrator_conc_no_feedback,NULL,PennController,110,_Trial_,Start,1739275748692,undefined,1701,shirt,concrete,abstract,A,NULL
1739276535,4c07c5105cac580780e52ddef8472862,PennController,99,0,calibrator_conc_no_feedback,NULL,PennController,110,_Header_,Start,1739275748692,undefined,1701,shirt,concrete,abstract,A,NULL
1739276535,4c07c5105cac580780e52ddef8472862,PennController,99,0,calibrator_conc_no_feedback,NULL,PennController,110,_Header_,End,1739275748946,undefined,1701,shirt,concrete,abstract,A,NULL
1739276535,4c07c5105cac580780e52ddef8472862,PennController,99,0,calibrator_conc_no_feedback,NULL,Selector,unnamed-Selector,Selection,concrete,1739275751149,undefined,1701,shirt,concrete,abstract,A,concrete;abstract
1739276535,4c07c5105cac580780e52ddef8472862,PennController,99,0,calibrator_conc_no_feedback,NULL,PennController,110,_Trial_,End,1739275751151,undefined,1701,shirt,concrete,abstract,A,NULL
1739276535,4c07c5105cac580780e52ddef8472862,PennController,96,0,calibrator_conc_no_feedback,NULL,PennController,107,_Trial_,Start,1739275751152,undefined,1494,kick,concrete,abstract,A,NULL
1739276535,4c07c5105cac580780e52ddef8472862,PennController,96,0,calibrator_conc_no_feedback,NULL,PennController,107,_Header_,Start,1739275751152,undefined,1494,kick,concrete,abstract,A,NULL
1739276535,4c07c5105cac580780e52ddef8472862,PennController,96,0,calibrator_conc_no_feedback,NULL,PennController,107,_Header_,End,1739275751402,undefined,1494,kick,concrete,abstract,A,NULL
1739276535,4c07c5105cac580780e52ddef8472862,PennController,96,0,calibrator_conc_no_feedback,NULL,Selector,unnamed-Selector,Selection,concrete,1739275753402,undefined,1494,kick,concrete,abstract,A,concrete;abstract
1739276535,4c07c5105cac580780e52ddef8472862,PennController,96,0,calibrator_conc_no_feedback,NULL,PennController,107,_Trial_,End,1739275753403,undefined,1494,kick,concrete,abstract,A,NULL
# 13. Comments.
1739276535,4c07c5105cac580780e52ddef8472862,PennController,130,0,endinstructions_conc,NULL,PennController,8,_Trial_,Start,1739275753403,NULL
1739276535,4c07c5105cac580780e52ddef8472862,PennController,130,0,endinstructions_conc,NULL,PennController,8,_Header_,Start,1739275753403,NULL
1739276535,4c07c5105cac580780e52ddef8472862,PennController,130,0,endinstructions_conc,NULL,PennController,8,_Header_,End,1739275753655,NULL
1739276535,4c07c5105cac580780e52ddef8472862,PennController,130,0,endinstructions_conc,NULL,PennController,8,_Trial_,End,1739275756424,NULL
# 13. ID.
# 14. ReactionTime.
# 15. Word.
# 16. ConcValCombo.
# 17. Key_value_F.
# 18. Key_value_J.
# 19. Group.
# 20. Comments.
1739276535,4c07c5105cac580780e52ddef8472862,PennController,34,0,test_conc,NULL,PennController,45,_Trial_,Start,1739275756424,undefined,876,Hopeless,abstract-negative,concrete,abstract,A,NULL
1739276535,4c07c5105cac580780e52ddef8472862,PennController,34,0,test_conc,NULL,PennController,45,_Header_,Start,1739275756424,undefined,876,Hopeless,abstract-negative,concrete,abstract,A,NULL
1739276535,4c07c5105cac580780e52ddef8472862,PennController,34,0,test_conc,NULL,PennController,45,_Header_,End,1739275756676,undefined,876,Hopeless,abstract-negative,concrete,abstract,A,NULL
1739276535,4c07c5105cac580780e52ddef8472862,PennController,34,0,test_conc,NULL,Selector,unnamed-Selector,Selection,abstract,1739275758058,undefined,876,Hopeless,abstract-negative,concrete,abstract,A,concrete;abstract
1739276535,4c07c5105cac580780e52ddef8472862,PennController,34,0,test_conc,NULL,PennController,45,_Trial_,End,1739275758059,undefined,876,Hopeless,abstract-negative,concrete,abstract,A,NULL
1739276535,4c07c5105cac580780e52ddef8472862,PennController,36,0,test_conc,NULL,PennController,47,_Trial_,Start,1739275758059,undefined,622,Helpless,abstract-negative,concrete,abstract,A,NULL
1739276535,4c07c5105cac580780e52ddef8472862,PennController,36,0,test_conc,NULL,PennController,47,_Header_,Start,1739275758059,undefined,622,Helpless,abstract-negative,concrete,abstract,A,NULL
1739276535,4c07c5105cac580780e52ddef8472862,PennController,36,0,test_conc,NULL,PennController,47,_Header_,End,1739275758313,undefined,622,Helpless,abstract-negative,concrete,abstract,A,NULL
1739276535,4c07c5105cac580780e52ddef8472862,PennController,36,0,test_conc,NULL,Selector,unnamed-Selector,Selection,abstract,1739275759441,undefined,622,Helpless,abstract-negative,concrete,abstract,A,concrete;abstract
1739276535,4c07c5105cac580780e52ddef8472862,PennController,36,0,test_conc,NULL,PennController,47,_Trial_,End,1739275759443,undefined,622,Helpless,abstract-negative,concrete,abstract,A,NULL
1739276535,4c07c5105cac580780e52ddef8472862,PennController,42,0,test_conc,NULL,PennController,53,_Trial_,Start,1739275759445,undefined,597,Fearful,abstract-negative,concrete,abstract,A,NULL
1739276535,4c07c5105cac580780e52ddef8472862,PennController,42,0,test_conc,NULL,PennController,53,_Header_,Start,1739275759445,undefined,597,Fearful,abstract-negative,concrete,abstract,A,NULL
1739276535,4c07c5105cac580780e52ddef8472862,PennController,42,0,test_conc,NULL,PennController,53,_Header_,End,1739275759695,undefined,597,Fearful,abstract-negative,concrete,abstract,A,NULL
1739276535,4c07c5105cac580780e52ddef8472862,PennController,42,0,test_conc,NULL,Selector,unnamed-Selector,Selection,abstract,1739275760796,undefined,597,Fearful,abstract-negative,concrete,abstract,A,concrete;abstract
1739276535,4c07c5105cac580780e52ddef8472862,PennController,42,0,test_conc,NULL,PennController,53,_Trial_,End,1739275760798,undefined,597,Fearful,abstract-negative,concrete,abstract,A,NULL
1739276535,4c07c5105cac580780e52ddef8472862,PennController,29,0,test_conc,NULL,PennController,40,_Trial_,Start,1739275760800,undefined,947,Rough,concrete-negative,concrete,abstract,A,NULL
1739276535,4c07c5105cac580780e52ddef8472862,PennController,29,0,test_conc,NULL,PennController,40,_Header_,Start,1739275760800,undefined,947,Rough,concrete-negative,concrete,abstract,A,NULL
1739276535,4c07c5105cac580780e52ddef8472862,PennController,29,0,test_conc,NULL,PennController,40,_Header_,End,1739275761053,undefined,947,Rough,concrete-negative,concrete,abstract,A,NULL
1739276535,4c07c5105cac580780e52ddef8472862,PennController,29,0,test_conc,NULL,Selector,unnamed-Selector,Selection,abstract,1739275762507,undefined,947,Rough,concrete-negative,concrete,abstract,A,concrete;abstract
1739276535,4c07c5105cac580780e52ddef8472862,PennController,29,0,test_conc,NULL,PennController,40,_Trial_,End,1739275762509,undefined,947,Rough,concrete-negative,concrete,abstract,A,NULL
1739276535,4c07c5105cac580780e52ddef8472862,PennController,13,0,test_conc,NULL,PennController,24,_Trial_,Start,1739275762509,undefined,996,Cool,concrete-positive,concrete,abstract,A,NULL
1739276535,4c07c5105cac580780e52ddef8472862,PennController,13,0,test_conc,NULL,PennController,24,_Header_,Start,1739275762509,undefined,996,Cool,concrete-positive,concrete,abstract,A,NULL
1739276535,4c07c5105cac580780e52ddef8472862,PennController,13,0,test_conc,NULL,PennController,24,_Header_,End,1739275762762,undefined,996,Cool,concrete-positive,concrete,abstract,A,NULL
1739276535,4c07c5105cac580780e52ddef8472862,PennController,13,0,test_conc,NULL,Selector,unnamed-Selector,Selection,abstract,1739275764264,undefined,996,Cool,concrete-positive,concrete,abstract,A,concrete;abstract
1739276535,4c07c5105cac580780e52ddef8472862,PennController,13,0,test_conc,NULL,PennController,24,_Trial_,End,1739275764265,undefined,996,Cool,concrete-positive,concrete,abstract,A,NULL
1739276535,4c07c5105cac580780e52ddef8472862,PennController,41,0,test_conc,NULL,PennController,52,_Trial_,Start,1739275764267,undefined,719,Ashamed,abstract-negative,concrete,abstract,A,NULL
1739276535,4c07c5105cac580780e52ddef8472862,PennController,41,0,test_conc,NULL,PennController,52,_Header_,Start,1739275764267,undefined,719,Ashamed,abstract-negative,concrete,abstract,A,NULL
1739276535,4c07c5105cac580780e52ddef8472862,PennController,41,0,test_conc,NULL,PennController,52,_Header_,End,1739275764518,undefined,719,Ashamed,abstract-negative,concrete,abstract,A,NULL
1739276535,4c07c5105cac580780e52ddef8472862,PennController,41,0,test_conc,NULL,Selector,unnamed-Selector,Selection,abstract,1739275765745,undefined,719,Ashamed,abstract-negative,concrete,abstract,A,concrete;abstract
1739276535,4c07c5105cac580780e52ddef8472862,PennController,41,0,test_conc,NULL,PennController,52,_Trial_,End,1739275765747,undefined,719,Ashamed,abstract-negative,concrete,abstract,A,NULL
1739276535,4c07c5105cac580780e52ddef8472862,PennController,10,0,test_conc,NULL,PennController,21,_Trial_,Start,1739275765748,undefined,1264,Colorful,concrete-positive,concrete,abstract,A,NULL
1739276535,4c07c5105cac580780e52ddef8472862,PennController,10,0,test_conc,NULL,PennController,21,_Header_,Start,1739275765748,undefined,1264,Colorful,concrete-positive,concrete,abstract,A,NULL
1739276535,4c07c5105cac580780e52ddef8472862,PennController,10,0,test_conc,NULL,PennController,21,_Header_,End,1739275766002,undefined,1264,Colorful,concrete-positive,concrete,abstract,A,NULL
1739276535,4c07c5105cac580780e52ddef8472862,PennController,10,0,test_conc,NULL,Selector,unnamed-Selector,Selection,abstract,1739275767772,undefined,1264,Colorful,concrete-positive,concrete,abstract,A,concrete;abstract
1739276535,4c07c5105cac580780e52ddef8472862,PennController,10,0,test_conc,NULL,PennController,21,_Trial_,End,1739275767774,undefined,1264,Colorful,concrete-positive,concrete,abstract,A,NULL
1739276535,4c07c5105cac580780e52ddef8472862,PennController,16,0,test_conc,NULL,PennController,27,_Trial_,Start,1739275767775,undefined,1127,Grateful,abstract-positive,concrete,abstract,A,NULL
1739276535,4c07c5105cac580780e52ddef8472862,PennController,16,0,test_conc,NULL,PennController,27,_Header_,Start,1739275767775,undefined,1127,Grateful,abstract-positive,concrete,abstract,A,NULL
1739276535,4c07c5105cac580780e52ddef8472862,PennController,16,0,test_conc,NULL,PennController,27,_Header_,End,1739275768028,undefined,1127,Grateful,abstract-positive,concrete,abstract,A,NULL
1739276535,4c07c5105cac580780e52ddef8472862,PennController,16,0,test_conc,NULL,Selector,unnamed-Selector,Selection,abstract,1739275769662,undefined,1127,Grateful,abstract-positive,concrete,abstract,A,concrete;abstract
1739276535,4c07c5105cac580780e52ddef8472862,PennController,16,0,test_conc,NULL,PennController,27,_Trial_,End,1739275769664,undefined,1127,Grateful,abstract-positive,concrete,abstract,A,NULL
1739276535,4c07c5105cac580780e52ddef8472862,PennController,11,0,test_conc,NULL,PennController,22,_Trial_,Start,1739275769665,undefined,873,Smooth,concrete-positive,concrete,abstract,A,NULL
1739276535,4c07c5105cac580780e52ddef8472862,PennController,11,0,test_conc,NULL,PennController,22,_Header_,Start,1739275769665,undefined,873,Smooth,concrete-positive,concrete,abstract,A,NULL
1739276535,4c07c5105cac580780e52ddef8472862,PennController,11,0,test_conc,NULL,PennController,22,_Header_,End,1739275769918,undefined,873,Smooth,concrete-positive,concrete,abstract,A,NULL
1739276535,4c07c5105cac580780e52ddef8472862,PennController,11,0,test_conc,NULL,Selector,unnamed-Selector,Selection,concrete,1739275771297,undefined,873,Smooth,concrete-positive,concrete,abstract,A,concrete;abstract
1739276535,4c07c5105cac580780e52ddef8472862,PennController,11,0,test_conc,NULL,PennController,22,_Trial_,End,1739275771299,undefined,873,Smooth,concrete-positive,concrete,abstract,A,NULL
1739276535,4c07c5105cac580780e52ddef8472862,PennController,22,0,test_conc,NULL,PennController,33,_Trial_,Start,1739275771300,undefined,1027,Harmonious,abstract-positive,concrete,abstract,A,NULL
1739276535,4c07c5105cac580780e52ddef8472862,PennController,22,0,test_conc,NULL,PennController,33,_Header_,Start,1739275771300,undefined,1027,Harmonious,abstract-positive,concrete,abstract,A,NULL
1739276535,4c07c5105cac580780e52ddef8472862,PennController,22,0,test_conc,NULL,PennController,33,_Header_,End,1739275771550,undefined,1027,Harmonious,abstract-positive,concrete,abstract,A,NULL
1739276535,4c07c5105cac580780e52ddef8472862,PennController,22,0,test_conc,NULL,Selector,unnamed-Selector,Selection,abstract,1739275773081,undefined,1027,Harmonious,abstract-positive,concrete,abstract,A,concrete;abstract
1739276535,4c07c5105cac580780e52ddef8472862,PennController,22,0,test_conc,NULL,PennController,33,_Trial_,End,1739275773083,undefined,1027,Harmonious,abstract-positive,concrete,abstract,A,NULL
1739276535,4c07c5105cac580780e52ddef8472862,PennController,17,0,test_conc,NULL,PennController,28,_Trial_,Start,1739275773084,undefined,1227,Kind,abstract-positive,concrete,abstract,A,NULL
1739276535,4c07c5105cac580780e52ddef8472862,PennController,17,0,test_conc,NULL,PennController,28,_Header_,Start,1739275773084,undefined,1227,Kind,abstract-positive,concrete,abstract,A,NULL
1739276535,4c07c5105cac580780e52ddef8472862,PennController,17,0,test_conc,NULL,PennController,28,_Header_,End,1739275773334,undefined,1227,Kind,abstract-positive,concrete,abstract,A,NULL
1739276535,4c07c5105cac580780e52ddef8472862,PennController,17,0,test_conc,NULL,Selector,unnamed-Selector,Selection,abstract,1739275775068,undefined,1227,Kind,abstract-positive,concrete,abstract,A,concrete;abstract
1739276535,4c07c5105cac580780e52ddef8472862,PennController,17,0,test_conc,NULL,PennController,28,_Trial_,End,1739275775070,undefined,1227,Kind,abstract-positive,concrete,abstract,A,NULL
1739276535,4c07c5105cac580780e52ddef8472862,PennController,30,0,test_conc,NULL,PennController,41,_Trial_,Start,1739275775072,undefined,942,Noisy,concrete-negative,concrete,abstract,A,NULL
1739276535,4c07c5105cac580780e52ddef8472862,PennController,30,0,test_conc,NULL,PennController,41,_Header_,Start,1739275775072,undefined,942,Noisy,concrete-negative,concrete,abstract,A,NULL
1739276535,4c07c5105cac580780e52ddef8472862,PennController,30,0,test_conc,NULL,PennController,41,_Header_,End,1739275775324,undefined,942,Noisy,concrete-negative,concrete,abstract,A,NULL
1739276535,4c07c5105cac580780e52ddef8472862,PennController,30,0,test_conc,NULL,Selector,unnamed-Selector,Selection,concrete,1739275776773,undefined,942,Noisy,concrete-negative,concrete,abstract,A,concrete;abstract
1739276535,4c07c5105cac580780e52ddef8472862,PennController,30,0,test_conc,NULL,PennController,41,_Trial_,End,1739275776774,undefined,942,Noisy,concrete-negative,concrete,abstract,A,NULL
1739276535,4c07c5105cac580780e52ddef8472862,PennController,20,0,test_conc,NULL,PennController,31,_Trial_,Start,1739275776775,undefined,909,Inspiring,abstract-positive,concrete,abstract,A,NULL
1739276535,4c07c5105cac580780e52ddef8472862,PennController,20,0,test_conc,NULL,PennController,31,_Header_,Start,1739275776775,undefined,909,Inspiring,abstract-positive,concrete,abstract,A,NULL
1739276535,4c07c5105cac580780e52ddef8472862,PennController,20,0,test_conc,NULL,PennController,31,_Header_,End,1739275777026,undefined,909,Inspiring,abstract-positive,concrete,abstract,A,NULL
1739276535,4c07c5105cac580780e52ddef8472862,PennController,20,0,test_conc,NULL,Selector,unnamed-Selector,Selection,abstract,1739275778444,undefined,909,Inspiring,abstract-positive,concrete,abstract,A,concrete;abstract
1739276535,4c07c5105cac580780e52ddef8472862,PennController,20,0,test_conc,NULL,PennController,31,_Trial_,End,1739275778446,undefined,909,Inspiring,abstract-positive,concrete,abstract,A,NULL
1739276535,4c07c5105cac580780e52ddef8472862,PennController,19,0,test_conc,NULL,PennController,30,_Trial_,Start,1739275778447,undefined,828,Peaceful,abstract-positive,concrete,abstract,A,NULL
1739276535,4c07c5105cac580780e52ddef8472862,PennController,19,0,test_conc,NULL,PennController,30,_Header_,Start,1739275778447,undefined,828,Peaceful,abstract-positive,concrete,abstract,A,NULL
1739276535,4c07c5105cac580780e52ddef8472862,PennController,19,0,test_conc,NULL,PennController,30,_Header_,End,1739275778698,undefined,828,Peaceful,abstract-positive,concrete,abstract,A,NULL
1739276535,4c07c5105cac580780e52ddef8472862,PennController,19,0,test_conc,NULL,Selector,unnamed-Selector,Selection,abstract,1739275780034,undefined,828,Peaceful,abstract-positive,concrete,abstract,A,concrete;abstract
1739276535,4c07c5105cac580780e52ddef8472862,PennController,19,0,test_conc,NULL,PennController,30,_Trial_,End,1739275780036,undefined,828,Peaceful,abstract-positive,concrete,abstract,A,NULL
1739276535,4c07c5105cac580780e52ddef8472862,PennController,27,0,test_conc,NULL,PennController,38,_Trial_,Start,1739275780038,undefined,928,Cold,concrete-negative,concrete,abstract,A,NULL
1739276535,4c07c5105cac580780e52ddef8472862,PennController,27,0,test_conc,NULL,PennController,38,_Header_,Start,1739275780038,undefined,928,Cold,concrete-negative,concrete,abstract,A,NULL
1739276535,4c07c5105cac580780e52ddef8472862,PennController,27,0,test_conc,NULL,PennController,38,_Header_,End,1739275780288,undefined,928,Cold,concrete-negative,concrete,abstract,A,NULL
1739276535,4c07c5105cac580780e52ddef8472862,PennController,27,0,test_conc,NULL,Selector,unnamed-Selector,Selection,concrete,1739275781724,undefined,928,Cold,concrete-negative,concrete,abstract,A,concrete;abstract
1739276535,4c07c5105cac580780e52ddef8472862,PennController,27,0,test_conc,NULL,PennController,38,_Trial_,End,1739275781726,undefined,928,Cold,concrete-negative,concrete,abstract,A,NULL
1739276535,4c07c5105cac580780e52ddef8472862,PennController,12,0,test_conc,NULL,PennController,23,_Trial_,Start,1739275781727,undefined,1162,Delicious,concrete-positive,concrete,abstract,A,NULL
1739276535,4c07c5105cac580780e52ddef8472862,PennController,12,0,test_conc,NULL,PennController,23,_Header_,Start,1739275781727,undefined,1162,Delicious,concrete-positive,concrete,abstract,A,NULL
1739276535,4c07c5105cac580780e52ddef8472862,PennController,12,0,test_conc,NULL,PennController,23,_Header_,End,1739275781980,undefined,1162,Delicious,concrete-positive,concrete,abstract,A,NULL
1739276535,4c07c5105cac580780e52ddef8472862,PennController,12,0,test_conc,NULL,Selector,unnamed-Selector,Selection,abstract,1739275783649,undefined,1162,Delicious,concrete-positive,concrete,abstract,A,concrete;abstract
1739276535,4c07c5105cac580780e52ddef8472862,PennController,12,0,test_conc,NULL,PennController,23,_Trial_,End,1739275783650,undefined,1162,Delicious,concrete-positive,concrete,abstract,A,NULL
1739276535,4c07c5105cac580780e52ddef8472862,PennController,32,0,test_conc,NULL,PennController,43,_Trial_,Start,1739275783652,undefined,1005,Greasy,concrete-negative,concrete,abstract,A,NULL
1739276535,4c07c5105cac580780e52ddef8472862,PennController,32,0,test_conc,NULL,PennController,43,_Header_,Start,1739275783652,undefined,1005,Greasy,concrete-negative,concrete,abstract,A,NULL
1739276535,4c07c5105cac580780e52ddef8472862,PennController,32,0,test_conc,NULL,PennController,43,_Header_,End,1739275783902,undefined,1005,Greasy,concrete-negative,concrete,abstract,A,NULL
1739276535,4c07c5105cac580780e52ddef8472862,PennController,32,0,test_conc,NULL,Selector,unnamed-Selector,Selection,concrete,1739275785415,undefined,1005,Greasy,concrete-negative,concrete,abstract,A,concrete;abstract
1739276535,4c07c5105cac580780e52ddef8472862,PennController,32,0,test_conc,NULL,PennController,43,_Trial_,End,1739275785417,undefined,1005,Greasy,concrete-negative,concrete,abstract,A,NULL
1739276535,4c07c5105cac580780e52ddef8472862,PennController,26,0,test_conc,NULL,PennController,37,_Trial_,Start,1739275785418,undefined,1395,Smelly,concrete-negative,concrete,abstract,A,NULL
1739276535,4c07c5105cac580780e52ddef8472862,PennController,26,0,test_conc,NULL,PennController,37,_Header_,Start,1739275785418,undefined,1395,Smelly,concrete-negative,concrete,abstract,A,NULL
1739276535,4c07c5105cac580780e52ddef8472862,PennController,26,0,test_conc,NULL,PennController,37,_Header_,End,1739275785671,undefined,1395,Smelly,concrete-negative,concrete,abstract,A,NULL
1739276535,4c07c5105cac580780e52ddef8472862,PennController,26,0,test_conc,NULL,Selector,unnamed-Selector,Selection,abstract,1739275787573,undefined,1395,Smelly,concrete-negative,concrete,abstract,A,concrete;abstract
1739276535,4c07c5105cac580780e52ddef8472862,PennController,26,0,test_conc,NULL,PennController,37,_Trial_,End,1739275787575,undefined,1395,Smelly,concrete-negative,concrete,abstract,A,NULL
1739276535,4c07c5105cac580780e52ddef8472862,PennController,39,0,test_conc,NULL,PennController,50,_Trial_,Start,1739275787577,undefined,1285,Anxious,abstract-negative,concrete,abstract,A,NULL
1739276535,4c07c5105cac580780e52ddef8472862,PennController,39,0,test_conc,NULL,PennController,50,_Header_,Start,1739275787577,undefined,1285,Anxious,abstract-negative,concrete,abstract,A,NULL
1739276535,4c07c5105cac580780e52ddef8472862,PennController,39,0,test_conc,NULL,PennController,50,_Header_,End,1739275787831,undefined,1285,Anxious,abstract-negative,concrete,abstract,A,NULL
1739276535,4c07c5105cac580780e52ddef8472862,PennController,39,0,test_conc,NULL,Selector,unnamed-Selector,Selection,abstract,1739275789624,undefined,1285,Anxious,abstract-negative,concrete,abstract,A,concrete;abstract
1739276535,4c07c5105cac580780e52ddef8472862,PennController,39,0,test_conc,NULL,PennController,50,_Trial_,End,1739275789626,undefined,1285,Anxious,abstract-negative,concrete,abstract,A,NULL
1739276535,4c07c5105cac580780e52ddef8472862,PennController,5,0,test_conc,NULL,PennController,16,_Trial_,Start,1739275789627,undefined,1175,Fresh,concrete-positive,concrete,abstract,A,NULL
1739276535,4c07c5105cac580780e52ddef8472862,PennController,5,0,test_conc,NULL,PennController,16,_Header_,Start,1739275789627,undefined,1175,Fresh,concrete-positive,concrete,abstract,A,NULL
1739276535,4c07c5105cac580780e52ddef8472862,PennController,5,0,test_conc,NULL,PennController,16,_Header_,End,1739275789882,undefined,1175,Fresh,concrete-positive,concrete,abstract,A,NULL
1739276535,4c07c5105cac580780e52ddef8472862,PennController,5,0,test_conc,NULL,Selector,unnamed-Selector,Selection,abstract,1739275791565,undefined,1175,Fresh,concrete-positive,concrete,abstract,A,concrete;abstract
1739276535,4c07c5105cac580780e52ddef8472862,PennController,5,0,test_conc,NULL,PennController,16,_Trial_,End,1739275791567,undefined,1175,Fresh,concrete-positive,concrete,abstract,A,NULL
1739276535,4c07c5105cac580780e52ddef8472862,PennController,6,0,test_conc,NULL,PennController,17,_Trial_,Start,1739275791568,undefined,854,Soft,concrete-positive,concrete,abstract,A,NULL
1739276535,4c07c5105cac580780e52ddef8472862,PennController,6,0,test_conc,NULL,PennController,17,_Header_,Start,1739275791568,undefined,854,Soft,concrete-positive,concrete,abstract,A,NULL
1739276535,4c07c5105cac580780e52ddef8472862,PennController,6,0,test_conc,NULL,PennController,17,_Header_,End,1739275791819,undefined,854,Soft,concrete-positive,concrete,abstract,A,NULL
1739276535,4c07c5105cac580780e52ddef8472862,PennController,6,0,test_conc,NULL,Selector,unnamed-Selector,Selection,concrete,1739275793178,undefined,854,Soft,concrete-positive,concrete,abstract,A,concrete;abstract
1739276535,4c07c5105cac580780e52ddef8472862,PennController,6,0,test_conc,NULL,PennController,17,_Trial_,End,1739275793179,undefined,854,Soft,concrete-positive,concrete,abstract,A,NULL
1739276535,4c07c5105cac580780e52ddef8472862,PennController,15,0,test_conc,NULL,PennController,26,_Trial_,Start,1739275793180,undefined,854,Loving,abstract-positive,concrete,abstract,A,NULL
1739276535,4c07c5105cac580780e52ddef8472862,PennController,15,0,test_conc,NULL,PennController,26,_Header_,Start,1739275793180,undefined,854,Loving,abstract-positive,concrete,abstract,A,NULL
1739276535,4c07c5105cac580780e52ddef8472862,PennController,15,0,test_conc,NULL,PennController,26,_Header_,End,1739275793430,undefined,854,Loving,abstract-positive,concrete,abstract,A,NULL
1739276535,4c07c5105cac580780e52ddef8472862,PennController,15,0,test_conc,NULL,Selector,unnamed-Selector,Selection,abstract,1739275794791,undefined,854,Loving,abstract-positive,concrete,abstract,A,concrete;abstract
1739276535,4c07c5105cac580780e52ddef8472862,PennController,15,0,test_conc,NULL,PennController,26,_Trial_,End,1739275794793,undefined,854,Loving,abstract-positive,concrete,abstract,A,NULL
1739276535,4c07c5105cac580780e52ddef8472862,PennController,21,0,test_conc,NULL,PennController,32,_Trial_,Start,1739275794794,undefined,941,Generous,abstract-positive,concrete,abstract,A,NULL
1739276535,4c07c5105cac580780e52ddef8472862,PennController,21,0,test_conc,NULL,PennController,32,_Header_,Start,1739275794794,undefined,941,Generous,abstract-positive,concrete,abstract,A,NULL
1739276535,4c07c5105cac580780e52ddef8472862,PennController,21,0,test_conc,NULL,PennController,32,_Header_,End,1739275795046,undefined,941,Generous,abstract-positive,concrete,abstract,A,NULL
1739276535,4c07c5105cac580780e52ddef8472862,PennController,21,0,test_conc,NULL,Selector,unnamed-Selector,Selection,abstract,1739275796494,undefined,941,Generous,abstract-positive,concrete,abstract,A,concrete;abstract
1739276535,4c07c5105cac580780e52ddef8472862,PennController,21,0,test_conc,NULL,PennController,32,_Trial_,End,1739275796496,undefined,941,Generous,abstract-positive,concrete,abstract,A,NULL
1739276535,4c07c5105cac580780e52ddef8472862,PennController,8,0,test_conc,NULL,PennController,19,_Trial_,Start,1739275796497,undefined,1145,Clean,concrete-positive,concrete,abstract,A,NULL
1739276535,4c07c5105cac580780e52ddef8472862,PennController,8,0,test_conc,NULL,PennController,19,_Header_,Start,1739275796497,undefined,1145,Clean,concrete-positive,concrete,abstract,A,NULL
1739276535,4c07c5105cac580780e52ddef8472862,PennController,8,0,test_conc,NULL,PennController,19,_Header_,End,1739275796749,undefined,1145,Clean,concrete-positive,concrete,abstract,A,NULL
1739276535,4c07c5105cac580780e52ddef8472862,PennController,8,0,test_conc,NULL,Selector,unnamed-Selector,Selection,concrete,1739275798401,undefined,1145,Clean,concrete-positive,concrete,abstract,A,concrete;abstract
1739276535,4c07c5105cac580780e52ddef8472862,PennController,8,0,test_conc,NULL,PennController,19,_Trial_,End,1739275798403,undefined,1145,Clean,concrete-positive,concrete,abstract,A,NULL
1739276535,4c07c5105cac580780e52ddef8472862,PennController,38,0,test_conc,NULL,PennController,49,_Trial_,Start,1739275798403,undefined,906,Regretful,abstract-negative,concrete,abstract,A,NULL
1739276535,4c07c5105cac580780e52ddef8472862,PennController,38,0,test_conc,NULL,PennController,49,_Header_,Start,1739275798403,undefined,906,Regretful,abstract-negative,concrete,abstract,A,NULL
1739276535,4c07c5105cac580780e52ddef8472862,PennController,38,0,test_conc,NULL,PennController,49,_Header_,End,1739275798655,undefined,906,Regretful,abstract-negative,concrete,abstract,A,NULL
1739276535,4c07c5105cac580780e52ddef8472862,PennController,38,0,test_conc,NULL,Selector,unnamed-Selector,Selection,abstract,1739275800069,undefined,906,Regretful,abstract-negative,concrete,abstract,A,concrete;abstract
1739276535,4c07c5105cac580780e52ddef8472862,PennController,38,0,test_conc,NULL,PennController,49,_Trial_,End,1739275800071,undefined,906,Regretful,abstract-negative,concrete,abstract,A,NULL
1739276535,4c07c5105cac580780e52ddef8472862,PennController,24,0,test_conc,NULL,PennController,35,_Trial_,Start,1739275800072,undefined,856,Dirty,concrete-negative,concrete,abstract,A,NULL
1739276535,4c07c5105cac580780e52ddef8472862,PennController,24,0,test_conc,NULL,PennController,35,_Header_,Start,1739275800072,undefined,856,Dirty,concrete-negative,concrete,abstract,A,NULL
1739276535,4c07c5105cac580780e52ddef8472862,PennController,24,0,test_conc,NULL,PennController,35,_Header_,End,1739275800323,undefined,856,Dirty,concrete-negative,concrete,abstract,A,NULL
1739276535,4c07c5105cac580780e52ddef8472862,PennController,24,0,test_conc,NULL,Selector,unnamed-Selector,Selection,concrete,1739275801683,undefined,856,Dirty,concrete-negative,concrete,abstract,A,concrete;abstract
1739276535,4c07c5105cac580780e52ddef8472862,PennController,24,0,test_conc,NULL,PennController,35,_Trial_,End,1739275801686,undefined,856,Dirty,concrete-negative,concrete,abstract,A,NULL
1739276535,4c07c5105cac580780e52ddef8472862,PennController,37,0,test_conc,NULL,PennController,48,_Trial_,Start,1739275801687,undefined,977,Lonely,abstract-negative,concrete,abstract,A,NULL
1739276535,4c07c5105cac580780e52ddef8472862,PennController,37,0,test_conc,NULL,PennController,48,_Header_,Start,1739275801687,undefined,977,Lonely,abstract-negative,concrete,abstract,A,NULL
1739276535,4c07c5105cac580780e52ddef8472862,PennController,37,0,test_conc,NULL,PennController,48,_Header_,End,1739275801941,undefined,977,Lonely,abstract-negative,concrete,abstract,A,NULL
1739276535,4c07c5105cac580780e52ddef8472862,PennController,37,0,test_conc,NULL,Selector,unnamed-Selector,Selection,abstract,1739275803426,undefined,977,Lonely,abstract-negative,concrete,abstract,A,concrete;abstract
1739276535,4c07c5105cac580780e52ddef8472862,PennController,37,0,test_conc,NULL,PennController,48,_Trial_,End,1739275803428,undefined,977,Lonely,abstract-negative,concrete,abstract,A,NULL
1739276535,4c07c5105cac580780e52ddef8472862,PennController,9,0,test_conc,NULL,PennController,20,_Trial_,Start,1739275803429,undefined,1012,Fragrant,concrete-positive,concrete,abstract,A,NULL
1739276535,4c07c5105cac580780e52ddef8472862,PennController,9,0,test_conc,NULL,PennController,20,_Header_,Start,1739275803429,undefined,1012,Fragrant,concrete-positive,concrete,abstract,A,NULL
1739276535,4c07c5105cac580780e52ddef8472862,PennController,9,0,test_conc,NULL,PennController,20,_Header_,End,1739275803680,undefined,1012,Fragrant,concrete-positive,concrete,abstract,A,NULL
1739276535,4c07c5105cac580780e52ddef8472862,PennController,9,0,test_conc,NULL,Selector,unnamed-Selector,Selection,abstract,1739275805201,undefined,1012,Fragrant,concrete-positive,concrete,abstract,A,concrete;abstract
1739276535,4c07c5105cac580780e52ddef8472862,PennController,9,0,test_conc,NULL,PennController,20,_Trial_,End,1739275805203,undefined,1012,Fragrant,concrete-positive,concrete,abstract,A,NULL
1739276535,4c07c5105cac580780e52ddef8472862,PennController,18,0,test_conc,NULL,PennController,29,_Trial_,Start,1739275805203,undefined,1035,Joyful,abstract-positive,concrete,abstract,A,NULL
1739276535,4c07c5105cac580780e52ddef8472862,PennController,18,0,test_conc,NULL,PennController,29,_Header_,Start,1739275805203,undefined,1035,Joyful,abstract-positive,concrete,abstract,A,NULL
1739276535,4c07c5105cac580780e52ddef8472862,PennController,18,0,test_conc,NULL,PennController,29,_Header_,End,1739275805456,undefined,1035,Joyful,abstract-positive,concrete,abstract,A,NULL
1739276535,4c07c5105cac580780e52ddef8472862,PennController,18,0,test_conc,NULL,Selector,unnamed-Selector,Selection,abstract,1739275806997,undefined,1035,Joyful,abstract-positive,concrete,abstract,A,concrete;abstract
1739276535,4c07c5105cac580780e52ddef8472862,PennController,18,0,test_conc,NULL,PennController,29,_Trial_,End,1739275806999,undefined,1035,Joyful,abstract-positive,concrete,abstract,A,NULL
1739276535,4c07c5105cac580780e52ddef8472862,PennController,14,0,test_conc,NULL,PennController,25,_Trial_,Start,1739275807001,undefined,1241,Hopeful,abstract-positive,concrete,abstract,A,NULL
1739276535,4c07c5105cac580780e52ddef8472862,PennController,14,0,test_conc,NULL,PennController,25,_Header_,Start,1739275807001,undefined,1241,Hopeful,abstract-positive,concrete,abstract,A,NULL
1739276535,4c07c5105cac580780e52ddef8472862,PennController,14,0,test_conc,NULL,PennController,25,_Header_,End,1739275807251,undefined,1241,Hopeful,abstract-positive,concrete,abstract,A,NULL
1739276535,4c07c5105cac580780e52ddef8472862,PennController,14,0,test_conc,NULL,Selector,unnamed-Selector,Selection,abstract,1739275808999,undefined,1241,Hopeful,abstract-positive,concrete,abstract,A,concrete;abstract
1739276535,4c07c5105cac580780e52ddef8472862,PennController,14,0,test_conc,NULL,PennController,25,_Trial_,End,1739275809001,undefined,1241,Hopeful,abstract-positive,concrete,abstract,A,NULL
1739276535,4c07c5105cac580780e52ddef8472862,PennController,33,0,test_conc,NULL,PennController,44,_Trial_,Start,1739275809003,undefined,1061,Bitter,concrete-negative,concrete,abstract,A,NULL
1739276535,4c07c5105cac580780e52ddef8472862,PennController,33,0,test_conc,NULL,PennController,44,_Header_,Start,1739275809003,undefined,1061,Bitter,concrete-negative,concrete,abstract,A,NULL
1739276535,4c07c5105cac580780e52ddef8472862,PennController,33,0,test_conc,NULL,PennController,44,_Header_,End,1739275809254,undefined,1061,Bitter,concrete-negative,concrete,abstract,A,NULL
1739276535,4c07c5105cac580780e52ddef8472862,PennController,33,0,test_conc,NULL,Selector,unnamed-Selector,Selection,concrete,1739275810824,undefined,1061,Bitter,concrete-negative,concrete,abstract,A,concrete;abstract
1739276535,4c07c5105cac580780e52ddef8472862,PennController,33,0,test_conc,NULL,PennController,44,_Trial_,End,1739275810825,undefined,1061,Bitter,concrete-negative,concrete,abstract,A,NULL
1739276535,4c07c5105cac580780e52ddef8472862,PennController,7,0,test_conc,NULL,PennController,18,_Trial_,Start,1739275810826,undefined,1230,Bright,concrete-positive,concrete,abstract,A,NULL
1739276535,4c07c5105cac580780e52ddef8472862,PennController,7,0,test_conc,NULL,PennController,18,_Header_,Start,1739275810826,undefined,1230,Bright,concrete-positive,concrete,abstract,A,NULL
1739276535,4c07c5105cac580780e52ddef8472862,PennController,7,0,test_conc,NULL,PennController,18,_Header_,End,1739275811080,undefined,1230,Bright,concrete-positive,concrete,abstract,A,NULL
1739276535,4c07c5105cac580780e52ddef8472862,PennController,7,0,test_conc,NULL,Selector,unnamed-Selector,Selection,abstract,1739275812818,undefined,1230,Bright,concrete-positive,concrete,abstract,A,concrete;abstract
1739276535,4c07c5105cac580780e52ddef8472862,PennController,7,0,test_conc,NULL,PennController,18,_Trial_,End,1739275812820,undefined,1230,Bright,concrete-positive,concrete,abstract,A,NULL
1739276535,4c07c5105cac580780e52ddef8472862,PennController,43,0,test_conc,NULL,PennController,54,_Trial_,Start,1739275812822,undefined,1151,Despairing,abstract-negative,concrete,abstract,A,NULL
1739276535,4c07c5105cac580780e52ddef8472862,PennController,43,0,test_conc,NULL,PennController,54,_Header_,Start,1739275812822,undefined,1151,Despairing,abstract-negative,concrete,abstract,A,NULL
1739276535,4c07c5105cac580780e52ddef8472862,PennController,43,0,test_conc,NULL,PennController,54,_Header_,End,1739275813076,undefined,1151,Despairing,abstract-negative,concrete,abstract,A,NULL
1739276535,4c07c5105cac580780e52ddef8472862,PennController,43,0,test_conc,NULL,Selector,unnamed-Selector,Selection,abstract,1739275814732,undefined,1151,Despairing,abstract-negative,concrete,abstract,A,concrete;abstract
1739276535,4c07c5105cac580780e52ddef8472862,PennController,43,0,test_conc,NULL,PennController,54,_Trial_,End,1739275814733,undefined,1151,Despairing,abstract-negative,concrete,abstract,A,NULL
1739276535,4c07c5105cac580780e52ddef8472862,PennController,28,0,test_conc,NULL,PennController,39,_Trial_,Start,1739275814735,undefined,919,Dark,concrete-negative,concrete,abstract,A,NULL
1739276535,4c07c5105cac580780e52ddef8472862,PennController,28,0,test_conc,NULL,PennController,39,_Header_,Start,1739275814735,undefined,919,Dark,concrete-negative,concrete,abstract,A,NULL
1739276535,4c07c5105cac580780e52ddef8472862,PennController,28,0,test_conc,NULL,PennController,39,_Header_,End,1739275814987,undefined,919,Dark,concrete-negative,concrete,abstract,A,NULL
1739276535,4c07c5105cac580780e52ddef8472862,PennController,28,0,test_conc,NULL,Selector,unnamed-Selector,Selection,concrete,1739275816412,undefined,919,Dark,concrete-negative,concrete,abstract,A,concrete;abstract
1739276535,4c07c5105cac580780e52ddef8472862,PennController,28,0,test_conc,NULL,PennController,39,_Trial_,End,1739275816414,undefined,919,Dark,concrete-negative,concrete,abstract,A,NULL
1739276535,4c07c5105cac580780e52ddef8472862,PennController,25,0,test_conc,NULL,PennController,36,_Trial_,Start,1739275816416,undefined,876,Sticky,concrete-negative,concrete,abstract,A,NULL
1739276535,4c07c5105cac580780e52ddef8472862,PennController,25,0,test_conc,NULL,PennController,36,_Header_,Start,1739275816416,undefined,876,Sticky,concrete-negative,concrete,abstract,A,NULL
1739276535,4c07c5105cac580780e52ddef8472862,PennController,25,0,test_conc,NULL,PennController,36,_Header_,End,1739275816668,undefined,876,Sticky,concrete-negative,concrete,abstract,A,NULL
1739276535,4c07c5105cac580780e52ddef8472862,PennController,25,0,test_conc,NULL,Selector,unnamed-Selector,Selection,concrete,1739275818051,undefined,876,Sticky,concrete-negative,concrete,abstract,A,concrete;abstract
1739276535,4c07c5105cac580780e52ddef8472862,PennController,25,0,test_conc,NULL,PennController,36,_Trial_,End,1739275818053,undefined,876,Sticky,concrete-negative,concrete,abstract,A,NULL
1739276535,4c07c5105cac580780e52ddef8472862,PennController,40,0,test_conc,NULL,PennController,51,_Trial_,Start,1739275818055,undefined,989,Bitter,abstract-negative,concrete,abstract,A,NULL
1739276535,4c07c5105cac580780e52ddef8472862,PennController,40,0,test_conc,NULL,PennController,51,_Header_,Start,1739275818055,undefined,989,Bitter,abstract-negative,concrete,abstract,A,NULL
1739276535,4c07c5105cac580780e52ddef8472862,PennController,40,0,test_conc,NULL,PennController,51,_Header_,End,1739275818305,undefined,989,Bitter,abstract-negative,concrete,abstract,A,NULL
1739276535,4c07c5105cac580780e52ddef8472862,PennController,40,0,test_conc,NULL,Selector,unnamed-Selector,Selection,concrete,1739275819797,undefined,989,Bitter,abstract-negative,concrete,abstract,A,concrete;abstract
1739276535,4c07c5105cac580780e52ddef8472862,PennController,40,0,test_conc,NULL,PennController,51,_Trial_,End,1739275819799,undefined,989,Bitter,abstract-negative,concrete,abstract,A,NULL
1739276535,4c07c5105cac580780e52ddef8472862,PennController,4,0,test_conc,NULL,PennController,15,_Trial_,Start,1739275819800,undefined,874,Warm,concrete-positive,concrete,abstract,A,NULL
1739276535,4c07c5105cac580780e52ddef8472862,PennController,4,0,test_conc,NULL,PennController,15,_Header_,Start,1739275819800,undefined,874,Warm,concrete-positive,concrete,abstract,A,NULL
1739276535,4c07c5105cac580780e52ddef8472862,PennController,4,0,test_conc,NULL,PennController,15,_Header_,End,1739275820052,undefined,874,Warm,concrete-positive,concrete,abstract,A,NULL
1739276535,4c07c5105cac580780e52ddef8472862,PennController,4,0,test_conc,NULL,Selector,unnamed-Selector,Selection,concrete,1739275821433,undefined,874,Warm,concrete-positive,concrete,abstract,A,concrete;abstract
1739276535,4c07c5105cac580780e52ddef8472862,PennController,4,0,test_conc,NULL,PennController,15,_Trial_,End,1739275821435,undefined,874,Warm,concrete-positive,concrete,abstract,A,NULL
1739276535,4c07c5105cac580780e52ddef8472862,PennController,31,0,test_conc,NULL,PennController,42,_Trial_,Start,1739275821437,undefined,1122,Rotten,concrete-negative,concrete,abstract,A,NULL
1739276535,4c07c5105cac580780e52ddef8472862,PennController,31,0,test_conc,NULL,PennController,42,_Header_,Start,1739275821437,undefined,1122,Rotten,concrete-negative,concrete,abstract,A,NULL
1739276535,4c07c5105cac580780e52ddef8472862,PennController,31,0,test_conc,NULL,PennController,42,_Header_,End,1739275821691,undefined,1122,Rotten,concrete-negative,concrete,abstract,A,NULL
1739276535,4c07c5105cac580780e52ddef8472862,PennController,31,0,test_conc,NULL,Selector,unnamed-Selector,Selection,concrete,1739275823320,undefined,1122,Rotten,concrete-negative,concrete,abstract,A,concrete;abstract
1739276535,4c07c5105cac580780e52ddef8472862,PennController,31,0,test_conc,NULL,PennController,42,_Trial_,End,1739275823321,undefined,1122,Rotten,concrete-negative,concrete,abstract,A,NULL
1739276535,4c07c5105cac580780e52ddef8472862,PennController,35,0,test_conc,NULL,PennController,46,_Trial_,Start,1739275823323,undefined,920,Worthless,abstract-negative,concrete,abstract,A,NULL
1739276535,4c07c5105cac580780e52ddef8472862,PennController,35,0,test_conc,NULL,PennController,46,_Header_,Start,1739275823323,undefined,920,Worthless,abstract-negative,concrete,abstract,A,NULL
1739276535,4c07c5105cac580780e52ddef8472862,PennController,35,0,test_conc,NULL,PennController,46,_Header_,End,1739275823577,undefined,920,Worthless,abstract-negative,concrete,abstract,A,NULL
1739276535,4c07c5105cac580780e52ddef8472862,PennController,35,0,test_conc,NULL,Selector,unnamed-Selector,Selection,abstract,1739275825001,undefined,920,Worthless,abstract-negative,concrete,abstract,A,concrete;abstract
1739276535,4c07c5105cac580780e52ddef8472862,PennController,35,0,test_conc,NULL,PennController,46,_Trial_,End,1739275825003,undefined,920,Worthless,abstract-negative,concrete,abstract,A,NULL
1739276535,4c07c5105cac580780e52ddef8472862,PennController,23,0,test_conc,NULL,PennController,34,_Trial_,Start,1739275825005,undefined,1058,Resilient,abstract-positive,concrete,abstract,A,NULL
1739276535,4c07c5105cac580780e52ddef8472862,PennController,23,0,test_conc,NULL,PennController,34,_Header_,Start,1739275825005,undefined,1058,Resilient,abstract-positive,concrete,abstract,A,NULL
1739276535,4c07c5105cac580780e52ddef8472862,PennController,23,0,test_conc,NULL,PennController,34,_Header_,End,1739275825257,undefined,1058,Resilient,abstract-positive,concrete,abstract,A,NULL
1739276535,4c07c5105cac580780e52ddef8472862,PennController,23,0,test_conc,NULL,Selector,unnamed-Selector,Selection,abstract,1739275826820,undefined,1058,Resilient,abstract-positive,concrete,abstract,A,concrete;abstract
1739276535,4c07c5105cac580780e52ddef8472862,PennController,23,0,test_conc,NULL,PennController,34,_Trial_,End,1739275826822,undefined,1058,Resilient,abstract-positive,concrete,abstract,A,NULL
1739276535,4c07c5105cac580780e52ddef8472862,PennController,18,0,test_conc,NULL,PennController,29,_Trial_,Start,1739275826823,undefined,1059,Joyful,abstract-positive,concrete,abstract,A,NULL
1739276535,4c07c5105cac580780e52ddef8472862,PennController,18,0,test_conc,NULL,PennController,29,_Header_,Start,1739275826823,undefined,1059,Joyful,abstract-positive,concrete,abstract,A,NULL
1739276535,4c07c5105cac580780e52ddef8472862,PennController,18,0,test_conc,NULL,PennController,29,_Header_,End,1739275827076,undefined,1059,Joyful,abstract-positive,concrete,abstract,A,NULL
1739276535,4c07c5105cac580780e52ddef8472862,PennController,18,0,test_conc,NULL,Selector,unnamed-Selector,Selection,abstract,1739275828641,undefined,1059,Joyful,abstract-positive,concrete,abstract,A,concrete;abstract
1739276535,4c07c5105cac580780e52ddef8472862,PennController,18,0,test_conc,NULL,PennController,29,_Trial_,End,1739275828643,undefined,1059,Joyful,abstract-positive,concrete,abstract,A,NULL
1739276535,4c07c5105cac580780e52ddef8472862,PennController,12,0,test_conc,NULL,PennController,23,_Trial_,Start,1739275828644,undefined,862,Delicious,concrete-positive,concrete,abstract,A,NULL
1739276535,4c07c5105cac580780e52ddef8472862,PennController,12,0,test_conc,NULL,PennController,23,_Header_,Start,1739275828644,undefined,862,Delicious,concrete-positive,concrete,abstract,A,NULL
1739276535,4c07c5105cac580780e52ddef8472862,PennController,12,0,test_conc,NULL,PennController,23,_Header_,End,1739275828895,undefined,862,Delicious,concrete-positive,concrete,abstract,A,NULL
1739276535,4c07c5105cac580780e52ddef8472862,PennController,12,0,test_conc,NULL,Selector,unnamed-Selector,Selection,abstract,1739275830264,undefined,862,Delicious,concrete-positive,concrete,abstract,A,concrete;abstract
1739276535,4c07c5105cac580780e52ddef8472862,PennController,12,0,test_conc,NULL,PennController,23,_Trial_,End,1739275830266,undefined,862,Delicious,concrete-positive,concrete,abstract,A,NULL
1739276535,4c07c5105cac580780e52ddef8472862,PennController,17,0,test_conc,NULL,PennController,28,_Trial_,Start,1739275830267,undefined,667,Kind,abstract-positive,concrete,abstract,A,NULL
1739276535,4c07c5105cac580780e52ddef8472862,PennController,17,0,test_conc,NULL,PennController,28,_Header_,Start,1739275830267,undefined,667,Kind,abstract-positive,concrete,abstract,A,NULL
1739276535,4c07c5105cac580780e52ddef8472862,PennController,17,0,test_conc,NULL,PennController,28,_Header_,End,1739275830518,undefined,667,Kind,abstract-positive,concrete,abstract,A,NULL
1739276535,4c07c5105cac580780e52ddef8472862,PennController,17,0,test_conc,NULL,Selector,unnamed-Selector,Selection,abstract,1739275831689,undefined,667,Kind,abstract-positive,concrete,abstract,A,concrete;abstract
1739276535,4c07c5105cac580780e52ddef8472862,PennController,17,0,test_conc,NULL,PennController,28,_Trial_,End,1739275831691,undefined,667,Kind,abstract-positive,concrete,abstract,A,NULL
1739276535,4c07c5105cac580780e52ddef8472862,PennController,15,0,test_conc,NULL,PennController,26,_Trial_,Start,1739275831692,undefined,694,Loving,abstract-positive,concrete,abstract,A,NULL
1739276535,4c07c5105cac580780e52ddef8472862,PennController,15,0,test_conc,NULL,PennController,26,_Header_,Start,1739275831692,undefined,694,Loving,abstract-positive,concrete,abstract,A,NULL
1739276535,4c07c5105cac580780e52ddef8472862,PennController,15,0,test_conc,NULL,PennController,26,_Header_,End,1739275831942,undefined,694,Loving,abstract-positive,concrete,abstract,A,NULL
1739276535,4c07c5105cac580780e52ddef8472862,PennController,15,0,test_conc,NULL,Selector,unnamed-Selector,Selection,abstract,1739275833140,undefined,694,Loving,abstract-positive,concrete,abstract,A,concrete;abstract
1739276535,4c07c5105cac580780e52ddef8472862,PennController,15,0,test_conc,NULL,PennController,26,_Trial_,End,1739275833141,undefined,694,Loving,abstract-positive,concrete,abstract,A,NULL
1739276535,4c07c5105cac580780e52ddef8472862,PennController,33,0,test_conc,NULL,PennController,44,_Trial_,Start,1739275833143,undefined,931,Bitter,concrete-negative,concrete,abstract,A,NULL
1739276535,4c07c5105cac580780e52ddef8472862,PennController,33,0,test_conc,NULL,PennController,44,_Header_,Start,1739275833143,undefined,931,Bitter,concrete-negative,concrete,abstract,A,NULL
1739276535,4c07c5105cac580780e52ddef8472862,PennController,33,0,test_conc,NULL,PennController,44,_Header_,End,1739275833393,undefined,931,Bitter,concrete-negative,concrete,abstract,A,NULL
1739276535,4c07c5105cac580780e52ddef8472862,PennController,33,0,test_conc,NULL,Selector,unnamed-Selector,Selection,concrete,1739275834830,undefined,931,Bitter,concrete-negative,concrete,abstract,A,concrete;abstract
1739276535,4c07c5105cac580780e52ddef8472862,PennController,33,0,test_conc,NULL,PennController,44,_Trial_,End,1739275834833,undefined,931,Bitter,concrete-negative,concrete,abstract,A,NULL
1739276535,4c07c5105cac580780e52ddef8472862,PennController,34,0,test_conc,NULL,PennController,45,_Trial_,Start,1739275834835,undefined,762,Hopeless,abstract-negative,concrete,abstract,A,NULL
1739276535,4c07c5105cac580780e52ddef8472862,PennController,34,0,test_conc,NULL,PennController,45,_Header_,Start,1739275834835,undefined,762,Hopeless,abstract-negative,concrete,abstract,A,NULL
1739276535,4c07c5105cac580780e52ddef8472862,PennController,34,0,test_conc,NULL,PennController,45,_Header_,End,1739275835088,undefined,762,Hopeless,abstract-negative,concrete,abstract,A,NULL
1739276535,4c07c5105cac580780e52ddef8472862,PennController,34,0,test_conc,NULL,Selector,unnamed-Selector,Selection,abstract,1739275836359,undefined,762,Hopeless,abstract-negative,concrete,abstract,A,concrete;abstract
1739276535,4c07c5105cac580780e52ddef8472862,PennController,34,0,test_conc,NULL,PennController,45,_Trial_,End,1739275836361,undefined,762,Hopeless,abstract-negative,concrete,abstract,A,NULL
1739276535,4c07c5105cac580780e52ddef8472862,PennController,7,0,test_conc,NULL,PennController,18,_Trial_,Start,1739275836362,undefined,1096,Bright,concrete-positive,concrete,abstract,A,NULL
1739276535,4c07c5105cac580780e52ddef8472862,PennController,7,0,test_conc,NULL,PennController,18,_Header_,Start,1739275836362,undefined,1096,Bright,concrete-positive,concrete,abstract,A,NULL
1739276535,4c07c5105cac580780e52ddef8472862,PennController,7,0,test_conc,NULL,PennController,18,_Header_,End,1739275836615,undefined,1096,Bright,concrete-positive,concrete,abstract,A,NULL
1739276535,4c07c5105cac580780e52ddef8472862,PennController,7,0,test_conc,NULL,Selector,unnamed-Selector,Selection,concrete,1739275838217,undefined,1096,Bright,concrete-positive,concrete,abstract,A,concrete;abstract
1739276535,4c07c5105cac580780e52ddef8472862,PennController,7,0,test_conc,NULL,PennController,18,_Trial_,End,1739275838219,undefined,1096,Bright,concrete-positive,concrete,abstract,A,NULL
1739276535,4c07c5105cac580780e52ddef8472862,PennController,23,0,test_conc,NULL,PennController,34,_Trial_,Start,1739275838221,undefined,755,Resilient,abstract-positive,concrete,abstract,A,NULL
1739276535,4c07c5105cac580780e52ddef8472862,PennController,23,0,test_conc,NULL,PennController,34,_Header_,Start,1739275838221,undefined,755,Resilient,abstract-positive,concrete,abstract,A,NULL
1739276535,4c07c5105cac580780e52ddef8472862,PennController,23,0,test_conc,NULL,PennController,34,_Header_,End,1739275838474,undefined,755,Resilient,abstract-positive,concrete,abstract,A,NULL
1739276535,4c07c5105cac580780e52ddef8472862,PennController,23,0,test_conc,NULL,Selector,unnamed-Selector,Selection,abstract,1739275839734,undefined,755,Resilient,abstract-positive,concrete,abstract,A,concrete;abstract
1739276535,4c07c5105cac580780e52ddef8472862,PennController,23,0,test_conc,NULL,PennController,34,_Trial_,End,1739275839735,undefined,755,Resilient,abstract-positive,concrete,abstract,A,NULL
1739276535,4c07c5105cac580780e52ddef8472862,PennController,32,0,test_conc,NULL,PennController,43,_Trial_,Start,1739275839737,undefined,630,Greasy,concrete-negative,concrete,abstract,A,NULL
1739276535,4c07c5105cac580780e52ddef8472862,PennController,32,0,test_conc,NULL,PennController,43,_Header_,Start,1739275839737,undefined,630,Greasy,concrete-negative,concrete,abstract,A,NULL
1739276535,4c07c5105cac580780e52ddef8472862,PennController,32,0,test_conc,NULL,PennController,43,_Header_,End,1739275839990,undefined,630,Greasy,concrete-negative,concrete,abstract,A,NULL
1739276535,4c07c5105cac580780e52ddef8472862,PennController,32,0,test_conc,NULL,Selector,unnamed-Selector,Selection,concrete,1739275841125,undefined,630,Greasy,concrete-negative,concrete,abstract,A,concrete;abstract
1739276535,4c07c5105cac580780e52ddef8472862,PennController,32,0,test_conc,NULL,PennController,43,_Trial_,End,1739275841127,undefined,630,Greasy,concrete-negative,concrete,abstract,A,NULL
1739276535,4c07c5105cac580780e52ddef8472862,PennController,11,0,test_conc,NULL,PennController,22,_Trial_,Start,1739275841128,undefined,766,Smooth,concrete-positive,concrete,abstract,A,NULL
1739276535,4c07c5105cac580780e52ddef8472862,PennController,11,0,test_conc,NULL,PennController,22,_Header_,Start,1739275841128,undefined,766,Smooth,concrete-positive,concrete,abstract,A,NULL
1739276535,4c07c5105cac580780e52ddef8472862,PennController,11,0,test_conc,NULL,PennController,22,_Header_,End,1739275841380,undefined,766,Smooth,concrete-positive,concrete,abstract,A,NULL
1739276535,4c07c5105cac580780e52ddef8472862,PennController,11,0,test_conc,NULL,Selector,unnamed-Selector,Selection,concrete,1739275842650,undefined,766,Smooth,concrete-positive,concrete,abstract,A,concrete;abstract
1739276535,4c07c5105cac580780e52ddef8472862,PennController,11,0,test_conc,NULL,PennController,22,_Trial_,End,1739275842653,undefined,766,Smooth,concrete-positive,concrete,abstract,A,NULL
1739276535,4c07c5105cac580780e52ddef8472862,PennController,30,0,test_conc,NULL,PennController,41,_Trial_,Start,1739275842654,undefined,957,Noisy,concrete-negative,concrete,abstract,A,NULL
1739276535,4c07c5105cac580780e52ddef8472862,PennController,30,0,test_conc,NULL,PennController,41,_Header_,Start,1739275842654,undefined,957,Noisy,concrete-negative,concrete,abstract,A,NULL
1739276535,4c07c5105cac580780e52ddef8472862,PennController,30,0,test_conc,NULL,PennController,41,_Header_,End,1739275842904,undefined,957,Noisy,concrete-negative,concrete,abstract,A,NULL
1739276535,4c07c5105cac580780e52ddef8472862,PennController,30,0,test_conc,NULL,Selector,unnamed-Selector,Selection,concrete,1739275844368,undefined,957,Noisy,concrete-negative,concrete,abstract,A,concrete;abstract
1739276535,4c07c5105cac580780e52ddef8472862,PennController,30,0,test_conc,NULL,PennController,41,_Trial_,End,1739275844371,undefined,957,Noisy,concrete-negative,concrete,abstract,A,NULL
1739276535,4c07c5105cac580780e52ddef8472862,PennController,5,0,test_conc,NULL,PennController,16,_Trial_,Start,1739275844372,undefined,989,Fresh,concrete-positive,concrete,abstract,A,NULL
1739276535,4c07c5105cac580780e52ddef8472862,PennController,5,0,test_conc,NULL,PennController,16,_Header_,Start,1739275844372,undefined,989,Fresh,concrete-positive,concrete,abstract,A,NULL
1739276535,4c07c5105cac580780e52ddef8472862,PennController,5,0,test_conc,NULL,PennController,16,_Header_,End,1739275844625,undefined,989,Fresh,concrete-positive,concrete,abstract,A,NULL
1739276535,4c07c5105cac580780e52ddef8472862,PennController,5,0,test_conc,NULL,Selector,unnamed-Selector,Selection,abstract,1739275846122,undefined,989,Fresh,concrete-positive,concrete,abstract,A,concrete;abstract
1739276535,4c07c5105cac580780e52ddef8472862,PennController,5,0,test_conc,NULL,PennController,16,_Trial_,End,1739275846124,undefined,989,Fresh,concrete-positive,concrete,abstract,A,NULL
1739276535,4c07c5105cac580780e52ddef8472862,PennController,43,0,test_conc,NULL,PennController,54,_Trial_,Start,1739275846125,undefined,719,Despairing,abstract-negative,concrete,abstract,A,NULL
1739276535,4c07c5105cac580780e52ddef8472862,PennController,43,0,test_conc,NULL,PennController,54,_Header_,Start,1739275846125,undefined,719,Despairing,abstract-negative,concrete,abstract,A,NULL
1739276535,4c07c5105cac580780e52ddef8472862,PennController,43,0,test_conc,NULL,PennController,54,_Header_,End,1739275846379,undefined,719,Despairing,abstract-negative,concrete,abstract,A,NULL
1739276535,4c07c5105cac580780e52ddef8472862,PennController,43,0,test_conc,NULL,Selector,unnamed-Selector,Selection,abstract,1739275847602,undefined,719,Despairing,abstract-negative,concrete,abstract,A,concrete;abstract
1739276535,4c07c5105cac580780e52ddef8472862,PennController,43,0,test_conc,NULL,PennController,54,_Trial_,End,1739275847604,undefined,719,Despairing,abstract-negative,concrete,abstract,A,NULL
1739276535,4c07c5105cac580780e52ddef8472862,PennController,42,0,test_conc,NULL,PennController,53,_Trial_,Start,1739275847606,undefined,847,Fearful,abstract-negative,concrete,abstract,A,NULL
1739276535,4c07c5105cac580780e52ddef8472862,PennController,42,0,test_conc,NULL,PennController,53,_Header_,Start,1739275847606,undefined,847,Fearful,abstract-negative,concrete,abstract,A,NULL
1739276535,4c07c5105cac580780e52ddef8472862,PennController,42,0,test_conc,NULL,PennController,53,_Header_,End,1739275847859,undefined,847,Fearful,abstract-negative,concrete,abstract,A,NULL
1739276535,4c07c5105cac580780e52ddef8472862,PennController,42,0,test_conc,NULL,Selector,unnamed-Selector,Selection,abstract,1739275849215,undefined,847,Fearful,abstract-negative,concrete,abstract,A,concrete;abstract
1739276535,4c07c5105cac580780e52ddef8472862,PennController,42,0,test_conc,NULL,PennController,53,_Trial_,End,1739275849217,undefined,847,Fearful,abstract-negative,concrete,abstract,A,NULL
1739276535,4c07c5105cac580780e52ddef8472862,PennController,4,0,test_conc,NULL,PennController,15,_Trial_,Start,1739275849218,undefined,753,Warm,concrete-positive,concrete,abstract,A,NULL
1739276535,4c07c5105cac580780e52ddef8472862,PennController,4,0,test_conc,NULL,PennController,15,_Header_,Start,1739275849218,undefined,753,Warm,concrete-positive,concrete,abstract,A,NULL
1739276535,4c07c5105cac580780e52ddef8472862,PennController,4,0,test_conc,NULL,PennController,15,_Header_,End,1739275849470,undefined,753,Warm,concrete-positive,concrete,abstract,A,NULL
1739276535,4c07c5105cac580780e52ddef8472862,PennController,4,0,test_conc,NULL,Selector,unnamed-Selector,Selection,concrete,1739275850729,undefined,753,Warm,concrete-positive,concrete,abstract,A,concrete;abstract
1739276535,4c07c5105cac580780e52ddef8472862,PennController,4,0,test_conc,NULL,PennController,15,_Trial_,End,1739275850731,undefined,753,Warm,concrete-positive,concrete,abstract,A,NULL
1739276535,4c07c5105cac580780e52ddef8472862,PennController,21,0,test_conc,NULL,PennController,32,_Trial_,Start,1739275850732,undefined,624,Generous,abstract-positive,concrete,abstract,A,NULL
1739276535,4c07c5105cac580780e52ddef8472862,PennController,21,0,test_conc,NULL,PennController,32,_Header_,Start,1739275850732,undefined,624,Generous,abstract-positive,concrete,abstract,A,NULL
1739276535,4c07c5105cac580780e52ddef8472862,PennController,21,0,test_conc,NULL,PennController,32,_Header_,End,1739275850985,undefined,624,Generous,abstract-positive,concrete,abstract,A,NULL
1739276535,4c07c5105cac580780e52ddef8472862,PennController,21,0,test_conc,NULL,Selector,unnamed-Selector,Selection,abstract,1739275852115,undefined,624,Generous,abstract-positive,concrete,abstract,A,concrete;abstract
1739276535,4c07c5105cac580780e52ddef8472862,PennController,21,0,test_conc,NULL,PennController,32,_Trial_,End,1739275852117,undefined,624,Generous,abstract-positive,concrete,abstract,A,NULL
1739276535,4c07c5105cac580780e52ddef8472862,PennController,6,0,test_conc,NULL,PennController,17,_Trial_,Start,1739275852117,undefined,666,Soft,concrete-positive,concrete,abstract,A,NULL
1739276535,4c07c5105cac580780e52ddef8472862,PennController,6,0,test_conc,NULL,PennController,17,_Header_,Start,1739275852117,undefined,666,Soft,concrete-positive,concrete,abstract,A,NULL
1739276535,4c07c5105cac580780e52ddef8472862,PennController,6,0,test_conc,NULL,PennController,17,_Header_,End,1739275852373,undefined,666,Soft,concrete-positive,concrete,abstract,A,NULL
1739276535,4c07c5105cac580780e52ddef8472862,PennController,6,0,test_conc,NULL,Selector,unnamed-Selector,Selection,concrete,1739275853546,undefined,666,Soft,concrete-positive,concrete,abstract,A,concrete;abstract
1739276535,4c07c5105cac580780e52ddef8472862,PennController,6,0,test_conc,NULL,PennController,17,_Trial_,End,1739275853549,undefined,666,Soft,concrete-positive,concrete,abstract,A,NULL
1739276535,4c07c5105cac580780e52ddef8472862,PennController,8,0,test_conc,NULL,PennController,19,_Trial_,Start,1739275853550,undefined,863,Clean,concrete-positive,concrete,abstract,A,NULL
1739276535,4c07c5105cac580780e52ddef8472862,PennController,8,0,test_conc,NULL,PennController,19,_Header_,Start,1739275853550,undefined,863,Clean,concrete-positive,concrete,abstract,A,NULL
1739276535,4c07c5105cac580780e52ddef8472862,PennController,8,0,test_conc,NULL,PennController,19,_Header_,End,1739275853801,undefined,863,Clean,concrete-positive,concrete,abstract,A,NULL
1739276535,4c07c5105cac580780e52ddef8472862,PennController,8,0,test_conc,NULL,Selector,unnamed-Selector,Selection,concrete,1739275855172,undefined,863,Clean,concrete-positive,concrete,abstract,A,concrete;abstract
1739276535,4c07c5105cac580780e52ddef8472862,PennController,8,0,test_conc,NULL,PennController,19,_Trial_,End,1739275855174,undefined,863,Clean,concrete-positive,concrete,abstract,A,NULL
1739276535,4c07c5105cac580780e52ddef8472862,PennController,14,0,test_conc,NULL,PennController,25,_Trial_,Start,1739275855174,undefined,705,Hopeful,abstract-positive,concrete,abstract,A,NULL
1739276535,4c07c5105cac580780e52ddef8472862,PennController,14,0,test_conc,NULL,PennController,25,_Header_,Start,1739275855174,undefined,705,Hopeful,abstract-positive,concrete,abstract,A,NULL
1739276535,4c07c5105cac580780e52ddef8472862,PennController,14,0,test_conc,NULL,PennController,25,_Header_,End,1739275855425,undefined,705,Hopeful,abstract-positive,concrete,abstract,A,NULL
1739276535,4c07c5105cac580780e52ddef8472862,PennController,14,0,test_conc,NULL,Selector,unnamed-Selector,Selection,abstract,1739275856639,undefined,705,Hopeful,abstract-positive,concrete,abstract,A,concrete;abstract
1739276535,4c07c5105cac580780e52ddef8472862,PennController,14,0,test_conc,NULL,PennController,25,_Trial_,End,1739275856641,undefined,705,Hopeful,abstract-positive,concrete,abstract,A,NULL
1739276535,4c07c5105cac580780e52ddef8472862,PennController,22,0,test_conc,NULL,PennController,33,_Trial_,Start,1739275856641,undefined,508,Harmonious,abstract-positive,concrete,abstract,A,NULL
1739276535,4c07c5105cac580780e52ddef8472862,PennController,22,0,test_conc,NULL,PennController,33,_Header_,Start,1739275856641,undefined,508,Harmonious,abstract-positive,concrete,abstract,A,NULL
1739276535,4c07c5105cac580780e52ddef8472862,PennController,22,0,test_conc,NULL,PennController,33,_Header_,End,1739275856893,undefined,508,Harmonious,abstract-positive,concrete,abstract,A,NULL
1739276535,4c07c5105cac580780e52ddef8472862,PennController,22,0,test_conc,NULL,Selector,unnamed-Selector,Selection,abstract,1739275857910,undefined,508,Harmonious,abstract-positive,concrete,abstract,A,concrete;abstract
1739276535,4c07c5105cac580780e52ddef8472862,PennController,22,0,test_conc,NULL,PennController,33,_Trial_,End,1739275857912,undefined,508,Harmonious,abstract-positive,concrete,abstract,A,NULL
1739276535,4c07c5105cac580780e52ddef8472862,PennController,25,0,test_conc,NULL,PennController,36,_Trial_,Start,1739275857914,undefined,655,Sticky,concrete-negative,concrete,abstract,A,NULL
1739276535,4c07c5105cac580780e52ddef8472862,PennController,25,0,test_conc,NULL,PennController,36,_Header_,Start,1739275857914,undefined,655,Sticky,concrete-negative,concrete,abstract,A,NULL
1739276535,4c07c5105cac580780e52ddef8472862,PennController,25,0,test_conc,NULL,PennController,36,_Header_,End,1739275858167,undefined,655,Sticky,concrete-negative,concrete,abstract,A,NULL
1739276535,4c07c5105cac580780e52ddef8472862,PennController,25,0,test_conc,NULL,Selector,unnamed-Selector,Selection,concrete,1739275859328,undefined,655,Sticky,concrete-negative,concrete,abstract,A,concrete;abstract
1739276535,4c07c5105cac580780e52ddef8472862,PennController,25,0,test_conc,NULL,PennController,36,_Trial_,End,1739275859330,undefined,655,Sticky,concrete-negative,concrete,abstract,A,NULL
1739276535,4c07c5105cac580780e52ddef8472862,PennController,16,0,test_conc,NULL,PennController,27,_Trial_,Start,1739275859331,undefined,710,Grateful,abstract-positive,concrete,abstract,A,NULL
1739276535,4c07c5105cac580780e52ddef8472862,PennController,16,0,test_conc,NULL,PennController,27,_Header_,Start,1739275859331,undefined,710,Grateful,abstract-positive,concrete,abstract,A,NULL
1739276535,4c07c5105cac580780e52ddef8472862,PennController,16,0,test_conc,NULL,PennController,27,_Header_,End,1739275859586,undefined,710,Grateful,abstract-positive,concrete,abstract,A,NULL
1739276535,4c07c5105cac580780e52ddef8472862,PennController,16,0,test_conc,NULL,Selector,unnamed-Selector,Selection,abstract,1739275860802,undefined,710,Grateful,abstract-positive,concrete,abstract,A,concrete;abstract
1739276535,4c07c5105cac580780e52ddef8472862,PennController,16,0,test_conc,NULL,PennController,27,_Trial_,End,1739275860804,undefined,710,Grateful,abstract-positive,concrete,abstract,A,NULL
1739276535,4c07c5105cac580780e52ddef8472862,PennController,13,0,test_conc,NULL,PennController,24,_Trial_,Start,1739275860806,undefined,646,Cool,concrete-positive,concrete,abstract,A,NULL
1739276535,4c07c5105cac580780e52ddef8472862,PennController,13,0,test_conc,NULL,PennController,24,_Header_,Start,1739275860806,undefined,646,Cool,concrete-positive,concrete,abstract,A,NULL
1739276535,4c07c5105cac580780e52ddef8472862,PennController,13,0,test_conc,NULL,PennController,24,_Header_,End,1739275861057,undefined,646,Cool,concrete-positive,concrete,abstract,A,NULL
1739276535,4c07c5105cac580780e52ddef8472862,PennController,13,0,test_conc,NULL,Selector,unnamed-Selector,Selection,abstract,1739275862207,undefined,646,Cool,concrete-positive,concrete,abstract,A,concrete;abstract
1739276535,4c07c5105cac580780e52ddef8472862,PennController,13,0,test_conc,NULL,PennController,24,_Trial_,End,1739275862209,undefined,646,Cool,concrete-positive,concrete,abstract,A,NULL
1739276535,4c07c5105cac580780e52ddef8472862,PennController,28,0,test_conc,NULL,PennController,39,_Trial_,Start,1739275862210,undefined,803,Dark,concrete-negative,concrete,abstract,A,NULL
1739276535,4c07c5105cac580780e52ddef8472862,PennController,28,0,test_conc,NULL,PennController,39,_Header_,Start,1739275862210,undefined,803,Dark,concrete-negative,concrete,abstract,A,NULL
1739276535,4c07c5105cac580780e52ddef8472862,PennController,28,0,test_conc,NULL,PennController,39,_Header_,End,1739275862463,undefined,803,Dark,concrete-negative,concrete,abstract,A,NULL
1739276535,4c07c5105cac580780e52ddef8472862,PennController,28,0,test_conc,NULL,Selector,unnamed-Selector,Selection,concrete,1739275863772,undefined,803,Dark,concrete-negative,concrete,abstract,A,concrete;abstract
1739276535,4c07c5105cac580780e52ddef8472862,PennController,28,0,test_conc,NULL,PennController,39,_Trial_,End,1739275863774,undefined,803,Dark,concrete-negative,concrete,abstract,A,NULL
1739276535,4c07c5105cac580780e52ddef8472862,PennController,31,0,test_conc,NULL,PennController,42,_Trial_,Start,1739275863775,undefined,653,Rotten,concrete-negative,concrete,abstract,A,NULL
1739276535,4c07c5105cac580780e52ddef8472862,PennController,31,0,test_conc,NULL,PennController,42,_Header_,Start,1739275863775,undefined,653,Rotten,concrete-negative,concrete,abstract,A,NULL
1739276535,4c07c5105cac580780e52ddef8472862,PennController,31,0,test_conc,NULL,PennController,42,_Header_,End,1739275864028,undefined,653,Rotten,concrete-negative,concrete,abstract,A,NULL
1739276535,4c07c5105cac580780e52ddef8472862,PennController,31,0,test_conc,NULL,Selector,unnamed-Selector,Selection,concrete,1739275865189,undefined,653,Rotten,concrete-negative,concrete,abstract,A,concrete;abstract
1739276535,4c07c5105cac580780e52ddef8472862,PennController,31,0,test_conc,NULL,PennController,42,_Trial_,End,1739275865191,undefined,653,Rotten,concrete-negative,concrete,abstract,A,NULL
1739276535,4c07c5105cac580780e52ddef8472862,PennController,41,0,test_conc,NULL,PennController,52,_Trial_,Start,1739275865192,undefined,692,Ashamed,abstract-negative,concrete,abstract,A,NULL
1739276535,4c07c5105cac580780e52ddef8472862,PennController,41,0,test_conc,NULL,PennController,52,_Header_,Start,1739275865192,undefined,692,Ashamed,abstract-negative,concrete,abstract,A,NULL
1739276535,4c07c5105cac580780e52ddef8472862,PennController,41,0,test_conc,NULL,PennController,52,_Header_,End,1739275865443,undefined,692,Ashamed,abstract-negative,concrete,abstract,A,NULL
1739276535,4c07c5105cac580780e52ddef8472862,PennController,41,0,test_conc,NULL,Selector,unnamed-Selector,Selection,abstract,1739275866638,undefined,692,Ashamed,abstract-negative,concrete,abstract,A,concrete;abstract
1739276535,4c07c5105cac580780e52ddef8472862,PennController,41,0,test_conc,NULL,PennController,52,_Trial_,End,1739275866640,undefined,692,Ashamed,abstract-negative,concrete,abstract,A,NULL
1739276535,4c07c5105cac580780e52ddef8472862,PennController,36,0,test_conc,NULL,PennController,47,_Trial_,Start,1739275866642,undefined,571,Helpless,abstract-negative,concrete,abstract,A,NULL
1739276535,4c07c5105cac580780e52ddef8472862,PennController,36,0,test_conc,NULL,PennController,47,_Header_,Start,1739275866642,undefined,571,Helpless,abstract-negative,concrete,abstract,A,NULL
1739276535,4c07c5105cac580780e52ddef8472862,PennController,36,0,test_conc,NULL,PennController,47,_Header_,End,1739275866895,undefined,571,Helpless,abstract-negative,concrete,abstract,A,NULL
1739276535,4c07c5105cac580780e52ddef8472862,PennController,36,0,test_conc,NULL,Selector,unnamed-Selector,Selection,abstract,1739275867970,undefined,571,Helpless,abstract-negative,concrete,abstract,A,concrete;abstract
1739276535,4c07c5105cac580780e52ddef8472862,PennController,36,0,test_conc,NULL,PennController,47,_Trial_,End,1739275867972,undefined,571,Helpless,abstract-negative,concrete,abstract,A,NULL
1739276535,4c07c5105cac580780e52ddef8472862,PennController,40,0,test_conc,NULL,PennController,51,_Trial_,Start,1739275867973,undefined,702,Bitter,abstract-negative,concrete,abstract,A,NULL
1739276535,4c07c5105cac580780e52ddef8472862,PennController,40,0,test_conc,NULL,PennController,51,_Header_,Start,1739275867973,undefined,702,Bitter,abstract-negative,concrete,abstract,A,NULL
1739276535,4c07c5105cac580780e52ddef8472862,PennController,40,0,test_conc,NULL,PennController,51,_Header_,End,1739275868227,undefined,702,Bitter,abstract-negative,concrete,abstract,A,NULL
1739276535,4c07c5105cac580780e52ddef8472862,PennController,40,0,test_conc,NULL,Selector,unnamed-Selector,Selection,concrete,1739275869435,undefined,702,Bitter,abstract-negative,concrete,abstract,A,concrete;abstract
1739276535,4c07c5105cac580780e52ddef8472862,PennController,40,0,test_conc,NULL,PennController,51,_Trial_,End,1739275869437,undefined,702,Bitter,abstract-negative,concrete,abstract,A,NULL
1739276535,4c07c5105cac580780e52ddef8472862,PennController,38,0,test_conc,NULL,PennController,49,_Trial_,Start,1739275869439,undefined,720,Regretful,abstract-negative,concrete,abstract,A,NULL
1739276535,4c07c5105cac580780e52ddef8472862,PennController,38,0,test_conc,NULL,PennController,49,_Header_,Start,1739275869439,undefined,720,Regretful,abstract-negative,concrete,abstract,A,NULL
1739276535,4c07c5105cac580780e52ddef8472862,PennController,38,0,test_conc,NULL,PennController,49,_Header_,End,1739275869691,undefined,720,Regretful,abstract-negative,concrete,abstract,A,NULL
1739276535,4c07c5105cac580780e52ddef8472862,PennController,38,0,test_conc,NULL,Selector,unnamed-Selector,Selection,abstract,1739275870918,undefined,720,Regretful,abstract-negative,concrete,abstract,A,concrete;abstract
1739276535,4c07c5105cac580780e52ddef8472862,PennController,38,0,test_conc,NULL,PennController,49,_Trial_,End,1739275870921,undefined,720,Regretful,abstract-negative,concrete,abstract,A,NULL
1739276535,4c07c5105cac580780e52ddef8472862,PennController,9,0,test_conc,NULL,PennController,20,_Trial_,Start,1739275870922,undefined,755,Fragrant,concrete-positive,concrete,abstract,A,NULL
1739276535,4c07c5105cac580780e52ddef8472862,PennController,9,0,test_conc,NULL,PennController,20,_Header_,Start,1739275870922,undefined,755,Fragrant,concrete-positive,concrete,abstract,A,NULL
1739276535,4c07c5105cac580780e52ddef8472862,PennController,9,0,test_conc,NULL,PennController,20,_Header_,End,1739275871175,undefined,755,Fragrant,concrete-positive,concrete,abstract,A,NULL
1739276535,4c07c5105cac580780e52ddef8472862,PennController,9,0,test_conc,NULL,Selector,unnamed-Selector,Selection,abstract,1739275872437,undefined,755,Fragrant,concrete-positive,concrete,abstract,A,concrete;abstract
1739276535,4c07c5105cac580780e52ddef8472862,PennController,9,0,test_conc,NULL,PennController,20,_Trial_,End,1739275872439,undefined,755,Fragrant,concrete-positive,concrete,abstract,A,NULL
1739276535,4c07c5105cac580780e52ddef8472862,PennController,27,0,test_conc,NULL,PennController,38,_Trial_,Start,1739275872440,undefined,691,Cold,concrete-negative,concrete,abstract,A,NULL
1739276535,4c07c5105cac580780e52ddef8472862,PennController,27,0,test_conc,NULL,PennController,38,_Header_,Start,1739275872440,undefined,691,Cold,concrete-negative,concrete,abstract,A,NULL
1739276535,4c07c5105cac580780e52ddef8472862,PennController,27,0,test_conc,NULL,PennController,38,_Header_,End,1739275872693,undefined,691,Cold,concrete-negative,concrete,abstract,A,NULL
1739276535,4c07c5105cac580780e52ddef8472862,PennController,27,0,test_conc,NULL,Selector,unnamed-Selector,Selection,concrete,1739275873889,undefined,691,Cold,concrete-negative,concrete,abstract,A,concrete;abstract
1739276535,4c07c5105cac580780e52ddef8472862,PennController,27,0,test_conc,NULL,PennController,38,_Trial_,End,1739275873891,undefined,691,Cold,concrete-negative,concrete,abstract,A,NULL
1739276535,4c07c5105cac580780e52ddef8472862,PennController,35,0,test_conc,NULL,PennController,46,_Trial_,Start,1739275873891,undefined,734,Worthless,abstract-negative,concrete,abstract,A,NULL
1739276535,4c07c5105cac580780e52ddef8472862,PennController,35,0,test_conc,NULL,PennController,46,_Header_,Start,1739275873891,undefined,734,Worthless,abstract-negative,concrete,abstract,A,NULL
1739276535,4c07c5105cac580780e52ddef8472862,PennController,35,0,test_conc,NULL,PennController,46,_Header_,End,1739275874141,undefined,734,Worthless,abstract-negative,concrete,abstract,A,NULL
1739276535,4c07c5105cac580780e52ddef8472862,PennController,35,0,test_conc,NULL,Selector,unnamed-Selector,Selection,abstract,1739275875381,undefined,734,Worthless,abstract-negative,concrete,abstract,A,concrete;abstract
1739276535,4c07c5105cac580780e52ddef8472862,PennController,35,0,test_conc,NULL,PennController,46,_Trial_,End,1739275875383,undefined,734,Worthless,abstract-negative,concrete,abstract,A,NULL
1739276535,4c07c5105cac580780e52ddef8472862,PennController,39,0,test_conc,NULL,PennController,50,_Trial_,Start,1739275875384,undefined,683,Anxious,abstract-negative,concrete,abstract,A,NULL
1739276535,4c07c5105cac580780e52ddef8472862,PennController,39,0,test_conc,NULL,PennController,50,_Header_,Start,1739275875384,undefined,683,Anxious,abstract-negative,concrete,abstract,A,NULL
1739276535,4c07c5105cac580780e52ddef8472862,PennController,39,0,test_conc,NULL,PennController,50,_Header_,End,1739275875637,undefined,683,Anxious,abstract-negative,concrete,abstract,A,NULL
1739276535,4c07c5105cac580780e52ddef8472862,PennController,39,0,test_conc,NULL,Selector,unnamed-Selector,Selection,abstract,1739275876826,undefined,683,Anxious,abstract-negative,concrete,abstract,A,concrete;abstract
1739276535,4c07c5105cac580780e52ddef8472862,PennController,39,0,test_conc,NULL,PennController,50,_Trial_,End,1739275876828,undefined,683,Anxious,abstract-negative,concrete,abstract,A,NULL
1739276535,4c07c5105cac580780e52ddef8472862,PennController,26,0,test_conc,NULL,PennController,37,_Trial_,Start,1739275876829,undefined,803,Smelly,concrete-negative,concrete,abstract,A,NULL
1739276535,4c07c5105cac580780e52ddef8472862,PennController,26,0,test_conc,NULL,PennController,37,_Header_,Start,1739275876829,undefined,803,Smelly,concrete-negative,concrete,abstract,A,NULL
1739276535,4c07c5105cac580780e52ddef8472862,PennController,26,0,test_conc,NULL,PennController,37,_Header_,End,1739275877081,undefined,803,Smelly,concrete-negative,concrete,abstract,A,NULL
1739276535,4c07c5105cac580780e52ddef8472862,PennController,26,0,test_conc,NULL,Selector,unnamed-Selector,Selection,abstract,1739275878390,undefined,803,Smelly,concrete-negative,concrete,abstract,A,concrete;abstract
1739276535,4c07c5105cac580780e52ddef8472862,PennController,26,0,test_conc,NULL,PennController,37,_Trial_,End,1739275878392,undefined,803,Smelly,concrete-negative,concrete,abstract,A,NULL
1739276535,4c07c5105cac580780e52ddef8472862,PennController,24,0,test_conc,NULL,PennController,35,_Trial_,Start,1739275878393,undefined,1025,Dirty,concrete-negative,concrete,abstract,A,NULL
1739276535,4c07c5105cac580780e52ddef8472862,PennController,24,0,test_conc,NULL,PennController,35,_Header_,Start,1739275878393,undefined,1025,Dirty,concrete-negative,concrete,abstract,A,NULL
1739276535,4c07c5105cac580780e52ddef8472862,PennController,24,0,test_conc,NULL,PennController,35,_Header_,End,1739275878646,undefined,1025,Dirty,concrete-negative,concrete,abstract,A,NULL
1739276535,4c07c5105cac580780e52ddef8472862,PennController,24,0,test_conc,NULL,Selector,unnamed-Selector,Selection,concrete,1739275880177,undefined,1025,Dirty,concrete-negative,concrete,abstract,A,concrete;abstract
1739276535,4c07c5105cac580780e52ddef8472862,PennController,24,0,test_conc,NULL,PennController,35,_Trial_,End,1739275880179,undefined,1025,Dirty,concrete-negative,concrete,abstract,A,NULL
1739276535,4c07c5105cac580780e52ddef8472862,PennController,19,0,test_conc,NULL,PennController,30,_Trial_,Start,1739275880180,undefined,661,Peaceful,abstract-positive,concrete,abstract,A,NULL
1739276535,4c07c5105cac580780e52ddef8472862,PennController,19,0,test_conc,NULL,PennController,30,_Header_,Start,1739275880180,undefined,661,Peaceful,abstract-positive,concrete,abstract,A,NULL
1739276535,4c07c5105cac580780e52ddef8472862,PennController,19,0,test_conc,NULL,PennController,30,_Header_,End,1739275880431,undefined,661,Peaceful,abstract-positive,concrete,abstract,A,NULL
1739276535,4c07c5105cac580780e52ddef8472862,PennController,19,0,test_conc,NULL,Selector,unnamed-Selector,Selection,abstract,1739275881597,undefined,661,Peaceful,abstract-positive,concrete,abstract,A,concrete;abstract
1739276535,4c07c5105cac580780e52ddef8472862,PennController,19,0,test_conc,NULL,PennController,30,_Trial_,End,1739275881599,undefined,661,Peaceful,abstract-positive,concrete,abstract,A,NULL
1739276535,4c07c5105cac580780e52ddef8472862,PennController,10,0,test_conc,NULL,PennController,21,_Trial_,Start,1739275881600,undefined,785,Colorful,concrete-positive,concrete,abstract,A,NULL
1739276535,4c07c5105cac580780e52ddef8472862,PennController,10,0,test_conc,NULL,PennController,21,_Header_,Start,1739275881600,undefined,785,Colorful,concrete-positive,concrete,abstract,A,NULL
1739276535,4c07c5105cac580780e52ddef8472862,PennController,10,0,test_conc,NULL,PennController,21,_Header_,End,1739275881852,undefined,785,Colorful,concrete-positive,concrete,abstract,A,NULL
