#
# Results on Mon, 31 Mar 2025 15:53:48 GMT
# USER AGENT: Mozilla/5.0 (Windows NT 10.0; Win64; x64; rv:136.0) Gecko/20100101 Firefox/136.0
# Design number was non-random = 0
#
# Columns below this comment are as follows:
# 1. Results reception time.
# 2. MD5 hash of participant's IP address.
# 3. Controller name.
# 4. Order number of item.
# 5. Inner element number.
# 6. Label.
# 7. Latin Square Group.
# 8. PennElementType.
# 9. PennElementName.
# 10. Parameter.
# 11. Value.
# 12. EventTime.
# 13. Comments.
1743436428,c661bf3b74c5f8a96420fb07ca192be8,PennController,1,0,welcome,NULL,PennController,0,_Trial_,Start,1743435931735,NULL
1743436428,c661bf3b74c5f8a96420fb07ca192be8,PennController,1,0,welcome,NULL,PennController,0,_Header_,Start,1743435931735,NULL
1743436428,c661bf3b74c5f8a96420fb07ca192be8,PennController,1,0,welcome,NULL,PennController,0,_Header_,End,1743435931992,NULL
1743436428,c661bf3b74c5f8a96420fb07ca192be8,PennController,1,0,welcome,NULL,PennController,0,_Trial_,End,1743435936949,NULL
# 13. ID.
# 14. Comments.
1743436428,c661bf3b74c5f8a96420fb07ca192be8,PennController,124,0,consent,NULL,PennController,2,_Trial_,Start,1743435936952,5fb8b141a2e5dd63494c80f1,NULL
1743436428,c661bf3b74c5f8a96420fb07ca192be8,PennController,124,0,consent,NULL,PennController,2,_Header_,Start,1743435936952,5fb8b141a2e5dd63494c80f1,NULL
1743436428,c661bf3b74c5f8a96420fb07ca192be8,PennController,124,0,consent,NULL,PennController,2,_Header_,End,1743435937203,5fb8b141a2e5dd63494c80f1,NULL
1743436428,c661bf3b74c5f8a96420fb07ca192be8,PennController,124,0,consent,NULL,TextInput,ID,First,,1743435941710,5fb8b141a2e5dd63494c80f1,Control
1743436428,c661bf3b74c5f8a96420fb07ca192be8,PennController,124,0,consent,NULL,TextInput,ID,Final,5fb8b141a2e5dd63494c80f1,1743435943023,5fb8b141a2e5dd63494c80f1,NULL
1743436428,c661bf3b74c5f8a96420fb07ca192be8,PennController,124,0,consent,NULL,PennController,2,_Trial_,End,1743435943023,5fb8b141a2e5dd63494c80f1,NULL
# 13. Comments.
1743436428,c661bf3b74c5f8a96420fb07ca192be8,PennController,126,0,instructions1_val,NULL,PennController,4,_Trial_,Start,1743435943023,NULL
1743436428,c661bf3b74c5f8a96420fb07ca192be8,PennController,126,0,instructions1_val,NULL,PennController,4,_Header_,Start,1743435943023,NULL
1743436428,c661bf3b74c5f8a96420fb07ca192be8,PennController,126,0,instructions1_val,NULL,PennController,4,_Header_,End,1743435943285,NULL
1743436428,c661bf3b74c5f8a96420fb07ca192be8,PennController,126,0,instructions1_val,NULL,PennController,4,_Trial_,End,1743435954344,NULL
1743436428,c661bf3b74c5f8a96420fb07ca192be8,PennController,127,0,instructions2_val,NULL,PennController,5,_Trial_,Start,1743435954346,NULL
1743436428,c661bf3b74c5f8a96420fb07ca192be8,PennController,127,0,instructions2_val,NULL,PennController,5,_Header_,Start,1743435954346,NULL
1743436428,c661bf3b74c5f8a96420fb07ca192be8,PennController,127,0,instructions2_val,NULL,PennController,5,_Header_,End,1743435954605,NULL
1743436428,c661bf3b74c5f8a96420fb07ca192be8,PennController,127,0,instructions2_val,NULL,PennController,5,_Trial_,End,1743435959529,NULL
1743436428,c661bf3b74c5f8a96420fb07ca192be8,PennController,128,0,instructions3_hands,NULL,PennController,6,_Trial_,Start,1743435959530,NULL
1743436428,c661bf3b74c5f8a96420fb07ca192be8,PennController,128,0,instructions3_hands,NULL,PennController,6,_Header_,Start,1743435959530,NULL
1743436428,c661bf3b74c5f8a96420fb07ca192be8,PennController,128,0,instructions3_hands,NULL,PennController,6,_Header_,End,1743435959790,NULL
1743436428,c661bf3b74c5f8a96420fb07ca192be8,PennController,128,0,instructions3_hands,NULL,PennController,6,_Trial_,End,1743435963988,NULL
1743436428,c661bf3b74c5f8a96420fb07ca192be8,PennController,129,0,practice_intro_val,NULL,PennController,7,_Trial_,Start,1743435963988,NULL
1743436428,c661bf3b74c5f8a96420fb07ca192be8,PennController,129,0,practice_intro_val,NULL,PennController,7,_Header_,Start,1743435963988,NULL
1743436428,c661bf3b74c5f8a96420fb07ca192be8,PennController,129,0,practice_intro_val,NULL,PennController,7,_Header_,End,1743435964243,NULL
1743436428,c661bf3b74c5f8a96420fb07ca192be8,PennController,129,0,practice_intro_val,NULL,PennController,7,_Trial_,End,1743435965719,NULL
# 13. ID.
# 14. ReactionTime.
# 15. Word.
# 16. selectedKey.
# 17. selectedValue.
# 18. Key_value_F.
# 19. Key_value_J.
# 20. Group.
# 21. Comments.
1743436428,c661bf3b74c5f8a96420fb07ca192be8,PennController,107,0,calibrator_val_feedback,NULL,PennController,118,_Trial_,Start,1743435965720,undefined,1302,icebox,undefined,positive,negative,positive,B,NULL
1743436428,c661bf3b74c5f8a96420fb07ca192be8,PennController,107,0,calibrator_val_feedback,NULL,PennController,118,_Header_,Start,1743435965720,undefined,1302,icebox,undefined,positive,negative,positive,B,NULL
1743436428,c661bf3b74c5f8a96420fb07ca192be8,PennController,107,0,calibrator_val_feedback,NULL,PennController,118,_Header_,End,1743435965972,undefined,1302,icebox,undefined,positive,negative,positive,B,NULL
1743436428,c661bf3b74c5f8a96420fb07ca192be8,PennController,107,0,calibrator_val_feedback,NULL,Selector,Selection,Selection,negative,1743435967781,undefined,1302,icebox,undefined,positive,negative,positive,B,negative;positive
1743436428,c661bf3b74c5f8a96420fb07ca192be8,PennController,107,0,calibrator_val_feedback,NULL,PennController,118,_Trial_,End,1743435969790,undefined,1302,icebox,undefined,positive,negative,positive,B,NULL
1743436428,c661bf3b74c5f8a96420fb07ca192be8,PennController,104,0,calibrator_val_feedback,NULL,PennController,115,_Trial_,Start,1743435969791,undefined,1033,free,undefined,positive,negative,positive,B,NULL
1743436428,c661bf3b74c5f8a96420fb07ca192be8,PennController,104,0,calibrator_val_feedback,NULL,PennController,115,_Header_,Start,1743435969791,undefined,1033,free,undefined,positive,negative,positive,B,NULL
1743436428,c661bf3b74c5f8a96420fb07ca192be8,PennController,104,0,calibrator_val_feedback,NULL,PennController,115,_Header_,End,1743435970051,undefined,1033,free,undefined,positive,negative,positive,B,NULL
1743436428,c661bf3b74c5f8a96420fb07ca192be8,PennController,104,0,calibrator_val_feedback,NULL,Selector,Selection,Selection,positive,1743435971591,undefined,1033,free,undefined,positive,negative,positive,B,negative;positive
1743436428,c661bf3b74c5f8a96420fb07ca192be8,PennController,104,0,calibrator_val_feedback,NULL,PennController,115,_Trial_,End,1743435973603,undefined,1033,free,undefined,positive,negative,positive,B,NULL
1743436428,c661bf3b74c5f8a96420fb07ca192be8,PennController,105,0,calibrator_val_feedback,NULL,PennController,116,_Trial_,Start,1743435973604,undefined,891,grin,undefined,positive,negative,positive,B,NULL
1743436428,c661bf3b74c5f8a96420fb07ca192be8,PennController,105,0,calibrator_val_feedback,NULL,PennController,116,_Header_,Start,1743435973604,undefined,891,grin,undefined,positive,negative,positive,B,NULL
1743436428,c661bf3b74c5f8a96420fb07ca192be8,PennController,105,0,calibrator_val_feedback,NULL,PennController,116,_Header_,End,1743435973865,undefined,891,grin,undefined,positive,negative,positive,B,NULL
1743436428,c661bf3b74c5f8a96420fb07ca192be8,PennController,105,0,calibrator_val_feedback,NULL,Selector,Selection,Selection,positive,1743435975265,undefined,891,grin,undefined,positive,negative,positive,B,negative;positive
1743436428,c661bf3b74c5f8a96420fb07ca192be8,PennController,105,0,calibrator_val_feedback,NULL,PennController,116,_Trial_,End,1743435977269,undefined,891,grin,undefined,positive,negative,positive,B,NULL
1743436428,c661bf3b74c5f8a96420fb07ca192be8,PennController,112,0,calibrator_val_feedback,NULL,PennController,123,_Trial_,Start,1743435977269,undefined,538,joke,undefined,positive,negative,positive,B,NULL
1743436428,c661bf3b74c5f8a96420fb07ca192be8,PennController,112,0,calibrator_val_feedback,NULL,PennController,123,_Header_,Start,1743435977269,undefined,538,joke,undefined,positive,negative,positive,B,NULL
1743436428,c661bf3b74c5f8a96420fb07ca192be8,PennController,112,0,calibrator_val_feedback,NULL,PennController,123,_Header_,End,1743435977529,undefined,538,joke,undefined,positive,negative,positive,B,NULL
1743436428,c661bf3b74c5f8a96420fb07ca192be8,PennController,112,0,calibrator_val_feedback,NULL,Selector,Selection,Selection,positive,1743435978573,undefined,538,joke,undefined,positive,negative,positive,B,negative;positive
1743436428,c661bf3b74c5f8a96420fb07ca192be8,PennController,112,0,calibrator_val_feedback,NULL,PennController,123,_Trial_,End,1743435980586,undefined,538,joke,undefined,positive,negative,positive,B,NULL
1743436428,c661bf3b74c5f8a96420fb07ca192be8,PennController,109,0,calibrator_val_feedback,NULL,PennController,120,_Trial_,Start,1743435980587,undefined,539,insecure,undefined,positive,negative,positive,B,NULL
1743436428,c661bf3b74c5f8a96420fb07ca192be8,PennController,109,0,calibrator_val_feedback,NULL,PennController,120,_Header_,Start,1743435980587,undefined,539,insecure,undefined,positive,negative,positive,B,NULL
1743436428,c661bf3b74c5f8a96420fb07ca192be8,PennController,109,0,calibrator_val_feedback,NULL,PennController,120,_Header_,End,1743435980847,undefined,539,insecure,undefined,positive,negative,positive,B,NULL
1743436428,c661bf3b74c5f8a96420fb07ca192be8,PennController,109,0,calibrator_val_feedback,NULL,Selector,Selection,Selection,negative,1743435981895,undefined,539,insecure,undefined,positive,negative,positive,B,negative;positive
1743436428,c661bf3b74c5f8a96420fb07ca192be8,PennController,109,0,calibrator_val_feedback,NULL,PennController,120,_Trial_,End,1743435983897,undefined,539,insecure,undefined,positive,negative,positive,B,NULL
1743436428,c661bf3b74c5f8a96420fb07ca192be8,PennController,108,0,calibrator_val_feedback,NULL,PennController,119,_Trial_,Start,1743435983897,undefined,1091,industry,undefined,positive,negative,positive,B,NULL
1743436428,c661bf3b74c5f8a96420fb07ca192be8,PennController,108,0,calibrator_val_feedback,NULL,PennController,119,_Header_,Start,1743435983897,undefined,1091,industry,undefined,positive,negative,positive,B,NULL
1743436428,c661bf3b74c5f8a96420fb07ca192be8,PennController,108,0,calibrator_val_feedback,NULL,PennController,119,_Header_,End,1743435984158,undefined,1091,industry,undefined,positive,negative,positive,B,NULL
1743436428,c661bf3b74c5f8a96420fb07ca192be8,PennController,108,0,calibrator_val_feedback,NULL,Selector,Selection,Selection,positive,1743435985756,undefined,1091,industry,undefined,positive,negative,positive,B,negative;positive
1743436428,c661bf3b74c5f8a96420fb07ca192be8,PennController,108,0,calibrator_val_feedback,NULL,PennController,119,_Trial_,End,1743435987760,undefined,1091,industry,undefined,positive,negative,positive,B,NULL
1743436428,c661bf3b74c5f8a96420fb07ca192be8,PennController,111,0,calibrator_val_feedback,NULL,PennController,122,_Trial_,Start,1743435987761,undefined,707,jail,undefined,positive,negative,positive,B,NULL
1743436428,c661bf3b74c5f8a96420fb07ca192be8,PennController,111,0,calibrator_val_feedback,NULL,PennController,122,_Header_,Start,1743435987761,undefined,707,jail,undefined,positive,negative,positive,B,NULL
1743436428,c661bf3b74c5f8a96420fb07ca192be8,PennController,111,0,calibrator_val_feedback,NULL,PennController,122,_Header_,End,1743435988021,undefined,707,jail,undefined,positive,negative,positive,B,NULL
1743436428,c661bf3b74c5f8a96420fb07ca192be8,PennController,111,0,calibrator_val_feedback,NULL,Selector,Selection,Selection,negative,1743435989235,undefined,707,jail,undefined,positive,negative,positive,B,negative;positive
1743436428,c661bf3b74c5f8a96420fb07ca192be8,PennController,111,0,calibrator_val_feedback,NULL,PennController,122,_Trial_,End,1743435991251,undefined,707,jail,undefined,positive,negative,positive,B,NULL
1743436428,c661bf3b74c5f8a96420fb07ca192be8,PennController,106,0,calibrator_val_feedback,NULL,PennController,117,_Trial_,Start,1743435991252,undefined,745,hat,undefined,positive,negative,positive,B,NULL
1743436428,c661bf3b74c5f8a96420fb07ca192be8,PennController,106,0,calibrator_val_feedback,NULL,PennController,117,_Header_,Start,1743435991252,undefined,745,hat,undefined,positive,negative,positive,B,NULL
1743436428,c661bf3b74c5f8a96420fb07ca192be8,PennController,106,0,calibrator_val_feedback,NULL,PennController,117,_Header_,End,1743435991513,undefined,745,hat,undefined,positive,negative,positive,B,NULL
1743436428,c661bf3b74c5f8a96420fb07ca192be8,PennController,106,0,calibrator_val_feedback,NULL,Selector,Selection,Selection,positive,1743435992768,undefined,745,hat,undefined,positive,negative,positive,B,negative;positive
1743436428,c661bf3b74c5f8a96420fb07ca192be8,PennController,106,0,calibrator_val_feedback,NULL,PennController,117,_Trial_,End,1743435994776,undefined,745,hat,undefined,positive,negative,positive,B,NULL
1743436428,c661bf3b74c5f8a96420fb07ca192be8,PennController,113,0,calibrator_val_feedback,NULL,PennController,124,_Trial_,Start,1743435994776,undefined,721,kitten,undefined,positive,negative,positive,B,NULL
1743436428,c661bf3b74c5f8a96420fb07ca192be8,PennController,113,0,calibrator_val_feedback,NULL,PennController,124,_Header_,Start,1743435994776,undefined,721,kitten,undefined,positive,negative,positive,B,NULL
1743436428,c661bf3b74c5f8a96420fb07ca192be8,PennController,113,0,calibrator_val_feedback,NULL,PennController,124,_Header_,End,1743435995037,undefined,721,kitten,undefined,positive,negative,positive,B,NULL
1743436428,c661bf3b74c5f8a96420fb07ca192be8,PennController,113,0,calibrator_val_feedback,NULL,Selector,Selection,Selection,positive,1743435996268,undefined,721,kitten,undefined,positive,negative,positive,B,negative;positive
1743436428,c661bf3b74c5f8a96420fb07ca192be8,PennController,113,0,calibrator_val_feedback,NULL,PennController,124,_Trial_,End,1743435998270,undefined,721,kitten,undefined,positive,negative,positive,B,NULL
1743436428,c661bf3b74c5f8a96420fb07ca192be8,PennController,110,0,calibrator_val_feedback,NULL,PennController,121,_Trial_,Start,1743435998272,undefined,706,invader,undefined,positive,negative,positive,B,NULL
1743436428,c661bf3b74c5f8a96420fb07ca192be8,PennController,110,0,calibrator_val_feedback,NULL,PennController,121,_Header_,Start,1743435998272,undefined,706,invader,undefined,positive,negative,positive,B,NULL
1743436428,c661bf3b74c5f8a96420fb07ca192be8,PennController,110,0,calibrator_val_feedback,NULL,PennController,121,_Header_,End,1743435998530,undefined,706,invader,undefined,positive,negative,positive,B,NULL
1743436428,c661bf3b74c5f8a96420fb07ca192be8,PennController,110,0,calibrator_val_feedback,NULL,Selector,Selection,Selection,negative,1743435999747,undefined,706,invader,undefined,positive,negative,positive,B,negative;positive
1743436428,c661bf3b74c5f8a96420fb07ca192be8,PennController,110,0,calibrator_val_feedback,NULL,PennController,121,_Trial_,End,1743436001747,undefined,706,invader,undefined,positive,negative,positive,B,NULL
# 16. Key_value_F.
# 17. Key_value_J.
# 18. Group.
# 19. Comments.
1743436428,c661bf3b74c5f8a96420fb07ca192be8,PennController,118,0,calibrator_val_no_feedback,NULL,PennController,129,_Trial_,Start,1743436001748,undefined,1010,industry,negative,positive,B,NULL
1743436428,c661bf3b74c5f8a96420fb07ca192be8,PennController,118,0,calibrator_val_no_feedback,NULL,PennController,129,_Header_,Start,1743436001748,undefined,1010,industry,negative,positive,B,NULL
1743436428,c661bf3b74c5f8a96420fb07ca192be8,PennController,118,0,calibrator_val_no_feedback,NULL,PennController,129,_Header_,End,1743436002009,undefined,1010,industry,negative,positive,B,NULL
1743436428,c661bf3b74c5f8a96420fb07ca192be8,PennController,118,0,calibrator_val_no_feedback,NULL,Selector,unnamed-Selector,Selection,negative,1743436003527,undefined,1010,industry,negative,positive,B,negative;positive
1743436428,c661bf3b74c5f8a96420fb07ca192be8,PennController,118,0,calibrator_val_no_feedback,NULL,PennController,129,_Trial_,End,1743436003528,undefined,1010,industry,negative,positive,B,NULL
1743436428,c661bf3b74c5f8a96420fb07ca192be8,PennController,121,0,calibrator_val_no_feedback,NULL,PennController,132,_Trial_,Start,1743436003528,undefined,766,jail,negative,positive,B,NULL
1743436428,c661bf3b74c5f8a96420fb07ca192be8,PennController,121,0,calibrator_val_no_feedback,NULL,PennController,132,_Header_,Start,1743436003528,undefined,766,jail,negative,positive,B,NULL
1743436428,c661bf3b74c5f8a96420fb07ca192be8,PennController,121,0,calibrator_val_no_feedback,NULL,PennController,132,_Header_,End,1743436003779,undefined,766,jail,negative,positive,B,NULL
1743436428,c661bf3b74c5f8a96420fb07ca192be8,PennController,121,0,calibrator_val_no_feedback,NULL,Selector,unnamed-Selector,Selection,negative,1743436005053,undefined,766,jail,negative,positive,B,negative;positive
1743436428,c661bf3b74c5f8a96420fb07ca192be8,PennController,121,0,calibrator_val_no_feedback,NULL,PennController,132,_Trial_,End,1743436005054,undefined,766,jail,negative,positive,B,NULL
1743436428,c661bf3b74c5f8a96420fb07ca192be8,PennController,123,0,calibrator_val_no_feedback,NULL,PennController,134,_Trial_,Start,1743436005054,undefined,569,kitten,negative,positive,B,NULL
1743436428,c661bf3b74c5f8a96420fb07ca192be8,PennController,123,0,calibrator_val_no_feedback,NULL,PennController,134,_Header_,Start,1743436005054,undefined,569,kitten,negative,positive,B,NULL
1743436428,c661bf3b74c5f8a96420fb07ca192be8,PennController,123,0,calibrator_val_no_feedback,NULL,PennController,134,_Header_,End,1743436005314,undefined,569,kitten,negative,positive,B,NULL
1743436428,c661bf3b74c5f8a96420fb07ca192be8,PennController,123,0,calibrator_val_no_feedback,NULL,Selector,unnamed-Selector,Selection,positive,1743436006390,undefined,569,kitten,negative,positive,B,negative;positive
1743436428,c661bf3b74c5f8a96420fb07ca192be8,PennController,123,0,calibrator_val_no_feedback,NULL,PennController,134,_Trial_,End,1743436006391,undefined,569,kitten,negative,positive,B,NULL
1743436428,c661bf3b74c5f8a96420fb07ca192be8,PennController,119,0,calibrator_val_no_feedback,NULL,PennController,130,_Trial_,Start,1743436006391,undefined,547,insecure,negative,positive,B,NULL
1743436428,c661bf3b74c5f8a96420fb07ca192be8,PennController,119,0,calibrator_val_no_feedback,NULL,PennController,130,_Header_,Start,1743436006391,undefined,547,insecure,negative,positive,B,NULL
1743436428,c661bf3b74c5f8a96420fb07ca192be8,PennController,119,0,calibrator_val_no_feedback,NULL,PennController,130,_Header_,End,1743436006653,undefined,547,insecure,negative,positive,B,NULL
1743436428,c661bf3b74c5f8a96420fb07ca192be8,PennController,119,0,calibrator_val_no_feedback,NULL,Selector,unnamed-Selector,Selection,negative,1743436007710,undefined,547,insecure,negative,positive,B,negative;positive
1743436428,c661bf3b74c5f8a96420fb07ca192be8,PennController,119,0,calibrator_val_no_feedback,NULL,PennController,130,_Trial_,End,1743436007711,undefined,547,insecure,negative,positive,B,NULL
1743436428,c661bf3b74c5f8a96420fb07ca192be8,PennController,117,0,calibrator_val_no_feedback,NULL,PennController,128,_Trial_,Start,1743436007711,undefined,710,icebox,negative,positive,B,NULL
1743436428,c661bf3b74c5f8a96420fb07ca192be8,PennController,117,0,calibrator_val_no_feedback,NULL,PennController,128,_Header_,Start,1743436007711,undefined,710,icebox,negative,positive,B,NULL
1743436428,c661bf3b74c5f8a96420fb07ca192be8,PennController,117,0,calibrator_val_no_feedback,NULL,PennController,128,_Header_,End,1743436007963,undefined,710,icebox,negative,positive,B,NULL
1743436428,c661bf3b74c5f8a96420fb07ca192be8,PennController,117,0,calibrator_val_no_feedback,NULL,Selector,unnamed-Selector,Selection,negative,1743436009182,undefined,710,icebox,negative,positive,B,negative;positive
1743436428,c661bf3b74c5f8a96420fb07ca192be8,PennController,117,0,calibrator_val_no_feedback,NULL,PennController,128,_Trial_,End,1743436009182,undefined,710,icebox,negative,positive,B,NULL
1743436428,c661bf3b74c5f8a96420fb07ca192be8,PennController,122,0,calibrator_val_no_feedback,NULL,PennController,133,_Trial_,Start,1743436009183,undefined,505,joke,negative,positive,B,NULL
1743436428,c661bf3b74c5f8a96420fb07ca192be8,PennController,122,0,calibrator_val_no_feedback,NULL,PennController,133,_Header_,Start,1743436009183,undefined,505,joke,negative,positive,B,NULL
1743436428,c661bf3b74c5f8a96420fb07ca192be8,PennController,122,0,calibrator_val_no_feedback,NULL,PennController,133,_Header_,End,1743436009440,undefined,505,joke,negative,positive,B,NULL
1743436428,c661bf3b74c5f8a96420fb07ca192be8,PennController,122,0,calibrator_val_no_feedback,NULL,Selector,unnamed-Selector,Selection,positive,1743436010451,undefined,505,joke,negative,positive,B,negative;positive
1743436428,c661bf3b74c5f8a96420fb07ca192be8,PennController,122,0,calibrator_val_no_feedback,NULL,PennController,133,_Trial_,End,1743436010452,undefined,505,joke,negative,positive,B,NULL
1743436428,c661bf3b74c5f8a96420fb07ca192be8,PennController,116,0,calibrator_val_no_feedback,NULL,PennController,127,_Trial_,Start,1743436010452,undefined,585,hat,negative,positive,B,NULL
1743436428,c661bf3b74c5f8a96420fb07ca192be8,PennController,116,0,calibrator_val_no_feedback,NULL,PennController,127,_Header_,Start,1743436010452,undefined,585,hat,negative,positive,B,NULL
1743436428,c661bf3b74c5f8a96420fb07ca192be8,PennController,116,0,calibrator_val_no_feedback,NULL,PennController,127,_Header_,End,1743436010714,undefined,585,hat,negative,positive,B,NULL
1743436428,c661bf3b74c5f8a96420fb07ca192be8,PennController,116,0,calibrator_val_no_feedback,NULL,Selector,unnamed-Selector,Selection,positive,1743436011807,undefined,585,hat,negative,positive,B,negative;positive
1743436428,c661bf3b74c5f8a96420fb07ca192be8,PennController,116,0,calibrator_val_no_feedback,NULL,PennController,127,_Trial_,End,1743436011808,undefined,585,hat,negative,positive,B,NULL
1743436428,c661bf3b74c5f8a96420fb07ca192be8,PennController,114,0,calibrator_val_no_feedback,NULL,PennController,125,_Trial_,Start,1743436011808,undefined,517,free,negative,positive,B,NULL
1743436428,c661bf3b74c5f8a96420fb07ca192be8,PennController,114,0,calibrator_val_no_feedback,NULL,PennController,125,_Header_,Start,1743436011808,undefined,517,free,negative,positive,B,NULL
1743436428,c661bf3b74c5f8a96420fb07ca192be8,PennController,114,0,calibrator_val_no_feedback,NULL,PennController,125,_Header_,End,1743436012066,undefined,517,free,negative,positive,B,NULL
1743436428,c661bf3b74c5f8a96420fb07ca192be8,PennController,114,0,calibrator_val_no_feedback,NULL,Selector,unnamed-Selector,Selection,positive,1743436013092,undefined,517,free,negative,positive,B,negative;positive
1743436428,c661bf3b74c5f8a96420fb07ca192be8,PennController,114,0,calibrator_val_no_feedback,NULL,PennController,125,_Trial_,End,1743436013092,undefined,517,free,negative,positive,B,NULL
1743436428,c661bf3b74c5f8a96420fb07ca192be8,PennController,115,0,calibrator_val_no_feedback,NULL,PennController,126,_Trial_,Start,1743436013093,undefined,494,grin,negative,positive,B,NULL
1743436428,c661bf3b74c5f8a96420fb07ca192be8,PennController,115,0,calibrator_val_no_feedback,NULL,PennController,126,_Header_,Start,1743436013093,undefined,494,grin,negative,positive,B,NULL
1743436428,c661bf3b74c5f8a96420fb07ca192be8,PennController,115,0,calibrator_val_no_feedback,NULL,PennController,126,_Header_,End,1743436013358,undefined,494,grin,negative,positive,B,NULL
1743436428,c661bf3b74c5f8a96420fb07ca192be8,PennController,115,0,calibrator_val_no_feedback,NULL,Selector,unnamed-Selector,Selection,positive,1743436014361,undefined,494,grin,negative,positive,B,negative;positive
1743436428,c661bf3b74c5f8a96420fb07ca192be8,PennController,115,0,calibrator_val_no_feedback,NULL,PennController,126,_Trial_,End,1743436014361,undefined,494,grin,negative,positive,B,NULL
1743436428,c661bf3b74c5f8a96420fb07ca192be8,PennController,120,0,calibrator_val_no_feedback,NULL,PennController,131,_Trial_,Start,1743436014362,undefined,515,invader,negative,positive,B,NULL
1743436428,c661bf3b74c5f8a96420fb07ca192be8,PennController,120,0,calibrator_val_no_feedback,NULL,PennController,131,_Header_,Start,1743436014362,undefined,515,invader,negative,positive,B,NULL
1743436428,c661bf3b74c5f8a96420fb07ca192be8,PennController,120,0,calibrator_val_no_feedback,NULL,PennController,131,_Header_,End,1743436014622,undefined,515,invader,negative,positive,B,NULL
1743436428,c661bf3b74c5f8a96420fb07ca192be8,PennController,120,0,calibrator_val_no_feedback,NULL,Selector,unnamed-Selector,Selection,negative,1743436015644,undefined,515,invader,negative,positive,B,negative;positive
1743436428,c661bf3b74c5f8a96420fb07ca192be8,PennController,120,0,calibrator_val_no_feedback,NULL,PennController,131,_Trial_,End,1743436015645,undefined,515,invader,negative,positive,B,NULL
# 13. Comments.
1743436428,c661bf3b74c5f8a96420fb07ca192be8,PennController,130,0,endinstructions_val,NULL,PennController,8,_Trial_,Start,1743436015645,NULL
1743436428,c661bf3b74c5f8a96420fb07ca192be8,PennController,130,0,endinstructions_val,NULL,PennController,8,_Header_,Start,1743436015645,NULL
1743436428,c661bf3b74c5f8a96420fb07ca192be8,PennController,130,0,endinstructions_val,NULL,PennController,8,_Header_,End,1743436015897,NULL
1743436428,c661bf3b74c5f8a96420fb07ca192be8,PennController,130,0,endinstructions_val,NULL,PennController,8,_Trial_,End,1743436019205,NULL
# 13. ID.
# 14. ReactionTime.
# 15. Word.
# 16. Key_value_F.
# 17. Key_value_J.
# 18. Group.
# 19. Comments.
1743436428,c661bf3b74c5f8a96420fb07ca192be8,PennController,55,0,test_val,NULL,PennController,66,_Trial_,Start,1743436019205,undefined,716,encourage,negative,positive,B,NULL
1743436428,c661bf3b74c5f8a96420fb07ca192be8,PennController,55,0,test_val,NULL,PennController,66,_Header_,Start,1743436019205,undefined,716,encourage,negative,positive,B,NULL
1743436428,c661bf3b74c5f8a96420fb07ca192be8,PennController,55,0,test_val,NULL,PennController,66,_Header_,End,1743436019465,undefined,716,encourage,negative,positive,B,NULL
1743436428,c661bf3b74c5f8a96420fb07ca192be8,PennController,55,0,test_val,NULL,Selector,unnamed-Selector,Selection,positive,1743436020689,undefined,716,encourage,negative,positive,B,negative;positive
1743436428,c661bf3b74c5f8a96420fb07ca192be8,PennController,55,0,test_val,NULL,PennController,66,_Trial_,End,1743436020689,undefined,716,encourage,negative,positive,B,NULL
1743436428,c661bf3b74c5f8a96420fb07ca192be8,PennController,59,0,test_val,NULL,PennController,70,_Trial_,Start,1743436020690,undefined,591,reassure,negative,positive,B,NULL
1743436428,c661bf3b74c5f8a96420fb07ca192be8,PennController,59,0,test_val,NULL,PennController,70,_Header_,Start,1743436020690,undefined,591,reassure,negative,positive,B,NULL
1743436428,c661bf3b74c5f8a96420fb07ca192be8,PennController,59,0,test_val,NULL,PennController,70,_Header_,End,1743436020940,undefined,591,reassure,negative,positive,B,NULL
1743436428,c661bf3b74c5f8a96420fb07ca192be8,PennController,59,0,test_val,NULL,Selector,unnamed-Selector,Selection,positive,1743436022041,undefined,591,reassure,negative,positive,B,negative;positive
1743436428,c661bf3b74c5f8a96420fb07ca192be8,PennController,59,0,test_val,NULL,PennController,70,_Trial_,End,1743436022041,undefined,591,reassure,negative,positive,B,NULL
1743436428,c661bf3b74c5f8a96420fb07ca192be8,PennController,52,0,test_val,NULL,PennController,63,_Trial_,Start,1743436022042,undefined,544,decorate,negative,positive,B,NULL
1743436428,c661bf3b74c5f8a96420fb07ca192be8,PennController,52,0,test_val,NULL,PennController,63,_Header_,Start,1743436022042,undefined,544,decorate,negative,positive,B,NULL
1743436428,c661bf3b74c5f8a96420fb07ca192be8,PennController,52,0,test_val,NULL,PennController,63,_Header_,End,1743436022297,undefined,544,decorate,negative,positive,B,NULL
1743436428,c661bf3b74c5f8a96420fb07ca192be8,PennController,52,0,test_val,NULL,Selector,unnamed-Selector,Selection,positive,1743436023349,undefined,544,decorate,negative,positive,B,negative;positive
1743436428,c661bf3b74c5f8a96420fb07ca192be8,PennController,52,0,test_val,NULL,PennController,63,_Trial_,End,1743436023349,undefined,544,decorate,negative,positive,B,NULL
1743436428,c661bf3b74c5f8a96420fb07ca192be8,PennController,49,0,test_val,NULL,PennController,60,_Trial_,Start,1743436023350,undefined,466,produce,negative,positive,B,NULL
1743436428,c661bf3b74c5f8a96420fb07ca192be8,PennController,49,0,test_val,NULL,PennController,60,_Header_,Start,1743436023350,undefined,466,produce,negative,positive,B,NULL
1743436428,c661bf3b74c5f8a96420fb07ca192be8,PennController,49,0,test_val,NULL,PennController,60,_Header_,End,1743436023605,undefined,466,produce,negative,positive,B,NULL
1743436428,c661bf3b74c5f8a96420fb07ca192be8,PennController,49,0,test_val,NULL,Selector,unnamed-Selector,Selection,positive,1743436024580,undefined,466,produce,negative,positive,B,negative;positive
1743436428,c661bf3b74c5f8a96420fb07ca192be8,PennController,49,0,test_val,NULL,PennController,60,_Trial_,End,1743436024581,undefined,466,produce,negative,positive,B,NULL
1743436428,c661bf3b74c5f8a96420fb07ca192be8,PennController,68,0,test_val,NULL,PennController,79,_Trial_,Start,1743436024581,undefined,567,tear,negative,positive,B,NULL
1743436428,c661bf3b74c5f8a96420fb07ca192be8,PennController,68,0,test_val,NULL,PennController,79,_Header_,Start,1743436024581,undefined,567,tear,negative,positive,B,NULL
1743436428,c661bf3b74c5f8a96420fb07ca192be8,PennController,68,0,test_val,NULL,PennController,79,_Header_,End,1743436024834,undefined,567,tear,negative,positive,B,NULL
1743436428,c661bf3b74c5f8a96420fb07ca192be8,PennController,68,0,test_val,NULL,Selector,unnamed-Selector,Selection,negative,1743436025910,undefined,567,tear,negative,positive,B,negative;positive
1743436428,c661bf3b74c5f8a96420fb07ca192be8,PennController,68,0,test_val,NULL,PennController,79,_Trial_,End,1743436025911,undefined,567,tear,negative,positive,B,NULL
1743436428,c661bf3b74c5f8a96420fb07ca192be8,PennController,48,0,test_val,NULL,PennController,59,_Trial_,Start,1743436025911,undefined,497,hug,negative,positive,B,NULL
1743436428,c661bf3b74c5f8a96420fb07ca192be8,PennController,48,0,test_val,NULL,PennController,59,_Header_,Start,1743436025911,undefined,497,hug,negative,positive,B,NULL
1743436428,c661bf3b74c5f8a96420fb07ca192be8,PennController,48,0,test_val,NULL,PennController,59,_Header_,End,1743436026173,undefined,497,hug,negative,positive,B,NULL
1743436428,c661bf3b74c5f8a96420fb07ca192be8,PennController,48,0,test_val,NULL,Selector,unnamed-Selector,Selection,positive,1743436027179,undefined,497,hug,negative,positive,B,negative;positive
1743436428,c661bf3b74c5f8a96420fb07ca192be8,PennController,48,0,test_val,NULL,PennController,59,_Trial_,End,1743436027179,undefined,497,hug,negative,positive,B,NULL
1743436428,c661bf3b74c5f8a96420fb07ca192be8,PennController,67,0,test_val,NULL,PennController,78,_Trial_,Start,1743436027179,undefined,714,crash,negative,positive,B,NULL
1743436428,c661bf3b74c5f8a96420fb07ca192be8,PennController,67,0,test_val,NULL,PennController,78,_Header_,Start,1743436027179,undefined,714,crash,negative,positive,B,NULL
1743436428,c661bf3b74c5f8a96420fb07ca192be8,PennController,67,0,test_val,NULL,PennController,78,_Header_,End,1743436027433,undefined,714,crash,negative,positive,B,NULL
1743436428,c661bf3b74c5f8a96420fb07ca192be8,PennController,67,0,test_val,NULL,Selector,unnamed-Selector,Selection,negative,1743436028658,undefined,714,crash,negative,positive,B,negative;positive
1743436428,c661bf3b74c5f8a96420fb07ca192be8,PennController,67,0,test_val,NULL,PennController,78,_Trial_,End,1743436028659,undefined,714,crash,negative,positive,B,NULL
1743436428,c661bf3b74c5f8a96420fb07ca192be8,PennController,79,0,test_val,NULL,PennController,90,_Trial_,Start,1743436028659,undefined,533,embarrass,negative,positive,B,NULL
1743436428,c661bf3b74c5f8a96420fb07ca192be8,PennController,79,0,test_val,NULL,PennController,90,_Header_,Start,1743436028659,undefined,533,embarrass,negative,positive,B,NULL
1743436428,c661bf3b74c5f8a96420fb07ca192be8,PennController,79,0,test_val,NULL,PennController,90,_Header_,End,1743436028914,undefined,533,embarrass,negative,positive,B,NULL
1743436428,c661bf3b74c5f8a96420fb07ca192be8,PennController,79,0,test_val,NULL,Selector,unnamed-Selector,Selection,negative,1743436029955,undefined,533,embarrass,negative,positive,B,negative;positive
1743436428,c661bf3b74c5f8a96420fb07ca192be8,PennController,79,0,test_val,NULL,PennController,90,_Trial_,End,1743436029955,undefined,533,embarrass,negative,positive,B,NULL
1743436428,c661bf3b74c5f8a96420fb07ca192be8,PennController,81,0,test_val,NULL,PennController,92,_Trial_,Start,1743436029956,undefined,541,dismay,negative,positive,B,NULL
1743436428,c661bf3b74c5f8a96420fb07ca192be8,PennController,81,0,test_val,NULL,PennController,92,_Header_,Start,1743436029956,undefined,541,dismay,negative,positive,B,NULL
1743436428,c661bf3b74c5f8a96420fb07ca192be8,PennController,81,0,test_val,NULL,PennController,92,_Header_,End,1743436030207,undefined,541,dismay,negative,positive,B,NULL
1743436428,c661bf3b74c5f8a96420fb07ca192be8,PennController,81,0,test_val,NULL,Selector,unnamed-Selector,Selection,negative,1743436031258,undefined,541,dismay,negative,positive,B,negative;positive
1743436428,c661bf3b74c5f8a96420fb07ca192be8,PennController,81,0,test_val,NULL,PennController,92,_Trial_,End,1743436031259,undefined,541,dismay,negative,positive,B,NULL
1743436428,c661bf3b74c5f8a96420fb07ca192be8,PennController,70,0,test_val,NULL,PennController,81,_Trial_,Start,1743436031259,undefined,512,hit,negative,positive,B,NULL
1743436428,c661bf3b74c5f8a96420fb07ca192be8,PennController,70,0,test_val,NULL,PennController,81,_Header_,Start,1743436031259,undefined,512,hit,negative,positive,B,NULL
1743436428,c661bf3b74c5f8a96420fb07ca192be8,PennController,70,0,test_val,NULL,PennController,81,_Header_,End,1743436031515,undefined,512,hit,negative,positive,B,NULL
1743436428,c661bf3b74c5f8a96420fb07ca192be8,PennController,70,0,test_val,NULL,Selector,unnamed-Selector,Selection,positive,1743436032536,undefined,512,hit,negative,positive,B,negative;positive
1743436428,c661bf3b74c5f8a96420fb07ca192be8,PennController,70,0,test_val,NULL,PennController,81,_Trial_,End,1743436032537,undefined,512,hit,negative,positive,B,NULL
1743436428,c661bf3b74c5f8a96420fb07ca192be8,PennController,60,0,test_val,NULL,PennController,71,_Trial_,Start,1743436032537,undefined,623,respect,negative,positive,B,NULL
1743436428,c661bf3b74c5f8a96420fb07ca192be8,PennController,60,0,test_val,NULL,PennController,71,_Header_,Start,1743436032537,undefined,623,respect,negative,positive,B,NULL
1743436428,c661bf3b74c5f8a96420fb07ca192be8,PennController,60,0,test_val,NULL,PennController,71,_Header_,End,1743436032790,undefined,623,respect,negative,positive,B,NULL
1743436428,c661bf3b74c5f8a96420fb07ca192be8,PennController,60,0,test_val,NULL,Selector,unnamed-Selector,Selection,positive,1743436033920,undefined,623,respect,negative,positive,B,negative;positive
1743436428,c661bf3b74c5f8a96420fb07ca192be8,PennController,60,0,test_val,NULL,PennController,71,_Trial_,End,1743436033921,undefined,623,respect,negative,positive,B,NULL
1743436428,c661bf3b74c5f8a96420fb07ca192be8,PennController,50,0,test_val,NULL,PennController,61,_Trial_,Start,1743436033922,undefined,658,sculpt,negative,positive,B,NULL
1743436428,c661bf3b74c5f8a96420fb07ca192be8,PennController,50,0,test_val,NULL,PennController,61,_Header_,Start,1743436033922,undefined,658,sculpt,negative,positive,B,NULL
1743436428,c661bf3b74c5f8a96420fb07ca192be8,PennController,50,0,test_val,NULL,PennController,61,_Header_,End,1743436034176,undefined,658,sculpt,negative,positive,B,NULL
1743436428,c661bf3b74c5f8a96420fb07ca192be8,PennController,50,0,test_val,NULL,Selector,unnamed-Selector,Selection,positive,1743436035342,undefined,658,sculpt,negative,positive,B,negative;positive
1743436428,c661bf3b74c5f8a96420fb07ca192be8,PennController,50,0,test_val,NULL,PennController,61,_Trial_,End,1743436035342,undefined,658,sculpt,negative,positive,B,NULL
1743436428,c661bf3b74c5f8a96420fb07ca192be8,PennController,54,0,test_val,NULL,PennController,65,_Trial_,Start,1743436035342,undefined,585,content,negative,positive,B,NULL
1743436428,c661bf3b74c5f8a96420fb07ca192be8,PennController,54,0,test_val,NULL,PennController,65,_Header_,Start,1743436035342,undefined,585,content,negative,positive,B,NULL
1743436428,c661bf3b74c5f8a96420fb07ca192be8,PennController,54,0,test_val,NULL,PennController,65,_Header_,End,1743436035605,undefined,585,content,negative,positive,B,NULL
1743436428,c661bf3b74c5f8a96420fb07ca192be8,PennController,54,0,test_val,NULL,Selector,unnamed-Selector,Selection,positive,1743436036697,undefined,585,content,negative,positive,B,negative;positive
1743436428,c661bf3b74c5f8a96420fb07ca192be8,PennController,54,0,test_val,NULL,PennController,65,_Trial_,End,1743436036697,undefined,585,content,negative,positive,B,NULL
1743436428,c661bf3b74c5f8a96420fb07ca192be8,PennController,83,0,test_val,NULL,PennController,94,_Trial_,Start,1743436036697,undefined,640,dread,negative,positive,B,NULL
1743436428,c661bf3b74c5f8a96420fb07ca192be8,PennController,83,0,test_val,NULL,PennController,94,_Header_,Start,1743436036697,undefined,640,dread,negative,positive,B,NULL
1743436428,c661bf3b74c5f8a96420fb07ca192be8,PennController,83,0,test_val,NULL,PennController,94,_Header_,End,1743436036958,undefined,640,dread,negative,positive,B,NULL
1743436428,c661bf3b74c5f8a96420fb07ca192be8,PennController,83,0,test_val,NULL,Selector,unnamed-Selector,Selection,negative,1743436038106,undefined,640,dread,negative,positive,B,negative;positive
1743436428,c661bf3b74c5f8a96420fb07ca192be8,PennController,83,0,test_val,NULL,PennController,94,_Trial_,End,1743436038106,undefined,640,dread,negative,positive,B,NULL
1743436428,c661bf3b74c5f8a96420fb07ca192be8,PennController,76,0,test_val,NULL,PennController,87,_Trial_,Start,1743436038107,undefined,521,irritate,negative,positive,B,NULL
1743436428,c661bf3b74c5f8a96420fb07ca192be8,PennController,76,0,test_val,NULL,PennController,87,_Header_,Start,1743436038107,undefined,521,irritate,negative,positive,B,NULL
1743436428,c661bf3b74c5f8a96420fb07ca192be8,PennController,76,0,test_val,NULL,PennController,87,_Header_,End,1743436038359,undefined,521,irritate,negative,positive,B,NULL
1743436428,c661bf3b74c5f8a96420fb07ca192be8,PennController,76,0,test_val,NULL,Selector,unnamed-Selector,Selection,negative,1743436039386,undefined,521,irritate,negative,positive,B,negative;positive
1743436428,c661bf3b74c5f8a96420fb07ca192be8,PennController,76,0,test_val,NULL,PennController,87,_Trial_,End,1743436039387,undefined,521,irritate,negative,positive,B,NULL
1743436428,c661bf3b74c5f8a96420fb07ca192be8,PennController,75,0,test_val,NULL,PennController,86,_Trial_,Start,1743436039387,undefined,505,despair,negative,positive,B,NULL
1743436428,c661bf3b74c5f8a96420fb07ca192be8,PennController,75,0,test_val,NULL,PennController,86,_Header_,Start,1743436039387,undefined,505,despair,negative,positive,B,NULL
1743436428,c661bf3b74c5f8a96420fb07ca192be8,PennController,75,0,test_val,NULL,PennController,86,_Header_,End,1743436039647,undefined,505,despair,negative,positive,B,NULL
1743436428,c661bf3b74c5f8a96420fb07ca192be8,PennController,75,0,test_val,NULL,Selector,unnamed-Selector,Selection,negative,1743436040659,undefined,505,despair,negative,positive,B,negative;positive
1743436428,c661bf3b74c5f8a96420fb07ca192be8,PennController,75,0,test_val,NULL,PennController,86,_Trial_,End,1743436040659,undefined,505,despair,negative,positive,B,NULL
1743436428,c661bf3b74c5f8a96420fb07ca192be8,PennController,56,0,test_val,NULL,PennController,67,_Trial_,Start,1743436040660,undefined,516,appreciate,negative,positive,B,NULL
1743436428,c661bf3b74c5f8a96420fb07ca192be8,PennController,56,0,test_val,NULL,PennController,67,_Header_,Start,1743436040660,undefined,516,appreciate,negative,positive,B,NULL
1743436428,c661bf3b74c5f8a96420fb07ca192be8,PennController,56,0,test_val,NULL,PennController,67,_Header_,End,1743436040924,undefined,516,appreciate,negative,positive,B,NULL
1743436428,c661bf3b74c5f8a96420fb07ca192be8,PennController,56,0,test_val,NULL,Selector,unnamed-Selector,Selection,positive,1743436041949,undefined,516,appreciate,negative,positive,B,negative;positive
1743436428,c661bf3b74c5f8a96420fb07ca192be8,PennController,56,0,test_val,NULL,PennController,67,_Trial_,End,1743436041949,undefined,516,appreciate,negative,positive,B,NULL
1743436428,c661bf3b74c5f8a96420fb07ca192be8,PennController,66,0,test_val,NULL,PennController,77,_Trial_,Start,1743436041950,undefined,867,slash,negative,positive,B,NULL
1743436428,c661bf3b74c5f8a96420fb07ca192be8,PennController,66,0,test_val,NULL,PennController,77,_Header_,Start,1743436041950,undefined,867,slash,negative,positive,B,NULL
1743436428,c661bf3b74c5f8a96420fb07ca192be8,PennController,66,0,test_val,NULL,PennController,77,_Header_,End,1743436042200,undefined,867,slash,negative,positive,B,NULL
1743436428,c661bf3b74c5f8a96420fb07ca192be8,PennController,66,0,test_val,NULL,Selector,unnamed-Selector,Selection,positive,1743436043577,undefined,867,slash,negative,positive,B,negative;positive
1743436428,c661bf3b74c5f8a96420fb07ca192be8,PennController,66,0,test_val,NULL,PennController,77,_Trial_,End,1743436043578,undefined,867,slash,negative,positive,B,NULL
1743436428,c661bf3b74c5f8a96420fb07ca192be8,PennController,82,0,test_val,NULL,PennController,93,_Trial_,Start,1743436043578,undefined,789,criticize,negative,positive,B,NULL
1743436428,c661bf3b74c5f8a96420fb07ca192be8,PennController,82,0,test_val,NULL,PennController,93,_Header_,Start,1743436043578,undefined,789,criticize,negative,positive,B,NULL
1743436428,c661bf3b74c5f8a96420fb07ca192be8,PennController,82,0,test_val,NULL,PennController,93,_Header_,End,1743436043833,undefined,789,criticize,negative,positive,B,NULL
1743436428,c661bf3b74c5f8a96420fb07ca192be8,PennController,82,0,test_val,NULL,Selector,unnamed-Selector,Selection,negative,1743436045131,undefined,789,criticize,negative,positive,B,negative;positive
1743436428,c661bf3b74c5f8a96420fb07ca192be8,PennController,82,0,test_val,NULL,PennController,93,_Trial_,End,1743436045132,undefined,789,criticize,negative,positive,B,NULL
1743436428,c661bf3b74c5f8a96420fb07ca192be8,PennController,64,0,test_val,NULL,PennController,75,_Trial_,Start,1743436045132,undefined,558,rust,negative,positive,B,NULL
1743436428,c661bf3b74c5f8a96420fb07ca192be8,PennController,64,0,test_val,NULL,PennController,75,_Header_,Start,1743436045132,undefined,558,rust,negative,positive,B,NULL
1743436428,c661bf3b74c5f8a96420fb07ca192be8,PennController,64,0,test_val,NULL,PennController,75,_Header_,End,1743436045386,undefined,558,rust,negative,positive,B,NULL
1743436428,c661bf3b74c5f8a96420fb07ca192be8,PennController,64,0,test_val,NULL,Selector,unnamed-Selector,Selection,negative,1743436046452,undefined,558,rust,negative,positive,B,negative;positive
1743436428,c661bf3b74c5f8a96420fb07ca192be8,PennController,64,0,test_val,NULL,PennController,75,_Trial_,End,1743436046452,undefined,558,rust,negative,positive,B,NULL
1743436428,c661bf3b74c5f8a96420fb07ca192be8,PennController,72,0,test_val,NULL,PennController,83,_Trial_,Start,1743436046452,undefined,504,delete,negative,positive,B,NULL
1743436428,c661bf3b74c5f8a96420fb07ca192be8,PennController,72,0,test_val,NULL,PennController,83,_Header_,Start,1743436046452,undefined,504,delete,negative,positive,B,NULL
1743436428,c661bf3b74c5f8a96420fb07ca192be8,PennController,72,0,test_val,NULL,PennController,83,_Header_,End,1743436046708,undefined,504,delete,negative,positive,B,NULL
1743436428,c661bf3b74c5f8a96420fb07ca192be8,PennController,72,0,test_val,NULL,Selector,unnamed-Selector,Selection,negative,1743436047721,undefined,504,delete,negative,positive,B,negative;positive
1743436428,c661bf3b74c5f8a96420fb07ca192be8,PennController,72,0,test_val,NULL,PennController,83,_Trial_,End,1743436047722,undefined,504,delete,negative,positive,B,NULL
1743436428,c661bf3b74c5f8a96420fb07ca192be8,PennController,45,0,test_val,NULL,PennController,56,_Trial_,Start,1743436047722,undefined,670,build,negative,positive,B,NULL
1743436428,c661bf3b74c5f8a96420fb07ca192be8,PennController,45,0,test_val,NULL,PennController,56,_Header_,Start,1743436047722,undefined,670,build,negative,positive,B,NULL
1743436428,c661bf3b74c5f8a96420fb07ca192be8,PennController,45,0,test_val,NULL,PennController,56,_Header_,End,1743436047985,undefined,670,build,negative,positive,B,NULL
1743436428,c661bf3b74c5f8a96420fb07ca192be8,PennController,45,0,test_val,NULL,Selector,unnamed-Selector,Selection,positive,1743436049163,undefined,670,build,negative,positive,B,negative;positive
1743436428,c661bf3b74c5f8a96420fb07ca192be8,PennController,45,0,test_val,NULL,PennController,56,_Trial_,End,1743436049164,undefined,670,build,negative,positive,B,NULL
1743436428,c661bf3b74c5f8a96420fb07ca192be8,PennController,47,0,test_val,NULL,PennController,58,_Trial_,Start,1743436049164,undefined,589,caress,negative,positive,B,NULL
1743436428,c661bf3b74c5f8a96420fb07ca192be8,PennController,47,0,test_val,NULL,PennController,58,_Header_,Start,1743436049164,undefined,589,caress,negative,positive,B,NULL
1743436428,c661bf3b74c5f8a96420fb07ca192be8,PennController,47,0,test_val,NULL,PennController,58,_Header_,End,1743436049417,undefined,589,caress,negative,positive,B,NULL
1743436428,c661bf3b74c5f8a96420fb07ca192be8,PennController,47,0,test_val,NULL,Selector,unnamed-Selector,Selection,positive,1743436050513,undefined,589,caress,negative,positive,B,negative;positive
1743436428,c661bf3b74c5f8a96420fb07ca192be8,PennController,47,0,test_val,NULL,PennController,58,_Trial_,End,1743436050514,undefined,589,caress,negative,positive,B,NULL
1743436428,c661bf3b74c5f8a96420fb07ca192be8,PennController,80,0,test_val,NULL,PennController,91,_Trial_,Start,1743436050514,undefined,521,discourage,negative,positive,B,NULL
1743436428,c661bf3b74c5f8a96420fb07ca192be8,PennController,80,0,test_val,NULL,PennController,91,_Header_,Start,1743436050514,undefined,521,discourage,negative,positive,B,NULL
1743436428,c661bf3b74c5f8a96420fb07ca192be8,PennController,80,0,test_val,NULL,PennController,91,_Header_,End,1743436050769,undefined,521,discourage,negative,positive,B,NULL
1743436428,c661bf3b74c5f8a96420fb07ca192be8,PennController,80,0,test_val,NULL,Selector,unnamed-Selector,Selection,negative,1743436051800,undefined,521,discourage,negative,positive,B,negative;positive
1743436428,c661bf3b74c5f8a96420fb07ca192be8,PennController,80,0,test_val,NULL,PennController,91,_Trial_,End,1743436051801,undefined,521,discourage,negative,positive,B,NULL
1743436428,c661bf3b74c5f8a96420fb07ca192be8,PennController,46,0,test_val,NULL,PennController,57,_Trial_,Start,1743436051801,undefined,944,repair,negative,positive,B,NULL
1743436428,c661bf3b74c5f8a96420fb07ca192be8,PennController,46,0,test_val,NULL,PennController,57,_Header_,Start,1743436051801,undefined,944,repair,negative,positive,B,NULL
1743436428,c661bf3b74c5f8a96420fb07ca192be8,PennController,46,0,test_val,NULL,PennController,57,_Header_,End,1743436052063,undefined,944,repair,negative,positive,B,NULL
1743436428,c661bf3b74c5f8a96420fb07ca192be8,PennController,46,0,test_val,NULL,Selector,unnamed-Selector,Selection,positive,1743436053515,undefined,944,repair,negative,positive,B,negative;positive
1743436428,c661bf3b74c5f8a96420fb07ca192be8,PennController,46,0,test_val,NULL,PennController,57,_Trial_,End,1743436053515,undefined,944,repair,negative,positive,B,NULL
1743436428,c661bf3b74c5f8a96420fb07ca192be8,PennController,71,0,test_val,NULL,PennController,82,_Trial_,Start,1743436053516,undefined,610,stain,negative,positive,B,NULL
1743436428,c661bf3b74c5f8a96420fb07ca192be8,PennController,71,0,test_val,NULL,PennController,82,_Header_,Start,1743436053516,undefined,610,stain,negative,positive,B,NULL
1743436428,c661bf3b74c5f8a96420fb07ca192be8,PennController,71,0,test_val,NULL,PennController,82,_Header_,End,1743436053769,undefined,610,stain,negative,positive,B,NULL
1743436428,c661bf3b74c5f8a96420fb07ca192be8,PennController,71,0,test_val,NULL,Selector,unnamed-Selector,Selection,negative,1743436054889,undefined,610,stain,negative,positive,B,negative;positive
1743436428,c661bf3b74c5f8a96420fb07ca192be8,PennController,71,0,test_val,NULL,PennController,82,_Trial_,End,1743436054889,undefined,610,stain,negative,positive,B,NULL
1743436428,c661bf3b74c5f8a96420fb07ca192be8,PennController,51,0,test_val,NULL,PennController,62,_Trial_,Start,1743436054889,undefined,577,twinkle,negative,positive,B,NULL
1743436428,c661bf3b74c5f8a96420fb07ca192be8,PennController,51,0,test_val,NULL,PennController,62,_Header_,Start,1743436054889,undefined,577,twinkle,negative,positive,B,NULL
1743436428,c661bf3b74c5f8a96420fb07ca192be8,PennController,51,0,test_val,NULL,PennController,62,_Header_,End,1743436055139,undefined,577,twinkle,negative,positive,B,NULL
1743436428,c661bf3b74c5f8a96420fb07ca192be8,PennController,51,0,test_val,NULL,Selector,unnamed-Selector,Selection,positive,1743436056222,undefined,577,twinkle,negative,positive,B,negative;positive
1743436428,c661bf3b74c5f8a96420fb07ca192be8,PennController,51,0,test_val,NULL,PennController,62,_Trial_,End,1743436056222,undefined,577,twinkle,negative,positive,B,NULL
1743436428,c661bf3b74c5f8a96420fb07ca192be8,PennController,77,0,test_val,NULL,PennController,88,_Trial_,Start,1743436056222,undefined,514,displease,negative,positive,B,NULL
1743436428,c661bf3b74c5f8a96420fb07ca192be8,PennController,77,0,test_val,NULL,PennController,88,_Header_,Start,1743436056222,undefined,514,displease,negative,positive,B,NULL
1743436428,c661bf3b74c5f8a96420fb07ca192be8,PennController,77,0,test_val,NULL,PennController,88,_Header_,End,1743436056475,undefined,514,displease,negative,positive,B,NULL
1743436428,c661bf3b74c5f8a96420fb07ca192be8,PennController,77,0,test_val,NULL,Selector,unnamed-Selector,Selection,negative,1743436057497,undefined,514,displease,negative,positive,B,negative;positive
1743436428,c661bf3b74c5f8a96420fb07ca192be8,PennController,77,0,test_val,NULL,PennController,88,_Trial_,End,1743436057497,undefined,514,displease,negative,positive,B,NULL
1743436428,c661bf3b74c5f8a96420fb07ca192be8,PennController,61,0,test_val,NULL,PennController,72,_Trial_,Start,1743436057498,undefined,600,admire,negative,positive,B,NULL
1743436428,c661bf3b74c5f8a96420fb07ca192be8,PennController,61,0,test_val,NULL,PennController,72,_Header_,Start,1743436057498,undefined,600,admire,negative,positive,B,NULL
1743436428,c661bf3b74c5f8a96420fb07ca192be8,PennController,61,0,test_val,NULL,PennController,72,_Header_,End,1743436057753,undefined,600,admire,negative,positive,B,NULL
1743436428,c661bf3b74c5f8a96420fb07ca192be8,PennController,61,0,test_val,NULL,Selector,unnamed-Selector,Selection,positive,1743436058859,undefined,600,admire,negative,positive,B,negative;positive
1743436428,c661bf3b74c5f8a96420fb07ca192be8,PennController,61,0,test_val,NULL,PennController,72,_Trial_,End,1743436058860,undefined,600,admire,negative,positive,B,NULL
1743436428,c661bf3b74c5f8a96420fb07ca192be8,PennController,58,0,test_val,NULL,PennController,69,_Trial_,Start,1743436058860,undefined,488,like,negative,positive,B,NULL
1743436428,c661bf3b74c5f8a96420fb07ca192be8,PennController,58,0,test_val,NULL,PennController,69,_Header_,Start,1743436058860,undefined,488,like,negative,positive,B,NULL
1743436428,c661bf3b74c5f8a96420fb07ca192be8,PennController,58,0,test_val,NULL,PennController,69,_Header_,End,1743436059120,undefined,488,like,negative,positive,B,NULL
1743436428,c661bf3b74c5f8a96420fb07ca192be8,PennController,58,0,test_val,NULL,Selector,unnamed-Selector,Selection,positive,1743436060117,undefined,488,like,negative,positive,B,negative;positive
1743436428,c661bf3b74c5f8a96420fb07ca192be8,PennController,58,0,test_val,NULL,PennController,69,_Trial_,End,1743436060117,undefined,488,like,negative,positive,B,NULL
1743436428,c661bf3b74c5f8a96420fb07ca192be8,PennController,78,0,test_val,NULL,PennController,89,_Trial_,Start,1743436060118,undefined,523,dishonor,negative,positive,B,NULL
1743436428,c661bf3b74c5f8a96420fb07ca192be8,PennController,78,0,test_val,NULL,PennController,89,_Header_,Start,1743436060118,undefined,523,dishonor,negative,positive,B,NULL
1743436428,c661bf3b74c5f8a96420fb07ca192be8,PennController,78,0,test_val,NULL,PennController,89,_Header_,End,1743436060369,undefined,523,dishonor,negative,positive,B,NULL
1743436428,c661bf3b74c5f8a96420fb07ca192be8,PennController,78,0,test_val,NULL,Selector,unnamed-Selector,Selection,negative,1743436061401,undefined,523,dishonor,negative,positive,B,negative;positive
1743436428,c661bf3b74c5f8a96420fb07ca192be8,PennController,78,0,test_val,NULL,PennController,89,_Trial_,End,1743436061401,undefined,523,dishonor,negative,positive,B,NULL
1743436428,c661bf3b74c5f8a96420fb07ca192be8,PennController,74,0,test_val,NULL,PennController,85,_Trial_,Start,1743436061402,undefined,731,offend,negative,positive,B,NULL
1743436428,c661bf3b74c5f8a96420fb07ca192be8,PennController,74,0,test_val,NULL,PennController,85,_Header_,Start,1743436061402,undefined,731,offend,negative,positive,B,NULL
1743436428,c661bf3b74c5f8a96420fb07ca192be8,PennController,74,0,test_val,NULL,PennController,85,_Header_,End,1743436061659,undefined,731,offend,negative,positive,B,NULL
1743436428,c661bf3b74c5f8a96420fb07ca192be8,PennController,74,0,test_val,NULL,Selector,unnamed-Selector,Selection,negative,1743436062898,undefined,731,offend,negative,positive,B,negative;positive
1743436428,c661bf3b74c5f8a96420fb07ca192be8,PennController,74,0,test_val,NULL,PennController,85,_Trial_,End,1743436062898,undefined,731,offend,negative,positive,B,NULL
1743436428,c661bf3b74c5f8a96420fb07ca192be8,PennController,63,0,test_val,NULL,PennController,74,_Trial_,Start,1743436062899,undefined,601,cherish,negative,positive,B,NULL
1743436428,c661bf3b74c5f8a96420fb07ca192be8,PennController,63,0,test_val,NULL,PennController,74,_Header_,Start,1743436062899,undefined,601,cherish,negative,positive,B,NULL
1743436428,c661bf3b74c5f8a96420fb07ca192be8,PennController,63,0,test_val,NULL,PennController,74,_Header_,End,1743436063149,undefined,601,cherish,negative,positive,B,NULL
1743436428,c661bf3b74c5f8a96420fb07ca192be8,PennController,63,0,test_val,NULL,Selector,unnamed-Selector,Selection,positive,1743436064260,undefined,601,cherish,negative,positive,B,negative;positive
1743436428,c661bf3b74c5f8a96420fb07ca192be8,PennController,63,0,test_val,NULL,PennController,74,_Trial_,End,1743436064261,undefined,601,cherish,negative,positive,B,NULL
1743436428,c661bf3b74c5f8a96420fb07ca192be8,PennController,44,0,test_val,NULL,PennController,55,_Trial_,Start,1743436064261,undefined,534,cuddle,negative,positive,B,NULL
1743436428,c661bf3b74c5f8a96420fb07ca192be8,PennController,44,0,test_val,NULL,PennController,55,_Header_,Start,1743436064261,undefined,534,cuddle,negative,positive,B,NULL
1743436428,c661bf3b74c5f8a96420fb07ca192be8,PennController,44,0,test_val,NULL,PennController,55,_Header_,End,1743436064519,undefined,534,cuddle,negative,positive,B,NULL
1743436428,c661bf3b74c5f8a96420fb07ca192be8,PennController,44,0,test_val,NULL,Selector,unnamed-Selector,Selection,positive,1743436065561,undefined,534,cuddle,negative,positive,B,negative;positive
1743436428,c661bf3b74c5f8a96420fb07ca192be8,PennController,44,0,test_val,NULL,PennController,55,_Trial_,End,1743436065562,undefined,534,cuddle,negative,positive,B,NULL
1743436428,c661bf3b74c5f8a96420fb07ca192be8,PennController,62,0,test_val,NULL,PennController,73,_Trial_,Start,1743436065562,undefined,492,adore,negative,positive,B,NULL
1743436428,c661bf3b74c5f8a96420fb07ca192be8,PennController,62,0,test_val,NULL,PennController,73,_Header_,Start,1743436065562,undefined,492,adore,negative,positive,B,NULL
1743436428,c661bf3b74c5f8a96420fb07ca192be8,PennController,62,0,test_val,NULL,PennController,73,_Header_,End,1743436065825,undefined,492,adore,negative,positive,B,NULL
1743436428,c661bf3b74c5f8a96420fb07ca192be8,PennController,62,0,test_val,NULL,Selector,unnamed-Selector,Selection,positive,1743436066825,undefined,492,adore,negative,positive,B,negative;positive
1743436428,c661bf3b74c5f8a96420fb07ca192be8,PennController,62,0,test_val,NULL,PennController,73,_Trial_,End,1743436066825,undefined,492,adore,negative,positive,B,NULL
1743436428,c661bf3b74c5f8a96420fb07ca192be8,PennController,65,0,test_val,NULL,PennController,76,_Trial_,Start,1743436066826,undefined,475,slaughter,negative,positive,B,NULL
1743436428,c661bf3b74c5f8a96420fb07ca192be8,PennController,65,0,test_val,NULL,PennController,76,_Header_,Start,1743436066826,undefined,475,slaughter,negative,positive,B,NULL
1743436428,c661bf3b74c5f8a96420fb07ca192be8,PennController,65,0,test_val,NULL,PennController,76,_Header_,End,1743436067085,undefined,475,slaughter,negative,positive,B,NULL
1743436428,c661bf3b74c5f8a96420fb07ca192be8,PennController,65,0,test_val,NULL,Selector,unnamed-Selector,Selection,negative,1743436068070,undefined,475,slaughter,negative,positive,B,negative;positive
1743436428,c661bf3b74c5f8a96420fb07ca192be8,PennController,65,0,test_val,NULL,PennController,76,_Trial_,End,1743436068070,undefined,475,slaughter,negative,positive,B,NULL
1743436428,c661bf3b74c5f8a96420fb07ca192be8,PennController,53,0,test_val,NULL,PennController,64,_Trial_,Start,1743436068070,undefined,538,clean,negative,positive,B,NULL
1743436428,c661bf3b74c5f8a96420fb07ca192be8,PennController,53,0,test_val,NULL,PennController,64,_Header_,Start,1743436068070,undefined,538,clean,negative,positive,B,NULL
1743436428,c661bf3b74c5f8a96420fb07ca192be8,PennController,53,0,test_val,NULL,PennController,64,_Header_,End,1743436068333,undefined,538,clean,negative,positive,B,NULL
1743436428,c661bf3b74c5f8a96420fb07ca192be8,PennController,53,0,test_val,NULL,Selector,unnamed-Selector,Selection,positive,1743436069380,undefined,538,clean,negative,positive,B,negative;positive
1743436428,c661bf3b74c5f8a96420fb07ca192be8,PennController,53,0,test_val,NULL,PennController,64,_Trial_,End,1743436069380,undefined,538,clean,negative,positive,B,NULL
1743436428,c661bf3b74c5f8a96420fb07ca192be8,PennController,73,0,test_val,NULL,PennController,84,_Trial_,Start,1743436069382,undefined,501,corrode,negative,positive,B,NULL
1743436428,c661bf3b74c5f8a96420fb07ca192be8,PennController,73,0,test_val,NULL,PennController,84,_Header_,Start,1743436069382,undefined,501,corrode,negative,positive,B,NULL
1743436428,c661bf3b74c5f8a96420fb07ca192be8,PennController,73,0,test_val,NULL,PennController,84,_Header_,End,1743436069640,undefined,501,corrode,negative,positive,B,NULL
1743436428,c661bf3b74c5f8a96420fb07ca192be8,PennController,73,0,test_val,NULL,Selector,unnamed-Selector,Selection,negative,1743436070648,undefined,501,corrode,negative,positive,B,negative;positive
1743436428,c661bf3b74c5f8a96420fb07ca192be8,PennController,73,0,test_val,NULL,PennController,84,_Trial_,End,1743436070649,undefined,501,corrode,negative,positive,B,NULL
1743436428,c661bf3b74c5f8a96420fb07ca192be8,PennController,69,0,test_val,NULL,PennController,80,_Trial_,Start,1743436070649,undefined,552,burn,negative,positive,B,NULL
1743436428,c661bf3b74c5f8a96420fb07ca192be8,PennController,69,0,test_val,NULL,PennController,80,_Header_,Start,1743436070649,undefined,552,burn,negative,positive,B,NULL
1743436428,c661bf3b74c5f8a96420fb07ca192be8,PennController,69,0,test_val,NULL,PennController,80,_Header_,End,1743436070900,undefined,552,burn,negative,positive,B,NULL
1743436428,c661bf3b74c5f8a96420fb07ca192be8,PennController,69,0,test_val,NULL,Selector,unnamed-Selector,Selection,negative,1743436071961,undefined,552,burn,negative,positive,B,negative;positive
1743436428,c661bf3b74c5f8a96420fb07ca192be8,PennController,69,0,test_val,NULL,PennController,80,_Trial_,End,1743436071962,undefined,552,burn,negative,positive,B,NULL
1743436428,c661bf3b74c5f8a96420fb07ca192be8,PennController,57,0,test_val,NULL,PennController,68,_Trial_,Start,1743436071962,undefined,484,impress,negative,positive,B,NULL
1743436428,c661bf3b74c5f8a96420fb07ca192be8,PennController,57,0,test_val,NULL,PennController,68,_Header_,Start,1743436071962,undefined,484,impress,negative,positive,B,NULL
1743436428,c661bf3b74c5f8a96420fb07ca192be8,PennController,57,0,test_val,NULL,PennController,68,_Header_,End,1743436072223,undefined,484,impress,negative,positive,B,NULL
1743436428,c661bf3b74c5f8a96420fb07ca192be8,PennController,57,0,test_val,NULL,Selector,unnamed-Selector,Selection,positive,1743436073218,undefined,484,impress,negative,positive,B,negative;positive
1743436428,c661bf3b74c5f8a96420fb07ca192be8,PennController,57,0,test_val,NULL,PennController,68,_Trial_,End,1743436073218,undefined,484,impress,negative,positive,B,NULL
1743436428,c661bf3b74c5f8a96420fb07ca192be8,PennController,71,0,test_val,NULL,PennController,82,_Trial_,Start,1743436073219,undefined,535,stain,negative,positive,B,NULL
1743436428,c661bf3b74c5f8a96420fb07ca192be8,PennController,71,0,test_val,NULL,PennController,82,_Header_,Start,1743436073219,undefined,535,stain,negative,positive,B,NULL
1743436428,c661bf3b74c5f8a96420fb07ca192be8,PennController,71,0,test_val,NULL,PennController,82,_Header_,End,1743436073472,undefined,535,stain,negative,positive,B,NULL
1743436428,c661bf3b74c5f8a96420fb07ca192be8,PennController,71,0,test_val,NULL,Selector,unnamed-Selector,Selection,negative,1743436074515,undefined,535,stain,negative,positive,B,negative;positive
1743436428,c661bf3b74c5f8a96420fb07ca192be8,PennController,71,0,test_val,NULL,PennController,82,_Trial_,End,1743436074515,undefined,535,stain,negative,positive,B,NULL
1743436428,c661bf3b74c5f8a96420fb07ca192be8,PennController,44,0,test_val,NULL,PennController,55,_Trial_,Start,1743436074516,undefined,543,cuddle,negative,positive,B,NULL
1743436428,c661bf3b74c5f8a96420fb07ca192be8,PennController,44,0,test_val,NULL,PennController,55,_Header_,Start,1743436074516,undefined,543,cuddle,negative,positive,B,NULL
1743436428,c661bf3b74c5f8a96420fb07ca192be8,PennController,44,0,test_val,NULL,PennController,55,_Header_,End,1743436074781,undefined,543,cuddle,negative,positive,B,NULL
1743436428,c661bf3b74c5f8a96420fb07ca192be8,PennController,44,0,test_val,NULL,Selector,unnamed-Selector,Selection,positive,1743436075832,undefined,543,cuddle,negative,positive,B,negative;positive
1743436428,c661bf3b74c5f8a96420fb07ca192be8,PennController,44,0,test_val,NULL,PennController,55,_Trial_,End,1743436075833,undefined,543,cuddle,negative,positive,B,NULL
1743436428,c661bf3b74c5f8a96420fb07ca192be8,PennController,49,0,test_val,NULL,PennController,60,_Trial_,Start,1743436075833,undefined,507,produce,negative,positive,B,NULL
1743436428,c661bf3b74c5f8a96420fb07ca192be8,PennController,49,0,test_val,NULL,PennController,60,_Header_,Start,1743436075833,undefined,507,produce,negative,positive,B,NULL
1743436428,c661bf3b74c5f8a96420fb07ca192be8,PennController,49,0,test_val,NULL,PennController,60,_Header_,End,1743436076090,undefined,507,produce,negative,positive,B,NULL
1743436428,c661bf3b74c5f8a96420fb07ca192be8,PennController,49,0,test_val,NULL,Selector,unnamed-Selector,Selection,positive,1743436077106,undefined,507,produce,negative,positive,B,negative;positive
1743436428,c661bf3b74c5f8a96420fb07ca192be8,PennController,49,0,test_val,NULL,PennController,60,_Trial_,End,1743436077106,undefined,507,produce,negative,positive,B,NULL
1743436428,c661bf3b74c5f8a96420fb07ca192be8,PennController,68,0,test_val,NULL,PennController,79,_Trial_,Start,1743436077107,undefined,504,tear,negative,positive,B,NULL
1743436428,c661bf3b74c5f8a96420fb07ca192be8,PennController,68,0,test_val,NULL,PennController,79,_Header_,Start,1743436077107,undefined,504,tear,negative,positive,B,NULL
1743436428,c661bf3b74c5f8a96420fb07ca192be8,PennController,68,0,test_val,NULL,PennController,79,_Header_,End,1743436077368,undefined,504,tear,negative,positive,B,NULL
1743436428,c661bf3b74c5f8a96420fb07ca192be8,PennController,68,0,test_val,NULL,Selector,unnamed-Selector,Selection,negative,1743436078381,undefined,504,tear,negative,positive,B,negative;positive
1743436428,c661bf3b74c5f8a96420fb07ca192be8,PennController,68,0,test_val,NULL,PennController,79,_Trial_,End,1743436078381,undefined,504,tear,negative,positive,B,NULL
1743436428,c661bf3b74c5f8a96420fb07ca192be8,PennController,77,0,test_val,NULL,PennController,88,_Trial_,Start,1743436078382,undefined,484,displease,negative,positive,B,NULL
1743436428,c661bf3b74c5f8a96420fb07ca192be8,PennController,77,0,test_val,NULL,PennController,88,_Header_,Start,1743436078382,undefined,484,displease,negative,positive,B,NULL
1743436428,c661bf3b74c5f8a96420fb07ca192be8,PennController,77,0,test_val,NULL,PennController,88,_Header_,End,1743436078645,undefined,484,displease,negative,positive,B,NULL
1743436428,c661bf3b74c5f8a96420fb07ca192be8,PennController,77,0,test_val,NULL,Selector,unnamed-Selector,Selection,negative,1743436079636,undefined,484,displease,negative,positive,B,negative;positive
1743436428,c661bf3b74c5f8a96420fb07ca192be8,PennController,77,0,test_val,NULL,PennController,88,_Trial_,End,1743436079636,undefined,484,displease,negative,positive,B,NULL
1743436428,c661bf3b74c5f8a96420fb07ca192be8,PennController,73,0,test_val,NULL,PennController,84,_Trial_,Start,1743436079637,undefined,504,corrode,negative,positive,B,NULL
1743436428,c661bf3b74c5f8a96420fb07ca192be8,PennController,73,0,test_val,NULL,PennController,84,_Header_,Start,1743436079637,undefined,504,corrode,negative,positive,B,NULL
1743436428,c661bf3b74c5f8a96420fb07ca192be8,PennController,73,0,test_val,NULL,PennController,84,_Header_,End,1743436079890,undefined,504,corrode,negative,positive,B,NULL
1743436428,c661bf3b74c5f8a96420fb07ca192be8,PennController,73,0,test_val,NULL,Selector,unnamed-Selector,Selection,negative,1743436080902,undefined,504,corrode,negative,positive,B,negative;positive
1743436428,c661bf3b74c5f8a96420fb07ca192be8,PennController,73,0,test_val,NULL,PennController,84,_Trial_,End,1743436080902,undefined,504,corrode,negative,positive,B,NULL
1743436428,c661bf3b74c5f8a96420fb07ca192be8,PennController,57,0,test_val,NULL,PennController,68,_Trial_,Start,1743436080902,undefined,438,impress,negative,positive,B,NULL
1743436428,c661bf3b74c5f8a96420fb07ca192be8,PennController,57,0,test_val,NULL,PennController,68,_Header_,Start,1743436080902,undefined,438,impress,negative,positive,B,NULL
1743436428,c661bf3b74c5f8a96420fb07ca192be8,PennController,57,0,test_val,NULL,PennController,68,_Header_,End,1743436081166,undefined,438,impress,negative,positive,B,NULL
1743436428,c661bf3b74c5f8a96420fb07ca192be8,PennController,57,0,test_val,NULL,Selector,unnamed-Selector,Selection,positive,1743436082111,undefined,438,impress,negative,positive,B,negative;positive
1743436428,c661bf3b74c5f8a96420fb07ca192be8,PennController,57,0,test_val,NULL,PennController,68,_Trial_,End,1743436082111,undefined,438,impress,negative,positive,B,NULL
1743436428,c661bf3b74c5f8a96420fb07ca192be8,PennController,75,0,test_val,NULL,PennController,86,_Trial_,Start,1743436082111,undefined,444,despair,negative,positive,B,NULL
1743436428,c661bf3b74c5f8a96420fb07ca192be8,PennController,75,0,test_val,NULL,PennController,86,_Header_,Start,1743436082111,undefined,444,despair,negative,positive,B,NULL
1743436428,c661bf3b74c5f8a96420fb07ca192be8,PennController,75,0,test_val,NULL,PennController,86,_Header_,End,1743436082365,undefined,444,despair,negative,positive,B,NULL
1743436428,c661bf3b74c5f8a96420fb07ca192be8,PennController,75,0,test_val,NULL,Selector,unnamed-Selector,Selection,negative,1743436083316,undefined,444,despair,negative,positive,B,negative;positive
1743436428,c661bf3b74c5f8a96420fb07ca192be8,PennController,75,0,test_val,NULL,PennController,86,_Trial_,End,1743436083316,undefined,444,despair,negative,positive,B,NULL
1743436428,c661bf3b74c5f8a96420fb07ca192be8,PennController,83,0,test_val,NULL,PennController,94,_Trial_,Start,1743436083316,undefined,501,dread,negative,positive,B,NULL
1743436428,c661bf3b74c5f8a96420fb07ca192be8,PennController,83,0,test_val,NULL,PennController,94,_Header_,Start,1743436083316,undefined,501,dread,negative,positive,B,NULL
1743436428,c661bf3b74c5f8a96420fb07ca192be8,PennController,83,0,test_val,NULL,PennController,94,_Header_,End,1743436083579,undefined,501,dread,negative,positive,B,NULL
1743436428,c661bf3b74c5f8a96420fb07ca192be8,PennController,83,0,test_val,NULL,Selector,unnamed-Selector,Selection,negative,1743436084589,undefined,501,dread,negative,positive,B,negative;positive
1743436428,c661bf3b74c5f8a96420fb07ca192be8,PennController,83,0,test_val,NULL,PennController,94,_Trial_,End,1743436084590,undefined,501,dread,negative,positive,B,NULL
1743436428,c661bf3b74c5f8a96420fb07ca192be8,PennController,56,0,test_val,NULL,PennController,67,_Trial_,Start,1743436084590,undefined,494,appreciate,negative,positive,B,NULL
1743436428,c661bf3b74c5f8a96420fb07ca192be8,PennController,56,0,test_val,NULL,PennController,67,_Header_,Start,1743436084590,undefined,494,appreciate,negative,positive,B,NULL
1743436428,c661bf3b74c5f8a96420fb07ca192be8,PennController,56,0,test_val,NULL,PennController,67,_Header_,End,1743436084855,undefined,494,appreciate,negative,positive,B,NULL
1743436428,c661bf3b74c5f8a96420fb07ca192be8,PennController,56,0,test_val,NULL,Selector,unnamed-Selector,Selection,positive,1743436085857,undefined,494,appreciate,negative,positive,B,negative;positive
1743436428,c661bf3b74c5f8a96420fb07ca192be8,PennController,56,0,test_val,NULL,PennController,67,_Trial_,End,1743436085859,undefined,494,appreciate,negative,positive,B,NULL
1743436428,c661bf3b74c5f8a96420fb07ca192be8,PennController,60,0,test_val,NULL,PennController,71,_Trial_,Start,1743436085859,undefined,535,respect,negative,positive,B,NULL
1743436428,c661bf3b74c5f8a96420fb07ca192be8,PennController,60,0,test_val,NULL,PennController,71,_Header_,Start,1743436085859,undefined,535,respect,negative,positive,B,NULL
1743436428,c661bf3b74c5f8a96420fb07ca192be8,PennController,60,0,test_val,NULL,PennController,71,_Header_,End,1743436086115,undefined,535,respect,negative,positive,B,NULL
1743436428,c661bf3b74c5f8a96420fb07ca192be8,PennController,60,0,test_val,NULL,Selector,unnamed-Selector,Selection,positive,1743436087160,undefined,535,respect,negative,positive,B,negative;positive
1743436428,c661bf3b74c5f8a96420fb07ca192be8,PennController,60,0,test_val,NULL,PennController,71,_Trial_,End,1743436087160,undefined,535,respect,negative,positive,B,NULL
1743436428,c661bf3b74c5f8a96420fb07ca192be8,PennController,72,0,test_val,NULL,PennController,83,_Trial_,Start,1743436087161,undefined,440,delete,negative,positive,B,NULL
1743436428,c661bf3b74c5f8a96420fb07ca192be8,PennController,72,0,test_val,NULL,PennController,83,_Header_,Start,1743436087161,undefined,440,delete,negative,positive,B,NULL
1743436428,c661bf3b74c5f8a96420fb07ca192be8,PennController,72,0,test_val,NULL,PennController,83,_Header_,End,1743436087423,undefined,440,delete,negative,positive,B,NULL
1743436428,c661bf3b74c5f8a96420fb07ca192be8,PennController,72,0,test_val,NULL,Selector,unnamed-Selector,Selection,negative,1743436088372,undefined,440,delete,negative,positive,B,negative;positive
1743436428,c661bf3b74c5f8a96420fb07ca192be8,PennController,72,0,test_val,NULL,PennController,83,_Trial_,End,1743436088374,undefined,440,delete,negative,positive,B,NULL
1743436428,c661bf3b74c5f8a96420fb07ca192be8,PennController,67,0,test_val,NULL,PennController,78,_Trial_,Start,1743436088374,undefined,519,crash,negative,positive,B,NULL
1743436428,c661bf3b74c5f8a96420fb07ca192be8,PennController,67,0,test_val,NULL,PennController,78,_Header_,Start,1743436088374,undefined,519,crash,negative,positive,B,NULL
1743436428,c661bf3b74c5f8a96420fb07ca192be8,PennController,67,0,test_val,NULL,PennController,78,_Header_,End,1743436088625,undefined,519,crash,negative,positive,B,NULL
1743436428,c661bf3b74c5f8a96420fb07ca192be8,PennController,67,0,test_val,NULL,Selector,unnamed-Selector,Selection,negative,1743436089653,undefined,519,crash,negative,positive,B,negative;positive
1743436428,c661bf3b74c5f8a96420fb07ca192be8,PennController,67,0,test_val,NULL,PennController,78,_Trial_,End,1743436089654,undefined,519,crash,negative,positive,B,NULL
1743436428,c661bf3b74c5f8a96420fb07ca192be8,PennController,59,0,test_val,NULL,PennController,70,_Trial_,Start,1743436089654,undefined,540,reassure,negative,positive,B,NULL
1743436428,c661bf3b74c5f8a96420fb07ca192be8,PennController,59,0,test_val,NULL,PennController,70,_Header_,Start,1743436089654,undefined,540,reassure,negative,positive,B,NULL
1743436428,c661bf3b74c5f8a96420fb07ca192be8,PennController,59,0,test_val,NULL,PennController,70,_Header_,End,1743436089917,undefined,540,reassure,negative,positive,B,NULL
1743436428,c661bf3b74c5f8a96420fb07ca192be8,PennController,59,0,test_val,NULL,Selector,unnamed-Selector,Selection,positive,1743436090966,undefined,540,reassure,negative,positive,B,negative;positive
1743436428,c661bf3b74c5f8a96420fb07ca192be8,PennController,59,0,test_val,NULL,PennController,70,_Trial_,End,1743436090967,undefined,540,reassure,negative,positive,B,NULL
1743436428,c661bf3b74c5f8a96420fb07ca192be8,PennController,45,0,test_val,NULL,PennController,56,_Trial_,Start,1743436090967,undefined,539,build,negative,positive,B,NULL
1743436428,c661bf3b74c5f8a96420fb07ca192be8,PennController,45,0,test_val,NULL,PennController,56,_Header_,Start,1743436090967,undefined,539,build,negative,positive,B,NULL
1743436428,c661bf3b74c5f8a96420fb07ca192be8,PennController,45,0,test_val,NULL,PennController,56,_Header_,End,1743436091226,undefined,539,build,negative,positive,B,NULL
1743436428,c661bf3b74c5f8a96420fb07ca192be8,PennController,45,0,test_val,NULL,Selector,unnamed-Selector,Selection,positive,1743436092274,undefined,539,build,negative,positive,B,negative;positive
1743436428,c661bf3b74c5f8a96420fb07ca192be8,PennController,45,0,test_val,NULL,PennController,56,_Trial_,End,1743436092275,undefined,539,build,negative,positive,B,NULL
1743436428,c661bf3b74c5f8a96420fb07ca192be8,PennController,76,0,test_val,NULL,PennController,87,_Trial_,Start,1743436092275,undefined,458,irritate,negative,positive,B,NULL
1743436428,c661bf3b74c5f8a96420fb07ca192be8,PennController,76,0,test_val,NULL,PennController,87,_Header_,Start,1743436092275,undefined,458,irritate,negative,positive,B,NULL
1743436428,c661bf3b74c5f8a96420fb07ca192be8,PennController,76,0,test_val,NULL,PennController,87,_Header_,End,1743436092535,undefined,458,irritate,negative,positive,B,NULL
1743436428,c661bf3b74c5f8a96420fb07ca192be8,PennController,76,0,test_val,NULL,Selector,unnamed-Selector,Selection,negative,1743436093502,undefined,458,irritate,negative,positive,B,negative;positive
1743436428,c661bf3b74c5f8a96420fb07ca192be8,PennController,76,0,test_val,NULL,PennController,87,_Trial_,End,1743436093503,undefined,458,irritate,negative,positive,B,NULL
1743436428,c661bf3b74c5f8a96420fb07ca192be8,PennController,82,0,test_val,NULL,PennController,93,_Trial_,Start,1743436093503,undefined,504,criticize,negative,positive,B,NULL
1743436428,c661bf3b74c5f8a96420fb07ca192be8,PennController,82,0,test_val,NULL,PennController,93,_Header_,Start,1743436093503,undefined,504,criticize,negative,positive,B,NULL
1743436428,c661bf3b74c5f8a96420fb07ca192be8,PennController,82,0,test_val,NULL,PennController,93,_Header_,End,1743436093767,undefined,504,criticize,negative,positive,B,NULL
1743436428,c661bf3b74c5f8a96420fb07ca192be8,PennController,82,0,test_val,NULL,Selector,unnamed-Selector,Selection,negative,1743436094778,undefined,504,criticize,negative,positive,B,negative;positive
1743436428,c661bf3b74c5f8a96420fb07ca192be8,PennController,82,0,test_val,NULL,PennController,93,_Trial_,End,1743436094778,undefined,504,criticize,negative,positive,B,NULL
1743436428,c661bf3b74c5f8a96420fb07ca192be8,PennController,54,0,test_val,NULL,PennController,65,_Trial_,Start,1743436094778,undefined,527,content,negative,positive,B,NULL
1743436428,c661bf3b74c5f8a96420fb07ca192be8,PennController,54,0,test_val,NULL,PennController,65,_Header_,Start,1743436094778,undefined,527,content,negative,positive,B,NULL
1743436428,c661bf3b74c5f8a96420fb07ca192be8,PennController,54,0,test_val,NULL,PennController,65,_Header_,End,1743436095029,undefined,527,content,negative,positive,B,NULL
1743436428,c661bf3b74c5f8a96420fb07ca192be8,PennController,54,0,test_val,NULL,Selector,unnamed-Selector,Selection,positive,1743436096064,undefined,527,content,negative,positive,B,negative;positive
1743436428,c661bf3b74c5f8a96420fb07ca192be8,PennController,54,0,test_val,NULL,PennController,65,_Trial_,End,1743436096064,undefined,527,content,negative,positive,B,NULL
1743436428,c661bf3b74c5f8a96420fb07ca192be8,PennController,62,0,test_val,NULL,PennController,73,_Trial_,Start,1743436096065,undefined,478,adore,negative,positive,B,NULL
1743436428,c661bf3b74c5f8a96420fb07ca192be8,PennController,62,0,test_val,NULL,PennController,73,_Header_,Start,1743436096065,undefined,478,adore,negative,positive,B,NULL
1743436428,c661bf3b74c5f8a96420fb07ca192be8,PennController,62,0,test_val,NULL,PennController,73,_Header_,End,1743436096319,undefined,478,adore,negative,positive,B,NULL
1743436428,c661bf3b74c5f8a96420fb07ca192be8,PennController,62,0,test_val,NULL,Selector,unnamed-Selector,Selection,positive,1743436097306,undefined,478,adore,negative,positive,B,negative;positive
1743436428,c661bf3b74c5f8a96420fb07ca192be8,PennController,62,0,test_val,NULL,PennController,73,_Trial_,End,1743436097307,undefined,478,adore,negative,positive,B,NULL
1743436428,c661bf3b74c5f8a96420fb07ca192be8,PennController,79,0,test_val,NULL,PennController,90,_Trial_,Start,1743436097307,undefined,635,embarrass,negative,positive,B,NULL
1743436428,c661bf3b74c5f8a96420fb07ca192be8,PennController,79,0,test_val,NULL,PennController,90,_Header_,Start,1743436097307,undefined,635,embarrass,negative,positive,B,NULL
1743436428,c661bf3b74c5f8a96420fb07ca192be8,PennController,79,0,test_val,NULL,PennController,90,_Header_,End,1743436097566,undefined,635,embarrass,negative,positive,B,NULL
1743436428,c661bf3b74c5f8a96420fb07ca192be8,PennController,79,0,test_val,NULL,Selector,unnamed-Selector,Selection,negative,1743436098709,undefined,635,embarrass,negative,positive,B,negative;positive
1743436428,c661bf3b74c5f8a96420fb07ca192be8,PennController,79,0,test_val,NULL,PennController,90,_Trial_,End,1743436098710,undefined,635,embarrass,negative,positive,B,NULL
1743436428,c661bf3b74c5f8a96420fb07ca192be8,PennController,63,0,test_val,NULL,PennController,74,_Trial_,Start,1743436098710,undefined,522,cherish,negative,positive,B,NULL
1743436428,c661bf3b74c5f8a96420fb07ca192be8,PennController,63,0,test_val,NULL,PennController,74,_Header_,Start,1743436098710,undefined,522,cherish,negative,positive,B,NULL
1743436428,c661bf3b74c5f8a96420fb07ca192be8,PennController,63,0,test_val,NULL,PennController,74,_Header_,End,1743436098967,undefined,522,cherish,negative,positive,B,NULL
1743436428,c661bf3b74c5f8a96420fb07ca192be8,PennController,63,0,test_val,NULL,Selector,unnamed-Selector,Selection,positive,1743436099999,undefined,522,cherish,negative,positive,B,negative;positive
1743436428,c661bf3b74c5f8a96420fb07ca192be8,PennController,63,0,test_val,NULL,PennController,74,_Trial_,End,1743436099999,undefined,522,cherish,negative,positive,B,NULL
1743436428,c661bf3b74c5f8a96420fb07ca192be8,PennController,80,0,test_val,NULL,PennController,91,_Trial_,Start,1743436100000,undefined,525,discourage,negative,positive,B,NULL
1743436428,c661bf3b74c5f8a96420fb07ca192be8,PennController,80,0,test_val,NULL,PennController,91,_Header_,Start,1743436100000,undefined,525,discourage,negative,positive,B,NULL
1743436428,c661bf3b74c5f8a96420fb07ca192be8,PennController,80,0,test_val,NULL,PennController,91,_Header_,End,1743436100261,undefined,525,discourage,negative,positive,B,NULL
1743436428,c661bf3b74c5f8a96420fb07ca192be8,PennController,80,0,test_val,NULL,Selector,unnamed-Selector,Selection,negative,1743436101295,undefined,525,discourage,negative,positive,B,negative;positive
1743436428,c661bf3b74c5f8a96420fb07ca192be8,PennController,80,0,test_val,NULL,PennController,91,_Trial_,End,1743436101295,undefined,525,discourage,negative,positive,B,NULL
1743436428,c661bf3b74c5f8a96420fb07ca192be8,PennController,64,0,test_val,NULL,PennController,75,_Trial_,Start,1743436101296,undefined,558,rust,negative,positive,B,NULL
1743436428,c661bf3b74c5f8a96420fb07ca192be8,PennController,64,0,test_val,NULL,PennController,75,_Header_,Start,1743436101296,undefined,558,rust,negative,positive,B,NULL
1743436428,c661bf3b74c5f8a96420fb07ca192be8,PennController,64,0,test_val,NULL,PennController,75,_Header_,End,1743436101556,undefined,558,rust,negative,positive,B,NULL
1743436428,c661bf3b74c5f8a96420fb07ca192be8,PennController,64,0,test_val,NULL,Selector,unnamed-Selector,Selection,negative,1743436102623,undefined,558,rust,negative,positive,B,negative;positive
1743436428,c661bf3b74c5f8a96420fb07ca192be8,PennController,64,0,test_val,NULL,PennController,75,_Trial_,End,1743436102623,undefined,558,rust,negative,positive,B,NULL
1743436428,c661bf3b74c5f8a96420fb07ca192be8,PennController,50,0,test_val,NULL,PennController,61,_Trial_,Start,1743436102624,undefined,584,sculpt,negative,positive,B,NULL
1743436428,c661bf3b74c5f8a96420fb07ca192be8,PennController,50,0,test_val,NULL,PennController,61,_Header_,Start,1743436102624,undefined,584,sculpt,negative,positive,B,NULL
1743436428,c661bf3b74c5f8a96420fb07ca192be8,PennController,50,0,test_val,NULL,PennController,61,_Header_,End,1743436102879,undefined,584,sculpt,negative,positive,B,NULL
1743436428,c661bf3b74c5f8a96420fb07ca192be8,PennController,50,0,test_val,NULL,Selector,unnamed-Selector,Selection,positive,1743436103974,undefined,584,sculpt,negative,positive,B,negative;positive
1743436428,c661bf3b74c5f8a96420fb07ca192be8,PennController,50,0,test_val,NULL,PennController,61,_Trial_,End,1743436103974,undefined,584,sculpt,negative,positive,B,NULL
1743436428,c661bf3b74c5f8a96420fb07ca192be8,PennController,47,0,test_val,NULL,PennController,58,_Trial_,Start,1743436103975,undefined,517,caress,negative,positive,B,NULL
1743436428,c661bf3b74c5f8a96420fb07ca192be8,PennController,47,0,test_val,NULL,PennController,58,_Header_,Start,1743436103975,undefined,517,caress,negative,positive,B,NULL
1743436428,c661bf3b74c5f8a96420fb07ca192be8,PennController,47,0,test_val,NULL,PennController,58,_Header_,End,1743436104236,undefined,517,caress,negative,positive,B,NULL
1743436428,c661bf3b74c5f8a96420fb07ca192be8,PennController,47,0,test_val,NULL,Selector,unnamed-Selector,Selection,positive,1743436105260,undefined,517,caress,negative,positive,B,negative;positive
1743436428,c661bf3b74c5f8a96420fb07ca192be8,PennController,47,0,test_val,NULL,PennController,58,_Trial_,End,1743436105261,undefined,517,caress,negative,positive,B,NULL
1743436428,c661bf3b74c5f8a96420fb07ca192be8,PennController,78,0,test_val,NULL,PennController,89,_Trial_,Start,1743436105261,undefined,510,dishonor,negative,positive,B,NULL
1743436428,c661bf3b74c5f8a96420fb07ca192be8,PennController,78,0,test_val,NULL,PennController,89,_Header_,Start,1743436105261,undefined,510,dishonor,negative,positive,B,NULL
1743436428,c661bf3b74c5f8a96420fb07ca192be8,PennController,78,0,test_val,NULL,PennController,89,_Header_,End,1743436105527,undefined,510,dishonor,negative,positive,B,NULL
1743436428,c661bf3b74c5f8a96420fb07ca192be8,PennController,78,0,test_val,NULL,Selector,unnamed-Selector,Selection,negative,1743436106542,undefined,510,dishonor,negative,positive,B,negative;positive
1743436428,c661bf3b74c5f8a96420fb07ca192be8,PennController,78,0,test_val,NULL,PennController,89,_Trial_,End,1743436106542,undefined,510,dishonor,negative,positive,B,NULL
1743436428,c661bf3b74c5f8a96420fb07ca192be8,PennController,53,0,test_val,NULL,PennController,64,_Trial_,Start,1743436106542,undefined,544,clean,negative,positive,B,NULL
1743436428,c661bf3b74c5f8a96420fb07ca192be8,PennController,53,0,test_val,NULL,PennController,64,_Header_,Start,1743436106542,undefined,544,clean,negative,positive,B,NULL
1743436428,c661bf3b74c5f8a96420fb07ca192be8,PennController,53,0,test_val,NULL,PennController,64,_Header_,End,1743436106802,undefined,544,clean,negative,positive,B,NULL
1743436428,c661bf3b74c5f8a96420fb07ca192be8,PennController,53,0,test_val,NULL,Selector,unnamed-Selector,Selection,positive,1743436107856,undefined,544,clean,negative,positive,B,negative;positive
1743436428,c661bf3b74c5f8a96420fb07ca192be8,PennController,53,0,test_val,NULL,PennController,64,_Trial_,End,1743436107857,undefined,544,clean,negative,positive,B,NULL
1743436428,c661bf3b74c5f8a96420fb07ca192be8,PennController,70,0,test_val,NULL,PennController,81,_Trial_,Start,1743436107857,undefined,775,hit,negative,positive,B,NULL
1743436428,c661bf3b74c5f8a96420fb07ca192be8,PennController,70,0,test_val,NULL,PennController,81,_Header_,Start,1743436107857,undefined,775,hit,negative,positive,B,NULL
1743436428,c661bf3b74c5f8a96420fb07ca192be8,PennController,70,0,test_val,NULL,PennController,81,_Header_,End,1743436108112,undefined,775,hit,negative,positive,B,NULL
1743436428,c661bf3b74c5f8a96420fb07ca192be8,PennController,70,0,test_val,NULL,Selector,unnamed-Selector,Selection,negative,1743436109397,undefined,775,hit,negative,positive,B,negative;positive
1743436428,c661bf3b74c5f8a96420fb07ca192be8,PennController,70,0,test_val,NULL,PennController,81,_Trial_,End,1743436109397,undefined,775,hit,negative,positive,B,NULL
1743436428,c661bf3b74c5f8a96420fb07ca192be8,PennController,48,0,test_val,NULL,PennController,59,_Trial_,Start,1743436109397,undefined,571,hug,negative,positive,B,NULL
1743436428,c661bf3b74c5f8a96420fb07ca192be8,PennController,48,0,test_val,NULL,PennController,59,_Header_,Start,1743436109397,undefined,571,hug,negative,positive,B,NULL
1743436428,c661bf3b74c5f8a96420fb07ca192be8,PennController,48,0,test_val,NULL,PennController,59,_Header_,End,1743436109654,undefined,571,hug,negative,positive,B,NULL
1743436428,c661bf3b74c5f8a96420fb07ca192be8,PennController,48,0,test_val,NULL,Selector,unnamed-Selector,Selection,positive,1743436110734,undefined,571,hug,negative,positive,B,negative;positive
1743436428,c661bf3b74c5f8a96420fb07ca192be8,PennController,48,0,test_val,NULL,PennController,59,_Trial_,End,1743436110735,undefined,571,hug,negative,positive,B,NULL
1743436428,c661bf3b74c5f8a96420fb07ca192be8,PennController,69,0,test_val,NULL,PennController,80,_Trial_,Start,1743436110735,undefined,491,burn,negative,positive,B,NULL
1743436428,c661bf3b74c5f8a96420fb07ca192be8,PennController,69,0,test_val,NULL,PennController,80,_Header_,Start,1743436110735,undefined,491,burn,negative,positive,B,NULL
1743436428,c661bf3b74c5f8a96420fb07ca192be8,PennController,69,0,test_val,NULL,PennController,80,_Header_,End,1743436110990,undefined,491,burn,negative,positive,B,NULL
1743436428,c661bf3b74c5f8a96420fb07ca192be8,PennController,69,0,test_val,NULL,Selector,unnamed-Selector,Selection,negative,1743436111989,undefined,491,burn,negative,positive,B,negative;positive
1743436428,c661bf3b74c5f8a96420fb07ca192be8,PennController,69,0,test_val,NULL,PennController,80,_Trial_,End,1743436111990,undefined,491,burn,negative,positive,B,NULL
1743436428,c661bf3b74c5f8a96420fb07ca192be8,PennController,65,0,test_val,NULL,PennController,76,_Trial_,Start,1743436111990,undefined,475,slaughter,negative,positive,B,NULL
1743436428,c661bf3b74c5f8a96420fb07ca192be8,PennController,65,0,test_val,NULL,PennController,76,_Header_,Start,1743436111990,undefined,475,slaughter,negative,positive,B,NULL
1743436428,c661bf3b74c5f8a96420fb07ca192be8,PennController,65,0,test_val,NULL,PennController,76,_Header_,End,1743436112251,undefined,475,slaughter,negative,positive,B,NULL
1743436428,c661bf3b74c5f8a96420fb07ca192be8,PennController,65,0,test_val,NULL,Selector,unnamed-Selector,Selection,negative,1743436113231,undefined,475,slaughter,negative,positive,B,negative;positive
1743436428,c661bf3b74c5f8a96420fb07ca192be8,PennController,65,0,test_val,NULL,PennController,76,_Trial_,End,1743436113232,undefined,475,slaughter,negative,positive,B,NULL
1743436428,c661bf3b74c5f8a96420fb07ca192be8,PennController,51,0,test_val,NULL,PennController,62,_Trial_,Start,1743436113232,undefined,523,twinkle,negative,positive,B,NULL
1743436428,c661bf3b74c5f8a96420fb07ca192be8,PennController,51,0,test_val,NULL,PennController,62,_Header_,Start,1743436113232,undefined,523,twinkle,negative,positive,B,NULL
1743436428,c661bf3b74c5f8a96420fb07ca192be8,PennController,51,0,test_val,NULL,PennController,62,_Header_,End,1743436113494,undefined,523,twinkle,negative,positive,B,NULL
1743436428,c661bf3b74c5f8a96420fb07ca192be8,PennController,51,0,test_val,NULL,Selector,unnamed-Selector,Selection,positive,1743436114528,undefined,523,twinkle,negative,positive,B,negative;positive
1743436428,c661bf3b74c5f8a96420fb07ca192be8,PennController,51,0,test_val,NULL,PennController,62,_Trial_,End,1743436114529,undefined,523,twinkle,negative,positive,B,NULL
1743436428,c661bf3b74c5f8a96420fb07ca192be8,PennController,81,0,test_val,NULL,PennController,92,_Trial_,Start,1743436114529,undefined,560,dismay,negative,positive,B,NULL
1743436428,c661bf3b74c5f8a96420fb07ca192be8,PennController,81,0,test_val,NULL,PennController,92,_Header_,Start,1743436114529,undefined,560,dismay,negative,positive,B,NULL
1743436428,c661bf3b74c5f8a96420fb07ca192be8,PennController,81,0,test_val,NULL,PennController,92,_Header_,End,1743436114790,undefined,560,dismay,negative,positive,B,NULL
1743436428,c661bf3b74c5f8a96420fb07ca192be8,PennController,81,0,test_val,NULL,Selector,unnamed-Selector,Selection,negative,1743436115857,undefined,560,dismay,negative,positive,B,negative;positive
1743436428,c661bf3b74c5f8a96420fb07ca192be8,PennController,81,0,test_val,NULL,PennController,92,_Trial_,End,1743436115858,undefined,560,dismay,negative,positive,B,NULL
1743436428,c661bf3b74c5f8a96420fb07ca192be8,PennController,66,0,test_val,NULL,PennController,77,_Trial_,Start,1743436115858,undefined,575,slash,negative,positive,B,NULL
1743436428,c661bf3b74c5f8a96420fb07ca192be8,PennController,66,0,test_val,NULL,PennController,77,_Header_,Start,1743436115858,undefined,575,slash,negative,positive,B,NULL
1743436428,c661bf3b74c5f8a96420fb07ca192be8,PennController,66,0,test_val,NULL,PennController,77,_Header_,End,1743436116113,undefined,575,slash,negative,positive,B,NULL
1743436428,c661bf3b74c5f8a96420fb07ca192be8,PennController,66,0,test_val,NULL,Selector,unnamed-Selector,Selection,negative,1743436117196,undefined,575,slash,negative,positive,B,negative;positive
1743436428,c661bf3b74c5f8a96420fb07ca192be8,PennController,66,0,test_val,NULL,PennController,77,_Trial_,End,1743436117196,undefined,575,slash,negative,positive,B,NULL
1743436428,c661bf3b74c5f8a96420fb07ca192be8,PennController,46,0,test_val,NULL,PennController,57,_Trial_,Start,1743436117197,undefined,1034,repair,negative,positive,B,NULL
1743436428,c661bf3b74c5f8a96420fb07ca192be8,PennController,46,0,test_val,NULL,PennController,57,_Header_,Start,1743436117197,undefined,1034,repair,negative,positive,B,NULL
1743436428,c661bf3b74c5f8a96420fb07ca192be8,PennController,46,0,test_val,NULL,PennController,57,_Header_,End,1743436117450,undefined,1034,repair,negative,positive,B,NULL
1743436428,c661bf3b74c5f8a96420fb07ca192be8,PennController,46,0,test_val,NULL,Selector,unnamed-Selector,Selection,positive,1743436118994,undefined,1034,repair,negative,positive,B,negative;positive
1743436428,c661bf3b74c5f8a96420fb07ca192be8,PennController,46,0,test_val,NULL,PennController,57,_Trial_,End,1743436118995,undefined,1034,repair,negative,positive,B,NULL
1743436428,c661bf3b74c5f8a96420fb07ca192be8,PennController,52,0,test_val,NULL,PennController,63,_Trial_,Start,1743436118995,undefined,567,decorate,negative,positive,B,NULL
1743436428,c661bf3b74c5f8a96420fb07ca192be8,PennController,52,0,test_val,NULL,PennController,63,_Header_,Start,1743436118995,undefined,567,decorate,negative,positive,B,NULL
1743436428,c661bf3b74c5f8a96420fb07ca192be8,PennController,52,0,test_val,NULL,PennController,63,_Header_,End,1743436119251,undefined,567,decorate,negative,positive,B,NULL
1743436428,c661bf3b74c5f8a96420fb07ca192be8,PennController,52,0,test_val,NULL,Selector,unnamed-Selector,Selection,positive,1743436120327,undefined,567,decorate,negative,positive,B,negative;positive
1743436428,c661bf3b74c5f8a96420fb07ca192be8,PennController,52,0,test_val,NULL,PennController,63,_Trial_,End,1743436120327,undefined,567,decorate,negative,positive,B,NULL
1743436428,c661bf3b74c5f8a96420fb07ca192be8,PennController,58,0,test_val,NULL,PennController,69,_Trial_,Start,1743436120328,undefined,504,like,negative,positive,B,NULL
1743436428,c661bf3b74c5f8a96420fb07ca192be8,PennController,58,0,test_val,NULL,PennController,69,_Header_,Start,1743436120328,undefined,504,like,negative,positive,B,NULL
1743436428,c661bf3b74c5f8a96420fb07ca192be8,PennController,58,0,test_val,NULL,PennController,69,_Header_,End,1743436120591,undefined,504,like,negative,positive,B,NULL
1743436428,c661bf3b74c5f8a96420fb07ca192be8,PennController,58,0,test_val,NULL,Selector,unnamed-Selector,Selection,positive,1743436121605,undefined,504,like,negative,positive,B,negative;positive
1743436428,c661bf3b74c5f8a96420fb07ca192be8,PennController,58,0,test_val,NULL,PennController,69,_Trial_,End,1743436121606,undefined,504,like,negative,positive,B,NULL
1743436428,c661bf3b74c5f8a96420fb07ca192be8,PennController,55,0,test_val,NULL,PennController,66,_Trial_,Start,1743436121606,undefined,530,encourage,negative,positive,B,NULL
1743436428,c661bf3b74c5f8a96420fb07ca192be8,PennController,55,0,test_val,NULL,PennController,66,_Header_,Start,1743436121606,undefined,530,encourage,negative,positive,B,NULL
1743436428,c661bf3b74c5f8a96420fb07ca192be8,PennController,55,0,test_val,NULL,PennController,66,_Header_,End,1743436121869,undefined,530,encourage,negative,positive,B,NULL
1743436428,c661bf3b74c5f8a96420fb07ca192be8,PennController,55,0,test_val,NULL,Selector,unnamed-Selector,Selection,positive,1743436122906,undefined,530,encourage,negative,positive,B,negative;positive
1743436428,c661bf3b74c5f8a96420fb07ca192be8,PennController,55,0,test_val,NULL,PennController,66,_Trial_,End,1743436122906,undefined,530,encourage,negative,positive,B,NULL
1743436428,c661bf3b74c5f8a96420fb07ca192be8,PennController,74,0,test_val,NULL,PennController,85,_Trial_,Start,1743436122907,undefined,469,offend,negative,positive,B,NULL
1743436428,c661bf3b74c5f8a96420fb07ca192be8,PennController,74,0,test_val,NULL,PennController,85,_Header_,Start,1743436122907,undefined,469,offend,negative,positive,B,NULL
1743436428,c661bf3b74c5f8a96420fb07ca192be8,PennController,74,0,test_val,NULL,PennController,85,_Header_,End,1743436123161,undefined,469,offend,negative,positive,B,NULL
1743436428,c661bf3b74c5f8a96420fb07ca192be8,PennController,74,0,test_val,NULL,Selector,unnamed-Selector,Selection,negative,1743436124141,undefined,469,offend,negative,positive,B,negative;positive
1743436428,c661bf3b74c5f8a96420fb07ca192be8,PennController,74,0,test_val,NULL,PennController,85,_Trial_,End,1743436124141,undefined,469,offend,negative,positive,B,NULL
1743436428,c661bf3b74c5f8a96420fb07ca192be8,PennController,61,0,test_val,NULL,PennController,72,_Trial_,Start,1743436124141,undefined,528,admire,negative,positive,B,NULL
1743436428,c661bf3b74c5f8a96420fb07ca192be8,PennController,61,0,test_val,NULL,PennController,72,_Header_,Start,1743436124141,undefined,528,admire,negative,positive,B,NULL
1743436428,c661bf3b74c5f8a96420fb07ca192be8,PennController,61,0,test_val,NULL,PennController,72,_Header_,End,1743436124394,undefined,528,admire,negative,positive,B,NULL
1743436428,c661bf3b74c5f8a96420fb07ca192be8,PennController,61,0,test_val,NULL,Selector,unnamed-Selector,Selection,positive,1743436125430,undefined,528,admire,negative,positive,B,negative;positive
1743436428,c661bf3b74c5f8a96420fb07ca192be8,PennController,61,0,test_val,NULL,PennController,72,_Trial_,End,1743436125431,undefined,528,admire,negative,positive,B,NULL
1743436428,c661bf3b74c5f8a96420fb07ca192be8,PennController,65,0,test_val,NULL,PennController,76,_Trial_,Start,1743436125431,undefined,570,slaughter,negative,positive,B,NULL
1743436428,c661bf3b74c5f8a96420fb07ca192be8,PennController,65,0,test_val,NULL,PennController,76,_Header_,Start,1743436125431,undefined,570,slaughter,negative,positive,B,NULL
1743436428,c661bf3b74c5f8a96420fb07ca192be8,PennController,65,0,test_val,NULL,PennController,76,_Header_,End,1743436125685,undefined,570,slaughter,negative,positive,B,NULL
1743436428,c661bf3b74c5f8a96420fb07ca192be8,PennController,65,0,test_val,NULL,Selector,unnamed-Selector,Selection,negative,1743436126763,undefined,570,slaughter,negative,positive,B,negative;positive
1743436428,c661bf3b74c5f8a96420fb07ca192be8,PennController,65,0,test_val,NULL,PennController,76,_Trial_,End,1743436126763,undefined,570,slaughter,negative,positive,B,NULL
1743436428,c661bf3b74c5f8a96420fb07ca192be8,PennController,51,0,test_val,NULL,PennController,62,_Trial_,Start,1743436126764,undefined,553,twinkle,negative,positive,B,NULL
1743436428,c661bf3b74c5f8a96420fb07ca192be8,PennController,51,0,test_val,NULL,PennController,62,_Header_,Start,1743436126764,undefined,553,twinkle,negative,positive,B,NULL
1743436428,c661bf3b74c5f8a96420fb07ca192be8,PennController,51,0,test_val,NULL,PennController,62,_Header_,End,1743436127024,undefined,553,twinkle,negative,positive,B,NULL
1743436428,c661bf3b74c5f8a96420fb07ca192be8,PennController,51,0,test_val,NULL,Selector,unnamed-Selector,Selection,positive,1743436128084,undefined,553,twinkle,negative,positive,B,negative;positive
1743436428,c661bf3b74c5f8a96420fb07ca192be8,PennController,51,0,test_val,NULL,PennController,62,_Trial_,End,1743436128086,undefined,553,twinkle,negative,positive,B,NULL
1743436428,c661bf3b74c5f8a96420fb07ca192be8,PennController,69,0,test_val,NULL,PennController,80,_Trial_,Start,1743436128086,undefined,454,burn,negative,positive,B,NULL
1743436428,c661bf3b74c5f8a96420fb07ca192be8,PennController,69,0,test_val,NULL,PennController,80,_Header_,Start,1743436128086,undefined,454,burn,negative,positive,B,NULL
1743436428,c661bf3b74c5f8a96420fb07ca192be8,PennController,69,0,test_val,NULL,PennController,80,_Header_,End,1743436128346,undefined,454,burn,negative,positive,B,NULL
1743436428,c661bf3b74c5f8a96420fb07ca192be8,PennController,69,0,test_val,NULL,Selector,unnamed-Selector,Selection,negative,1743436129309,undefined,454,burn,negative,positive,B,negative;positive
1743436428,c661bf3b74c5f8a96420fb07ca192be8,PennController,69,0,test_val,NULL,PennController,80,_Trial_,End,1743436129310,undefined,454,burn,negative,positive,B,NULL
1743436428,c661bf3b74c5f8a96420fb07ca192be8,PennController,73,0,test_val,NULL,PennController,84,_Trial_,Start,1743436129310,undefined,546,corrode,negative,positive,B,NULL
1743436428,c661bf3b74c5f8a96420fb07ca192be8,PennController,73,0,test_val,NULL,PennController,84,_Header_,Start,1743436129310,undefined,546,corrode,negative,positive,B,NULL
1743436428,c661bf3b74c5f8a96420fb07ca192be8,PennController,73,0,test_val,NULL,PennController,84,_Header_,End,1743436129562,undefined,546,corrode,negative,positive,B,NULL
1743436428,c661bf3b74c5f8a96420fb07ca192be8,PennController,73,0,test_val,NULL,Selector,unnamed-Selector,Selection,negative,1743436130617,undefined,546,corrode,negative,positive,B,negative;positive
1743436428,c661bf3b74c5f8a96420fb07ca192be8,PennController,73,0,test_val,NULL,PennController,84,_Trial_,End,1743436130617,undefined,546,corrode,negative,positive,B,NULL
1743436428,c661bf3b74c5f8a96420fb07ca192be8,PennController,74,0,test_val,NULL,PennController,85,_Trial_,Start,1743436130617,undefined,514,offend,negative,positive,B,NULL
1743436428,c661bf3b74c5f8a96420fb07ca192be8,PennController,74,0,test_val,NULL,PennController,85,_Header_,Start,1743436130617,undefined,514,offend,negative,positive,B,NULL
1743436428,c661bf3b74c5f8a96420fb07ca192be8,PennController,74,0,test_val,NULL,PennController,85,_Header_,End,1743436130871,undefined,514,offend,negative,positive,B,NULL
1743436428,c661bf3b74c5f8a96420fb07ca192be8,PennController,74,0,test_val,NULL,Selector,unnamed-Selector,Selection,negative,1743436131895,undefined,514,offend,negative,positive,B,negative;positive
1743436428,c661bf3b74c5f8a96420fb07ca192be8,PennController,74,0,test_val,NULL,PennController,85,_Trial_,End,1743436131895,undefined,514,offend,negative,positive,B,NULL
1743436428,c661bf3b74c5f8a96420fb07ca192be8,PennController,63,0,test_val,NULL,PennController,74,_Trial_,Start,1743436131896,undefined,499,cherish,negative,positive,B,NULL
