"","ID.true","Word","Label","ConcValCombo","Task","BlockOrder","Group","Response","Accuracy","EventTime","Value","RT","ReactionTime","Key_value_F","Key_value_J","Comments","LogReactionTime","LogRT","TrialNumber"
"1","5dea7a7df87f5519e686ff7b","dishonor","test_physpsych","psychological-negative","PhysPsych","PV","B","psychological",1,1743508114653,"psychological",1286.83333333333,535,"B","psychological;physical","",6.28226674689601,7.15993969908076,1
"2","5dea7a7df87f5519e686ff7b","adore","test_physpsych","psychological-positive","PhysPsych","PV","B","psychological",1,1743508116109,"psychological",1327.33333333333,697,"B","psychological;physical","",6.54678541076052,7.19092719595603,2
"3","5dea7a7df87f5519e686ff7b","like","test_physpsych","psychological-positive","PhysPsych","PV","B","psychological",1,1743508117603,"psychological",1292.66666666667,735,"B","psychological;physical","",6.59987049921284,7.16446254713449,3
"4","5dea7a7df87f5519e686ff7b","respect","test_physpsych","psychological-positive","PhysPsych","PV","B","psychological",1,1743508118921,"psychological",1417,560,"B","psychological;physical","",6.32793678372919,7.25629723969068,4
"5","5dea7a7df87f5519e686ff7b","caress","test_physpsych","physical-positive","PhysPsych","PV","B","psychological",0,1743508120657,"psychological",1389.33333333333,977,"B","psychological;physical","",6.88448665204278,7.23657929476509,5
"6","5dea7a7df87f5519e686ff7b","decorate","test_physpsych","physical-positive","PhysPsych","PV","B","psychological",0,1743508122297,"psychological",1465.16666666667,881,"B","psychological;physical","",6.78105762593618,7.28972428062312,6
"7","5dea7a7df87f5519e686ff7b","content","test_physpsych","psychological-positive","PhysPsych","PV","B","physical",0,1743508124298,"physical",1463.83333333333,1243,"B","psychological;physical","",7.12528309151071,7.28881384468906,7
"8","5dea7a7df87f5519e686ff7b","dismay","test_physpsych","psychological-negative","PhysPsych","PV","B","psychological",1,1743508125907,"psychological",1330.33333333333,851,"B","psychological;physical","",6.74641212857337,7.19318481638062,8
"9","5dea7a7df87f5519e686ff7b","appreciate","test_physpsych","psychological-positive","PhysPsych","PV","B","psychological",1,1743508127588,"psychological",1405.33333333333,924,"B","psychological;physical","",6.82871207164168,7.24802980155309,9
"10","5dea7a7df87f5519e686ff7b","stain","test_physpsych","physical-negative","PhysPsych","PV","B","physical",1,1743508128958,"physical",1338.5,612,"B","psychological;physical","",6.41673228251233,7.19930486296041,10
"11","5dea7a7df87f5519e686ff7b","burn","test_physpsych","physical-negative","PhysPsych","PV","B","physical",1,1743508130232,"physical",1403,513,"B","psychological;physical","",6.24027584517077,7.24636808010246,11
"12","5dea7a7df87f5519e686ff7b","embarrass","test_physpsych","psychological-negative","PhysPsych","PV","B","psychological",1,1743508131620,"psychological",1313.5,627,"B","psychological;physical","",6.44094654063292,7.18045060912559,12
"13","5dea7a7df87f5519e686ff7b","hug","test_physpsych","physical-positive","PhysPsych","PV","B","psychological",0,1743508133205,"psychological",1389.33333333333,828,"B","psychological;physical","",6.71901315438526,7.23657929476509,13
"14","5dea7a7df87f5519e686ff7b","rust","test_physpsych","physical-negative","PhysPsych","PV","B","physical",1,1743508135478,"physical",1520,1516,"B","psychological;physical","",7.32383056620232,7.32646561384032,14
"15","5dea7a7df87f5519e686ff7b","discourage","test_physpsych","psychological-negative","PhysPsych","PV","B","psychological",1,1743508136833,"psychological",1284.83333333333,602,"B","psychological;physical","",6.40025744530882,7.15838428723121,15
"16","5dea7a7df87f5519e686ff7b","clean","test_physpsych","physical-positive","PhysPsych","PV","B","physical",1,1743508138445,"physical",1520.66666666667,851,"B","psychological;physical","",6.74641212857337,7.32690411417622,16
"17","5dea7a7df87f5519e686ff7b","admire","test_physpsych","psychological-positive","PhysPsych","PV","B","psychological",1,1743508139796,"psychological",1306.83333333333,597,"B","psychological;physical","",6.3919171133926,7.17536218700287,17
"18","5dea7a7df87f5519e686ff7b","hit","test_physpsych","physical-negative","PhysPsych","PV","B","psychological",0,1743508141400,"psychological",1446.83333333333,846,"B","psychological;physical","",6.74051935960622,7.27713253916375,18
"19","5dea7a7df87f5519e686ff7b","displease","test_physpsych","psychological-negative","PhysPsych","PV","B","psychological",1,1743508142796,"psychological",1309.33333333333,636,"B","psychological;physical","",6.45519856334012,7.17727338080625,19
"20","5dea7a7df87f5519e686ff7b","cuddle","test_physpsych","physical-positive","PhysPsych","PV","B","physical",1,1743508144431,"physical",1387.75,877,"B","psychological;physical","",6.77650699237218,7.23543900957027,20
"21","5dea7a7df87f5519e686ff7b","crash","test_physpsych","physical-negative","PhysPsych","PV","B","psychological",0,1743508146468,"psychological",1520.16666666667,1282,"B","psychological;physical","",7.15617663748062,7.3265752569521,21
"22","5dea7a7df87f5519e686ff7b","sculpt","test_physpsych","physical-positive","PhysPsych","PV","B","physical",1,1743508148405,"physical",1471.16666666667,1180,"B","psychological;physical","",7.07326971745971,7.29381101579218,22
"23","5dea7a7df87f5519e686ff7b","repair","test_physpsych","physical-positive","PhysPsych","PV","B","psychological",0,1743508149822,"psychological",1496,661,"B","psychological;physical","",6.49375383985169,7.31055015853442,23
"24","5dea7a7df87f5519e686ff7b","corrode","test_physpsych","physical-negative","PhysPsych","PV","B","psychological",0,1743508151348,"psychological",1394.33333333333,766,"B","psychological;physical","",6.64118216974059,7.24017168277409,24
"25","5dea7a7df87f5519e686ff7b","slash","test_physpsych","physical-negative","PhysPsych","PV","B","physical",1,1743508152682,"physical",1358.66666666667,577,"B","psychological;physical","",6.3578422665081,7.21425910567451,25
"26","5dea7a7df87f5519e686ff7b","encourage","test_physpsych","psychological-positive","PhysPsych","PV","B","psychological",1,1743508154042,"psychological",1305.5,603,"B","psychological;physical","",6.40191719672719,7.17434138813918,26
"27","5dea7a7df87f5519e686ff7b","offend","test_physpsych","psychological-negative","PhysPsych","PV","B","psychological",1,1743508155495,"psychological",1328,699,"B","psychological;physical","",6.54965074223381,7.19142933003638,27
"28","5dea7a7df87f5519e686ff7b","twinkle","test_physpsych","physical-positive","PhysPsych","PV","B","psychological",0,1743508157156,"psychological",1428.5,902,"B","psychological;physical","",6.80461452006262,7.26438022167083,28
"29","5dea7a7df87f5519e686ff7b","dread","test_physpsych","psychological-negative","PhysPsych","PV","B","psychological",1,1743508158638,"psychological",1336.83333333333,726,"B","psychological;physical","",6.5875500148248,7.19805891213887,29
"30","5dea7a7df87f5519e686ff7b","irritate","test_physpsych","psychological-negative","PhysPsych","PV","B","psychological",1,1743508159996,"psychological",1317.5,602,"B","psychological;physical","",6.40025744530882,7.18349128041552,30
"31","5dea7a7df87f5519e686ff7b","build","test_physpsych","physical-positive","PhysPsych","PV","B","physical",1,1743508161367,"physical",1489.66666666667,616,"B","psychological;physical","",6.42324696353352,7.30630766026534,31
"32","5dea7a7df87f5519e686ff7b","slaughter","test_physpsych","physical-negative","PhysPsych","PV","B","psychological",0,1743508162925,"psychological",1397.16666666667,799,"B","psychological;physical","",6.68336094576627,7.2422016554098,32
"33","5dea7a7df87f5519e686ff7b","tear","test_physpsych","physical-negative","PhysPsych","PV","B","physical",1,1743508164674,"physical",1437.16666666667,992,"B","psychological;physical","",6.89972310728487,7.27042886172427,33
"34","5dea7a7df87f5519e686ff7b","despair","test_physpsych","psychological-negative","PhysPsych","PV","B","psychological",1,1743508166218,"psychological",1413.33333333333,783,"B","psychological;physical","",6.6631326959908,7.25370625955789,34
"35","5dea7a7df87f5519e686ff7b","reassure","test_physpsych","psychological-positive","PhysPsych","PV","B","psychological",1,1743508167615,"psychological",1378.5,639,"B","psychological;physical","",6.45990445437753,7.22875123046385,35
"36","5dea7a7df87f5519e686ff7b","cherish","test_physpsych","psychological-positive","PhysPsych","PV","B","psychological",1,1743508168937,"psychological",1429.83333333333,563,"B","psychological;physical","",6.33327962813969,7.26531316634491,36
"37","5dea7a7df87f5519e686ff7b","delete","test_physpsych","physical-negative","PhysPsych","PV","B","psychological",0,1743508170467,"psychological",1360.33333333333,772,"B","psychological;physical","",6.64898455002478,7.2154850467377,37
"38","5dea7a7df87f5519e686ff7b","criticize","test_physpsych","psychological-negative","PhysPsych","PV","B","psychological",1,1743508171852,"psychological",1341.33333333333,627,"B","psychological;physical","",6.44094654063292,7.20141942311147,38
"39","5dea7a7df87f5519e686ff7b","impress","test_physpsych","psychological-positive","PhysPsych","PV","B","psychological",1,1743508173203,"psychological",1330.5,595,"B","psychological;physical","",6.38856140554563,7.19331009041774,39
"40","5dea7a7df87f5519e686ff7b","produce","test_physpsych","physical-positive","PhysPsych","PV","B","physical",1,1743508174691,"physical",1402.25,729,"B","psychological;physical","",6.59167373200866,7.24583336838845,40
"41","5dea7a7df87f5519e686ff7b","clean","test_physpsych","physical-positive","PhysPsych","PV","B","physical",1,1743508176647,"physical",1520.66666666667,1198,"B","psychological;physical","",7.08840877867539,7.32690411417622,41
"42","5dea7a7df87f5519e686ff7b","produce","test_physpsych","physical-positive","PhysPsych","PV","B","physical",1,1743508178098,"physical",1402.25,694,"B","psychological;physical","",6.5424719605068,7.24583336838845,42
"43","5dea7a7df87f5519e686ff7b","delete","test_physpsych","physical-negative","PhysPsych","PV","B","psychological",0,1743508179399,"psychological",1360.33333333333,539,"B","psychological;physical","",6.289715570909,7.2154850467377,43
"44","5dea7a7df87f5519e686ff7b","caress","test_physpsych","physical-positive","PhysPsych","PV","B","psychological",0,1743508180926,"psychological",1389.33333333333,771,"B","psychological;physical","",6.64768837356333,7.23657929476509,44
"45","5dea7a7df87f5519e686ff7b","crash","test_physpsych","physical-negative","PhysPsych","PV","B","psychological",0,1743508182590,"psychological",1520.16666666667,903,"B","psychological;physical","",6.80572255341699,7.3265752569521,45
"46","5dea7a7df87f5519e686ff7b","displease","test_physpsych","psychological-negative","PhysPsych","PV","B","psychological",1,1743508183880,"psychological",1309.33333333333,532,"B","psychological;physical","",6.27664348934164,7.17727338080625,46
"47","5dea7a7df87f5519e686ff7b","impress","test_physpsych","psychological-positive","PhysPsych","PV","B","psychological",1,1743508185172,"psychological",1330.5,535,"B","psychological;physical","",6.28226674689601,7.19331009041774,47
"48","5dea7a7df87f5519e686ff7b","hit","test_physpsych","physical-negative","PhysPsych","PV","B","psychological",0,1743508186597,"psychological",1446.83333333333,664,"B","psychological;physical","",6.49828214947643,7.27713253916375,48
"49","5dea7a7df87f5519e686ff7b","sculpt","test_physpsych","physical-positive","PhysPsych","PV","B","psychological",0,1743508188011,"psychological",1471.16666666667,658,"B","psychological;physical","",6.48920493132532,7.29381101579218,49
"50","5dea7a7df87f5519e686ff7b","burn","test_physpsych","physical-negative","PhysPsych","PV","B","physical",1,1743508189669,"physical",1403,902,"B","psychological;physical","",6.80461452006262,7.24636808010246,50
"51","5dea7a7df87f5519e686ff7b","corrode","test_physpsych","physical-negative","PhysPsych","PV","B","psychological",0,1743508191047,"psychological",1394.33333333333,617,"B","psychological;physical","",6.42486902390539,7.24017168277409,51
"52","5dea7a7df87f5519e686ff7b","twinkle","test_physpsych","physical-positive","PhysPsych","PV","B","psychological",0,1743508192617,"psychological",1428.5,810,"B","psychological;physical","",6.69703424766648,7.26438022167083,52
"53","5dea7a7df87f5519e686ff7b","like","test_physpsych","psychological-positive","PhysPsych","PV","B","psychological",1,1743508193856,"psychological",1292.66666666667,482,"B","psychological;physical","",6.1779441140506,7.16446254713449,53
"54","5dea7a7df87f5519e686ff7b","respect","test_physpsych","psychological-positive","PhysPsych","PV","B","psychological",1,1743508195216,"psychological",1417,603,"B","psychological;physical","",6.40191719672719,7.25629723969068,54
"55","5dea7a7df87f5519e686ff7b","dishonor","test_physpsych","psychological-negative","PhysPsych","PV","B","psychological",1,1743508196472,"psychological",1286.83333333333,494,"B","psychological;physical","",6.20253551718792,7.15993969908076,55
"56","5dea7a7df87f5519e686ff7b","embarrass","test_physpsych","psychological-negative","PhysPsych","PV","B","psychological",1,1743508197725,"psychological",1313.5,497,"B","psychological;physical","",6.20859002609663,7.18045060912559,56
"57","5dea7a7df87f5519e686ff7b","tear","test_physpsych","physical-negative","PhysPsych","PV","B","physical",1,1743508199112,"physical",1437.16666666667,628,"B","psychological;physical","",6.4425401664682,7.27042886172427,57
"58","5dea7a7df87f5519e686ff7b","irritate","test_physpsych","psychological-negative","PhysPsych","PV","B","psychological",1,1743508200375,"psychological",1317.5,504,"B","psychological;physical","",6.22257626807137,7.18349128041552,58
"59","5dea7a7df87f5519e686ff7b","stain","test_physpsych","physical-negative","PhysPsych","PV","B","physical",1,1743508201682,"physical",1338.5,548,"B","psychological;physical","",6.30627528694802,7.19930486296041,59
"60","5dea7a7df87f5519e686ff7b","offend","test_physpsych","psychological-negative","PhysPsych","PV","B","psychological",1,1743508202956,"psychological",1328,515,"B","psychological;physical","",6.24416690066374,7.19142933003638,60
"61","5dea7a7df87f5519e686ff7b","appreciate","test_physpsych","psychological-positive","PhysPsych","PV","B","psychological",1,1743508204229,"psychological",1405.33333333333,510,"B","psychological;physical","",6.23441072571837,7.24802980155309,61
"62","5dea7a7df87f5519e686ff7b","content","test_physpsych","psychological-positive","PhysPsych","PV","B","physical",0,1743508205605,"physical",1463.83333333333,618,"B","psychological;physical","",6.42648845745769,7.28881384468906,62
"63","5dea7a7df87f5519e686ff7b","encourage","test_physpsych","psychological-positive","PhysPsych","PV","B","psychological",1,1743508206922,"psychological",1305.5,557,"B","psychological;physical","",6.32256523992728,7.17434138813918,63
"64","5dea7a7df87f5519e686ff7b","build","test_physpsych","physical-positive","PhysPsych","PV","B","physical",1,1743508208552,"physical",1489.66666666667,874,"B","psychological;physical","",6.77308037565554,7.30630766026534,64
"65","5dea7a7df87f5519e686ff7b","hug","test_physpsych","physical-positive","PhysPsych","PV","B","psychological",0,1743508210006,"psychological",1389.33333333333,697,"B","psychological;physical","",6.54678541076052,7.23657929476509,65
"66","5dea7a7df87f5519e686ff7b","cuddle","test_physpsych","physical-positive","PhysPsych","PV","B","physical",1,1743508211343,"physical",1387.75,577,"B","psychological;physical","",6.3578422665081,7.23543900957027,66
"67","5dea7a7df87f5519e686ff7b","despair","test_physpsych","psychological-negative","PhysPsych","PV","B","psychological",1,1743508212656,"psychological",1413.33333333333,551,"B","psychological;physical","",6.31173480915291,7.25370625955789,67
"68","5dea7a7df87f5519e686ff7b","decorate","test_physpsych","physical-positive","PhysPsych","PV","B","psychological",0,1743508214247,"psychological",1465.16666666667,834,"B","psychological;physical","",6.72623340235875,7.28972428062312,68
"69","5dea7a7df87f5519e686ff7b","criticize","test_physpsych","psychological-negative","PhysPsych","PV","B","psychological",1,1743508215716,"psychological",1341.33333333333,712,"B","psychological;physical","",6.56807791141198,7.20141942311147,69
"70","5dea7a7df87f5519e686ff7b","adore","test_physpsych","psychological-positive","PhysPsych","PV","B","psychological",1,1743508217023,"psychological",1327.33333333333,550,"B","psychological;physical","",6.30991827822652,7.19092719595603,70
"71","5dea7a7df87f5519e686ff7b","rust","test_physpsych","physical-negative","PhysPsych","PV","B","physical",1,1743508218461,"physical",1520,679,"B","psychological;physical","",6.5206211275587,7.32646561384032,71
"72","5dea7a7df87f5519e686ff7b","slaughter","test_physpsych","physical-negative","PhysPsych","PV","B","psychological",0,1743508219802,"psychological",1397.16666666667,585,"B","psychological;physical","",6.37161184723186,7.2422016554098,72
"73","5dea7a7df87f5519e686ff7b","admire","test_physpsych","psychological-positive","PhysPsych","PV","B","psychological",1,1743508221115,"psychological",1306.83333333333,554,"B","psychological;physical","",6.31716468674728,7.17536218700287,73
"74","5dea7a7df87f5519e686ff7b","dismay","test_physpsych","psychological-negative","PhysPsych","PV","B","psychological",1,1743508222385,"psychological",1330.33333333333,513,"B","psychological;physical","",6.24027584517077,7.19318481638062,74
"75","5dea7a7df87f5519e686ff7b","reassure","test_physpsych","psychological-positive","PhysPsych","PV","B","psychological",1,1743508223683,"psychological",1378.5,537,"B","psychological;physical","",6.28599809450886,7.22875123046385,75
"76","5dea7a7df87f5519e686ff7b","repair","test_physpsych","physical-positive","PhysPsych","PV","B","psychological",0,1743508225194,"psychological",1496,753,"B","psychological;physical","",6.62406522779989,7.31055015853442,76
"77","5dea7a7df87f5519e686ff7b","cherish","test_physpsych","psychological-positive","PhysPsych","PV","B","psychological",1,1743508226549,"psychological",1429.83333333333,598,"B","psychological;physical","",6.39359075395063,7.26531316634491,77
"78","5dea7a7df87f5519e686ff7b","discourage","test_physpsych","psychological-negative","PhysPsych","PV","B","psychological",1,1743508227735,"psychological",1284.83333333333,427,"B","psychological;physical","",6.05678401322862,7.15838428723121,78
"79","5dea7a7df87f5519e686ff7b","dread","test_physpsych","psychological-negative","PhysPsych","PV","B","psychological",1,1743508229112,"psychological",1336.83333333333,623,"B","psychological;physical","",6.43454651878745,7.19805891213887,79
"80","5dea7a7df87f5519e686ff7b","slash","test_physpsych","physical-negative","PhysPsych","PV","B","physical",1,1743508230520,"physical",1358.66666666667,647,"B","psychological;physical","",6.4723462945009,7.21425910567451,80
"81","5dea7a7df87f5519e686ff7b","decorate","test_physpsych","physical-positive","PhysPsych","PV","B","psychological",0,1743508231989,"psychological",1465.16666666667,710,"B","psychological;physical","",6.56526497003536,7.28972428062312,81
"82","5dea7a7df87f5519e686ff7b","produce","test_physpsych","physical-positive","PhysPsych","PV","B","physical",1,1743508233476,"physical",1402.25,728,"B","psychological;physical","",6.59030104819669,7.24583336838845,82
"83","5dea7a7df87f5519e686ff7b","impress","test_physpsych","psychological-positive","PhysPsych","PV","B","psychological",1,1743508234806,"psychological",1330.5,573,"B","psychological;physical","",6.35088571671474,7.19331009041774,83
"84","5dea7a7df87f5519e686ff7b","caress","test_physpsych","physical-positive","PhysPsych","PV","B","psychological",0,1743508236077,"psychological",1389.33333333333,512,"B","psychological;physical","",6.23832462503951,7.23657929476509,84
"85","5dea7a7df87f5519e686ff7b","cherish","test_physpsych","psychological-positive","PhysPsych","PV","B","psychological",1,1743508237480,"psychological",1429.83333333333,646,"B","psychological;physical","",6.4707995037826,7.26531316634491,85
"86","5dea7a7df87f5519e686ff7b","dishonor","test_physpsych","psychological-negative","PhysPsych","PV","B","psychological",1,1743508238770,"psychological",1286.83333333333,532,"B","psychological;physical","",6.27664348934164,7.15993969908076,86
"87","5dea7a7df87f5519e686ff7b","corrode","test_physpsych","physical-negative","PhysPsych","PV","B","psychological",0,1743508240049,"psychological",1394.33333333333,518,"B","psychological;physical","",6.24997524225948,7.24017168277409,87
"88","5dea7a7df87f5519e686ff7b","slaughter","test_physpsych","physical-negative","PhysPsych","PV","B","psychological",0,1743508241574,"psychological",1397.16666666667,768,"B","psychological;physical","",6.64378973314767,7.2422016554098,88
"89","5dea7a7df87f5519e686ff7b","admire","test_physpsych","psychological-positive","PhysPsych","PV","B","psychological",1,1743508242909,"psychological",1306.83333333333,579,"B","psychological;physical","",6.361302477573,7.17536218700287,89
"90","5dea7a7df87f5519e686ff7b","repair","test_physpsych","physical-positive","PhysPsych","PV","B","psychological",0,1743508244132,"psychological",1496,465,"B","psychological;physical","",6.14203740558736,7.31055015853442,90
"91","5dea7a7df87f5519e686ff7b","rust","test_physpsych","physical-negative","PhysPsych","PV","B","physical",1,1743508245562,"physical",1520,669,"B","psychological;physical","",6.50578406012823,7.32646561384032,91
"92","5dea7a7df87f5519e686ff7b","twinkle","test_physpsych","physical-positive","PhysPsych","PV","B","psychological",0,1743508246877,"psychological",1428.5,554,"B","psychological;physical","",6.31716468674728,7.26438022167083,92
"93","5dea7a7df87f5519e686ff7b","reassure","test_physpsych","psychological-positive","PhysPsych","PV","B","psychological",1,1743508248212,"psychological",1378.5,577,"B","psychological;physical","",6.3578422665081,7.22875123046385,93
"94","5dea7a7df87f5519e686ff7b","irritate","test_physpsych","psychological-negative","PhysPsych","PV","B","psychological",1,1743508249529,"psychological",1317.5,561,"B","psychological;physical","",6.3297209055227,7.18349128041552,94
"95","5dea7a7df87f5519e686ff7b","adore","test_physpsych","psychological-positive","PhysPsych","PV","B","psychological",1,1743508250831,"psychological",1327.33333333333,547,"B","psychological;physical","",6.30444880242198,7.19092719595603,95
"96","5dea7a7df87f5519e686ff7b","offend","test_physpsych","psychological-negative","PhysPsych","PV","B","psychological",1,1743508252152,"psychological",1328,564,"B","psychological;physical","",6.33505425149806,7.19142933003638,96
"97","5dea7a7df87f5519e686ff7b","burn","test_physpsych","physical-negative","PhysPsych","PV","B","physical",1,1743508253676,"physical",1403,767,"B","psychological;physical","",6.64248680136726,7.24636808010246,97
"98","5dea7a7df87f5519e686ff7b","sculpt","test_physpsych","physical-positive","PhysPsych","PV","B","physical",1,1743508255078,"physical",1471.16666666667,642,"B","psychological;physical","",6.46458830368996,7.29381101579218,98
"99","5dea7a7df87f5519e686ff7b","build","test_physpsych","physical-positive","PhysPsych","PV","B","physical",1,1743508256640,"physical",1489.66666666667,803,"B","psychological;physical","",6.68835471394676,7.30630766026534,99
"100","5dea7a7df87f5519e686ff7b","displease","test_physpsych","psychological-negative","PhysPsych","PV","B","psychological",1,1743508257905,"psychological",1309.33333333333,508,"B","psychological;physical","",6.23048144757848,7.17727338080625,100
"101","5dea7a7df87f5519e686ff7b","cuddle","test_physpsych","physical-positive","PhysPsych","PV","B","physical",1,1743508259305,"physical",1387.75,642,"B","psychological;physical","",6.46458830368996,7.23543900957027,101
"102","5dea7a7df87f5519e686ff7b","tear","test_physpsych","physical-negative","PhysPsych","PV","B","physical",1,1743508260708,"physical",1437.16666666667,642,"B","psychological;physical","",6.46458830368996,7.27042886172427,102
"103","5dea7a7df87f5519e686ff7b","encourage","test_physpsych","psychological-positive","PhysPsych","PV","B","psychological",1,1743508262011,"psychological",1305.5,543,"B","psychological;physical","",6.29710931993394,7.17434138813918,103
"104","5dea7a7df87f5519e686ff7b","hit","test_physpsych","physical-negative","PhysPsych","PV","B","psychological",0,1743508263408,"psychological",1446.83333333333,639,"B","psychological;physical","",6.45990445437753,7.27713253916375,104
"105","5dea7a7df87f5519e686ff7b","criticize","test_physpsych","psychological-negative","PhysPsych","PV","B","psychological",1,1743508264720,"psychological",1341.33333333333,558,"B","psychological;physical","",6.32435896238131,7.20141942311147,105
"106","5dea7a7df87f5519e686ff7b","dread","test_physpsych","psychological-negative","PhysPsych","PV","B","psychological",1,1743508265951,"psychological",1336.83333333333,474,"B","psychological;physical","",6.16120732169508,7.19805891213887,106
"107","5dea7a7df87f5519e686ff7b","appreciate","test_physpsych","psychological-positive","PhysPsych","PV","B","psychological",1,1743508267472,"psychological",1405.33333333333,762,"B","psychological;physical","",6.63594655568665,7.24802980155309,107
"108","5dea7a7df87f5519e686ff7b","despair","test_physpsych","psychological-negative","PhysPsych","PV","B","psychological",1,1743508268801,"psychological",1413.33333333333,572,"B","psychological;physical","",6.3491389913798,7.25370625955789,108
"109","5dea7a7df87f5519e686ff7b","slash","test_physpsych","physical-negative","PhysPsych","PV","B","physical",1,1743508270313,"physical",1358.66666666667,754,"B","psychological;physical","",6.62539236800796,7.21425910567451,109
"110","5dea7a7df87f5519e686ff7b","respect","test_physpsych","psychological-positive","PhysPsych","PV","B","psychological",1,1743508271541,"psychological",1417,473,"B","psychological;physical","",6.15909538849193,7.25629723969068,110
"111","5dea7a7df87f5519e686ff7b","crash","test_physpsych","physical-negative","PhysPsych","PV","B","psychological",0,1743508272983,"psychological",1520.16666666667,683,"B","psychological;physical","",6.52649485957079,7.3265752569521,111
"112","5dea7a7df87f5519e686ff7b","clean","test_physpsych","physical-positive","PhysPsych","PV","B","psychological",0,1743508274558,"psychological",1520.66666666667,811,"B","psychological;physical","",6.69826805411541,7.32690411417622,112
"113","5dea7a7df87f5519e686ff7b","hug","test_physpsych","physical-positive","PhysPsych","PV","B","physical",1,1743508275979,"physical",1389.33333333333,664,"B","psychological;physical","",6.49828214947643,7.23657929476509,113
"114","5dea7a7df87f5519e686ff7b","embarrass","test_physpsych","psychological-negative","PhysPsych","PV","B","psychological",1,1743508277156,"psychological",1313.5,419,"B","psychological;physical","",6.03787091992214,7.18045060912559,114
"115","5dea7a7df87f5519e686ff7b","discourage","test_physpsych","psychological-negative","PhysPsych","PV","B","psychological",1,1743508278409,"psychological",1284.83333333333,493,"B","psychological;physical","",6.20050917404269,7.15838428723121,115
"116","5dea7a7df87f5519e686ff7b","stain","test_physpsych","physical-negative","PhysPsych","PV","B","physical",1,1743508279798,"physical",1338.5,629,"B","psychological;physical","",6.44413125670044,7.19930486296041,116
"117","5dea7a7df87f5519e686ff7b","dismay","test_physpsych","psychological-negative","PhysPsych","PV","B","psychological",1,1743508281037,"psychological",1330.33333333333,484,"B","psychological;physical","",6.18208490671663,7.19318481638062,117
"118","5dea7a7df87f5519e686ff7b","like","test_physpsych","psychological-positive","PhysPsych","PV","B","psychological",1,1743508282354,"psychological",1292.66666666667,556,"B","psychological;physical","",6.32076829425058,7.16446254713449,118
"119","5dea7a7df87f5519e686ff7b","delete","test_physpsych","physical-negative","PhysPsych","PV","B","psychological",0,1743508283573,"psychological",1360.33333333333,463,"B","psychological;physical","",6.13772705408623,7.2154850467377,119
"120","5dea7a7df87f5519e686ff7b","content","test_physpsych","psychological-positive","PhysPsych","PV","B","physical",0,1743508284863,"physical",1463.83333333333,533,"B","psychological;physical","",6.27852142416584,7.28881384468906,120
"121","5dea7a7df87f5519e686ff7b","despair","test_val","psychological-negative","Valence","PV","B","negative",1,1743508374979,"negative",1413.33333333333,867,"B","negative;positive","",6.76503897678054,7.25370625955789,121
"122","5dea7a7df87f5519e686ff7b","build","test_val","physical-positive","Valence","PV","B","negative",0,1743508376622,"negative",1489.66666666667,883,"B","negative;positive","",6.78332520060396,7.30630766026534,122
"123","5dea7a7df87f5519e686ff7b","dishonor","test_val","psychological-negative","Valence","PV","B","negative",1,1743508378029,"negative",1286.83333333333,646,"B","negative;positive","",6.4707995037826,7.15993969908076,123
"124","5dea7a7df87f5519e686ff7b","repair","test_val","physical-positive","Valence","PV","B","positive",1,1743508379633,"positive",1496,846,"B","negative;positive","",6.74051935960622,7.31055015853442,124
"125","5dea7a7df87f5519e686ff7b","delete","test_val","physical-negative","Valence","PV","B","negative",1,1743508381179,"negative",1360.33333333333,789,"B","negative;positive","",6.67076632084587,7.2154850467377,125
"126","5dea7a7df87f5519e686ff7b","appreciate","test_val","psychological-positive","Valence","PV","B","positive",1,1743508382441,"positive",1405.33333333333,506,"B","negative;positive","",6.22653666928747,7.24802980155309,126
"127","5dea7a7df87f5519e686ff7b","hit","test_val","physical-negative","Valence","PV","B","negative",1,1743508383838,"negative",1446.83333333333,641,"B","negative;positive","",6.46302945692067,7.27713253916375,127
"128","5dea7a7df87f5519e686ff7b","cuddle","test_val","physical-positive","Valence","PV","B","positive",1,1743508385190,"positive",1387.75,595,"B","negative;positive","",6.38856140554563,7.23543900957027,128
"129","5dea7a7df87f5519e686ff7b","irritate","test_val","psychological-negative","Valence","PV","B","negative",1,1743508386443,"negative",1317.5,491,"B","negative;positive","",6.19644412779452,7.18349128041552,129
"130","5dea7a7df87f5519e686ff7b","like","test_val","psychological-positive","Valence","PV","B","positive",1,1743508387734,"positive",1292.66666666667,532,"B","negative;positive","",6.27664348934164,7.16446254713449,130
"131","5dea7a7df87f5519e686ff7b","burn","test_val","physical-negative","Valence","PV","B","negative",1,1743508389145,"negative",1403,654,"B","negative;positive","",6.4831073514572,7.24636808010246,131
"132","5dea7a7df87f5519e686ff7b","stain","test_val","physical-negative","Valence","PV","B","negative",1,1743508390565,"negative",1338.5,661,"B","negative;positive","",6.49375383985169,7.19930486296041,132
"133","5dea7a7df87f5519e686ff7b","criticize","test_val","psychological-negative","Valence","PV","B","negative",1,1743508391863,"negative",1341.33333333333,536,"B","negative;positive","",6.2841341610708,7.20141942311147,133
"134","5dea7a7df87f5519e686ff7b","corrode","test_val","physical-negative","Valence","PV","B","negative",1,1743508393127,"negative",1394.33333333333,504,"B","negative;positive","",6.22257626807137,7.24017168277409,134
"135","5dea7a7df87f5519e686ff7b","admire","test_val","psychological-positive","Valence","PV","B","positive",1,1743508394400,"positive",1306.83333333333,516,"B","negative;positive","",6.24610676548156,7.17536218700287,135
"136","5dea7a7df87f5519e686ff7b","cherish","test_val","psychological-positive","Valence","PV","B","positive",1,1743508395769,"positive",1429.83333333333,608,"B","negative;positive","",6.41017488196617,7.26531316634491,136
"137","5dea7a7df87f5519e686ff7b","content","test_val","psychological-positive","Valence","PV","B","positive",1,1743508397443,"positive",1463.83333333333,918,"B","negative;positive","",6.82219739062049,7.28881384468906,137
"138","5dea7a7df87f5519e686ff7b","decorate","test_val","physical-positive","Valence","PV","B","positive",1,1743508398945,"positive",1465.16666666667,749,"B","negative;positive","",6.61873898351722,7.28972428062312,138
"139","5dea7a7df87f5519e686ff7b","produce","test_val","physical-positive","Valence","PV","B","positive",1,1743508400262,"positive",1402.25,559,"B","negative;positive","",6.3261494731551,7.24583336838845,139
"140","5dea7a7df87f5519e686ff7b","twinkle","test_val","physical-positive","Valence","PV","B","positive",1,1743508401537,"positive",1428.5,516,"B","negative;positive","",6.24610676548156,7.26438022167083,140
"141","5dea7a7df87f5519e686ff7b","discourage","test_val","psychological-negative","Valence","PV","B","negative",1,1743508402936,"negative",1284.83333333333,642,"B","negative;positive","",6.46458830368996,7.15838428723121,141
"142","5dea7a7df87f5519e686ff7b","crash","test_val","physical-negative","Valence","PV","B","negative",1,1743508404195,"negative",1520.16666666667,503,"B","negative;positive","",6.22059017009974,7.3265752569521,142
"143","5dea7a7df87f5519e686ff7b","rust","test_val","physical-negative","Valence","PV","B","negative",1,1743508405589,"negative",1520,635,"B","negative;positive","",6.45362499889269,7.32646561384032,143
"144","5dea7a7df87f5519e686ff7b","dread","test_val","psychological-negative","Valence","PV","B","negative",1,1743508406812,"negative",1336.83333333333,469,"B","negative;positive","",6.15060276844628,7.19805891213887,144
"145","5dea7a7df87f5519e686ff7b","slaughter","test_val","physical-negative","Valence","PV","B","negative",1,1743508408113,"negative",1397.16666666667,543,"B","negative;positive","",6.29710931993394,7.2422016554098,145
"146","5dea7a7df87f5519e686ff7b","reassure","test_val","psychological-positive","Valence","PV","B","positive",1,1743508409679,"positive",1378.5,809,"B","negative;positive","",6.69579891705849,7.22875123046385,146
"147","5dea7a7df87f5519e686ff7b","encourage","test_val","psychological-positive","Valence","PV","B","positive",1,1743508410963,"positive",1305.5,524,"B","negative;positive","",6.26149168432104,7.17434138813918,147
"148","5dea7a7df87f5519e686ff7b","hug","test_val","physical-positive","Valence","PV","B","positive",1,1743508412301,"positive",1389.33333333333,579,"B","negative;positive","",6.361302477573,7.23657929476509,148
"149","5dea7a7df87f5519e686ff7b","offend","test_val","psychological-negative","Valence","PV","B","negative",1,1743508413638,"negative",1328,578,"B","negative;positive","",6.35957386867238,7.19142933003638,149
"150","5dea7a7df87f5519e686ff7b","embarrass","test_val","psychological-negative","Valence","PV","B","negative",1,1743508415085,"negative",1313.5,690,"B","negative;positive","",6.5366915975913,7.18045060912559,150
"151","5dea7a7df87f5519e686ff7b","respect","test_val","psychological-positive","Valence","PV","B","negative",0,1743508416866,"negative",1417,1024,"B","negative;positive","",6.93147180559945,7.25629723969068,151
"152","5dea7a7df87f5519e686ff7b","tear","test_val","physical-negative","Valence","PV","B","negative",1,1743508418417,"negative",1437.16666666667,790,"B","negative;positive","",6.67203294546107,7.27042886172427,152
"153","5dea7a7df87f5519e686ff7b","displease","test_val","psychological-negative","Valence","PV","B","negative",1,1743508419813,"negative",1309.33333333333,638,"B","negative;positive","",6.45833828334479,7.17727338080625,153
"154","5dea7a7df87f5519e686ff7b","caress","test_val","physical-positive","Valence","PV","B","positive",1,1743508421081,"positive",1389.33333333333,511,"B","negative;positive","",6.2363695902037,7.23657929476509,154
"155","5dea7a7df87f5519e686ff7b","impress","test_val","psychological-positive","Valence","PV","B","positive",1,1743508422385,"positive",1330.5,522,"B","negative;positive","",6.25766758788264,7.19331009041774,155
"156","5dea7a7df87f5519e686ff7b","clean","test_val","physical-positive","Valence","PV","B","positive",1,1743508423801,"positive",1520.66666666667,663,"B","negative;positive","",6.49677499018586,7.32690411417622,156
"157","5dea7a7df87f5519e686ff7b","dismay","test_val","psychological-negative","Valence","PV","B","negative",1,1743508425132,"negative",1330.33333333333,573,"B","negative;positive","",6.35088571671474,7.19318481638062,157
"158","5dea7a7df87f5519e686ff7b","adore","test_val","psychological-positive","Valence","PV","B","positive",1,1743508426494,"positive",1327.33333333333,598,"B","negative;positive","",6.39359075395063,7.19092719595603,158
"159","5dea7a7df87f5519e686ff7b","slash","test_val","physical-negative","Valence","PV","B","negative",1,1743508427804,"negative",1358.66666666667,548,"B","negative;positive","",6.30627528694802,7.21425910567451,159
"160","5dea7a7df87f5519e686ff7b","sculpt","test_val","physical-positive","Valence","PV","B","negative",0,1743508429014,"negative",1471.16666666667,448,"B","negative;positive","",6.10479323241498,7.29381101579218,160
"161","5dea7a7df87f5519e686ff7b","crash","test_val","physical-negative","Valence","PV","B","negative",1,1743508430383,"negative",1520.16666666667,612,"B","negative;positive","",6.41673228251233,7.3265752569521,161
"162","5dea7a7df87f5519e686ff7b","slaughter","test_val","physical-negative","Valence","PV","B","negative",1,1743508431732,"negative",1397.16666666667,590,"B","negative;positive","",6.38012253689976,7.2422016554098,162
"163","5dea7a7df87f5519e686ff7b","hug","test_val","physical-positive","Valence","PV","B","positive",1,1743508432951,"positive",1389.33333333333,459,"B","negative;positive","",6.12905021006055,7.23657929476509,163
"164","5dea7a7df87f5519e686ff7b","build","test_val","physical-positive","Valence","PV","B","positive",1,1743508434359,"positive",1489.66666666667,649,"B","negative;positive","",6.47543271670409,7.30630766026534,164
"165","5dea7a7df87f5519e686ff7b","twinkle","test_val","physical-positive","Valence","PV","B","positive",1,1743508435661,"positive",1428.5,544,"B","negative;positive","",6.29894924685594,7.26438022167083,165
"166","5dea7a7df87f5519e686ff7b","hit","test_val","physical-negative","Valence","PV","B","negative",1,1743508437228,"negative",1446.83333333333,808,"B","negative;positive","",6.69456205852109,7.27713253916375,166
"167","5dea7a7df87f5519e686ff7b","impress","test_val","psychological-positive","Valence","PV","B","positive",1,1743508438627,"positive",1330.5,644,"B","negative;positive","",6.46769872610435,7.19331009041774,167
"168","5dea7a7df87f5519e686ff7b","irritate","test_val","psychological-negative","Valence","PV","B","negative",1,1743508439978,"negative",1317.5,591,"B","negative;positive","",6.3818160174061,7.18349128041552,168
"169","5dea7a7df87f5519e686ff7b","dishonor","test_val","psychological-negative","Valence","PV","B","negative",1,1743508441197,"negative",1286.83333333333,459,"B","negative;positive","",6.12905021006055,7.15993969908076,169
"170","5dea7a7df87f5519e686ff7b","offend","test_val","psychological-negative","Valence","PV","B","negative",1,1743508442586,"negative",1328,630,"B","negative;positive","",6.44571981938558,7.19142933003638,170
"171","5dea7a7df87f5519e686ff7b","stain","test_val","physical-negative","Valence","PV","B","negative",1,1743508443893,"negative",1338.5,547,"B","negative;positive","",6.30444880242198,7.19930486296041,171
"172","5dea7a7df87f5519e686ff7b","criticize","test_val","psychological-negative","Valence","PV","B","negative",1,1743508445166,"negative",1341.33333333333,515,"B","negative;positive","",6.24416690066374,7.20141942311147,172
"173","5dea7a7df87f5519e686ff7b","delete","test_val","physical-negative","Valence","PV","B","negative",1,1743508446517,"negative",1360.33333333333,592,"B","negative;positive","",6.38350663488401,7.2154850467377,173
"174","5dea7a7df87f5519e686ff7b","produce","test_val","physical-positive","Valence","PV","B","positive",1,1743508447894,"positive",1402.25,620,"B","negative;positive","",6.42971947803914,7.24583336838845,174
"175","5dea7a7df87f5519e686ff7b","decorate","test_val","physical-positive","Valence","PV","B","positive",1,1743508449171,"positive",1465.16666666667,520,"B","negative;positive","",6.25382881157547,7.28972428062312,175
"176","5dea7a7df87f5519e686ff7b","admire","test_val","psychological-positive","Valence","PV","B","positive",1,1743508450463,"positive",1306.83333333333,534,"B","negative;positive","",6.2803958389602,7.17536218700287,176
"177","5dea7a7df87f5519e686ff7b","displease","test_val","psychological-negative","Valence","PV","B","negative",1,1743508451719,"negative",1309.33333333333,497,"B","negative;positive","",6.20859002609663,7.17727338080625,177
"178","5dea7a7df87f5519e686ff7b","respect","test_val","psychological-positive","Valence","PV","B","positive",1,1743508453308,"positive",1417,828,"B","negative;positive","",6.71901315438526,7.25629723969068,178
"179","5dea7a7df87f5519e686ff7b","burn","test_val","physical-negative","Valence","PV","B","negative",1,1743508454607,"negative",1403,540,"B","negative;positive","",6.29156913955832,7.24636808010246,179
"180","5dea7a7df87f5519e686ff7b","discourage","test_val","psychological-negative","Valence","PV","B","negative",1,1743508455878,"negative",1284.83333333333,512,"B","negative;positive","",6.23832462503951,7.15838428723121,180
"181","5dea7a7df87f5519e686ff7b","content","test_val","psychological-positive","Valence","PV","B","positive",1,1743508457115,"positive",1463.83333333333,478,"B","negative;positive","",6.16961073249146,7.28881384468906,181
"182","5dea7a7df87f5519e686ff7b","caress","test_val","physical-positive","Valence","PV","B","positive",1,1743508458382,"positive",1389.33333333333,512,"B","negative;positive","",6.23832462503951,7.23657929476509,182
"183","5dea7a7df87f5519e686ff7b","embarrass","test_val","psychological-negative","Valence","PV","B","negative",1,1743508459647,"negative",1313.5,504,"B","negative;positive","",6.22257626807137,7.18045060912559,183
"184","5dea7a7df87f5519e686ff7b","despair","test_val","psychological-negative","Valence","PV","B","negative",1,1743508460948,"negative",1413.33333333333,543,"B","negative;positive","",6.29710931993394,7.25370625955789,184
"185","5dea7a7df87f5519e686ff7b","reassure","test_val","psychological-positive","Valence","PV","B","positive",1,1743508462237,"positive",1378.5,534,"B","negative;positive","",6.2803958389602,7.22875123046385,185
"186","5dea7a7df87f5519e686ff7b","clean","test_val","physical-positive","Valence","PV","B","positive",1,1743508463565,"positive",1520.66666666667,569,"B","negative;positive","",6.34388043412633,7.32690411417622,186
"187","5dea7a7df87f5519e686ff7b","cuddle","test_val","physical-positive","Valence","PV","B","positive",1,1743508464936,"positive",1387.75,613,"B","negative;positive","",6.41836493593621,7.23543900957027,187
"188","5dea7a7df87f5519e686ff7b","dismay","test_val","psychological-negative","Valence","PV","B","negative",1,1743508466238,"negative",1330.33333333333,539,"B","negative;positive","",6.289715570909,7.19318481638062,188
"189","5dea7a7df87f5519e686ff7b","like","test_val","psychological-positive","Valence","PV","B","positive",1,1743508467497,"positive",1292.66666666667,505,"B","negative;positive","",6.22455842927536,7.16446254713449,189
"190","5dea7a7df87f5519e686ff7b","slash","test_val","physical-negative","Valence","PV","B","negative",1,1743508468756,"negative",1358.66666666667,500,"B","negative;positive","",6.21460809842219,7.21425910567451,190
"191","5dea7a7df87f5519e686ff7b","encourage","test_val","psychological-positive","Valence","PV","B","positive",1,1743508470071,"positive",1305.5,560,"B","negative;positive","",6.32793678372919,7.17434138813918,191
"192","5dea7a7df87f5519e686ff7b","sculpt","test_val","physical-positive","Valence","PV","B","negative",0,1743508471368,"negative",1471.16666666667,537,"B","negative;positive","",6.28599809450886,7.29381101579218,192
"193","5dea7a7df87f5519e686ff7b","dread","test_val","psychological-negative","Valence","PV","B","negative",1,1743508472739,"negative",1336.83333333333,612,"B","negative;positive","",6.41673228251233,7.19805891213887,193
"194","5dea7a7df87f5519e686ff7b","repair","test_val","physical-positive","Valence","PV","B","positive",1,1743508474219,"positive",1496,724,"B","negative;positive","",6.58479139238572,7.31055015853442,194
"195","5dea7a7df87f5519e686ff7b","tear","test_val","physical-negative","Valence","PV","B","positive",0,1743508475518,"positive",1437.16666666667,543,"B","negative;positive","",6.29710931993394,7.27042886172427,195
"196","5dea7a7df87f5519e686ff7b","cherish","test_val","psychological-positive","Valence","PV","B","positive",1,1743508477254,"positive",1429.83333333333,976,"B","negative;positive","",6.88346258641309,7.26531316634491,196
"197","5dea7a7df87f5519e686ff7b","appreciate","test_val","psychological-positive","Valence","PV","B","positive",1,1743508478643,"positive",1405.33333333333,630,"B","negative;positive","",6.44571981938558,7.24802980155309,197
"198","5dea7a7df87f5519e686ff7b","adore","test_val","psychological-positive","Valence","PV","B","positive",1,1743508479967,"positive",1327.33333333333,569,"B","negative;positive","",6.34388043412633,7.19092719595603,198
"199","5dea7a7df87f5519e686ff7b","rust","test_val","physical-negative","Valence","PV","B","negative",1,1743508481231,"negative",1520,507,"B","negative;positive","",6.22851100359118,7.32646561384032,199
"200","5dea7a7df87f5519e686ff7b","corrode","test_val","physical-negative","Valence","PV","B","negative",1,1743508482681,"negative",1394.33333333333,692,"B","negative;positive","",6.53958595561767,7.24017168277409,200
"201","5dea7a7df87f5519e686ff7b","clean","test_val","physical-positive","Valence","PV","B","positive",1,1743508483936,"positive",1520.66666666667,494,"B","negative;positive","",6.20253551718792,7.32690411417622,201
"202","5dea7a7df87f5519e686ff7b","displease","test_val","psychological-negative","Valence","PV","B","negative",1,1743508485205,"negative",1309.33333333333,512,"B","negative;positive","",6.23832462503951,7.17727338080625,202
"203","5dea7a7df87f5519e686ff7b","offend","test_val","psychological-negative","Valence","PV","B","negative",1,1743508486421,"negative",1328,452,"B","negative;positive","",6.11368217983223,7.19142933003638,203
"204","5dea7a7df87f5519e686ff7b","cherish","test_val","psychological-positive","Valence","PV","B","positive",1,1743508487832,"positive",1429.83333333333,656,"B","negative;positive","",6.48616078894409,7.26531316634491,204
"205","5dea7a7df87f5519e686ff7b","criticize","test_val","psychological-negative","Valence","PV","B","negative",1,1743508489159,"negative",1341.33333333333,568,"B","negative;positive","",6.34212141872115,7.20141942311147,205
"206","5dea7a7df87f5519e686ff7b","crash","test_val","physical-negative","Valence","PV","B","negative",1,1743508490524,"negative",1520.16666666667,608,"B","negative;positive","",6.41017488196617,7.3265752569521,206
"207","5dea7a7df87f5519e686ff7b","corrode","test_val","physical-negative","Valence","PV","B","negative",1,1743508492009,"negative",1394.33333333333,725,"B","negative;positive","",6.58617165485467,7.24017168277409,207
"208","5dea7a7df87f5519e686ff7b","repair","test_val","physical-positive","Valence","PV","B","positive",1,1743508493764,"positive",1496,995,"B","negative;positive","",6.90274273715859,7.31055015853442,208
"209","5dea7a7df87f5519e686ff7b","despair","test_val","psychological-negative","Valence","PV","B","negative",1,1743508495149,"negative",1413.33333333333,627,"B","negative;positive","",6.44094654063292,7.25370625955789,209
"210","5dea7a7df87f5519e686ff7b","reassure","test_val","psychological-positive","Valence","PV","B","positive",1,1743508496551,"positive",1378.5,642,"B","negative;positive","",6.46458830368996,7.22875123046385,210
"211","5dea7a7df87f5519e686ff7b","slaughter","test_val","physical-negative","Valence","PV","B","negative",1,1743508497877,"negative",1397.16666666667,564,"B","negative;positive","",6.33505425149806,7.2422016554098,211
"212","5dea7a7df87f5519e686ff7b","embarrass","test_val","psychological-negative","Valence","PV","B","negative",1,1743508499243,"negative",1313.5,605,"B","negative;positive","",6.40522845803084,7.18045060912559,212
"213","5dea7a7df87f5519e686ff7b","decorate","test_val","physical-positive","Valence","PV","B","positive",1,1743508500569,"positive",1465.16666666667,568,"B","negative;positive","",6.34212141872115,7.28972428062312,213
"214","5dea7a7df87f5519e686ff7b","produce","test_val","physical-positive","Valence","PV","B","positive",1,1743508501882,"positive",1402.25,558,"B","negative;positive","",6.32435896238131,7.24583336838845,214
"215","5dea7a7df87f5519e686ff7b","discourage","test_val","psychological-negative","Valence","PV","B","negative",1,1743508503140,"negative",1284.83333333333,496,"B","negative;positive","",6.20657592672493,7.15838428723121,215
"216","5dea7a7df87f5519e686ff7b","build","test_val","physical-positive","Valence","PV","B","positive",1,1743508504478,"positive",1489.66666666667,583,"B","negative;positive","",6.36818718635049,7.30630766026534,216
"217","5dea7a7df87f5519e686ff7b","stain","test_val","physical-negative","Valence","PV","B","negative",1,1743508505731,"negative",1338.5,499,"B","negative;positive","",6.21260609575152,7.19930486296041,217
"218","5dea7a7df87f5519e686ff7b","dismay","test_val","psychological-negative","Valence","PV","B","negative",1,1743508506978,"negative",1330.33333333333,490,"B","negative;positive","",6.19440539110467,7.19318481638062,218
"219","5dea7a7df87f5519e686ff7b","dishonor","test_val","psychological-negative","Valence","PV","B","negative",1,1743508508252,"negative",1286.83333333333,518,"B","negative;positive","",6.24997524225948,7.15993969908076,219
"220","5dea7a7df87f5519e686ff7b","rust","test_val","physical-negative","Valence","PV","B","negative",1,1743508509587,"negative",1520,578,"B","negative;positive","",6.35957386867238,7.32646561384032,220
"221","5dea7a7df87f5519e686ff7b","admire","test_val","psychological-positive","Valence","PV","B","positive",1,1743508510878,"positive",1306.83333333333,537,"B","negative;positive","",6.28599809450886,7.17536218700287,221
"222","5dea7a7df87f5519e686ff7b","respect","test_val","psychological-positive","Valence","PV","B","negative",0,1743508512118,"negative",1417,482,"B","negative;positive","",6.1779441140506,7.25629723969068,222
"223","5dea7a7df87f5519e686ff7b","irritate","test_val","psychological-negative","Valence","PV","B","negative",1,1743508513495,"negative",1317.5,616,"B","negative;positive","",6.42324696353352,7.18349128041552,223
"224","5dea7a7df87f5519e686ff7b","dread","test_val","psychological-negative","Valence","PV","B","negative",1,1743508514845,"negative",1336.83333333333,591,"B","negative;positive","",6.3818160174061,7.19805891213887,224
"225","5dea7a7df87f5519e686ff7b","encourage","test_val","psychological-positive","Valence","PV","B","positive",1,1743508516113,"positive",1305.5,511,"B","negative;positive","",6.2363695902037,7.17434138813918,225
"226","5dea7a7df87f5519e686ff7b","like","test_val","psychological-positive","Valence","PV","B","positive",1,1743508517282,"positive",1292.66666666667,412,"B","negative;positive","",6.02102334934953,7.16446254713449,226
"227","5dea7a7df87f5519e686ff7b","content","test_val","psychological-positive","Valence","PV","B","positive",1,1743508518503,"positive",1463.83333333333,466,"B","negative;positive","",6.14418563412565,7.28881384468906,227
"228","5dea7a7df87f5519e686ff7b","hit","test_val","physical-negative","Valence","PV","B","negative",1,1743508519809,"negative",1446.83333333333,545,"B","negative;positive","",6.30078579466324,7.27713253916375,228
"229","5dea7a7df87f5519e686ff7b","burn","test_val","physical-negative","Valence","PV","B","negative",1,1743508521078,"negative",1403,511,"B","negative;positive","",6.2363695902037,7.24636808010246,229
"230","5dea7a7df87f5519e686ff7b","caress","test_val","physical-positive","Valence","PV","B","positive",1,1743508522361,"positive",1389.33333333333,527,"B","negative;positive","",6.26720054854136,7.23657929476509,230
"231","5dea7a7df87f5519e686ff7b","adore","test_val","psychological-positive","Valence","PV","B","positive",1,1743508523590,"positive",1327.33333333333,473,"B","negative;positive","",6.15909538849193,7.19092719595603,231
"232","5dea7a7df87f5519e686ff7b","delete","test_val","physical-negative","Valence","PV","B","negative",1,1743508524819,"negative",1360.33333333333,470,"B","negative;positive","",6.1527326947041,7.2154850467377,232
"233","5dea7a7df87f5519e686ff7b","slash","test_val","physical-negative","Valence","PV","B","negative",1,1743508526164,"negative",1358.66666666667,588,"B","negative;positive","",6.37672694789863,7.21425910567451,233
"234","5dea7a7df87f5519e686ff7b","cuddle","test_val","physical-positive","Valence","PV","B","positive",1,1743508527412,"positive",1387.75,486,"B","negative;positive","",6.18620862390049,7.23543900957027,234
"235","5dea7a7df87f5519e686ff7b","tear","test_val","physical-negative","Valence","PV","B","negative",1,1743508528663,"negative",1437.16666666667,492,"B","negative;positive","",6.19847871649231,7.27042886172427,235
"236","5dea7a7df87f5519e686ff7b","twinkle","test_val","physical-positive","Valence","PV","B","positive",1,1743508530126,"positive",1428.5,700,"B","negative;positive","",6.5510803350434,7.26438022167083,236
"237","5dea7a7df87f5519e686ff7b","appreciate","test_val","psychological-positive","Valence","PV","B","positive",1,1743508531448,"positive",1405.33333333333,566,"B","negative;positive","",6.33859407820318,7.24802980155309,237
"238","5dea7a7df87f5519e686ff7b","sculpt","test_val","physical-positive","Valence","PV","B","positive",1,1743508533032,"positive",1471.16666666667,829,"B","negative;positive","",6.7202201551353,7.29381101579218,238
"239","5dea7a7df87f5519e686ff7b","hug","test_val","physical-positive","Valence","PV","B","positive",1,1743508534365,"positive",1389.33333333333,579,"B","negative;positive","",6.361302477573,7.23657929476509,239
"240","5dea7a7df87f5519e686ff7b","impress","test_val","psychological-positive","Valence","PV","B","positive",1,1743508535687,"positive",1330.5,565,"B","negative;positive","",6.33682573114644,7.19331009041774,240
"241","669aed56568d11bad784de3b","hit","test_physpsych","physical-negative","PhysPsych","PV","A","physical",1,1743536033026,"physical",2026.83333333333,2067,"A","physical;psychological","",7.63385355968177,7.61422991975294,1
"242","669aed56568d11bad784de3b","sculpt","test_physpsych","physical-positive","PhysPsych","PV","A","physical",1,1743536036150,"physical",1991.33333333333,2357,"A","physical;psychological","",7.76514490293613,7.59655971010794,2
"243","669aed56568d11bad784de3b","despair","test_physpsych","psychological-negative","PhysPsych","PV","A","psychological",1,1743536038688,"psychological",4560.75,1753,"A","physical;psychological","",7.46908388492123,8.42524236266833,3
"244","669aed56568d11bad784de3b","embarrass","test_physpsych","psychological-negative","PhysPsych","PV","A","psychological",1,1743536040480,"psychological",1996.16666666667,1027,"A","physical;psychological","",6.93439720992856,7.59898395371945,4
"245","669aed56568d11bad784de3b","impress","test_physpsych","psychological-positive","PhysPsych","PV","A","psychological",1,1743536042221,"psychological",2871.83333333333,978,"A","physical;psychological","",6.88550967003482,7.96270589691504,5
"246","669aed56568d11bad784de3b","crash","test_physpsych","physical-negative","PhysPsych","PV","A","physical",1,1743536044088,"physical",1607.83333333333,1100,"A","physical;psychological","",7.00306545878646,7.3826427959425,6
"247","669aed56568d11bad784de3b","tear","test_physpsych","physical-negative","PhysPsych","PV","A","physical",1,1743536046930,"physical",2330.66666666667,2080,"A","physical;psychological","",7.64012317269536,7.75390962866726,7
"248","669aed56568d11bad784de3b","produce","test_physpsych","physical-positive","PhysPsych","PV","A","physical",1,1743536050228,"physical",1943,2529,"A","physical;psychological","",7.83557924666997,7.57198844937744,8
"249","669aed56568d11bad784de3b","dismay","test_physpsych","psychological-negative","PhysPsych","PV","A","psychological",1,1743536052228,"psychological",1964.16666666667,1220,"A","physical;psychological","",7.1066061377273,7.58282334614218,9
"250","669aed56568d11bad784de3b","corrode","test_physpsych","physical-negative","PhysPsych","PV","A","physical",1,1743536055662,"physical",2233.33333333333,2646,"A","physical;psychological","",7.8808043446749,7.71125051671095,10
"251","669aed56568d11bad784de3b","decorate","test_physpsych","physical-positive","PhysPsych","PV","A","physical",1,1743536058310,"physical",2284,1866,"A","physical;psychological","",7.53155238140729,7.7336835707759,11
"252","669aed56568d11bad784de3b","reassure","test_physpsych","psychological-positive","PhysPsych","PV","A","psychological",1,1743536060645,"psychological",2054.16666666667,1549,"A","physical;psychological","",7.34536484041687,7.62762552968284,12
"253","669aed56568d11bad784de3b","like","test_physpsych","psychological-positive","PhysPsych","PV","A","psychological",1,1743536062509,"psychological",1850.33333333333,1086,"A","physical;psychological","",6.99025650049388,7.52312108202205,13
"254","669aed56568d11bad784de3b","irritate","test_physpsych","psychological-negative","PhysPsych","PV","A","psychological",1,1743536064332,"psychological",1796,1043,"A","physical;psychological","",6.94985645500077,7.49331724886215,14
"255","669aed56568d11bad784de3b","clean","test_physpsych","physical-positive","PhysPsych","PV","A","physical",1,1743536066318,"physical",1746.16666666667,1202,"A","physical;psychological","",7.09174211509515,7.46517818812491,15
"256","669aed56568d11bad784de3b","discourage","test_physpsych","psychological-negative","PhysPsych","PV","A","psychological",1,1743536068709,"psychological",3544.75,1617,"A","physical;psychological","",7.38832785957711,8.17322291461767,16
"257","669aed56568d11bad784de3b","cherish","test_physpsych","psychological-positive","PhysPsych","PV","A","psychological",1,1743536071781,"psychological",2729.66666666667,2292,"A","physical;psychological","",7.73718007783463,7.91193478060208,17
"258","669aed56568d11bad784de3b","content","test_physpsych","psychological-positive","PhysPsych","PV","A","psychological",1,1743536074125,"psychological",2341.83333333333,1574,"A","physical;psychological","",7.36137542897735,7.75868937737829,18
"259","669aed56568d11bad784de3b","dread","test_physpsych","psychological-negative","PhysPsych","PV","A","psychological",1,1743536076069,"psychological",2263.5,1165,"A","physical;psychological","",7.0604763659998,7.72466756687601,19
"260","669aed56568d11bad784de3b","rust","test_physpsych","physical-negative","PhysPsych","PV","A","physical",1,1743536079942,"physical",2093,3095,"A","physical;psychological","",8.0375431851187,7.646353722446,20
"261","669aed56568d11bad784de3b","delete","test_physpsych","physical-negative","PhysPsych","PV","A","psychological",0,1743536082285,"psychological",3401.16666666667,1562,"A","physical;psychological","",7.35372233039963,8.13187378900103,21
"262","669aed56568d11bad784de3b","repair","test_physpsych","physical-positive","PhysPsych","PV","A","physical",1,1743536084694,"physical",1849.16666666667,1624,"A","physical;psychological","",7.39264752072162,7.52249036613864,22
"263","669aed56568d11bad784de3b","build","test_physpsych","physical-positive","PhysPsych","PV","A","physical",1,1743536086550,"physical",1858,1071,"A","physical;psychological","",6.97634807044775,7.52725591937378,23
"264","669aed56568d11bad784de3b","slash","test_physpsych","physical-negative","PhysPsych","PV","A","physical",1,1743536088580,"physical",1782.83333333333,1245,"A","physical;psychological","",7.12689080889881,7.48595913807808,24
"265","669aed56568d11bad784de3b","burn","test_physpsych","physical-negative","PhysPsych","PV","A","physical",1,1743536090134,"physical",1764.25,778,"A","physical;psychological","",6.65672652417839,7.47548094988094,25
"266","669aed56568d11bad784de3b","caress","test_physpsych","physical-positive","PhysPsych","PV","A","physical",1,1743536092078,"physical",1854.16666666667,1163,"A","physical;psychological","",7.05875815251866,7.52519063780639,26
"267","669aed56568d11bad784de3b","twinkle","test_physpsych","physical-positive","PhysPsych","PV","A","psychological",0,1743536095158,"psychological",2657.41666666667,2300,"A","physical;psychological","",7.74066440191724,7.88510975193203,27
"268","669aed56568d11bad784de3b","criticize","test_physpsych","psychological-negative","PhysPsych","PV","A","psychological",1,1743536097182,"psychological",2136.16666666667,1238,"A","physical;psychological","",7.12125245324454,7.66676822450177,28
"269","669aed56568d11bad784de3b","offend","test_physpsych","psychological-negative","PhysPsych","PV","A","physical",0,1743536102950,"physical",3469.83333333333,4986,"A","physical;psychological","",8.5143892640835,8.15186184104772,29
"270","669aed56568d11bad784de3b","stain","test_physpsych","physical-negative","PhysPsych","PV","A","physical",1,1743536105182,"physical",1844.66666666667,1449,"A","physical;psychological","",7.27862894232068,7.52005387167876,30
"271","669aed56568d11bad784de3b","hug","test_physpsych","physical-positive","PhysPsych","PV","A","physical",1,1743536107686,"physical",1835.83333333333,1720,"A","physical;psychological","",7.4500795698075,7.51525379000839,31
"272","669aed56568d11bad784de3b","cuddle","test_physpsych","physical-positive","PhysPsych","PV","A","physical",1,1743536114896,"physical",2588,6431,"A","physical;psychological","",8.76888532613486,7.85864065562079,32
"273","669aed56568d11bad784de3b","slaughter","test_physpsych","physical-negative","PhysPsych","PV","A","physical",1,1743536117991,"physical",1881,2316,"A","physical;psychological","",7.74759683869289,7.53955882930103,33
"274","669aed56568d11bad784de3b","respect","test_physpsych","psychological-positive","PhysPsych","PV","A","physical",0,1743536120862,"physical",2160.66666666667,2091,"A","physical;psychological","",7.64539769942863,7.67817209503338,34
"275","669aed56568d11bad784de3b","dishonor","test_physpsych","psychological-negative","PhysPsych","PV","A","physical",0,1743536123455,"physical",2332.16666666667,1807,"A","physical;psychological","",7.49942329059223,7.75455301432766,35
"276","669aed56568d11bad784de3b","adore","test_physpsych","psychological-positive","PhysPsych","PV","A","psychological",1,1743536127583,"psychological",2104.33333333333,3350,"A","physical;psychological","",8.11671562481911,7.65175398969952,36
"277","669aed56568d11bad784de3b","encourage","test_physpsych","psychological-positive","PhysPsych","PV","A","physical",0,1743536131238,"physical",2887.16666666667,2873,"A","physical;psychological","",7.96311205897929,7.96803090805089,37
"278","669aed56568d11bad784de3b","displease","test_physpsych","psychological-negative","PhysPsych","PV","A","psychological",1,1743536134807,"psychological",3160,2784,"A","physical;psychological","",7.93164402145431,8.05832730658096,38
"279","669aed56568d11bad784de3b","admire","test_physpsych","psychological-positive","PhysPsych","PV","A","psychological",1,1743536137632,"psychological",2694.75,2040,"A","physical;psychological","",7.62070508683826,7.89906071466174,39
"280","669aed56568d11bad784de3b","appreciate","test_physpsych","psychological-positive","PhysPsych","PV","A","psychological",1,1743536140719,"psychological",3218.75,2303,"A","physical;psychological","",7.74196789982069,8.07674836441205,40
"281","669aed56568d11bad784de3b","decorate","test_physpsych","physical-positive","PhysPsych","PV","A","physical",1,1743536142482,"physical",2284,976,"A","physical;psychological","",6.88346258641309,7.7336835707759,41
"282","669aed56568d11bad784de3b","offend","test_physpsych","psychological-negative","PhysPsych","PV","A","physical",0,1743536148704,"physical",3469.83333333333,5445,"A","physical;psychological","",8.60245303536706,8.15186184104772,42
"283","669aed56568d11bad784de3b","caress","test_physpsych","physical-positive","PhysPsych","PV","A","physical",1,1743536150600,"physical",1854.16666666667,1118,"A","physical;psychological","",7.01929665371504,7.52519063780639,43
"284","669aed56568d11bad784de3b","appreciate","test_physpsych","psychological-positive","PhysPsych","PV","A","physical",0,1743536156859,"physical",3218.75,5477,"A","physical;psychological","",8.60831278478372,8.07674836441205,44
"285","669aed56568d11bad784de3b","twinkle","test_physpsych","physical-positive","PhysPsych","PV","A","psychological",0,1743536159913,"psychological",2657.41666666667,2282,"A","physical;psychological","",7.73280753042202,7.88510975193203,45
"286","669aed56568d11bad784de3b","admire","test_physpsych","psychological-positive","PhysPsych","PV","A","psychological",1,1743536163498,"psychological",2694.75,2803,"A","physical;psychological","",7.93844555116479,7.89906071466174,46
"287","669aed56568d11bad784de3b","embarrass","test_physpsych","psychological-negative","PhysPsych","PV","A","psychological",1,1743536165553,"psychological",1996.16666666667,1271,"A","physical;psychological","",7.14755927118945,7.59898395371945,47
"288","669aed56568d11bad784de3b","irritate","test_physpsych","psychological-negative","PhysPsych","PV","A","psychological",1,1743536167832,"psychological",1796,1502,"A","physical;psychological","",7.31455283232408,7.49331724886215,48
"289","669aed56568d11bad784de3b","sculpt","test_physpsych","physical-positive","PhysPsych","PV","A","physical",1,1743536169744,"physical",1991.33333333333,1128,"A","physical;psychological","",7.028201432058,7.59655971010794,49
"290","669aed56568d11bad784de3b","repair","test_physpsych","physical-positive","PhysPsych","PV","A","physical",1,1743536171473,"physical",1849.16666666667,947,"A","physical;psychological","",6.85329909318608,7.52249036613864,50
"291","669aed56568d11bad784de3b","discourage","test_physpsych","psychological-negative","PhysPsych","PV","A","psychological",1,1743536178232,"psychological",3544.75,5979,"A","physical;psychological","",8.6960086088809,8.17322291461767,51
"292","669aed56568d11bad784de3b","tear","test_physpsych","physical-negative","PhysPsych","PV","A","physical",1,1743536180184,"physical",2330.66666666667,1171,"A","physical;psychological","",7.06561336359772,7.75390962866726,52
"293","669aed56568d11bad784de3b","encourage","test_physpsych","psychological-positive","PhysPsych","PV","A","physical",0,1743536186457,"physical",2887.16666666667,5498,"A","physical;psychological","",8.61213966872519,7.96803090805089,53
"294","669aed56568d11bad784de3b","dread","test_physpsych","psychological-negative","PhysPsych","PV","A","psychological",1,1743536189873,"psychological",2263.5,2628,"A","physical;psychological","",7.8739783796045,7.72466756687601,54
"295","669aed56568d11bad784de3b","dismay","test_physpsych","psychological-negative","PhysPsych","PV","A","psychological",1,1743536191553,"psychological",1964.16666666667,900,"A","physical;psychological","",6.80239476332431,7.58282334614218,55
"296","669aed56568d11bad784de3b","stain","test_physpsych","physical-negative","PhysPsych","PV","A","physical",1,1743536193301,"physical",1844.66666666667,973,"A","physical;psychological","",6.880384082186,7.52005387167876,56
"297","669aed56568d11bad784de3b","cuddle","test_physpsych","physical-positive","PhysPsych","PV","A","physical",1,1743536195593,"physical",2588,1524,"A","physical;psychological","",7.32909373624659,7.85864065562079,57
"298","669aed56568d11bad784de3b","like","test_physpsych","psychological-positive","PhysPsych","PV","A","psychological",1,1743536198716,"psychological",1850.33333333333,2343,"A","physical;psychological","",7.7591874385078,7.52312108202205,58
"299","669aed56568d11bad784de3b","crash","test_physpsych","physical-negative","PhysPsych","PV","A","physical",1,1743536200274,"physical",1607.83333333333,781,"A","physical;psychological","",6.66057514983969,7.3826427959425,59
"300","669aed56568d11bad784de3b","produce","test_physpsych","physical-positive","PhysPsych","PV","A","physical",1,1743536201889,"physical",1943,830,"A","physical;psychological","",6.72142570079064,7.57198844937744,60
"301","669aed56568d11bad784de3b","delete","test_physpsych","physical-negative","PhysPsych","PV","A","physical",1,1743536204289,"physical",3401.16666666667,1624,"A","physical;psychological","",7.39264752072162,8.13187378900103,61
"302","669aed56568d11bad784de3b","reassure","test_physpsych","psychological-positive","PhysPsych","PV","A","psychological",1,1743536206705,"psychological",2054.16666666667,1634,"A","physical;psychological","",7.39878627541995,7.62762552968284,62
"303","669aed56568d11bad784de3b","respect","test_physpsych","psychological-positive","PhysPsych","PV","A","psychological",1,1743536208186,"psychological",2160.66666666667,699,"A","physical;psychological","",6.54965074223381,7.67817209503338,63
"304","669aed56568d11bad784de3b","burn","test_physpsych","physical-negative","PhysPsych","PV","A","physical",1,1743536209651,"physical",1764.25,680,"A","physical;psychological","",6.52209279817015,7.47548094988094,64
"305","669aed56568d11bad784de3b","content","test_physpsych","psychological-positive","PhysPsych","PV","A","psychological",1,1743536211467,"psychological",2341.83333333333,1035,"A","physical;psychological","",6.94215670569947,7.75868937737829,65
"306","669aed56568d11bad784de3b","slash","test_physpsych","physical-negative","PhysPsych","PV","A","physical",1,1743536213033,"physical",1782.83333333333,783,"A","physical;psychological","",6.6631326959908,7.48595913807808,66
"307","669aed56568d11bad784de3b","build","test_physpsych","physical-positive","PhysPsych","PV","A","physical",1,1743536215049,"physical",1858,1240,"A","physical;psychological","",7.12286665859908,7.52725591937378,67
"308","669aed56568d11bad784de3b","cherish","test_physpsych","psychological-positive","PhysPsych","PV","A","psychological",1,1743536221507,"psychological",2729.66666666667,5679,"A","physical;psychological","",8.64453043987743,7.91193478060208,68
"309","669aed56568d11bad784de3b","displease","test_physpsych","psychological-negative","PhysPsych","PV","A","psychological",1,1743536229226,"psychological",3160,6937,"A","physical;psychological","",8.8446246833853,8.05832730658096,69
"310","669aed56568d11bad784de3b","criticize","test_physpsych","psychological-negative","PhysPsych","PV","A","psychological",1,1743536233484,"psychological",2136.16666666667,3484,"A","physical;psychological","",8.15593633797239,7.66676822450177,70
"311","669aed56568d11bad784de3b","rust","test_physpsych","physical-negative","PhysPsych","PV","A","physical",1,1743536235196,"physical",2093,925,"A","physical;psychological","",6.82979373751242,7.646353722446,71
"312","669aed56568d11bad784de3b","impress","test_physpsych","psychological-positive","PhysPsych","PV","A","psychological",1,1743536238451,"psychological",2871.83333333333,2477,"A","physical;psychological","",7.81480342948936,7.96270589691504,72
"313","669aed56568d11bad784de3b","hug","test_physpsych","physical-positive","PhysPsych","PV","A","physical",1,1743536240172,"physical",1835.83333333333,939,"A","physical;psychological","",6.84481547920826,7.51525379000839,73
"314","669aed56568d11bad784de3b","despair","test_physpsych","psychological-negative","PhysPsych","PV","A","psychological",1,1743536241979,"psychological",4560.75,1029,"A","physical;psychological","",6.93634273583405,8.42524236266833,74
"315","669aed56568d11bad784de3b","hit","test_physpsych","physical-negative","PhysPsych","PV","A","physical",1,1743536243702,"physical",2026.83333333333,938,"A","physical;psychological","",6.84374994900622,7.61422991975294,75
"316","669aed56568d11bad784de3b","dishonor","test_physpsych","psychological-negative","PhysPsych","PV","A","psychological",1,1743536245954,"psychological",2332.16666666667,1475,"A","physical;psychological","",7.29641326877392,7.75455301432766,76
"317","669aed56568d11bad784de3b","slaughter","test_physpsych","physical-negative","PhysPsych","PV","A","physical",1,1743536247702,"physical",1881,971,"A","physical;psychological","",6.87832646829133,7.53955882930103,77
"318","669aed56568d11bad784de3b","adore","test_physpsych","psychological-positive","PhysPsych","PV","A","physical",0,1743536249498,"physical",2104.33333333333,1012,"A","physical;psychological","",6.91968384984741,7.65175398969952,78
"319","669aed56568d11bad784de3b","clean","test_physpsych","physical-positive","PhysPsych","PV","A","physical",1,1743536251701,"physical",1746.16666666667,1425,"A","physical;psychological","",7.26192709270275,7.46517818812491,79
"320","669aed56568d11bad784de3b","corrode","test_physpsych","physical-negative","PhysPsych","PV","A","physical",1,1743536253621,"physical",2233.33333333333,1141,"A","physical;psychological","",7.03966034986208,7.71125051671095,80
"321","669aed56568d11bad784de3b","burn","test_physpsych","physical-negative","PhysPsych","PV","A","physical",1,1743536255817,"physical",1764.25,1418,"A","physical;psychological","",7.25700270709207,7.47548094988094,81
"322","669aed56568d11bad784de3b","clean","test_physpsych","physical-positive","PhysPsych","PV","A","physical",1,1743536257587,"physical",1746.16666666667,987,"A","physical;psychological","",6.89467003943348,7.46517818812491,82
"323","669aed56568d11bad784de3b","sculpt","test_physpsych","physical-positive","PhysPsych","PV","A","physical",1,1743536259051,"physical",1991.33333333333,684,"A","physical;psychological","",6.52795791762255,7.59655971010794,83
"324","669aed56568d11bad784de3b","repair","test_physpsych","physical-positive","PhysPsych","PV","A","physical",1,1743536260723,"physical",1849.16666666667,891,"A","physical;psychological","",6.79234442747081,7.52249036613864,84
"325","669aed56568d11bad784de3b","twinkle","test_physpsych","physical-positive","PhysPsych","PV","A","psychological",0,1743536264617,"psychological",2657.41666666667,3110,"A","physical;psychological","",8.04237800517328,7.88510975193203,85
"326","669aed56568d11bad784de3b","tear","test_physpsych","physical-negative","PhysPsych","PV","A","physical",1,1743536266404,"physical",2330.66666666667,1012,"A","physical;psychological","",6.91968384984741,7.75390962866726,86
"327","669aed56568d11bad784de3b","displease","test_physpsych","psychological-negative","PhysPsych","PV","A","psychological",1,1743536268405,"psychological",3160,1221,"A","physical;psychological","",7.1074254741107,8.05832730658096,87
"328","669aed56568d11bad784de3b","produce","test_physpsych","physical-positive","PhysPsych","PV","A","physical",1,1743536269983,"physical",1943,803,"A","physical;psychological","",6.68835471394676,7.57198844937744,88
"329","669aed56568d11bad784de3b","cherish","test_physpsych","psychological-positive","PhysPsych","PV","A","psychological",1,1743536272067,"psychological",2729.66666666667,1311,"A","physical;psychological","",7.1785454837637,7.91193478060208,89
"330","669aed56568d11bad784de3b","dismay","test_physpsych","psychological-negative","PhysPsych","PV","A","psychological",1,1743536273707,"psychological",1964.16666666667,854,"A","physical;psychological","",6.74993119378857,7.58282334614218,90
"331","669aed56568d11bad784de3b","cuddle","test_physpsych","physical-positive","PhysPsych","PV","A","physical",1,1743536275420,"physical",2588,938,"A","physical;psychological","",6.84374994900622,7.85864065562079,91
"332","669aed56568d11bad784de3b","admire","test_physpsych","psychological-positive","PhysPsych","PV","A","psychological",1,1743536280469,"psychological",2694.75,4272,"A","physical;psychological","",8.35983738064003,7.89906071466174,92
"333","669aed56568d11bad784de3b","dread","test_physpsych","psychological-negative","PhysPsych","PV","A","psychological",1,1743536283620,"psychological",2263.5,2362,"A","physical;psychological","",7.76726399675731,7.72466756687601,93
"334","669aed56568d11bad784de3b","rust","test_physpsych","physical-negative","PhysPsych","PV","A","physical",1,1743536285263,"physical",2093,865,"A","physical;psychological","",6.76272950693188,7.646353722446,94
"335","669aed56568d11bad784de3b","hit","test_physpsych","physical-negative","PhysPsych","PV","A","physical",1,1743536287886,"physical",2026.83333333333,1845,"A","physical;psychological","",7.52023455647463,7.61422991975294,95
"336","669aed56568d11bad784de3b","corrode","test_physpsych","physical-negative","PhysPsych","PV","A","physical",1,1743536290565,"physical",2233.33333333333,1897,"A","physical;psychological","",7.54802896993501,7.71125051671095,96
"337","669aed56568d11bad784de3b","content","test_physpsych","psychological-positive","PhysPsych","PV","A","psychological",1,1743536295527,"psychological",2341.83333333333,4189,"A","physical;psychological","",8.34021732094704,7.75868937737829,97
"338","669aed56568d11bad784de3b","reassure","test_physpsych","psychological-positive","PhysPsych","PV","A","psychological",1,1743536297215,"psychological",2054.16666666667,909,"A","physical;psychological","",6.81234509417748,7.62762552968284,98
"339","669aed56568d11bad784de3b","impress","test_physpsych","psychological-positive","PhysPsych","PV","A","psychological",1,1743536303640,"psychological",2871.83333333333,5641,"A","physical;psychological","",8.63781663373998,7.96270589691504,99
"340","669aed56568d11bad784de3b","despair","test_physpsych","psychological-negative","PhysPsych","PV","A","psychological",1,1743536305637,"psychological",4560.75,1219,"A","physical;psychological","",7.10578612948127,8.42524236266833,100
"341","669aed56568d11bad784de3b","offend","test_physpsych","psychological-negative","PhysPsych","PV","A","psychological",1,1743536309326,"psychological",3469.83333333333,2907,"A","physical;psychological","",7.97487690055888,8.15186184104772,101
"342","669aed56568d11bad784de3b","embarrass","test_physpsych","psychological-negative","PhysPsych","PV","A","psychological",1,1743536312329,"psychological",1996.16666666667,2224,"A","physical;psychological","",7.70706265537047,7.59898395371945,102
"343","669aed56568d11bad784de3b","adore","test_physpsych","psychological-positive","PhysPsych","PV","A","psychological",1,1743536314025,"psychological",2104.33333333333,933,"A","physical;psychological","",6.83840520084734,7.65175398969952,103
"344","669aed56568d11bad784de3b","criticize","test_physpsych","psychological-negative","PhysPsych","PV","A","psychological",1,1743536315911,"psychological",2136.16666666667,1119,"A","physical;psychological","",7.02019070831193,7.66676822450177,104
"345","669aed56568d11bad784de3b","crash","test_physpsych","physical-negative","PhysPsych","PV","A","physical",1,1743536317405,"physical",1607.83333333333,713,"A","physical;psychological","",6.5694814204143,7.3826427959425,105
"346","669aed56568d11bad784de3b","slaughter","test_physpsych","physical-negative","PhysPsych","PV","A","physical",1,1743536319234,"physical",1881,1047,"A","physical;psychological","",6.95368421087054,7.53955882930103,106
"347","669aed56568d11bad784de3b","stain","test_physpsych","physical-negative","PhysPsych","PV","A","physical",1,1743536320781,"physical",1844.66666666667,778,"A","physical;psychological","",6.65672652417839,7.52005387167876,107
"348","669aed56568d11bad784de3b","discourage","test_physpsych","psychological-negative","PhysPsych","PV","A","psychological",1,1743536322936,"psychological",3544.75,1375,"A","physical;psychological","",7.22620901010067,8.17322291461767,108
"349","669aed56568d11bad784de3b","build","test_physpsych","physical-positive","PhysPsych","PV","A","physical",1,1743536324614,"physical",1858,898,"A","physical;psychological","",6.8001700683022,7.52725591937378,109
"350","669aed56568d11bad784de3b","hug","test_physpsych","physical-positive","PhysPsych","PV","A","physical",1,1743536327038,"physical",1835.83333333333,1644,"A","physical;psychological","",7.40488757561612,7.51525379000839,110
"351","669aed56568d11bad784de3b","irritate","test_physpsych","psychological-negative","PhysPsych","PV","A","psychological",1,1743536328790,"psychological",1796,972,"A","physical;psychological","",6.87935580446044,7.49331724886215,111
"352","669aed56568d11bad784de3b","caress","test_physpsych","physical-positive","PhysPsych","PV","A","physical",1,1743536330814,"physical",1854.16666666667,1240,"A","physical;psychological","",7.12286665859908,7.52519063780639,112
"353","669aed56568d11bad784de3b","encourage","test_physpsych","psychological-positive","PhysPsych","PV","A","psychological",1,1743536332786,"psychological",2887.16666666667,1195,"A","physical;psychological","",7.08590146436561,7.96803090805089,113
"354","669aed56568d11bad784de3b","like","test_physpsych","psychological-positive","PhysPsych","PV","A","physical",0,1743536334613,"physical",1850.33333333333,1061,"A","physical;psychological","",6.96696713861398,7.52312108202205,114
"355","669aed56568d11bad784de3b","decorate","test_physpsych","physical-positive","PhysPsych","PV","A","physical",1,1743536339429,"physical",2284,4032,"A","physical;psychological","",8.3020178097512,7.7336835707759,115
"356","669aed56568d11bad784de3b","slash","test_physpsych","physical-negative","PhysPsych","PV","A","physical",1,1743536341174,"physical",1782.83333333333,964,"A","physical;psychological","",6.87109129461055,7.48595913807808,116
"357","669aed56568d11bad784de3b","respect","test_physpsych","psychological-positive","PhysPsych","PV","A","psychological",1,1743536343055,"psychological",2160.66666666667,1106,"A","physical;psychological","",7.00850518208228,7.67817209503338,117
"358","669aed56568d11bad784de3b","dishonor","test_physpsych","psychological-negative","PhysPsych","PV","A","psychological",1,1743536346921,"psychological",2332.16666666667,3087,"A","physical;psychological","",8.03495502450216,7.75455301432766,118
"359","669aed56568d11bad784de3b","appreciate","test_physpsych","psychological-positive","PhysPsych","PV","A","psychological",1,1743536348919,"psychological",3218.75,1220,"A","physical;psychological","",7.1066061377273,8.07674836441205,119
"360","669aed56568d11bad784de3b","delete","test_physpsych","physical-negative","PhysPsych","PV","A","physical",1,1743536356284,"physical",3401.16666666667,6589,"A","physical;psychological","",8.79315687091382,8.13187378900103,120
"361","669aed56568d11bad784de3b","cherish","test_val","psychological-positive","Valence","PV","A","positive",1,1743536475330,"positive",2729.66666666667,965,"A","positive;negative","",6.87212810133899,7.91193478060208,121
"362","669aed56568d11bad784de3b","cuddle","test_val","physical-positive","Valence","PV","A","positive",1,1743536476763,"positive",2588,654,"A","positive;negative","",6.4831073514572,7.85864065562079,122
"363","669aed56568d11bad784de3b","decorate","test_val","physical-positive","Valence","PV","A","positive",1,1743536478213,"positive",2284,675,"A","positive;negative","",6.51471269087253,7.7336835707759,123
"364","669aed56568d11bad784de3b","burn","test_val","physical-negative","Valence","PV","A","negative",1,1743536480579,"negative",1764.25,1587,"A","positive;negative","",7.36960072052641,7.47548094988094,124
"365","669aed56568d11bad784de3b","corrode","test_val","physical-negative","Valence","PV","A","negative",1,1743536482875,"negative",2233.33333333333,1515,"A","positive;negative","",7.32317071794347,7.71125051671095,125
"366","669aed56568d11bad784de3b","build","test_val","physical-positive","Valence","PV","A","positive",1,1743536485499,"positive",1858,1841,"A","positive;negative","",7.51806418123308,7.52725591937378,126
"367","669aed56568d11bad784de3b","twinkle","test_val","physical-positive","Valence","PV","A","positive",1,1743536487419,"positive",2657.41666666667,1143,"A","positive;negative","",7.04141166379481,7.88510975193203,127
"368","669aed56568d11bad784de3b","criticize","test_val","psychological-negative","Valence","PV","A","negative",1,1743536489124,"negative",2136.16666666667,926,"A","positive;negative","",6.83087423464618,7.66676822450177,128
"369","669aed56568d11bad784de3b","encourage","test_val","psychological-positive","Valence","PV","A","positive",1,1743536491083,"positive",2887.16666666667,1177,"A","positive;negative","",7.07072410726028,7.96803090805089,129
"370","669aed56568d11bad784de3b","delete","test_val","physical-negative","Valence","PV","A","positive",0,1743536495531,"positive",3401.16666666667,3675,"A","positive;negative","",8.20930841164694,8.13187378900103,130
"371","669aed56568d11bad784de3b","like","test_val","psychological-positive","Valence","PV","A","positive",1,1743536497051,"positive",1850.33333333333,740,"A","positive;negative","",6.60665018619822,7.52312108202205,131
"372","669aed56568d11bad784de3b","sculpt","test_val","physical-positive","Valence","PV","A","positive",1,1743536499003,"positive",1991.33333333333,1169,"A","positive;negative","",7.06390396147207,7.59655971010794,132
"373","669aed56568d11bad784de3b","slaughter","test_val","physical-negative","Valence","PV","A","negative",1,1743536500708,"negative",1881,927,"A","positive;negative","",6.83195356556585,7.53955882930103,133
"374","669aed56568d11bad784de3b","content","test_val","psychological-positive","Valence","PV","A","positive",1,1743536502451,"positive",2341.83333333333,967,"A","positive;negative","",6.87419849545329,7.75868937737829,134
"375","669aed56568d11bad784de3b","dishonor","test_val","psychological-negative","Valence","PV","A","negative",1,1743536504172,"negative",2332.16666666667,944,"A","positive;negative","",6.8501261661455,7.75455301432766,135
"376","669aed56568d11bad784de3b","dread","test_val","psychological-negative","Valence","PV","A","negative",1,1743536505795,"negative",2263.5,842,"A","positive;negative","",6.73578001424233,7.72466756687601,136
"377","669aed56568d11bad784de3b","tear","test_val","physical-negative","Valence","PV","A","positive",0,1743536507676,"positive",2330.66666666667,1101,"A","positive;negative","",7.00397413672268,7.75390962866726,137
"378","669aed56568d11bad784de3b","stain","test_val","physical-negative","Valence","PV","A","positive",0,1743536509428,"positive",1844.66666666667,973,"A","positive;negative","",6.880384082186,7.52005387167876,138
"379","669aed56568d11bad784de3b","dismay","test_val","psychological-negative","Valence","PV","A","negative",1,1743536511533,"negative",1964.16666666667,1323,"A","positive;negative","",7.18765716411496,7.58282334614218,139
"380","669aed56568d11bad784de3b","produce","test_val","physical-positive","Valence","PV","A","positive",1,1743536513492,"positive",1943,1184,"A","positive;negative","",7.07665381544395,7.57198844937744,140
"381","669aed56568d11bad784de3b","caress","test_val","physical-positive","Valence","PV","A","positive",1,1743536515628,"positive",1854.16666666667,1352,"A","positive;negative","",7.20934025660291,7.52519063780639,141
"382","669aed56568d11bad784de3b","impress","test_val","psychological-positive","Valence","PV","A","positive",1,1743536517978,"positive",2871.83333333333,1570,"A","positive;negative","",7.35883089834235,7.96270589691504,142
"383","669aed56568d11bad784de3b","discourage","test_val","psychological-negative","Valence","PV","A","positive",0,1743536524456,"positive",3544.75,5704,"A","positive;negative","",8.64892296209413,8.17322291461767,143
"384","669aed56568d11bad784de3b","admire","test_val","psychological-positive","Valence","PV","A","positive",1,1743536526236,"positive",2694.75,1012,"A","positive;negative","",6.91968384984741,7.89906071466174,144
"385","669aed56568d11bad784de3b","respect","test_val","psychological-positive","Valence","PV","A","positive",1,1743536530004,"positive",2160.66666666667,2982,"A","positive;negative","",8.00034949532468,7.67817209503338,145
"386","669aed56568d11bad784de3b","rust","test_val","physical-negative","Valence","PV","A","negative",1,1743536532215,"negative",2093,1428,"A","positive;negative","",7.26403014289953,7.646353722446,146
"387","669aed56568d11bad784de3b","clean","test_val","physical-positive","Valence","PV","A","positive",1,1743536533941,"positive",1746.16666666667,948,"A","positive;negative","",6.85435450225502,7.46517818812491,147
"388","669aed56568d11bad784de3b","crash","test_val","physical-negative","Valence","PV","A","negative",1,1743536535669,"negative",1607.83333333333,948,"A","positive;negative","",6.85435450225502,7.3826427959425,148
"389","669aed56568d11bad784de3b","hit","test_val","physical-negative","Valence","PV","A","negative",1,1743536537693,"negative",2026.83333333333,1246,"A","positive;negative","",7.1276936993474,7.61422991975294,149
"390","669aed56568d11bad784de3b","irritate","test_val","psychological-negative","Valence","PV","A","negative",1,1743536539581,"negative",1796,1110,"A","positive;negative","",7.01211529430638,7.49331724886215,150
"391","669aed56568d11bad784de3b","reassure","test_val","psychological-positive","Valence","PV","A","positive",1,1743536542204,"positive",2054.16666666667,1843,"A","positive;negative","",7.51914995766982,7.62762552968284,151
"392","669aed56568d11bad784de3b","repair","test_val","physical-positive","Valence","PV","A","positive",1,1743536543970,"positive",1849.16666666667,991,"A","positive;negative","",6.89871453432999,7.52249036613864,152
"393","669aed56568d11bad784de3b","adore","test_val","psychological-positive","Valence","PV","A","positive",1,1743536545607,"positive",2104.33333333333,857,"A","positive;negative","",6.75343791859778,7.65175398969952,153
"394","669aed56568d11bad784de3b","despair","test_val","psychological-negative","Valence","PV","A","negative",1,1743536563110,"negative",4560.75,16713,"A","positive;negative","",9.72394213868892,8.42524236266833,154
"395","669aed56568d11bad784de3b","displease","test_val","psychological-negative","Valence","PV","A","negative",1,1743536565549,"negative",3160,1664,"A","positive;negative","",7.41697962138115,8.05832730658096,155
"396","669aed56568d11bad784de3b","appreciate","test_val","psychological-positive","Valence","PV","A","positive",1,1743536570092,"positive",3218.75,3764,"A","positive;negative","",8.23323750070527,8.07674836441205,156
"397","669aed56568d11bad784de3b","hug","test_val","physical-positive","Valence","PV","A","positive",1,1743536571581,"positive",1835.83333333333,707,"A","positive;negative","",6.56103066589657,7.51525379000839,157
"398","669aed56568d11bad784de3b","offend","test_val","psychological-negative","Valence","PV","A","negative",1,1743536573358,"negative",3469.83333333333,994,"A","positive;negative","",6.90173720665657,8.15186184104772,158
"399","669aed56568d11bad784de3b","embarrass","test_val","psychological-negative","Valence","PV","A","negative",1,1743536575263,"negative",1996.16666666667,1128,"A","positive;negative","",7.028201432058,7.59898395371945,159
"400","669aed56568d11bad784de3b","slash","test_val","physical-negative","Valence","PV","A","negative",1,1743536576841,"negative",1782.83333333333,802,"A","positive;negative","",6.68710860786651,7.48595913807808,160
"401","669aed56568d11bad784de3b","reassure","test_val","psychological-positive","Valence","PV","A","positive",1,1743536578454,"positive",2054.16666666667,851,"A","positive;negative","",6.74641212857337,7.62762552968284,161
"402","669aed56568d11bad784de3b","dishonor","test_val","psychological-negative","Valence","PV","A","negative",1,1743536580222,"negative",2332.16666666667,987,"A","positive;negative","",6.89467003943348,7.75455301432766,162
"403","669aed56568d11bad784de3b","slash","test_val","physical-negative","Valence","PV","A","negative",1,1743536582222,"negative",1782.83333333333,1222,"A","positive;negative","",7.10824413973154,7.48595913807808,163
"404","669aed56568d11bad784de3b","produce","test_val","physical-positive","Valence","PV","A","positive",1,1743536583960,"positive",1943,962,"A","positive;negative","",6.86901445066571,7.57198844937744,164
"405","669aed56568d11bad784de3b","hit","test_val","physical-negative","Valence","PV","A","negative",1,1743536585494,"negative",2026.83333333333,755,"A","positive;negative","",6.62671774924902,7.61422991975294,165
"406","669aed56568d11bad784de3b","hug","test_val","physical-positive","Valence","PV","A","positive",1,1743536587030,"positive",1835.83333333333,755,"A","positive;negative","",6.62671774924902,7.51525379000839,166
"407","669aed56568d11bad784de3b","corrode","test_val","physical-negative","Valence","PV","A","negative",1,1743536588592,"negative",2233.33333333333,786,"A","positive;negative","",6.66695679242921,7.71125051671095,167
"408","669aed56568d11bad784de3b","offend","test_val","psychological-negative","Valence","PV","A","negative",1,1743536590127,"negative",3469.83333333333,753,"A","positive;negative","",6.62406522779989,8.15186184104772,168
"409","669aed56568d11bad784de3b","criticize","test_val","psychological-negative","Valence","PV","A","negative",1,1743536591566,"negative",2136.16666666667,656,"A","positive;negative","",6.48616078894409,7.66676822450177,169
"410","669aed56568d11bad784de3b","adore","test_val","psychological-positive","Valence","PV","A","positive",1,1743536593039,"positive",2104.33333333333,690,"A","positive;negative","",6.5366915975913,7.65175398969952,170
"411","669aed56568d11bad784de3b","slaughter","test_val","physical-negative","Valence","PV","A","negative",1,1743536594503,"negative",1881,680,"A","positive;negative","",6.52209279817015,7.53955882930103,171
"412","669aed56568d11bad784de3b","despair","test_val","psychological-negative","Valence","PV","A","negative",1,1743536596239,"negative",4560.75,951,"A","positive;negative","",6.85751406254539,8.42524236266833,172
"413","669aed56568d11bad784de3b","build","test_val","physical-positive","Valence","PV","A","positive",1,1743536597911,"positive",1858,902,"A","positive;negative","",6.80461452006262,7.52725591937378,173
"414","669aed56568d11bad784de3b","burn","test_val","physical-negative","Valence","PV","A","negative",1,1743536599471,"negative",1764.25,779,"A","positive;negative","",6.65801104587075,7.47548094988094,174
"415","669aed56568d11bad784de3b","clean","test_val","physical-positive","Valence","PV","A","positive",1,1743536600921,"positive",1746.16666666667,675,"A","positive;negative","",6.51471269087253,7.46517818812491,175
"416","669aed56568d11bad784de3b","decorate","test_val","physical-positive","Valence","PV","A","positive",1,1743536602608,"positive",2284,903,"A","positive;negative","",6.80572255341699,7.7336835707759,176
"417","669aed56568d11bad784de3b","content","test_val","psychological-positive","Valence","PV","A","positive",1,1743536604240,"positive",2341.83333333333,852,"A","positive;negative","",6.74758652682932,7.75868937737829,177
"418","669aed56568d11bad784de3b","caress","test_val","physical-positive","Valence","PV","A","positive",1,1743536605714,"positive",1854.16666666667,695,"A","positive;negative","",6.54391184556479,7.52519063780639,178
"419","669aed56568d11bad784de3b","rust","test_val","physical-negative","Valence","PV","A","negative",1,1743536607335,"negative",2093,838,"A","positive;negative","",6.73101810048208,7.646353722446,179
"420","669aed56568d11bad784de3b","appreciate","test_val","psychological-positive","Valence","PV","A","positive",1,1743536609272,"positive",3218.75,1158,"A","positive;negative","",7.05444965813294,8.07674836441205,180
"421","669aed56568d11bad784de3b","embarrass","test_val","psychological-negative","Valence","PV","A","negative",1,1743536610890,"negative",1996.16666666667,838,"A","positive;negative","",6.73101810048208,7.59898395371945,181
"422","669aed56568d11bad784de3b","discourage","test_val","psychological-negative","Valence","PV","A","negative",1,1743536612746,"negative",3544.75,1068,"A","positive;negative","",6.97354301952014,8.17322291461767,182
"423","669aed56568d11bad784de3b","encourage","test_val","psychological-positive","Valence","PV","A","positive",1,1743536614640,"positive",2887.16666666667,1115,"A","positive;negative","",7.01660968389422,7.96803090805089,183
"424","669aed56568d11bad784de3b","tear","test_val","physical-negative","Valence","PV","A","negative",1,1743536618720,"negative",2330.66666666667,3298,"A","positive;negative","",8.10107150311954,7.75390962866726,184
"425","669aed56568d11bad784de3b","dismay","test_val","psychological-negative","Valence","PV","A","negative",1,1743536621403,"negative",1964.16666666667,1904,"A","positive;negative","",7.55171221535131,7.58282334614218,185
"426","669aed56568d11bad784de3b","stain","test_val","physical-negative","Valence","PV","A","negative",1,1743536623593,"negative",1844.66666666667,1408,"A","positive;negative","",7.24992553671799,7.52005387167876,186
"427","669aed56568d11bad784de3b","irritate","test_val","psychological-negative","Valence","PV","A","negative",1,1743536625096,"negative",1796,726,"A","positive;negative","",6.5875500148248,7.49331724886215,187
"428","669aed56568d11bad784de3b","admire","test_val","psychological-positive","Valence","PV","A","positive",1,1743536626601,"positive",2694.75,729,"A","positive;negative","",6.59167373200866,7.89906071466174,188
"429","669aed56568d11bad784de3b","cherish","test_val","psychological-positive","Valence","PV","A","positive",1,1743536628064,"positive",2729.66666666667,681,"A","positive;negative","",6.52356230614951,7.91193478060208,189
"430","669aed56568d11bad784de3b","cuddle","test_val","physical-positive","Valence","PV","A","positive",1,1743536629536,"positive",2588,694,"A","positive;negative","",6.5424719605068,7.85864065562079,190
"431","669aed56568d11bad784de3b","repair","test_val","physical-positive","Valence","PV","A","positive",1,1743536631171,"positive",1849.16666666667,870,"A","positive;negative","",6.76849321164863,7.52249036613864,191
"432","669aed56568d11bad784de3b","respect","test_val","psychological-positive","Valence","PV","A","positive",1,1743536632673,"positive",2160.66666666667,722,"A","positive;negative","",6.58202513889283,7.67817209503338,192
"433","669aed56568d11bad784de3b","twinkle","test_val","physical-positive","Valence","PV","A","positive",1,1743536635140,"positive",2657.41666666667,1686,"A","positive;negative","",7.4301141385618,7.88510975193203,193
"434","669aed56568d11bad784de3b","displease","test_val","psychological-negative","Valence","PV","A","negative",1,1743536636812,"negative",3160,897,"A","positive;negative","",6.7990558620588,8.05832730658096,194
"435","669aed56568d11bad784de3b","crash","test_val","physical-negative","Valence","PV","A","negative",1,1743536638298,"negative",1607.83333333333,720,"A","positive;negative","",6.5792512120101,7.3826427959425,195
"436","669aed56568d11bad784de3b","like","test_val","psychological-positive","Valence","PV","A","positive",1,1743536639716,"positive",1850.33333333333,640,"A","positive;negative","",6.46146817635372,7.52312108202205,196
"437","669aed56568d11bad784de3b","impress","test_val","psychological-positive","Valence","PV","A","positive",1,1743536641514,"positive",2871.83333333333,1019,"A","positive;negative","",6.92657703322272,7.96270589691504,197
"438","669aed56568d11bad784de3b","delete","test_val","physical-negative","Valence","PV","A","negative",1,1743536643680,"negative",3401.16666666667,1382,"A","positive;negative","",7.23128700432762,8.13187378900103,198
"439","669aed56568d11bad784de3b","dread","test_val","psychological-negative","Valence","PV","A","negative",1,1743536645761,"negative",2263.5,1299,"A","positive;negative","",7.1693500166706,7.72466756687601,199
"440","669aed56568d11bad784de3b","sculpt","test_val","physical-positive","Valence","PV","A","positive",1,1743536647610,"positive",1991.33333333333,1061,"A","positive;negative","",6.96696713861398,7.59655971010794,200
"441","669aed56568d11bad784de3b","burn","test_val","physical-negative","Valence","PV","A","negative",1,1743536649160,"negative",1764.25,772,"A","positive;negative","",6.64898455002478,7.47548094988094,201
"442","669aed56568d11bad784de3b","dread","test_val","psychological-negative","Valence","PV","A","negative",1,1743536650637,"negative",2263.5,693,"A","positive;negative","",6.5410299991899,7.72466756687601,202
"443","669aed56568d11bad784de3b","twinkle","test_val","physical-positive","Valence","PV","A","positive",1,1743536652265,"positive",2657.41666666667,849,"A","positive;negative","",6.74405918631135,7.88510975193203,203
"444","669aed56568d11bad784de3b","build","test_val","physical-positive","Valence","PV","A","positive",1,1743536653673,"positive",1858,627,"A","positive;negative","",6.44094654063292,7.52725591937378,204
