#
# Results on Tue, 15 Apr 2025 11:18:56 GMT
# USER AGENT: Mozilla/5.0 (X11; CrOS x86_64 14541.0.0) AppleWebKit/537.36 (KHTML, like Gecko) Chrome/134.0.0.0 Safari/537.36
# Design number was non-random = 0
#
# Columns below this comment are as follows:
# 1. Results reception time.
# 2. MD5 hash of participant's IP address.
# 3. Controller name.
# 4. Order number of item.
# 5. Inner element number.
# 6. Label.
# 7. Latin Square Group.
# 8. PennElementType.
# 9. PennElementName.
# 10. Parameter.
# 11. Value.
# 12. EventTime.
# 13. Comments.
1744715936,fcce65d3b6e1654524853cfd0a6b9f8d,PennController,1,0,welcome,NULL,PennController,0,_Trial_,Start,1744715257501,NULL
1744715936,fcce65d3b6e1654524853cfd0a6b9f8d,PennController,1,0,welcome,NULL,PennController,0,_Header_,Start,1744715257502,NULL
1744715936,fcce65d3b6e1654524853cfd0a6b9f8d,PennController,1,0,welcome,NULL,PennController,0,_Header_,End,1744715257757,NULL
1744715936,fcce65d3b6e1654524853cfd0a6b9f8d,PennController,1,0,welcome,NULL,PennController,0,_Trial_,End,1744715262619,NULL
# 13. ID.
# 14. Comments.
1744715936,fcce65d3b6e1654524853cfd0a6b9f8d,PennController,124,0,consent,NULL,PennController,2,_Trial_,Start,1744715262628,5fcc103fb2ab80a01f32f7ae,NULL
1744715936,fcce65d3b6e1654524853cfd0a6b9f8d,PennController,124,0,consent,NULL,PennController,2,_Header_,Start,1744715262628,5fcc103fb2ab80a01f32f7ae,NULL
1744715936,fcce65d3b6e1654524853cfd0a6b9f8d,PennController,124,0,consent,NULL,PennController,2,_Header_,End,1744715262881,5fcc103fb2ab80a01f32f7ae,NULL
1744715936,fcce65d3b6e1654524853cfd0a6b9f8d,PennController,124,0,consent,NULL,TextInput,ID,Final,5fcc103fb2ab80a01f32f7ae,1744715266993,5fcc103fb2ab80a01f32f7ae,NULL
1744715936,fcce65d3b6e1654524853cfd0a6b9f8d,PennController,124,0,consent,NULL,TextInput,ID,First,,1744715265671,5fcc103fb2ab80a01f32f7ae,Control
1744715936,fcce65d3b6e1654524853cfd0a6b9f8d,PennController,124,0,consent,NULL,PennController,2,_Trial_,End,1744715266994,5fcc103fb2ab80a01f32f7ae,NULL
# 13. Comments.
1744715936,fcce65d3b6e1654524853cfd0a6b9f8d,PennController,132,0,instructions1_sp,NULL,PennController,10,_Trial_,Start,1744715266999,NULL
1744715936,fcce65d3b6e1654524853cfd0a6b9f8d,PennController,132,0,instructions1_sp,NULL,PennController,10,_Header_,Start,1744715266999,NULL
1744715936,fcce65d3b6e1654524853cfd0a6b9f8d,PennController,132,0,instructions1_sp,NULL,PennController,10,_Header_,End,1744715267251,NULL
1744715936,fcce65d3b6e1654524853cfd0a6b9f8d,PennController,132,0,instructions1_sp,NULL,PennController,10,_Trial_,End,1744715289148,NULL
1744715936,fcce65d3b6e1654524853cfd0a6b9f8d,PennController,133,0,instructions2_sp,NULL,PennController,11,_Trial_,Start,1744715289153,NULL
1744715936,fcce65d3b6e1654524853cfd0a6b9f8d,PennController,133,0,instructions2_sp,NULL,PennController,11,_Header_,Start,1744715289153,NULL
1744715936,fcce65d3b6e1654524853cfd0a6b9f8d,PennController,133,0,instructions2_sp,NULL,PennController,11,_Header_,End,1744715289403,NULL
1744715936,fcce65d3b6e1654524853cfd0a6b9f8d,PennController,133,0,instructions2_sp,NULL,PennController,11,_Trial_,End,1744715293340,NULL
1744715936,fcce65d3b6e1654524853cfd0a6b9f8d,PennController,128,0,instructions3_hands,NULL,PennController,6,_Trial_,Start,1744715293341,NULL
1744715936,fcce65d3b6e1654524853cfd0a6b9f8d,PennController,128,0,instructions3_hands,NULL,PennController,6,_Header_,Start,1744715293341,NULL
1744715936,fcce65d3b6e1654524853cfd0a6b9f8d,PennController,128,0,instructions3_hands,NULL,PennController,6,_Header_,End,1744715293592,NULL
1744715936,fcce65d3b6e1654524853cfd0a6b9f8d,PennController,128,0,instructions3_hands,NULL,PennController,6,_Trial_,End,1744715300480,NULL
1744715936,fcce65d3b6e1654524853cfd0a6b9f8d,PennController,135,0,practice_intro_sp,NULL,PennController,13,_Trial_,Start,1744715300483,NULL
1744715936,fcce65d3b6e1654524853cfd0a6b9f8d,PennController,135,0,practice_intro_sp,NULL,PennController,13,_Header_,Start,1744715300483,NULL
1744715936,fcce65d3b6e1654524853cfd0a6b9f8d,PennController,135,0,practice_intro_sp,NULL,PennController,13,_Header_,End,1744715300736,NULL
1744715936,fcce65d3b6e1654524853cfd0a6b9f8d,PennController,135,0,practice_intro_sp,NULL,PennController,13,_Trial_,End,1744715301858,NULL
# 13. ID.
# 14. ReactionTime.
# 15. Word.
# 16. selectedKey.
# 17. selectedValue.
# 18. Key_value_F.
# 19. Key_value_J.
# 20. Group.
# 21. Comments.
1744715936,fcce65d3b6e1654524853cfd0a6b9f8d,PennController,92,0,calibrator_sp_feedback,NULL,PennController,103,_Trial_,Start,1744715301862,undefined,3393,overrated,undefined,social,physical,social,A,NULL
1744715936,fcce65d3b6e1654524853cfd0a6b9f8d,PennController,92,0,calibrator_sp_feedback,NULL,PennController,103,_Header_,Start,1744715301862,undefined,3393,overrated,undefined,social,physical,social,A,NULL
1744715936,fcce65d3b6e1654524853cfd0a6b9f8d,PennController,92,0,calibrator_sp_feedback,NULL,PennController,103,_Header_,End,1744715302116,undefined,3393,overrated,undefined,social,physical,social,A,NULL
1744715936,fcce65d3b6e1654524853cfd0a6b9f8d,PennController,92,0,calibrator_sp_feedback,NULL,Selector,Selection,Selection,social,1744715307689,undefined,3393,overrated,undefined,social,physical,social,A,physical;social
1744715936,fcce65d3b6e1654524853cfd0a6b9f8d,PennController,92,0,calibrator_sp_feedback,NULL,PennController,103,_Trial_,End,1744715308024,undefined,3393,overrated,undefined,social,physical,social,A,NULL
1744715936,fcce65d3b6e1654524853cfd0a6b9f8d,PennController,87,0,calibrator_sp_feedback,NULL,PennController,98,_Trial_,Start,1744715308026,undefined,1654,frozen,undefined,social,physical,social,A,NULL
1744715936,fcce65d3b6e1654524853cfd0a6b9f8d,PennController,87,0,calibrator_sp_feedback,NULL,PennController,98,_Header_,Start,1744715308026,undefined,1654,frozen,undefined,social,physical,social,A,NULL
1744715936,fcce65d3b6e1654524853cfd0a6b9f8d,PennController,87,0,calibrator_sp_feedback,NULL,PennController,98,_Header_,End,1744715308277,undefined,1654,frozen,undefined,social,physical,social,A,NULL
1744715936,fcce65d3b6e1654524853cfd0a6b9f8d,PennController,87,0,calibrator_sp_feedback,NULL,Selector,Selection,Selection,physical,1744715312094,undefined,1654,frozen,undefined,social,physical,social,A,physical;social
1744715936,fcce65d3b6e1654524853cfd0a6b9f8d,PennController,87,0,calibrator_sp_feedback,NULL,PennController,98,_Trial_,End,1744715312445,undefined,1654,frozen,undefined,social,physical,social,A,NULL
1744715936,fcce65d3b6e1654524853cfd0a6b9f8d,PennController,91,0,calibrator_sp_feedback,NULL,PennController,102,_Trial_,Start,1744715312449,undefined,1524,aloof,undefined,social,physical,social,A,NULL
1744715936,fcce65d3b6e1654524853cfd0a6b9f8d,PennController,91,0,calibrator_sp_feedback,NULL,PennController,102,_Header_,Start,1744715312449,undefined,1524,aloof,undefined,social,physical,social,A,NULL
1744715936,fcce65d3b6e1654524853cfd0a6b9f8d,PennController,91,0,calibrator_sp_feedback,NULL,PennController,102,_Header_,End,1744715312701,undefined,1524,aloof,undefined,social,physical,social,A,NULL
1744715936,fcce65d3b6e1654524853cfd0a6b9f8d,PennController,91,0,calibrator_sp_feedback,NULL,Selector,Selection,Selection,social,1744715314727,undefined,1524,aloof,undefined,social,physical,social,A,physical;social
1744715936,fcce65d3b6e1654524853cfd0a6b9f8d,PennController,91,0,calibrator_sp_feedback,NULL,PennController,102,_Trial_,End,1744715316734,undefined,1524,aloof,undefined,social,physical,social,A,NULL
1744715936,fcce65d3b6e1654524853cfd0a6b9f8d,PennController,90,0,calibrator_sp_feedback,NULL,PennController,101,_Trial_,Start,1744715316738,undefined,2117,diplomatic,undefined,social,physical,social,A,NULL
1744715936,fcce65d3b6e1654524853cfd0a6b9f8d,PennController,90,0,calibrator_sp_feedback,NULL,PennController,101,_Header_,Start,1744715316738,undefined,2117,diplomatic,undefined,social,physical,social,A,NULL
1744715936,fcce65d3b6e1654524853cfd0a6b9f8d,PennController,90,0,calibrator_sp_feedback,NULL,PennController,101,_Header_,End,1744715316995,undefined,2117,diplomatic,undefined,social,physical,social,A,NULL
1744715936,fcce65d3b6e1654524853cfd0a6b9f8d,PennController,90,0,calibrator_sp_feedback,NULL,Selector,Selection,Selection,social,1744715319614,undefined,2117,diplomatic,undefined,social,physical,social,A,physical;social
1744715936,fcce65d3b6e1654524853cfd0a6b9f8d,PennController,90,0,calibrator_sp_feedback,NULL,PennController,101,_Trial_,End,1744715321623,undefined,2117,diplomatic,undefined,social,physical,social,A,NULL
1744715936,fcce65d3b6e1654524853cfd0a6b9f8d,PennController,89,0,calibrator_sp_feedback,NULL,PennController,100,_Trial_,Start,1744715321627,undefined,919,loyal,undefined,social,physical,social,A,NULL
1744715936,fcce65d3b6e1654524853cfd0a6b9f8d,PennController,89,0,calibrator_sp_feedback,NULL,PennController,100,_Header_,Start,1744715321627,undefined,919,loyal,undefined,social,physical,social,A,NULL
1744715936,fcce65d3b6e1654524853cfd0a6b9f8d,PennController,89,0,calibrator_sp_feedback,NULL,PennController,100,_Header_,End,1744715321882,undefined,919,loyal,undefined,social,physical,social,A,NULL
1744715936,fcce65d3b6e1654524853cfd0a6b9f8d,PennController,89,0,calibrator_sp_feedback,NULL,Selector,Selection,Selection,social,1744715323306,undefined,919,loyal,undefined,social,physical,social,A,physical;social
1744715936,fcce65d3b6e1654524853cfd0a6b9f8d,PennController,89,0,calibrator_sp_feedback,NULL,PennController,100,_Trial_,End,1744715325316,undefined,919,loyal,undefined,social,physical,social,A,NULL
1744715936,fcce65d3b6e1654524853cfd0a6b9f8d,PennController,93,0,calibrator_sp_feedback,NULL,PennController,104,_Trial_,Start,1744715325320,undefined,1931,comforting,undefined,social,physical,social,A,NULL
1744715936,fcce65d3b6e1654524853cfd0a6b9f8d,PennController,93,0,calibrator_sp_feedback,NULL,PennController,104,_Header_,Start,1744715325320,undefined,1931,comforting,undefined,social,physical,social,A,NULL
1744715936,fcce65d3b6e1654524853cfd0a6b9f8d,PennController,93,0,calibrator_sp_feedback,NULL,PennController,104,_Header_,End,1744715325570,undefined,1931,comforting,undefined,social,physical,social,A,NULL
1744715936,fcce65d3b6e1654524853cfd0a6b9f8d,PennController,93,0,calibrator_sp_feedback,NULL,Selector,Selection,Selection,social,1744715328002,undefined,1931,comforting,undefined,social,physical,social,A,physical;social
1744715936,fcce65d3b6e1654524853cfd0a6b9f8d,PennController,93,0,calibrator_sp_feedback,NULL,PennController,104,_Trial_,End,1744715330010,undefined,1931,comforting,undefined,social,physical,social,A,NULL
1744715936,fcce65d3b6e1654524853cfd0a6b9f8d,PennController,88,0,calibrator_sp_feedback,NULL,PennController,99,_Trial_,Start,1744715330011,undefined,785,round,undefined,social,physical,social,A,NULL
1744715936,fcce65d3b6e1654524853cfd0a6b9f8d,PennController,88,0,calibrator_sp_feedback,NULL,PennController,99,_Header_,Start,1744715330011,undefined,785,round,undefined,social,physical,social,A,NULL
1744715936,fcce65d3b6e1654524853cfd0a6b9f8d,PennController,88,0,calibrator_sp_feedback,NULL,PennController,99,_Header_,End,1744715330266,undefined,785,round,undefined,social,physical,social,A,NULL
1744715936,fcce65d3b6e1654524853cfd0a6b9f8d,PennController,88,0,calibrator_sp_feedback,NULL,Selector,Selection,Selection,physical,1744715331556,undefined,785,round,undefined,social,physical,social,A,physical;social
1744715936,fcce65d3b6e1654524853cfd0a6b9f8d,PennController,88,0,calibrator_sp_feedback,NULL,PennController,99,_Trial_,End,1744715333564,undefined,785,round,undefined,social,physical,social,A,NULL
1744715936,fcce65d3b6e1654524853cfd0a6b9f8d,PennController,85,0,calibrator_sp_feedback,NULL,PennController,96,_Trial_,Start,1744715333565,undefined,1163,metallic,undefined,social,physical,social,A,NULL
1744715936,fcce65d3b6e1654524853cfd0a6b9f8d,PennController,85,0,calibrator_sp_feedback,NULL,PennController,96,_Header_,Start,1744715333565,undefined,1163,metallic,undefined,social,physical,social,A,NULL
1744715936,fcce65d3b6e1654524853cfd0a6b9f8d,PennController,85,0,calibrator_sp_feedback,NULL,PennController,96,_Header_,End,1744715333819,undefined,1163,metallic,undefined,social,physical,social,A,NULL
1744715936,fcce65d3b6e1654524853cfd0a6b9f8d,PennController,85,0,calibrator_sp_feedback,NULL,Selector,Selection,Selection,physical,1744715335486,undefined,1163,metallic,undefined,social,physical,social,A,physical;social
1744715936,fcce65d3b6e1654524853cfd0a6b9f8d,PennController,85,0,calibrator_sp_feedback,NULL,PennController,96,_Trial_,End,1744715337497,undefined,1163,metallic,undefined,social,physical,social,A,NULL
1744715936,fcce65d3b6e1654524853cfd0a6b9f8d,PennController,84,0,calibrator_sp_feedback,NULL,PennController,95,_Trial_,Start,1744715337501,undefined,782,triangular,undefined,social,physical,social,A,NULL
1744715936,fcce65d3b6e1654524853cfd0a6b9f8d,PennController,84,0,calibrator_sp_feedback,NULL,PennController,95,_Header_,Start,1744715337501,undefined,782,triangular,undefined,social,physical,social,A,NULL
1744715936,fcce65d3b6e1654524853cfd0a6b9f8d,PennController,84,0,calibrator_sp_feedback,NULL,PennController,95,_Header_,End,1744715337753,undefined,782,triangular,undefined,social,physical,social,A,NULL
1744715936,fcce65d3b6e1654524853cfd0a6b9f8d,PennController,84,0,calibrator_sp_feedback,NULL,Selector,Selection,Selection,physical,1744715339036,undefined,782,triangular,undefined,social,physical,social,A,physical;social
1744715936,fcce65d3b6e1654524853cfd0a6b9f8d,PennController,84,0,calibrator_sp_feedback,NULL,PennController,95,_Trial_,End,1744715341048,undefined,782,triangular,undefined,social,physical,social,A,NULL
1744715936,fcce65d3b6e1654524853cfd0a6b9f8d,PennController,86,0,calibrator_sp_feedback,NULL,PennController,97,_Trial_,Start,1744715341051,undefined,1226,wet,undefined,social,physical,social,A,NULL
1744715936,fcce65d3b6e1654524853cfd0a6b9f8d,PennController,86,0,calibrator_sp_feedback,NULL,PennController,97,_Header_,Start,1744715341051,undefined,1226,wet,undefined,social,physical,social,A,NULL
1744715936,fcce65d3b6e1654524853cfd0a6b9f8d,PennController,86,0,calibrator_sp_feedback,NULL,PennController,97,_Header_,End,1744715341301,undefined,1226,wet,undefined,social,physical,social,A,NULL
1744715936,fcce65d3b6e1654524853cfd0a6b9f8d,PennController,86,0,calibrator_sp_feedback,NULL,Selector,Selection,Selection,physical,1744715343030,undefined,1226,wet,undefined,social,physical,social,A,physical;social
1744715936,fcce65d3b6e1654524853cfd0a6b9f8d,PennController,86,0,calibrator_sp_feedback,NULL,PennController,97,_Trial_,End,1744715345039,undefined,1226,wet,undefined,social,physical,social,A,NULL
# 16. Key_value_F.
# 17. Key_value_J.
# 18. Group.
# 19. Comments.
1744715936,fcce65d3b6e1654524853cfd0a6b9f8d,PennController,102,0,calibrator_sp_no_feedback,NULL,PennController,113,_Trial_,Start,1744715345042,undefined,799,overrated,physical,social,A,NULL
1744715936,fcce65d3b6e1654524853cfd0a6b9f8d,PennController,102,0,calibrator_sp_no_feedback,NULL,PennController,113,_Header_,Start,1744715345042,undefined,799,overrated,physical,social,A,NULL
1744715936,fcce65d3b6e1654524853cfd0a6b9f8d,PennController,102,0,calibrator_sp_no_feedback,NULL,PennController,113,_Header_,End,1744715345297,undefined,799,overrated,physical,social,A,NULL
1744715936,fcce65d3b6e1654524853cfd0a6b9f8d,PennController,102,0,calibrator_sp_no_feedback,NULL,Selector,unnamed-Selector,Selection,social,1744715346600,undefined,799,overrated,physical,social,A,physical;social
1744715936,fcce65d3b6e1654524853cfd0a6b9f8d,PennController,102,0,calibrator_sp_no_feedback,NULL,PennController,113,_Trial_,End,1744715346604,undefined,799,overrated,physical,social,A,NULL
1744715936,fcce65d3b6e1654524853cfd0a6b9f8d,PennController,97,0,calibrator_sp_no_feedback,NULL,PennController,108,_Trial_,Start,1744715346607,undefined,1487,frozen,physical,social,A,NULL
1744715936,fcce65d3b6e1654524853cfd0a6b9f8d,PennController,97,0,calibrator_sp_no_feedback,NULL,PennController,108,_Header_,Start,1744715346607,undefined,1487,frozen,physical,social,A,NULL
1744715936,fcce65d3b6e1654524853cfd0a6b9f8d,PennController,97,0,calibrator_sp_no_feedback,NULL,PennController,108,_Header_,End,1744715346861,undefined,1487,frozen,physical,social,A,NULL
1744715936,fcce65d3b6e1654524853cfd0a6b9f8d,PennController,97,0,calibrator_sp_no_feedback,NULL,Selector,unnamed-Selector,Selection,physical,1744715348851,undefined,1487,frozen,physical,social,A,physical;social
1744715936,fcce65d3b6e1654524853cfd0a6b9f8d,PennController,97,0,calibrator_sp_no_feedback,NULL,PennController,108,_Trial_,End,1744715348853,undefined,1487,frozen,physical,social,A,NULL
1744715936,fcce65d3b6e1654524853cfd0a6b9f8d,PennController,101,0,calibrator_sp_no_feedback,NULL,PennController,112,_Trial_,Start,1744715348854,undefined,738,aloof,physical,social,A,NULL
1744715936,fcce65d3b6e1654524853cfd0a6b9f8d,PennController,101,0,calibrator_sp_no_feedback,NULL,PennController,112,_Header_,Start,1744715348854,undefined,738,aloof,physical,social,A,NULL
1744715936,fcce65d3b6e1654524853cfd0a6b9f8d,PennController,101,0,calibrator_sp_no_feedback,NULL,PennController,112,_Header_,End,1744715349106,undefined,738,aloof,physical,social,A,NULL
1744715936,fcce65d3b6e1654524853cfd0a6b9f8d,PennController,101,0,calibrator_sp_no_feedback,NULL,Selector,unnamed-Selector,Selection,social,1744715350347,undefined,738,aloof,physical,social,A,physical;social
1744715936,fcce65d3b6e1654524853cfd0a6b9f8d,PennController,101,0,calibrator_sp_no_feedback,NULL,PennController,112,_Trial_,End,1744715350349,undefined,738,aloof,physical,social,A,NULL
1744715936,fcce65d3b6e1654524853cfd0a6b9f8d,PennController,103,0,calibrator_sp_no_feedback,NULL,PennController,114,_Trial_,Start,1744715350350,undefined,1065,comforting,physical,social,A,NULL
1744715936,fcce65d3b6e1654524853cfd0a6b9f8d,PennController,103,0,calibrator_sp_no_feedback,NULL,PennController,114,_Header_,Start,1744715350350,undefined,1065,comforting,physical,social,A,NULL
1744715936,fcce65d3b6e1654524853cfd0a6b9f8d,PennController,103,0,calibrator_sp_no_feedback,NULL,PennController,114,_Header_,End,1744715350604,undefined,1065,comforting,physical,social,A,NULL
1744715936,fcce65d3b6e1654524853cfd0a6b9f8d,PennController,103,0,calibrator_sp_no_feedback,NULL,Selector,unnamed-Selector,Selection,social,1744715352175,undefined,1065,comforting,physical,social,A,physical;social
1744715936,fcce65d3b6e1654524853cfd0a6b9f8d,PennController,103,0,calibrator_sp_no_feedback,NULL,PennController,114,_Trial_,End,1744715352179,undefined,1065,comforting,physical,social,A,NULL
1744715936,fcce65d3b6e1654524853cfd0a6b9f8d,PennController,98,0,calibrator_sp_no_feedback,NULL,PennController,109,_Trial_,Start,1744715352182,undefined,629,round,physical,social,A,NULL
1744715936,fcce65d3b6e1654524853cfd0a6b9f8d,PennController,98,0,calibrator_sp_no_feedback,NULL,PennController,109,_Header_,Start,1744715352182,undefined,629,round,physical,social,A,NULL
1744715936,fcce65d3b6e1654524853cfd0a6b9f8d,PennController,98,0,calibrator_sp_no_feedback,NULL,PennController,109,_Header_,End,1744715352436,undefined,629,round,physical,social,A,NULL
1744715936,fcce65d3b6e1654524853cfd0a6b9f8d,PennController,98,0,calibrator_sp_no_feedback,NULL,Selector,unnamed-Selector,Selection,physical,1744715353570,undefined,629,round,physical,social,A,physical;social
1744715936,fcce65d3b6e1654524853cfd0a6b9f8d,PennController,98,0,calibrator_sp_no_feedback,NULL,PennController,109,_Trial_,End,1744715353574,undefined,629,round,physical,social,A,NULL
1744715936,fcce65d3b6e1654524853cfd0a6b9f8d,PennController,95,0,calibrator_sp_no_feedback,NULL,PennController,106,_Trial_,Start,1744715353577,undefined,766,metallic,physical,social,A,NULL
1744715936,fcce65d3b6e1654524853cfd0a6b9f8d,PennController,95,0,calibrator_sp_no_feedback,NULL,PennController,106,_Header_,Start,1744715353577,undefined,766,metallic,physical,social,A,NULL
1744715936,fcce65d3b6e1654524853cfd0a6b9f8d,PennController,95,0,calibrator_sp_no_feedback,NULL,PennController,106,_Header_,End,1744715353829,undefined,766,metallic,physical,social,A,NULL
1744715936,fcce65d3b6e1654524853cfd0a6b9f8d,PennController,95,0,calibrator_sp_no_feedback,NULL,Selector,unnamed-Selector,Selection,physical,1744715355098,undefined,766,metallic,physical,social,A,physical;social
1744715936,fcce65d3b6e1654524853cfd0a6b9f8d,PennController,95,0,calibrator_sp_no_feedback,NULL,PennController,106,_Trial_,End,1744715355103,undefined,766,metallic,physical,social,A,NULL
1744715936,fcce65d3b6e1654524853cfd0a6b9f8d,PennController,96,0,calibrator_sp_no_feedback,NULL,PennController,107,_Trial_,Start,1744715355108,undefined,1363,wet,physical,social,A,NULL
1744715936,fcce65d3b6e1654524853cfd0a6b9f8d,PennController,96,0,calibrator_sp_no_feedback,NULL,PennController,107,_Header_,Start,1744715355108,undefined,1363,wet,physical,social,A,NULL
1744715936,fcce65d3b6e1654524853cfd0a6b9f8d,PennController,96,0,calibrator_sp_no_feedback,NULL,PennController,107,_Header_,End,1744715355360,undefined,1363,wet,physical,social,A,NULL
1744715936,fcce65d3b6e1654524853cfd0a6b9f8d,PennController,96,0,calibrator_sp_no_feedback,NULL,Selector,unnamed-Selector,Selection,physical,1744715357228,undefined,1363,wet,physical,social,A,physical;social
1744715936,fcce65d3b6e1654524853cfd0a6b9f8d,PennController,96,0,calibrator_sp_no_feedback,NULL,PennController,107,_Trial_,End,1744715357231,undefined,1363,wet,physical,social,A,NULL
1744715936,fcce65d3b6e1654524853cfd0a6b9f8d,PennController,99,0,calibrator_sp_no_feedback,NULL,PennController,110,_Trial_,Start,1744715357236,undefined,984,loyal,physical,social,A,NULL
1744715936,fcce65d3b6e1654524853cfd0a6b9f8d,PennController,99,0,calibrator_sp_no_feedback,NULL,PennController,110,_Header_,Start,1744715357236,undefined,984,loyal,physical,social,A,NULL
1744715936,fcce65d3b6e1654524853cfd0a6b9f8d,PennController,99,0,calibrator_sp_no_feedback,NULL,PennController,110,_Header_,End,1744715357486,undefined,984,loyal,physical,social,A,NULL
1744715936,fcce65d3b6e1654524853cfd0a6b9f8d,PennController,99,0,calibrator_sp_no_feedback,NULL,Selector,unnamed-Selector,Selection,social,1744715358973,undefined,984,loyal,physical,social,A,physical;social
1744715936,fcce65d3b6e1654524853cfd0a6b9f8d,PennController,99,0,calibrator_sp_no_feedback,NULL,PennController,110,_Trial_,End,1744715358978,undefined,984,loyal,physical,social,A,NULL
1744715936,fcce65d3b6e1654524853cfd0a6b9f8d,PennController,94,0,calibrator_sp_no_feedback,NULL,PennController,105,_Trial_,Start,1744715358981,undefined,650,triangular,physical,social,A,NULL
1744715936,fcce65d3b6e1654524853cfd0a6b9f8d,PennController,94,0,calibrator_sp_no_feedback,NULL,PennController,105,_Header_,Start,1744715358981,undefined,650,triangular,physical,social,A,NULL
1744715936,fcce65d3b6e1654524853cfd0a6b9f8d,PennController,94,0,calibrator_sp_no_feedback,NULL,PennController,105,_Header_,End,1744715359231,undefined,650,triangular,physical,social,A,NULL
1744715936,fcce65d3b6e1654524853cfd0a6b9f8d,PennController,94,0,calibrator_sp_no_feedback,NULL,Selector,unnamed-Selector,Selection,physical,1744715360384,undefined,650,triangular,physical,social,A,physical;social
1744715936,fcce65d3b6e1654524853cfd0a6b9f8d,PennController,94,0,calibrator_sp_no_feedback,NULL,PennController,105,_Trial_,End,1744715360386,undefined,650,triangular,physical,social,A,NULL
1744715936,fcce65d3b6e1654524853cfd0a6b9f8d,PennController,100,0,calibrator_sp_no_feedback,NULL,PennController,111,_Trial_,Start,1744715360387,undefined,669,diplomatic,physical,social,A,NULL
1744715936,fcce65d3b6e1654524853cfd0a6b9f8d,PennController,100,0,calibrator_sp_no_feedback,NULL,PennController,111,_Header_,Start,1744715360387,undefined,669,diplomatic,physical,social,A,NULL
1744715936,fcce65d3b6e1654524853cfd0a6b9f8d,PennController,100,0,calibrator_sp_no_feedback,NULL,PennController,111,_Header_,End,1744715360639,undefined,669,diplomatic,physical,social,A,NULL
1744715936,fcce65d3b6e1654524853cfd0a6b9f8d,PennController,100,0,calibrator_sp_no_feedback,NULL,Selector,unnamed-Selector,Selection,social,1744715361810,undefined,669,diplomatic,physical,social,A,physical;social
1744715936,fcce65d3b6e1654524853cfd0a6b9f8d,PennController,100,0,calibrator_sp_no_feedback,NULL,PennController,111,_Trial_,End,1744715361814,undefined,669,diplomatic,physical,social,A,NULL
# 13. Comments.
1744715936,fcce65d3b6e1654524853cfd0a6b9f8d,PennController,136,0,endinstructions_sp,NULL,PennController,14,_Trial_,Start,1744715361818,NULL
1744715936,fcce65d3b6e1654524853cfd0a6b9f8d,PennController,136,0,endinstructions_sp,NULL,PennController,14,_Header_,Start,1744715361818,NULL
1744715936,fcce65d3b6e1654524853cfd0a6b9f8d,PennController,136,0,endinstructions_sp,NULL,PennController,14,_Header_,End,1744715362070,NULL
1744715936,fcce65d3b6e1654524853cfd0a6b9f8d,PennController,136,0,endinstructions_sp,NULL,PennController,14,_Trial_,End,1744715368951,NULL
# 13. ID.
# 14. ReactionTime.
# 15. Word.
# 16. ConcValCombo.
# 17. Key_value_F.
# 18. Key_value_J.
# 19. Group.
# 20. Comments.
1744715936,fcce65d3b6e1654524853cfd0a6b9f8d,PennController,27,0,test_sp,NULL,PennController,38,_Trial_,Start,1744715368953,undefined,699,ugly,physical-negative,physical,social,A,NULL
1744715936,fcce65d3b6e1654524853cfd0a6b9f8d,PennController,27,0,test_sp,NULL,PennController,38,_Header_,Start,1744715368953,undefined,699,ugly,physical-negative,physical,social,A,NULL
1744715936,fcce65d3b6e1654524853cfd0a6b9f8d,PennController,27,0,test_sp,NULL,PennController,38,_Header_,End,1744715369207,undefined,699,ugly,physical-negative,physical,social,A,NULL
1744715936,fcce65d3b6e1654524853cfd0a6b9f8d,PennController,27,0,test_sp,NULL,Selector,unnamed-Selector,Selection,physical,1744715370410,undefined,699,ugly,physical-negative,physical,social,A,physical;social
1744715936,fcce65d3b6e1654524853cfd0a6b9f8d,PennController,27,0,test_sp,NULL,PennController,38,_Trial_,End,1744715370412,undefined,699,ugly,physical-negative,physical,social,A,NULL
1744715936,fcce65d3b6e1654524853cfd0a6b9f8d,PennController,37,0,test_sp,NULL,PennController,48,_Trial_,Start,1744715370413,undefined,967,cruel,social-negative,physical,social,A,NULL
1744715936,fcce65d3b6e1654524853cfd0a6b9f8d,PennController,37,0,test_sp,NULL,PennController,48,_Header_,Start,1744715370413,undefined,967,cruel,social-negative,physical,social,A,NULL
1744715936,fcce65d3b6e1654524853cfd0a6b9f8d,PennController,37,0,test_sp,NULL,PennController,48,_Header_,End,1744715370667,undefined,967,cruel,social-negative,physical,social,A,NULL
1744715936,fcce65d3b6e1654524853cfd0a6b9f8d,PennController,37,0,test_sp,NULL,Selector,unnamed-Selector,Selection,physical,1744715372139,undefined,967,cruel,social-negative,physical,social,A,physical;social
1744715936,fcce65d3b6e1654524853cfd0a6b9f8d,PennController,37,0,test_sp,NULL,PennController,48,_Trial_,End,1744715372143,undefined,967,cruel,social-negative,physical,social,A,NULL
1744715936,fcce65d3b6e1654524853cfd0a6b9f8d,PennController,19,0,test_sp,NULL,PennController,30,_Trial_,Start,1744715372147,undefined,1596,harmonious,social-positive,physical,social,A,NULL
1744715936,fcce65d3b6e1654524853cfd0a6b9f8d,PennController,19,0,test_sp,NULL,PennController,30,_Header_,Start,1744715372147,undefined,1596,harmonious,social-positive,physical,social,A,NULL
1744715936,fcce65d3b6e1654524853cfd0a6b9f8d,PennController,19,0,test_sp,NULL,PennController,30,_Header_,End,1744715372397,undefined,1596,harmonious,social-positive,physical,social,A,NULL
1744715936,fcce65d3b6e1654524853cfd0a6b9f8d,PennController,19,0,test_sp,NULL,Selector,unnamed-Selector,Selection,social,1744715374501,undefined,1596,harmonious,social-positive,physical,social,A,physical;social
1744715936,fcce65d3b6e1654524853cfd0a6b9f8d,PennController,19,0,test_sp,NULL,PennController,30,_Trial_,End,1744715374504,undefined,1596,harmonious,social-positive,physical,social,A,NULL
1744715936,fcce65d3b6e1654524853cfd0a6b9f8d,PennController,13,0,test_sp,NULL,PennController,24,_Trial_,Start,1744715374507,undefined,972,sturdy,physical-positive,physical,social,A,NULL
1744715936,fcce65d3b6e1654524853cfd0a6b9f8d,PennController,13,0,test_sp,NULL,PennController,24,_Header_,Start,1744715374507,undefined,972,sturdy,physical-positive,physical,social,A,NULL
1744715936,fcce65d3b6e1654524853cfd0a6b9f8d,PennController,13,0,test_sp,NULL,PennController,24,_Header_,End,1744715374761,undefined,972,sturdy,physical-positive,physical,social,A,NULL
1744715936,fcce65d3b6e1654524853cfd0a6b9f8d,PennController,13,0,test_sp,NULL,Selector,unnamed-Selector,Selection,physical,1744715376238,undefined,972,sturdy,physical-positive,physical,social,A,physical;social
1744715936,fcce65d3b6e1654524853cfd0a6b9f8d,PennController,13,0,test_sp,NULL,PennController,24,_Trial_,End,1744715376242,undefined,972,sturdy,physical-positive,physical,social,A,NULL
1744715936,fcce65d3b6e1654524853cfd0a6b9f8d,PennController,42,0,test_sp,NULL,PennController,53,_Trial_,Start,1744715376245,undefined,873,judgmental,social-negative,physical,social,A,NULL
1744715936,fcce65d3b6e1654524853cfd0a6b9f8d,PennController,42,0,test_sp,NULL,PennController,53,_Header_,Start,1744715376245,undefined,873,judgmental,social-negative,physical,social,A,NULL
1744715936,fcce65d3b6e1654524853cfd0a6b9f8d,PennController,42,0,test_sp,NULL,PennController,53,_Header_,End,1744715376499,undefined,873,judgmental,social-negative,physical,social,A,NULL
1744715936,fcce65d3b6e1654524853cfd0a6b9f8d,PennController,42,0,test_sp,NULL,Selector,unnamed-Selector,Selection,social,1744715377874,undefined,873,judgmental,social-negative,physical,social,A,physical;social
1744715936,fcce65d3b6e1654524853cfd0a6b9f8d,PennController,42,0,test_sp,NULL,PennController,53,_Trial_,End,1744715377878,undefined,873,judgmental,social-negative,physical,social,A,NULL
1744715936,fcce65d3b6e1654524853cfd0a6b9f8d,PennController,20,0,test_sp,NULL,PennController,31,_Trial_,Start,1744715377881,undefined,945,corrupt,social-negative,physical,social,A,NULL
1744715936,fcce65d3b6e1654524853cfd0a6b9f8d,PennController,20,0,test_sp,NULL,PennController,31,_Header_,Start,1744715377881,undefined,945,corrupt,social-negative,physical,social,A,NULL
1744715936,fcce65d3b6e1654524853cfd0a6b9f8d,PennController,20,0,test_sp,NULL,PennController,31,_Header_,End,1744715378135,undefined,945,corrupt,social-negative,physical,social,A,NULL
1744715936,fcce65d3b6e1654524853cfd0a6b9f8d,PennController,20,0,test_sp,NULL,Selector,unnamed-Selector,Selection,social,1744715379583,undefined,945,corrupt,social-negative,physical,social,A,physical;social
1744715936,fcce65d3b6e1654524853cfd0a6b9f8d,PennController,20,0,test_sp,NULL,PennController,31,_Trial_,End,1744715379587,undefined,945,corrupt,social-negative,physical,social,A,NULL
1744715936,fcce65d3b6e1654524853cfd0a6b9f8d,PennController,43,0,test_sp,NULL,PennController,54,_Trial_,Start,1744715379591,undefined,753,sympathetic,social-positive,physical,social,A,NULL
1744715936,fcce65d3b6e1654524853cfd0a6b9f8d,PennController,43,0,test_sp,NULL,PennController,54,_Header_,Start,1744715379591,undefined,753,sympathetic,social-positive,physical,social,A,NULL
1744715936,fcce65d3b6e1654524853cfd0a6b9f8d,PennController,43,0,test_sp,NULL,PennController,54,_Header_,End,1744715379841,undefined,753,sympathetic,social-positive,physical,social,A,NULL
1744715936,fcce65d3b6e1654524853cfd0a6b9f8d,PennController,43,0,test_sp,NULL,Selector,unnamed-Selector,Selection,social,1744715381098,undefined,753,sympathetic,social-positive,physical,social,A,physical;social
1744715936,fcce65d3b6e1654524853cfd0a6b9f8d,PennController,43,0,test_sp,NULL,PennController,54,_Trial_,End,1744715381100,undefined,753,sympathetic,social-positive,physical,social,A,NULL
1744715936,fcce65d3b6e1654524853cfd0a6b9f8d,PennController,8,0,test_sp,NULL,PennController,19,_Trial_,Start,1744715381101,undefined,824,fragrant,physical-positive,physical,social,A,NULL
1744715936,fcce65d3b6e1654524853cfd0a6b9f8d,PennController,8,0,test_sp,NULL,PennController,19,_Header_,Start,1744715381101,undefined,824,fragrant,physical-positive,physical,social,A,NULL
1744715936,fcce65d3b6e1654524853cfd0a6b9f8d,PennController,8,0,test_sp,NULL,PennController,19,_Header_,End,1744715381355,undefined,824,fragrant,physical-positive,physical,social,A,NULL
1744715936,fcce65d3b6e1654524853cfd0a6b9f8d,PennController,8,0,test_sp,NULL,Selector,unnamed-Selector,Selection,social,1744715382686,undefined,824,fragrant,physical-positive,physical,social,A,physical;social
1744715936,fcce65d3b6e1654524853cfd0a6b9f8d,PennController,8,0,test_sp,NULL,PennController,19,_Trial_,End,1744715382690,undefined,824,fragrant,physical-positive,physical,social,A,NULL
1744715936,fcce65d3b6e1654524853cfd0a6b9f8d,PennController,24,0,test_sp,NULL,PennController,35,_Trial_,Start,1744715382693,undefined,1064,wrinkled,physical-negative,physical,social,A,NULL
1744715936,fcce65d3b6e1654524853cfd0a6b9f8d,PennController,24,0,test_sp,NULL,PennController,35,_Header_,Start,1744715382693,undefined,1064,wrinkled,physical-negative,physical,social,A,NULL
1744715936,fcce65d3b6e1654524853cfd0a6b9f8d,PennController,24,0,test_sp,NULL,PennController,35,_Header_,End,1744715382946,undefined,1064,wrinkled,physical-negative,physical,social,A,NULL
1744715936,fcce65d3b6e1654524853cfd0a6b9f8d,PennController,24,0,test_sp,NULL,Selector,unnamed-Selector,Selection,physical,1744715384513,undefined,1064,wrinkled,physical-negative,physical,social,A,physical;social
1744715936,fcce65d3b6e1654524853cfd0a6b9f8d,PennController,24,0,test_sp,NULL,PennController,35,_Trial_,End,1744715384515,undefined,1064,wrinkled,physical-negative,physical,social,A,NULL
1744715936,fcce65d3b6e1654524853cfd0a6b9f8d,PennController,14,0,test_sp,NULL,PennController,25,_Trial_,Start,1744715384517,undefined,1714,lush,physical-positive,physical,social,A,NULL
1744715936,fcce65d3b6e1654524853cfd0a6b9f8d,PennController,14,0,test_sp,NULL,PennController,25,_Header_,Start,1744715384517,undefined,1714,lush,physical-positive,physical,social,A,NULL
1744715936,fcce65d3b6e1654524853cfd0a6b9f8d,PennController,14,0,test_sp,NULL,PennController,25,_Header_,End,1744715384768,undefined,1714,lush,physical-positive,physical,social,A,NULL
1744715936,fcce65d3b6e1654524853cfd0a6b9f8d,PennController,14,0,test_sp,NULL,Selector,unnamed-Selector,Selection,physical,1744715386984,undefined,1714,lush,physical-positive,physical,social,A,physical;social
1744715936,fcce65d3b6e1654524853cfd0a6b9f8d,PennController,14,0,test_sp,NULL,PennController,25,_Trial_,End,1744715386988,undefined,1714,lush,physical-positive,physical,social,A,NULL
1744715936,fcce65d3b6e1654524853cfd0a6b9f8d,PennController,22,0,test_sp,NULL,PennController,33,_Trial_,Start,1744715386992,undefined,908,oppressive,social-negative,physical,social,A,NULL
1744715936,fcce65d3b6e1654524853cfd0a6b9f8d,PennController,22,0,test_sp,NULL,PennController,33,_Header_,Start,1744715386992,undefined,908,oppressive,social-negative,physical,social,A,NULL
1744715936,fcce65d3b6e1654524853cfd0a6b9f8d,PennController,22,0,test_sp,NULL,PennController,33,_Header_,End,1744715387246,undefined,908,oppressive,social-negative,physical,social,A,NULL
1744715936,fcce65d3b6e1654524853cfd0a6b9f8d,PennController,22,0,test_sp,NULL,Selector,unnamed-Selector,Selection,social,1744715388660,undefined,908,oppressive,social-negative,physical,social,A,physical;social
1744715936,fcce65d3b6e1654524853cfd0a6b9f8d,PennController,22,0,test_sp,NULL,PennController,33,_Trial_,End,1744715388661,undefined,908,oppressive,social-negative,physical,social,A,NULL
1744715936,fcce65d3b6e1654524853cfd0a6b9f8d,PennController,5,0,test_sp,NULL,PennController,16,_Trial_,Start,1744715388663,undefined,954,soft,physical-positive,physical,social,A,NULL
1744715936,fcce65d3b6e1654524853cfd0a6b9f8d,PennController,5,0,test_sp,NULL,PennController,16,_Header_,Start,1744715388663,undefined,954,soft,physical-positive,physical,social,A,NULL
1744715936,fcce65d3b6e1654524853cfd0a6b9f8d,PennController,5,0,test_sp,NULL,PennController,16,_Header_,End,1744715388913,undefined,954,soft,physical-positive,physical,social,A,NULL
1744715936,fcce65d3b6e1654524853cfd0a6b9f8d,PennController,5,0,test_sp,NULL,Selector,unnamed-Selector,Selection,physical,1744715390371,undefined,954,soft,physical-positive,physical,social,A,physical;social
1744715936,fcce65d3b6e1654524853cfd0a6b9f8d,PennController,5,0,test_sp,NULL,PennController,16,_Trial_,End,1744715390373,undefined,954,soft,physical-positive,physical,social,A,NULL
1744715936,fcce65d3b6e1654524853cfd0a6b9f8d,PennController,4,0,test_sp,NULL,PennController,15,_Trial_,Start,1744715390375,undefined,980,moldy,physical-negative,physical,social,A,NULL
1744715936,fcce65d3b6e1654524853cfd0a6b9f8d,PennController,4,0,test_sp,NULL,PennController,15,_Header_,Start,1744715390375,undefined,980,moldy,physical-negative,physical,social,A,NULL
1744715936,fcce65d3b6e1654524853cfd0a6b9f8d,PennController,4,0,test_sp,NULL,PennController,15,_Header_,End,1744715390628,undefined,980,moldy,physical-negative,physical,social,A,NULL
1744715936,fcce65d3b6e1654524853cfd0a6b9f8d,PennController,4,0,test_sp,NULL,Selector,unnamed-Selector,Selection,physical,1744715392112,undefined,980,moldy,physical-negative,physical,social,A,physical;social
1744715936,fcce65d3b6e1654524853cfd0a6b9f8d,PennController,4,0,test_sp,NULL,PennController,15,_Trial_,End,1744715392114,undefined,980,moldy,physical-negative,physical,social,A,NULL
1744715936,fcce65d3b6e1654524853cfd0a6b9f8d,PennController,30,0,test_sp,NULL,PennController,41,_Trial_,Start,1744715392115,undefined,726,hostile,social-negative,physical,social,A,NULL
1744715936,fcce65d3b6e1654524853cfd0a6b9f8d,PennController,30,0,test_sp,NULL,PennController,41,_Header_,Start,1744715392115,undefined,726,hostile,social-negative,physical,social,A,NULL
1744715936,fcce65d3b6e1654524853cfd0a6b9f8d,PennController,30,0,test_sp,NULL,PennController,41,_Header_,End,1744715392365,undefined,726,hostile,social-negative,physical,social,A,NULL
1744715936,fcce65d3b6e1654524853cfd0a6b9f8d,PennController,30,0,test_sp,NULL,Selector,unnamed-Selector,Selection,social,1744715393596,undefined,726,hostile,social-negative,physical,social,A,physical;social
1744715936,fcce65d3b6e1654524853cfd0a6b9f8d,PennController,30,0,test_sp,NULL,PennController,41,_Trial_,End,1744715393599,undefined,726,hostile,social-negative,physical,social,A,NULL
1744715936,fcce65d3b6e1654524853cfd0a6b9f8d,PennController,16,0,test_sp,NULL,PennController,27,_Trial_,Start,1744715393604,undefined,1050,radiant,physical-positive,physical,social,A,NULL
1744715936,fcce65d3b6e1654524853cfd0a6b9f8d,PennController,16,0,test_sp,NULL,PennController,27,_Header_,Start,1744715393604,undefined,1050,radiant,physical-positive,physical,social,A,NULL
1744715936,fcce65d3b6e1654524853cfd0a6b9f8d,PennController,16,0,test_sp,NULL,PennController,27,_Header_,End,1744715393860,undefined,1050,radiant,physical-positive,physical,social,A,NULL
1744715936,fcce65d3b6e1654524853cfd0a6b9f8d,PennController,16,0,test_sp,NULL,Selector,unnamed-Selector,Selection,social,1744715395413,undefined,1050,radiant,physical-positive,physical,social,A,physical;social
1744715936,fcce65d3b6e1654524853cfd0a6b9f8d,PennController,16,0,test_sp,NULL,PennController,27,_Trial_,End,1744715395416,undefined,1050,radiant,physical-positive,physical,social,A,NULL
1744715936,fcce65d3b6e1654524853cfd0a6b9f8d,PennController,34,0,test_sp,NULL,PennController,45,_Trial_,Start,1744715395419,undefined,840,generous,social-positive,physical,social,A,NULL
1744715936,fcce65d3b6e1654524853cfd0a6b9f8d,PennController,34,0,test_sp,NULL,PennController,45,_Header_,Start,1744715395419,undefined,840,generous,social-positive,physical,social,A,NULL
1744715936,fcce65d3b6e1654524853cfd0a6b9f8d,PennController,34,0,test_sp,NULL,PennController,45,_Header_,End,1744715395671,undefined,840,generous,social-positive,physical,social,A,NULL
1744715936,fcce65d3b6e1654524853cfd0a6b9f8d,PennController,34,0,test_sp,NULL,Selector,unnamed-Selector,Selection,social,1744715397017,undefined,840,generous,social-positive,physical,social,A,physical;social
1744715936,fcce65d3b6e1654524853cfd0a6b9f8d,PennController,34,0,test_sp,NULL,PennController,45,_Trial_,End,1744715397020,undefined,840,generous,social-positive,physical,social,A,NULL
1744715936,fcce65d3b6e1654524853cfd0a6b9f8d,PennController,21,0,test_sp,NULL,PennController,32,_Trial_,Start,1744715397023,undefined,860,compassionate,social-positive,physical,social,A,NULL
1744715936,fcce65d3b6e1654524853cfd0a6b9f8d,PennController,21,0,test_sp,NULL,PennController,32,_Header_,Start,1744715397023,undefined,860,compassionate,social-positive,physical,social,A,NULL
1744715936,fcce65d3b6e1654524853cfd0a6b9f8d,PennController,21,0,test_sp,NULL,PennController,32,_Header_,End,1744715397274,undefined,860,compassionate,social-positive,physical,social,A,NULL
1744715936,fcce65d3b6e1654524853cfd0a6b9f8d,PennController,21,0,test_sp,NULL,Selector,unnamed-Selector,Selection,social,1744715398639,undefined,860,compassionate,social-positive,physical,social,A,physical;social
1744715936,fcce65d3b6e1654524853cfd0a6b9f8d,PennController,21,0,test_sp,NULL,PennController,32,_Trial_,End,1744715398643,undefined,860,compassionate,social-positive,physical,social,A,NULL
1744715936,fcce65d3b6e1654524853cfd0a6b9f8d,PennController,35,0,test_sp,NULL,PennController,46,_Trial_,Start,1744715398646,undefined,867,gorgeous,physical-positive,physical,social,A,NULL
1744715936,fcce65d3b6e1654524853cfd0a6b9f8d,PennController,35,0,test_sp,NULL,PennController,46,_Header_,Start,1744715398646,undefined,867,gorgeous,physical-positive,physical,social,A,NULL
1744715936,fcce65d3b6e1654524853cfd0a6b9f8d,PennController,35,0,test_sp,NULL,PennController,46,_Header_,End,1744715398898,undefined,867,gorgeous,physical-positive,physical,social,A,NULL
1744715936,fcce65d3b6e1654524853cfd0a6b9f8d,PennController,35,0,test_sp,NULL,Selector,unnamed-Selector,Selection,social,1744715400269,undefined,867,gorgeous,physical-positive,physical,social,A,physical;social
1744715936,fcce65d3b6e1654524853cfd0a6b9f8d,PennController,35,0,test_sp,NULL,PennController,46,_Trial_,End,1744715400272,undefined,867,gorgeous,physical-positive,physical,social,A,NULL
1744715936,fcce65d3b6e1654524853cfd0a6b9f8d,PennController,39,0,test_sp,NULL,PennController,50,_Trial_,Start,1744715400273,undefined,790,untrustworthy,social-negative,physical,social,A,NULL
1744715936,fcce65d3b6e1654524853cfd0a6b9f8d,PennController,39,0,test_sp,NULL,PennController,50,_Header_,Start,1744715400273,undefined,790,untrustworthy,social-negative,physical,social,A,NULL
1744715936,fcce65d3b6e1654524853cfd0a6b9f8d,PennController,39,0,test_sp,NULL,PennController,50,_Header_,End,1744715400523,undefined,790,untrustworthy,social-negative,physical,social,A,NULL
1744715936,fcce65d3b6e1654524853cfd0a6b9f8d,PennController,39,0,test_sp,NULL,Selector,unnamed-Selector,Selection,social,1744715401818,undefined,790,untrustworthy,social-negative,physical,social,A,physical;social
1744715936,fcce65d3b6e1654524853cfd0a6b9f8d,PennController,39,0,test_sp,NULL,PennController,50,_Trial_,End,1744715401822,undefined,790,untrustworthy,social-negative,physical,social,A,NULL
1744715936,fcce65d3b6e1654524853cfd0a6b9f8d,PennController,28,0,test_sp,NULL,PennController,39,_Trial_,Start,1744715401825,undefined,1354,scrawny,physical-negative,physical,social,A,NULL
1744715936,fcce65d3b6e1654524853cfd0a6b9f8d,PennController,28,0,test_sp,NULL,PennController,39,_Header_,Start,1744715401825,undefined,1354,scrawny,physical-negative,physical,social,A,NULL
1744715936,fcce65d3b6e1654524853cfd0a6b9f8d,PennController,28,0,test_sp,NULL,PennController,39,_Header_,End,1744715402077,undefined,1354,scrawny,physical-negative,physical,social,A,NULL
1744715936,fcce65d3b6e1654524853cfd0a6b9f8d,PennController,28,0,test_sp,NULL,Selector,unnamed-Selector,Selection,physical,1744715403934,undefined,1354,scrawny,physical-negative,physical,social,A,physical;social
1744715936,fcce65d3b6e1654524853cfd0a6b9f8d,PennController,28,0,test_sp,NULL,PennController,39,_Trial_,End,1744715403938,undefined,1354,scrawny,physical-negative,physical,social,A,NULL
1744715936,fcce65d3b6e1654524853cfd0a6b9f8d,PennController,33,0,test_sp,NULL,PennController,44,_Trial_,Start,1744715403941,undefined,1009,elegant,physical-positive,physical,social,A,NULL
1744715936,fcce65d3b6e1654524853cfd0a6b9f8d,PennController,33,0,test_sp,NULL,PennController,44,_Header_,Start,1744715403941,undefined,1009,elegant,physical-positive,physical,social,A,NULL
1744715936,fcce65d3b6e1654524853cfd0a6b9f8d,PennController,33,0,test_sp,NULL,PennController,44,_Header_,End,1744715404193,undefined,1009,elegant,physical-positive,physical,social,A,NULL
1744715936,fcce65d3b6e1654524853cfd0a6b9f8d,PennController,33,0,test_sp,NULL,Selector,unnamed-Selector,Selection,social,1744715405704,undefined,1009,elegant,physical-positive,physical,social,A,physical;social
1744715936,fcce65d3b6e1654524853cfd0a6b9f8d,PennController,33,0,test_sp,NULL,PennController,44,_Trial_,End,1744715405707,undefined,1009,elegant,physical-positive,physical,social,A,NULL
1744715936,fcce65d3b6e1654524853cfd0a6b9f8d,PennController,40,0,test_sp,NULL,PennController,51,_Trial_,Start,1744715405711,undefined,974,selfish,social-negative,physical,social,A,NULL
1744715936,fcce65d3b6e1654524853cfd0a6b9f8d,PennController,40,0,test_sp,NULL,PennController,51,_Header_,Start,1744715405711,undefined,974,selfish,social-negative,physical,social,A,NULL
1744715936,fcce65d3b6e1654524853cfd0a6b9f8d,PennController,40,0,test_sp,NULL,PennController,51,_Header_,End,1744715405963,undefined,974,selfish,social-negative,physical,social,A,NULL
1744715936,fcce65d3b6e1654524853cfd0a6b9f8d,PennController,40,0,test_sp,NULL,Selector,unnamed-Selector,Selection,social,1744715407441,undefined,974,selfish,social-negative,physical,social,A,physical;social
1744715936,fcce65d3b6e1654524853cfd0a6b9f8d,PennController,40,0,test_sp,NULL,PennController,51,_Trial_,End,1744715407442,undefined,974,selfish,social-negative,physical,social,A,NULL
1744715936,fcce65d3b6e1654524853cfd0a6b9f8d,PennController,17,0,test_sp,NULL,PennController,28,_Trial_,Start,1744715407444,undefined,1245,fair,social-positive,physical,social,A,NULL
1744715936,fcce65d3b6e1654524853cfd0a6b9f8d,PennController,17,0,test_sp,NULL,PennController,28,_Header_,Start,1744715407444,undefined,1245,fair,social-positive,physical,social,A,NULL
1744715936,fcce65d3b6e1654524853cfd0a6b9f8d,PennController,17,0,test_sp,NULL,PennController,28,_Header_,End,1744715407698,undefined,1245,fair,social-positive,physical,social,A,NULL
1744715936,fcce65d3b6e1654524853cfd0a6b9f8d,PennController,17,0,test_sp,NULL,Selector,unnamed-Selector,Selection,social,1744715409445,undefined,1245,fair,social-positive,physical,social,A,physical;social
1744715936,fcce65d3b6e1654524853cfd0a6b9f8d,PennController,17,0,test_sp,NULL,PennController,28,_Trial_,End,1744715409448,undefined,1245,fair,social-positive,physical,social,A,NULL
1744715936,fcce65d3b6e1654524853cfd0a6b9f8d,PennController,38,0,test_sp,NULL,PennController,49,_Trial_,Start,1744715409449,undefined,1294,arrogant,social-negative,physical,social,A,NULL
1744715936,fcce65d3b6e1654524853cfd0a6b9f8d,PennController,38,0,test_sp,NULL,PennController,49,_Header_,Start,1744715409449,undefined,1294,arrogant,social-negative,physical,social,A,NULL
1744715936,fcce65d3b6e1654524853cfd0a6b9f8d,PennController,38,0,test_sp,NULL,PennController,49,_Header_,End,1744715409704,undefined,1294,arrogant,social-negative,physical,social,A,NULL
1744715936,fcce65d3b6e1654524853cfd0a6b9f8d,PennController,38,0,test_sp,NULL,Selector,unnamed-Selector,Selection,social,1744715411503,undefined,1294,arrogant,social-negative,physical,social,A,physical;social
1744715936,fcce65d3b6e1654524853cfd0a6b9f8d,PennController,38,0,test_sp,NULL,PennController,49,_Trial_,End,1744715411507,undefined,1294,arrogant,social-negative,physical,social,A,NULL
1744715936,fcce65d3b6e1654524853cfd0a6b9f8d,PennController,7,0,test_sp,NULL,PennController,18,_Trial_,Start,1744715411510,undefined,975,brittle,physical-negative,physical,social,A,NULL
1744715936,fcce65d3b6e1654524853cfd0a6b9f8d,PennController,7,0,test_sp,NULL,PennController,18,_Header_,Start,1744715411510,undefined,975,brittle,physical-negative,physical,social,A,NULL
1744715936,fcce65d3b6e1654524853cfd0a6b9f8d,PennController,7,0,test_sp,NULL,PennController,18,_Header_,End,1744715411762,undefined,975,brittle,physical-negative,physical,social,A,NULL
1744715936,fcce65d3b6e1654524853cfd0a6b9f8d,PennController,7,0,test_sp,NULL,Selector,unnamed-Selector,Selection,physical,1744715413244,undefined,975,brittle,physical-negative,physical,social,A,physical;social
1744715936,fcce65d3b6e1654524853cfd0a6b9f8d,PennController,7,0,test_sp,NULL,PennController,18,_Trial_,End,1744715413248,undefined,975,brittle,physical-negative,physical,social,A,NULL
1744715936,fcce65d3b6e1654524853cfd0a6b9f8d,PennController,32,0,test_sp,NULL,PennController,43,_Trial_,Start,1744715413250,undefined,963,trustworthy,social-positive,physical,social,A,NULL
1744715936,fcce65d3b6e1654524853cfd0a6b9f8d,PennController,32,0,test_sp,NULL,PennController,43,_Header_,Start,1744715413250,undefined,963,trustworthy,social-positive,physical,social,A,NULL
1744715936,fcce65d3b6e1654524853cfd0a6b9f8d,PennController,32,0,test_sp,NULL,PennController,43,_Header_,End,1744715413501,undefined,963,trustworthy,social-positive,physical,social,A,NULL
1744715936,fcce65d3b6e1654524853cfd0a6b9f8d,PennController,32,0,test_sp,NULL,Selector,unnamed-Selector,Selection,social,1744715414972,undefined,963,trustworthy,social-positive,physical,social,A,physical;social
1744715936,fcce65d3b6e1654524853cfd0a6b9f8d,PennController,32,0,test_sp,NULL,PennController,43,_Trial_,End,1744715414976,undefined,963,trustworthy,social-positive,physical,social,A,NULL
1744715936,fcce65d3b6e1654524853cfd0a6b9f8d,PennController,36,0,test_sp,NULL,PennController,47,_Trial_,Start,1744715414979,undefined,954,manipulative,social-negative,physical,social,A,NULL
1744715936,fcce65d3b6e1654524853cfd0a6b9f8d,PennController,36,0,test_sp,NULL,PennController,47,_Header_,Start,1744715414979,undefined,954,manipulative,social-negative,physical,social,A,NULL
1744715936,fcce65d3b6e1654524853cfd0a6b9f8d,PennController,36,0,test_sp,NULL,PennController,47,_Header_,End,1744715415231,undefined,954,manipulative,social-negative,physical,social,A,NULL
1744715936,fcce65d3b6e1654524853cfd0a6b9f8d,PennController,36,0,test_sp,NULL,Selector,unnamed-Selector,Selection,social,1744715416690,undefined,954,manipulative,social-negative,physical,social,A,physical;social
1744715936,fcce65d3b6e1654524853cfd0a6b9f8d,PennController,36,0,test_sp,NULL,PennController,47,_Trial_,End,1744715416694,undefined,954,manipulative,social-negative,physical,social,A,NULL
1744715936,fcce65d3b6e1654524853cfd0a6b9f8d,PennController,6,0,test_sp,NULL,PennController,17,_Trial_,Start,1744715416697,undefined,775,smooth,physical-positive,physical,social,A,NULL
1744715936,fcce65d3b6e1654524853cfd0a6b9f8d,PennController,6,0,test_sp,NULL,PennController,17,_Header_,Start,1744715416697,undefined,775,smooth,physical-positive,physical,social,A,NULL
1744715936,fcce65d3b6e1654524853cfd0a6b9f8d,PennController,6,0,test_sp,NULL,PennController,17,_Header_,End,1744715416951,undefined,775,smooth,physical-positive,physical,social,A,NULL
1744715936,fcce65d3b6e1654524853cfd0a6b9f8d,PennController,6,0,test_sp,NULL,Selector,unnamed-Selector,Selection,physical,1744715418231,undefined,775,smooth,physical-positive,physical,social,A,physical;social
1744715936,fcce65d3b6e1654524853cfd0a6b9f8d,PennController,6,0,test_sp,NULL,PennController,17,_Trial_,End,1744715418235,undefined,775,smooth,physical-positive,physical,social,A,NULL
1744715936,fcce65d3b6e1654524853cfd0a6b9f8d,PennController,29,0,test_sp,NULL,PennController,40,_Trial_,Start,1744715418238,undefined,1362,youthful,physical-positive,physical,social,A,NULL
1744715936,fcce65d3b6e1654524853cfd0a6b9f8d,PennController,29,0,test_sp,NULL,PennController,40,_Header_,Start,1744715418238,undefined,1362,youthful,physical-positive,physical,social,A,NULL
1744715936,fcce65d3b6e1654524853cfd0a6b9f8d,PennController,29,0,test_sp,NULL,PennController,40,_Header_,End,1744715418491,undefined,1362,youthful,physical-positive,physical,social,A,NULL
1744715936,fcce65d3b6e1654524853cfd0a6b9f8d,PennController,29,0,test_sp,NULL,Selector,unnamed-Selector,Selection,physical,1744715420358,undefined,1362,youthful,physical-positive,physical,social,A,physical;social
1744715936,fcce65d3b6e1654524853cfd0a6b9f8d,PennController,29,0,test_sp,NULL,PennController,40,_Trial_,End,1744715420361,undefined,1362,youthful,physical-positive,physical,social,A,NULL
1744715936,fcce65d3b6e1654524853cfd0a6b9f8d,PennController,12,0,test_sp,NULL,PennController,23,_Trial_,Start,1744715420364,undefined,1576,rancid,physical-negative,physical,social,A,NULL
1744715936,fcce65d3b6e1654524853cfd0a6b9f8d,PennController,12,0,test_sp,NULL,PennController,23,_Header_,Start,1744715420364,undefined,1576,rancid,physical-negative,physical,social,A,NULL
1744715936,fcce65d3b6e1654524853cfd0a6b9f8d,PennController,12,0,test_sp,NULL,PennController,23,_Header_,End,1744715420615,undefined,1576,rancid,physical-negative,physical,social,A,NULL
1744715936,fcce65d3b6e1654524853cfd0a6b9f8d,PennController,12,0,test_sp,NULL,Selector,unnamed-Selector,Selection,physical,1744715422692,undefined,1576,rancid,physical-negative,physical,social,A,physical;social
1744715936,fcce65d3b6e1654524853cfd0a6b9f8d,PennController,12,0,test_sp,NULL,PennController,23,_Trial_,End,1744715422699,undefined,1576,rancid,physical-negative,physical,social,A,NULL
1744715936,fcce65d3b6e1654524853cfd0a6b9f8d,PennController,18,0,test_sp,NULL,PennController,29,_Trial_,Start,1744715422702,undefined,960,supportive,social-positive,physical,social,A,NULL
1744715936,fcce65d3b6e1654524853cfd0a6b9f8d,PennController,18,0,test_sp,NULL,PennController,29,_Header_,Start,1744715422702,undefined,960,supportive,social-positive,physical,social,A,NULL
1744715936,fcce65d3b6e1654524853cfd0a6b9f8d,PennController,18,0,test_sp,NULL,PennController,29,_Header_,End,1744715422953,undefined,960,supportive,social-positive,physical,social,A,NULL
1744715936,fcce65d3b6e1654524853cfd0a6b9f8d,PennController,18,0,test_sp,NULL,Selector,unnamed-Selector,Selection,social,1744715424416,undefined,960,supportive,social-positive,physical,social,A,physical;social
1744715936,fcce65d3b6e1654524853cfd0a6b9f8d,PennController,18,0,test_sp,NULL,PennController,29,_Trial_,End,1744715424420,undefined,960,supportive,social-positive,physical,social,A,NULL
1744715936,fcce65d3b6e1654524853cfd0a6b9f8d,PennController,26,0,test_sp,NULL,PennController,37,_Trial_,Start,1744715424423,undefined,843,obese,physical-negative,physical,social,A,NULL
1744715936,fcce65d3b6e1654524853cfd0a6b9f8d,PennController,26,0,test_sp,NULL,PennController,37,_Header_,Start,1744715424423,undefined,843,obese,physical-negative,physical,social,A,NULL
1744715936,fcce65d3b6e1654524853cfd0a6b9f8d,PennController,26,0,test_sp,NULL,PennController,37,_Header_,End,1744715424677,undefined,843,obese,physical-negative,physical,social,A,NULL
1744715936,fcce65d3b6e1654524853cfd0a6b9f8d,PennController,26,0,test_sp,NULL,Selector,unnamed-Selector,Selection,physical,1744715426027,undefined,843,obese,physical-negative,physical,social,A,physical;social
1744715936,fcce65d3b6e1654524853cfd0a6b9f8d,PennController,26,0,test_sp,NULL,PennController,37,_Trial_,End,1744715426030,undefined,843,obese,physical-negative,physical,social,A,NULL
1744715936,fcce65d3b6e1654524853cfd0a6b9f8d,PennController,31,0,test_sp,NULL,PennController,42,_Trial_,Start,1744715426033,undefined,1377,amiable,social-positive,physical,social,A,NULL
1744715936,fcce65d3b6e1654524853cfd0a6b9f8d,PennController,31,0,test_sp,NULL,PennController,42,_Header_,Start,1744715426033,undefined,1377,amiable,social-positive,physical,social,A,NULL
1744715936,fcce65d3b6e1654524853cfd0a6b9f8d,PennController,31,0,test_sp,NULL,PennController,42,_Header_,End,1744715426285,undefined,1377,amiable,social-positive,physical,social,A,NULL
1744715936,fcce65d3b6e1654524853cfd0a6b9f8d,PennController,31,0,test_sp,NULL,Selector,unnamed-Selector,Selection,social,1744715428167,undefined,1377,amiable,social-positive,physical,social,A,physical;social
1744715936,fcce65d3b6e1654524853cfd0a6b9f8d,PennController,31,0,test_sp,NULL,PennController,42,_Trial_,End,1744715428169,undefined,1377,amiable,social-positive,physical,social,A,NULL
1744715936,fcce65d3b6e1654524853cfd0a6b9f8d,PennController,41,0,test_sp,NULL,PennController,52,_Trial_,Start,1744715428171,undefined,759,polite,social-positive,physical,social,A,NULL
1744715936,fcce65d3b6e1654524853cfd0a6b9f8d,PennController,41,0,test_sp,NULL,PennController,52,_Header_,Start,1744715428171,undefined,759,polite,social-positive,physical,social,A,NULL
1744715936,fcce65d3b6e1654524853cfd0a6b9f8d,PennController,41,0,test_sp,NULL,PennController,52,_Header_,End,1744715428422,undefined,759,polite,social-positive,physical,social,A,NULL
1744715936,fcce65d3b6e1654524853cfd0a6b9f8d,PennController,41,0,test_sp,NULL,Selector,unnamed-Selector,Selection,social,1744715429686,undefined,759,polite,social-positive,physical,social,A,physical;social
1744715936,fcce65d3b6e1654524853cfd0a6b9f8d,PennController,41,0,test_sp,NULL,PennController,52,_Trial_,End,1744715429690,undefined,759,polite,social-positive,physical,social,A,NULL
1744715936,fcce65d3b6e1654524853cfd0a6b9f8d,PennController,23,0,test_sp,NULL,PennController,34,_Trial_,Start,1744715429693,undefined,1215,unjust,social-negative,physical,social,A,NULL
1744715936,fcce65d3b6e1654524853cfd0a6b9f8d,PennController,23,0,test_sp,NULL,PennController,34,_Header_,Start,1744715429693,undefined,1215,unjust,social-negative,physical,social,A,NULL
1744715936,fcce65d3b6e1654524853cfd0a6b9f8d,PennController,23,0,test_sp,NULL,PennController,34,_Header_,End,1744715429944,undefined,1215,unjust,social-negative,physical,social,A,NULL
1744715936,fcce65d3b6e1654524853cfd0a6b9f8d,PennController,23,0,test_sp,NULL,Selector,unnamed-Selector,Selection,social,1744715431663,undefined,1215,unjust,social-negative,physical,social,A,physical;social
1744715936,fcce65d3b6e1654524853cfd0a6b9f8d,PennController,23,0,test_sp,NULL,PennController,34,_Trial_,End,1744715431667,undefined,1215,unjust,social-negative,physical,social,A,NULL
1744715936,fcce65d3b6e1654524853cfd0a6b9f8d,PennController,15,0,test_sp,NULL,PennController,26,_Trial_,Start,1744715431669,undefined,860,prosperous,social-positive,physical,social,A,NULL
1744715936,fcce65d3b6e1654524853cfd0a6b9f8d,PennController,15,0,test_sp,NULL,PennController,26,_Header_,Start,1744715431669,undefined,860,prosperous,social-positive,physical,social,A,NULL
1744715936,fcce65d3b6e1654524853cfd0a6b9f8d,PennController,15,0,test_sp,NULL,PennController,26,_Header_,End,1744715431921,undefined,860,prosperous,social-positive,physical,social,A,NULL
1744715936,fcce65d3b6e1654524853cfd0a6b9f8d,PennController,15,0,test_sp,NULL,Selector,unnamed-Selector,Selection,social,1744715433287,undefined,860,prosperous,social-positive,physical,social,A,physical;social
1744715936,fcce65d3b6e1654524853cfd0a6b9f8d,PennController,15,0,test_sp,NULL,PennController,26,_Trial_,End,1744715433291,undefined,860,prosperous,social-positive,physical,social,A,NULL
1744715936,fcce65d3b6e1654524853cfd0a6b9f8d,PennController,10,0,test_sp,NULL,PennController,21,_Trial_,Start,1744715433294,undefined,1171,clammy,physical-negative,physical,social,A,NULL
1744715936,fcce65d3b6e1654524853cfd0a6b9f8d,PennController,10,0,test_sp,NULL,PennController,21,_Header_,Start,1744715433294,undefined,1171,clammy,physical-negative,physical,social,A,NULL
1744715936,fcce65d3b6e1654524853cfd0a6b9f8d,PennController,10,0,test_sp,NULL,PennController,21,_Header_,End,1744715433545,undefined,1171,clammy,physical-negative,physical,social,A,NULL
1744715936,fcce65d3b6e1654524853cfd0a6b9f8d,PennController,10,0,test_sp,NULL,Selector,unnamed-Selector,Selection,physical,1744715435221,undefined,1171,clammy,physical-negative,physical,social,A,physical;social
1744715936,fcce65d3b6e1654524853cfd0a6b9f8d,PennController,10,0,test_sp,NULL,PennController,21,_Trial_,End,1744715435225,undefined,1171,clammy,physical-negative,physical,social,A,NULL
1744715936,fcce65d3b6e1654524853cfd0a6b9f8d,PennController,11,0,test_sp,NULL,PennController,22,_Trial_,Start,1744715435226,undefined,809,gritty,physical-negative,physical,social,A,NULL
1744715936,fcce65d3b6e1654524853cfd0a6b9f8d,PennController,11,0,test_sp,NULL,PennController,22,_Header_,Start,1744715435226,undefined,809,gritty,physical-negative,physical,social,A,NULL
1744715936,fcce65d3b6e1654524853cfd0a6b9f8d,PennController,11,0,test_sp,NULL,PennController,22,_Header_,End,1744715435479,undefined,809,gritty,physical-negative,physical,social,A,NULL
1744715936,fcce65d3b6e1654524853cfd0a6b9f8d,PennController,11,0,test_sp,NULL,Selector,unnamed-Selector,Selection,physical,1744715436793,undefined,809,gritty,physical-negative,physical,social,A,physical;social
1744715936,fcce65d3b6e1654524853cfd0a6b9f8d,PennController,11,0,test_sp,NULL,PennController,22,_Trial_,End,1744715436795,undefined,809,gritty,physical-negative,physical,social,A,NULL
1744715936,fcce65d3b6e1654524853cfd0a6b9f8d,PennController,25,0,test_sp,NULL,PennController,36,_Trial_,Start,1744715436796,undefined,741,slim,physical-positive,physical,social,A,NULL
1744715936,fcce65d3b6e1654524853cfd0a6b9f8d,PennController,25,0,test_sp,NULL,PennController,36,_Header_,Start,1744715436796,undefined,741,slim,physical-positive,physical,social,A,NULL
1744715936,fcce65d3b6e1654524853cfd0a6b9f8d,PennController,25,0,test_sp,NULL,PennController,36,_Header_,End,1744715437049,undefined,741,slim,physical-positive,physical,social,A,NULL
1744715936,fcce65d3b6e1654524853cfd0a6b9f8d,PennController,25,0,test_sp,NULL,Selector,unnamed-Selector,Selection,physical,1744715438293,undefined,741,slim,physical-positive,physical,social,A,physical;social
1744715936,fcce65d3b6e1654524853cfd0a6b9f8d,PennController,25,0,test_sp,NULL,PennController,36,_Trial_,End,1744715438297,undefined,741,slim,physical-positive,physical,social,A,NULL
1744715936,fcce65d3b6e1654524853cfd0a6b9f8d,PennController,9,0,test_sp,NULL,PennController,20,_Trial_,Start,1744715438300,undefined,815,sour,physical-negative,physical,social,A,NULL
1744715936,fcce65d3b6e1654524853cfd0a6b9f8d,PennController,9,0,test_sp,NULL,PennController,20,_Header_,Start,1744715438300,undefined,815,sour,physical-negative,physical,social,A,NULL
1744715936,fcce65d3b6e1654524853cfd0a6b9f8d,PennController,9,0,test_sp,NULL,PennController,20,_Header_,End,1744715438554,undefined,815,sour,physical-negative,physical,social,A,NULL
1744715936,fcce65d3b6e1654524853cfd0a6b9f8d,PennController,9,0,test_sp,NULL,Selector,unnamed-Selector,Selection,physical,1744715439875,undefined,815,sour,physical-negative,physical,social,A,physical;social
1744715936,fcce65d3b6e1654524853cfd0a6b9f8d,PennController,9,0,test_sp,NULL,PennController,20,_Trial_,End,1744715439878,undefined,815,sour,physical-negative,physical,social,A,NULL
1744715936,fcce65d3b6e1654524853cfd0a6b9f8d,PennController,32,0,test_sp,NULL,PennController,43,_Trial_,Start,1744715439882,undefined,740,trustworthy,social-positive,physical,social,A,NULL
1744715936,fcce65d3b6e1654524853cfd0a6b9f8d,PennController,32,0,test_sp,NULL,PennController,43,_Header_,Start,1744715439882,undefined,740,trustworthy,social-positive,physical,social,A,NULL
1744715936,fcce65d3b6e1654524853cfd0a6b9f8d,PennController,32,0,test_sp,NULL,PennController,43,_Header_,End,1744715440132,undefined,740,trustworthy,social-positive,physical,social,A,NULL
1744715936,fcce65d3b6e1654524853cfd0a6b9f8d,PennController,32,0,test_sp,NULL,Selector,unnamed-Selector,Selection,social,1744715441379,undefined,740,trustworthy,social-positive,physical,social,A,physical;social
1744715936,fcce65d3b6e1654524853cfd0a6b9f8d,PennController,32,0,test_sp,NULL,PennController,43,_Trial_,End,1744715441385,undefined,740,trustworthy,social-positive,physical,social,A,NULL
1744715936,fcce65d3b6e1654524853cfd0a6b9f8d,PennController,26,0,test_sp,NULL,PennController,37,_Trial_,Start,1744715441388,undefined,630,obese,physical-negative,physical,social,A,NULL
1744715936,fcce65d3b6e1654524853cfd0a6b9f8d,PennController,26,0,test_sp,NULL,PennController,37,_Header_,Start,1744715441388,undefined,630,obese,physical-negative,physical,social,A,NULL
1744715936,fcce65d3b6e1654524853cfd0a6b9f8d,PennController,26,0,test_sp,NULL,PennController,37,_Header_,End,1744715441639,undefined,630,obese,physical-negative,physical,social,A,NULL
1744715936,fcce65d3b6e1654524853cfd0a6b9f8d,PennController,26,0,test_sp,NULL,Selector,unnamed-Selector,Selection,physical,1744715442775,undefined,630,obese,physical-negative,physical,social,A,physical;social
1744715936,fcce65d3b6e1654524853cfd0a6b9f8d,PennController,26,0,test_sp,NULL,PennController,37,_Trial_,End,1744715442779,undefined,630,obese,physical-negative,physical,social,A,NULL
1744715936,fcce65d3b6e1654524853cfd0a6b9f8d,PennController,12,0,test_sp,NULL,PennController,23,_Trial_,Start,1744715442782,undefined,1150,rancid,physical-negative,physical,social,A,NULL
1744715936,fcce65d3b6e1654524853cfd0a6b9f8d,PennController,12,0,test_sp,NULL,PennController,23,_Header_,Start,1744715442782,undefined,1150,rancid,physical-negative,physical,social,A,NULL
1744715936,fcce65d3b6e1654524853cfd0a6b9f8d,PennController,12,0,test_sp,NULL,PennController,23,_Header_,End,1744715443033,undefined,1150,rancid,physical-negative,physical,social,A,NULL
1744715936,fcce65d3b6e1654524853cfd0a6b9f8d,PennController,12,0,test_sp,NULL,Selector,unnamed-Selector,Selection,physical,1744715444686,undefined,1150,rancid,physical-negative,physical,social,A,physical;social
1744715936,fcce65d3b6e1654524853cfd0a6b9f8d,PennController,12,0,test_sp,NULL,PennController,23,_Trial_,End,1744715444690,undefined,1150,rancid,physical-negative,physical,social,A,NULL
1744715936,fcce65d3b6e1654524853cfd0a6b9f8d,PennController,25,0,test_sp,NULL,PennController,36,_Trial_,Start,1744715444693,undefined,828,slim,physical-positive,physical,social,A,NULL
1744715936,fcce65d3b6e1654524853cfd0a6b9f8d,PennController,25,0,test_sp,NULL,PennController,36,_Header_,Start,1744715444693,undefined,828,slim,physical-positive,physical,social,A,NULL
1744715936,fcce65d3b6e1654524853cfd0a6b9f8d,PennController,25,0,test_sp,NULL,PennController,36,_Header_,End,1744715444945,undefined,828,slim,physical-positive,physical,social,A,NULL
1744715936,fcce65d3b6e1654524853cfd0a6b9f8d,PennController,25,0,test_sp,NULL,Selector,unnamed-Selector,Selection,physical,1744715446280,undefined,828,slim,physical-positive,physical,social,A,physical;social
1744715936,fcce65d3b6e1654524853cfd0a6b9f8d,PennController,25,0,test_sp,NULL,PennController,36,_Trial_,End,1744715446284,undefined,828,slim,physical-positive,physical,social,A,NULL
1744715936,fcce65d3b6e1654524853cfd0a6b9f8d,PennController,29,0,test_sp,NULL,PennController,40,_Trial_,Start,1744715446287,undefined,933,youthful,physical-positive,physical,social,A,NULL
1744715936,fcce65d3b6e1654524853cfd0a6b9f8d,PennController,29,0,test_sp,NULL,PennController,40,_Header_,Start,1744715446287,undefined,933,youthful,physical-positive,physical,social,A,NULL
1744715936,fcce65d3b6e1654524853cfd0a6b9f8d,PennController,29,0,test_sp,NULL,PennController,40,_Header_,End,1744715446541,undefined,933,youthful,physical-positive,physical,social,A,NULL
1744715936,fcce65d3b6e1654524853cfd0a6b9f8d,PennController,29,0,test_sp,NULL,Selector,unnamed-Selector,Selection,social,1744715447979,undefined,933,youthful,physical-positive,physical,social,A,physical;social
1744715936,fcce65d3b6e1654524853cfd0a6b9f8d,PennController,29,0,test_sp,NULL,PennController,40,_Trial_,End,1744715447983,undefined,933,youthful,physical-positive,physical,social,A,NULL
1744715936,fcce65d3b6e1654524853cfd0a6b9f8d,PennController,33,0,test_sp,NULL,PennController,44,_Trial_,Start,1744715447986,undefined,1193,elegant,physical-positive,physical,social,A,NULL
1744715936,fcce65d3b6e1654524853cfd0a6b9f8d,PennController,33,0,test_sp,NULL,PennController,44,_Header_,Start,1744715447986,undefined,1193,elegant,physical-positive,physical,social,A,NULL
1744715936,fcce65d3b6e1654524853cfd0a6b9f8d,PennController,33,0,test_sp,NULL,PennController,44,_Header_,End,1744715448240,undefined,1193,elegant,physical-positive,physical,social,A,NULL
1744715936,fcce65d3b6e1654524853cfd0a6b9f8d,PennController,33,0,test_sp,NULL,Selector,unnamed-Selector,Selection,social,1744715449937,undefined,1193,elegant,physical-positive,physical,social,A,physical;social
1744715936,fcce65d3b6e1654524853cfd0a6b9f8d,PennController,33,0,test_sp,NULL,PennController,44,_Trial_,End,1744715449941,undefined,1193,elegant,physical-positive,physical,social,A,NULL
1744715936,fcce65d3b6e1654524853cfd0a6b9f8d,PennController,38,0,test_sp,NULL,PennController,49,_Trial_,Start,1744715449944,undefined,1380,arrogant,social-negative,physical,social,A,NULL
1744715936,fcce65d3b6e1654524853cfd0a6b9f8d,PennController,38,0,test_sp,NULL,PennController,49,_Header_,Start,1744715449944,undefined,1380,arrogant,social-negative,physical,social,A,NULL
1744715936,fcce65d3b6e1654524853cfd0a6b9f8d,PennController,38,0,test_sp,NULL,PennController,49,_Header_,End,1744715450195,undefined,1380,arrogant,social-negative,physical,social,A,NULL
1744715936,fcce65d3b6e1654524853cfd0a6b9f8d,PennController,38,0,test_sp,NULL,Selector,unnamed-Selector,Selection,social,1744715452082,undefined,1380,arrogant,social-negative,physical,social,A,physical;social
1744715936,fcce65d3b6e1654524853cfd0a6b9f8d,PennController,38,0,test_sp,NULL,PennController,49,_Trial_,End,1744715452085,undefined,1380,arrogant,social-negative,physical,social,A,NULL
1744715936,fcce65d3b6e1654524853cfd0a6b9f8d,PennController,5,0,test_sp,NULL,PennController,16,_Trial_,Start,1744715452088,undefined,849,soft,physical-positive,physical,social,A,NULL
1744715936,fcce65d3b6e1654524853cfd0a6b9f8d,PennController,5,0,test_sp,NULL,PennController,16,_Header_,Start,1744715452088,undefined,849,soft,physical-positive,physical,social,A,NULL
1744715936,fcce65d3b6e1654524853cfd0a6b9f8d,PennController,5,0,test_sp,NULL,PennController,16,_Header_,End,1744715452341,undefined,849,soft,physical-positive,physical,social,A,NULL
1744715936,fcce65d3b6e1654524853cfd0a6b9f8d,PennController,5,0,test_sp,NULL,Selector,unnamed-Selector,Selection,physical,1744715453695,undefined,849,soft,physical-positive,physical,social,A,physical;social
1744715936,fcce65d3b6e1654524853cfd0a6b9f8d,PennController,5,0,test_sp,NULL,PennController,16,_Trial_,End,1744715453699,undefined,849,soft,physical-positive,physical,social,A,NULL
1744715936,fcce65d3b6e1654524853cfd0a6b9f8d,PennController,4,0,test_sp,NULL,PennController,15,_Trial_,Start,1744715453702,undefined,900,moldy,physical-negative,physical,social,A,NULL
1744715936,fcce65d3b6e1654524853cfd0a6b9f8d,PennController,4,0,test_sp,NULL,PennController,15,_Header_,Start,1744715453702,undefined,900,moldy,physical-negative,physical,social,A,NULL
1744715936,fcce65d3b6e1654524853cfd0a6b9f8d,PennController,4,0,test_sp,NULL,PennController,15,_Header_,End,1744715453954,undefined,900,moldy,physical-negative,physical,social,A,NULL
1744715936,fcce65d3b6e1654524853cfd0a6b9f8d,PennController,4,0,test_sp,NULL,Selector,unnamed-Selector,Selection,physical,1744715455361,undefined,900,moldy,physical-negative,physical,social,A,physical;social
1744715936,fcce65d3b6e1654524853cfd0a6b9f8d,PennController,4,0,test_sp,NULL,PennController,15,_Trial_,End,1744715455369,undefined,900,moldy,physical-negative,physical,social,A,NULL
1744715936,fcce65d3b6e1654524853cfd0a6b9f8d,PennController,21,0,test_sp,NULL,PennController,32,_Trial_,Start,1744715455373,undefined,1090,compassionate,social-positive,physical,social,A,NULL
1744715936,fcce65d3b6e1654524853cfd0a6b9f8d,PennController,21,0,test_sp,NULL,PennController,32,_Header_,Start,1744715455373,undefined,1090,compassionate,social-positive,physical,social,A,NULL
1744715936,fcce65d3b6e1654524853cfd0a6b9f8d,PennController,21,0,test_sp,NULL,PennController,32,_Header_,End,1744715455625,undefined,1090,compassionate,social-positive,physical,social,A,NULL
1744715936,fcce65d3b6e1654524853cfd0a6b9f8d,PennController,21,0,test_sp,NULL,Selector,unnamed-Selector,Selection,social,1744715457217,undefined,1090,compassionate,social-positive,physical,social,A,physical;social
1744715936,fcce65d3b6e1654524853cfd0a6b9f8d,PennController,21,0,test_sp,NULL,PennController,32,_Trial_,End,1744715457221,undefined,1090,compassionate,social-positive,physical,social,A,NULL
1744715936,fcce65d3b6e1654524853cfd0a6b9f8d,PennController,20,0,test_sp,NULL,PennController,31,_Trial_,Start,1744715457225,undefined,960,corrupt,social-negative,physical,social,A,NULL
1744715936,fcce65d3b6e1654524853cfd0a6b9f8d,PennController,20,0,test_sp,NULL,PennController,31,_Header_,Start,1744715457225,undefined,960,corrupt,social-negative,physical,social,A,NULL
1744715936,fcce65d3b6e1654524853cfd0a6b9f8d,PennController,20,0,test_sp,NULL,PennController,31,_Header_,End,1744715457477,undefined,960,corrupt,social-negative,physical,social,A,NULL
1744715936,fcce65d3b6e1654524853cfd0a6b9f8d,PennController,20,0,test_sp,NULL,Selector,unnamed-Selector,Selection,social,1744715458943,undefined,960,corrupt,social-negative,physical,social,A,physical;social
1744715936,fcce65d3b6e1654524853cfd0a6b9f8d,PennController,20,0,test_sp,NULL,PennController,31,_Trial_,End,1744715458946,undefined,960,corrupt,social-negative,physical,social,A,NULL
1744715936,fcce65d3b6e1654524853cfd0a6b9f8d,PennController,14,0,test_sp,NULL,PennController,25,_Trial_,Start,1744715458949,undefined,1106,lush,physical-positive,physical,social,A,NULL
1744715936,fcce65d3b6e1654524853cfd0a6b9f8d,PennController,14,0,test_sp,NULL,PennController,25,_Header_,Start,1744715458949,undefined,1106,lush,physical-positive,physical,social,A,NULL
1744715936,fcce65d3b6e1654524853cfd0a6b9f8d,PennController,14,0,test_sp,NULL,PennController,25,_Header_,End,1744715459200,undefined,1106,lush,physical-positive,physical,social,A,NULL
1744715936,fcce65d3b6e1654524853cfd0a6b9f8d,PennController,14,0,test_sp,NULL,Selector,unnamed-Selector,Selection,physical,1744715460810,undefined,1106,lush,physical-positive,physical,social,A,physical;social
1744715936,fcce65d3b6e1654524853cfd0a6b9f8d,PennController,14,0,test_sp,NULL,PennController,25,_Trial_,End,1744715460814,undefined,1106,lush,physical-positive,physical,social,A,NULL
1744715936,fcce65d3b6e1654524853cfd0a6b9f8d,PennController,7,0,test_sp,NULL,PennController,18,_Trial_,Start,1744715460817,undefined,860,brittle,physical-negative,physical,social,A,NULL
1744715936,fcce65d3b6e1654524853cfd0a6b9f8d,PennController,7,0,test_sp,NULL,PennController,18,_Header_,Start,1744715460817,undefined,860,brittle,physical-negative,physical,social,A,NULL
1744715936,fcce65d3b6e1654524853cfd0a6b9f8d,PennController,7,0,test_sp,NULL,PennController,18,_Header_,End,1744715461068,undefined,860,brittle,physical-negative,physical,social,A,NULL
1744715936,fcce65d3b6e1654524853cfd0a6b9f8d,PennController,7,0,test_sp,NULL,Selector,unnamed-Selector,Selection,physical,1744715462435,undefined,860,brittle,physical-negative,physical,social,A,physical;social
1744715936,fcce65d3b6e1654524853cfd0a6b9f8d,PennController,7,0,test_sp,NULL,PennController,18,_Trial_,End,1744715462436,undefined,860,brittle,physical-negative,physical,social,A,NULL
1744715936,fcce65d3b6e1654524853cfd0a6b9f8d,PennController,23,0,test_sp,NULL,PennController,34,_Trial_,Start,1744715462437,undefined,743,unjust,social-negative,physical,social,A,NULL
1744715936,fcce65d3b6e1654524853cfd0a6b9f8d,PennController,23,0,test_sp,NULL,PennController,34,_Header_,Start,1744715462437,undefined,743,unjust,social-negative,physical,social,A,NULL
1744715936,fcce65d3b6e1654524853cfd0a6b9f8d,PennController,23,0,test_sp,NULL,PennController,34,_Header_,End,1744715462689,undefined,743,unjust,social-negative,physical,social,A,NULL
1744715936,fcce65d3b6e1654524853cfd0a6b9f8d,PennController,23,0,test_sp,NULL,Selector,unnamed-Selector,Selection,social,1744715463937,undefined,743,unjust,social-negative,physical,social,A,physical;social
1744715936,fcce65d3b6e1654524853cfd0a6b9f8d,PennController,23,0,test_sp,NULL,PennController,34,_Trial_,End,1744715463940,undefined,743,unjust,social-negative,physical,social,A,NULL
1744715936,fcce65d3b6e1654524853cfd0a6b9f8d,PennController,6,0,test_sp,NULL,PennController,17,_Trial_,Start,1744715463945,undefined,947,smooth,physical-positive,physical,social,A,NULL
1744715936,fcce65d3b6e1654524853cfd0a6b9f8d,PennController,6,0,test_sp,NULL,PennController,17,_Header_,Start,1744715463945,undefined,947,smooth,physical-positive,physical,social,A,NULL
1744715936,fcce65d3b6e1654524853cfd0a6b9f8d,PennController,6,0,test_sp,NULL,PennController,17,_Header_,End,1744715464199,undefined,947,smooth,physical-positive,physical,social,A,NULL
1744715936,fcce65d3b6e1654524853cfd0a6b9f8d,PennController,6,0,test_sp,NULL,Selector,unnamed-Selector,Selection,social,1744715465649,undefined,947,smooth,physical-positive,physical,social,A,physical;social
1744715936,fcce65d3b6e1654524853cfd0a6b9f8d,PennController,6,0,test_sp,NULL,PennController,17,_Trial_,End,1744715465650,undefined,947,smooth,physical-positive,physical,social,A,NULL
1744715936,fcce65d3b6e1654524853cfd0a6b9f8d,PennController,8,0,test_sp,NULL,PennController,19,_Trial_,Start,1744715465651,undefined,1936,fragrant,physical-positive,physical,social,A,NULL
1744715936,fcce65d3b6e1654524853cfd0a6b9f8d,PennController,8,0,test_sp,NULL,PennController,19,_Header_,Start,1744715465651,undefined,1936,fragrant,physical-positive,physical,social,A,NULL
1744715936,fcce65d3b6e1654524853cfd0a6b9f8d,PennController,8,0,test_sp,NULL,PennController,19,_Header_,End,1744715465903,undefined,1936,fragrant,physical-positive,physical,social,A,NULL
1744715936,fcce65d3b6e1654524853cfd0a6b9f8d,PennController,8,0,test_sp,NULL,Selector,unnamed-Selector,Selection,physical,1744715468344,undefined,1936,fragrant,physical-positive,physical,social,A,physical;social
1744715936,fcce65d3b6e1654524853cfd0a6b9f8d,PennController,8,0,test_sp,NULL,PennController,19,_Trial_,End,1744715468346,undefined,1936,fragrant,physical-positive,physical,social,A,NULL
1744715936,fcce65d3b6e1654524853cfd0a6b9f8d,PennController,11,0,test_sp,NULL,PennController,22,_Trial_,Start,1744715468347,undefined,875,gritty,physical-negative,physical,social,A,NULL
1744715936,fcce65d3b6e1654524853cfd0a6b9f8d,PennController,11,0,test_sp,NULL,PennController,22,_Header_,Start,1744715468347,undefined,875,gritty,physical-negative,physical,social,A,NULL
1744715936,fcce65d3b6e1654524853cfd0a6b9f8d,PennController,11,0,test_sp,NULL,PennController,22,_Header_,End,1744715468598,undefined,875,gritty,physical-negative,physical,social,A,NULL
1744715936,fcce65d3b6e1654524853cfd0a6b9f8d,PennController,11,0,test_sp,NULL,Selector,unnamed-Selector,Selection,physical,1744715469978,undefined,875,gritty,physical-negative,physical,social,A,physical;social
1744715936,fcce65d3b6e1654524853cfd0a6b9f8d,PennController,11,0,test_sp,NULL,PennController,22,_Trial_,End,1744715469981,undefined,875,gritty,physical-negative,physical,social,A,NULL
1744715936,fcce65d3b6e1654524853cfd0a6b9f8d,PennController,37,0,test_sp,NULL,PennController,48,_Trial_,Start,1744715469985,undefined,886,cruel,social-negative,physical,social,A,NULL
1744715936,fcce65d3b6e1654524853cfd0a6b9f8d,PennController,37,0,test_sp,NULL,PennController,48,_Header_,Start,1744715469985,undefined,886,cruel,social-negative,physical,social,A,NULL
1744715936,fcce65d3b6e1654524853cfd0a6b9f8d,PennController,37,0,test_sp,NULL,PennController,48,_Header_,End,1744715470236,undefined,886,cruel,social-negative,physical,social,A,NULL
1744715936,fcce65d3b6e1654524853cfd0a6b9f8d,PennController,37,0,test_sp,NULL,Selector,unnamed-Selector,Selection,social,1744715471628,undefined,886,cruel,social-negative,physical,social,A,physical;social
1744715936,fcce65d3b6e1654524853cfd0a6b9f8d,PennController,37,0,test_sp,NULL,PennController,48,_Trial_,End,1744715471631,undefined,886,cruel,social-negative,physical,social,A,NULL
1744715936,fcce65d3b6e1654524853cfd0a6b9f8d,PennController,31,0,test_sp,NULL,PennController,42,_Trial_,Start,1744715471635,undefined,1244,amiable,social-positive,physical,social,A,NULL
1744715936,fcce65d3b6e1654524853cfd0a6b9f8d,PennController,31,0,test_sp,NULL,PennController,42,_Header_,Start,1744715471635,undefined,1244,amiable,social-positive,physical,social,A,NULL
1744715936,fcce65d3b6e1654524853cfd0a6b9f8d,PennController,31,0,test_sp,NULL,PennController,42,_Header_,End,1744715471889,undefined,1244,amiable,social-positive,physical,social,A,NULL
1744715936,fcce65d3b6e1654524853cfd0a6b9f8d,PennController,31,0,test_sp,NULL,Selector,unnamed-Selector,Selection,social,1744715473637,undefined,1244,amiable,social-positive,physical,social,A,physical;social
1744715936,fcce65d3b6e1654524853cfd0a6b9f8d,PennController,31,0,test_sp,NULL,PennController,42,_Trial_,End,1744715473641,undefined,1244,amiable,social-positive,physical,social,A,NULL
1744715936,fcce65d3b6e1654524853cfd0a6b9f8d,PennController,40,0,test_sp,NULL,PennController,51,_Trial_,Start,1744715473645,undefined,848,selfish,social-negative,physical,social,A,NULL
1744715936,fcce65d3b6e1654524853cfd0a6b9f8d,PennController,40,0,test_sp,NULL,PennController,51,_Header_,Start,1744715473645,undefined,848,selfish,social-negative,physical,social,A,NULL
1744715936,fcce65d3b6e1654524853cfd0a6b9f8d,PennController,40,0,test_sp,NULL,PennController,51,_Header_,End,1744715473898,undefined,848,selfish,social-negative,physical,social,A,NULL
1744715936,fcce65d3b6e1654524853cfd0a6b9f8d,PennController,40,0,test_sp,NULL,Selector,unnamed-Selector,Selection,social,1744715475252,undefined,848,selfish,social-negative,physical,social,A,physical;social
1744715936,fcce65d3b6e1654524853cfd0a6b9f8d,PennController,40,0,test_sp,NULL,PennController,51,_Trial_,End,1744715475256,undefined,848,selfish,social-negative,physical,social,A,NULL
1744715936,fcce65d3b6e1654524853cfd0a6b9f8d,PennController,9,0,test_sp,NULL,PennController,20,_Trial_,Start,1744715475260,undefined,760,sour,physical-negative,physical,social,A,NULL
1744715936,fcce65d3b6e1654524853cfd0a6b9f8d,PennController,9,0,test_sp,NULL,PennController,20,_Header_,Start,1744715475260,undefined,760,sour,physical-negative,physical,social,A,NULL
1744715936,fcce65d3b6e1654524853cfd0a6b9f8d,PennController,9,0,test_sp,NULL,PennController,20,_Header_,End,1744715475512,undefined,760,sour,physical-negative,physical,social,A,NULL
1744715936,fcce65d3b6e1654524853cfd0a6b9f8d,PennController,9,0,test_sp,NULL,Selector,unnamed-Selector,Selection,physical,1744715476778,undefined,760,sour,physical-negative,physical,social,A,physical;social
1744715936,fcce65d3b6e1654524853cfd0a6b9f8d,PennController,9,0,test_sp,NULL,PennController,20,_Trial_,End,1744715476780,undefined,760,sour,physical-negative,physical,social,A,NULL
1744715936,fcce65d3b6e1654524853cfd0a6b9f8d,PennController,34,0,test_sp,NULL,PennController,45,_Trial_,Start,1744715476781,undefined,829,generous,social-positive,physical,social,A,NULL
1744715936,fcce65d3b6e1654524853cfd0a6b9f8d,PennController,34,0,test_sp,NULL,PennController,45,_Header_,Start,1744715476781,undefined,829,generous,social-positive,physical,social,A,NULL
1744715936,fcce65d3b6e1654524853cfd0a6b9f8d,PennController,34,0,test_sp,NULL,PennController,45,_Header_,End,1744715477031,undefined,829,generous,social-positive,physical,social,A,NULL
1744715936,fcce65d3b6e1654524853cfd0a6b9f8d,PennController,34,0,test_sp,NULL,Selector,unnamed-Selector,Selection,social,1744715478366,undefined,829,generous,social-positive,physical,social,A,physical;social
1744715936,fcce65d3b6e1654524853cfd0a6b9f8d,PennController,34,0,test_sp,NULL,PennController,45,_Trial_,End,1744715478369,undefined,829,generous,social-positive,physical,social,A,NULL
1744715936,fcce65d3b6e1654524853cfd0a6b9f8d,PennController,18,0,test_sp,NULL,PennController,29,_Trial_,Start,1744715478370,undefined,1056,supportive,social-positive,physical,social,A,NULL
1744715936,fcce65d3b6e1654524853cfd0a6b9f8d,PennController,18,0,test_sp,NULL,PennController,29,_Header_,Start,1744715478370,undefined,1056,supportive,social-positive,physical,social,A,NULL
1744715936,fcce65d3b6e1654524853cfd0a6b9f8d,PennController,18,0,test_sp,NULL,PennController,29,_Header_,End,1744715478620,undefined,1056,supportive,social-positive,physical,social,A,NULL
1744715936,fcce65d3b6e1654524853cfd0a6b9f8d,PennController,18,0,test_sp,NULL,Selector,unnamed-Selector,Selection,social,1744715480180,undefined,1056,supportive,social-positive,physical,social,A,physical;social
1744715936,fcce65d3b6e1654524853cfd0a6b9f8d,PennController,18,0,test_sp,NULL,PennController,29,_Trial_,End,1744715480183,undefined,1056,supportive,social-positive,physical,social,A,NULL
1744715936,fcce65d3b6e1654524853cfd0a6b9f8d,PennController,27,0,test_sp,NULL,PennController,38,_Trial_,Start,1744715480184,undefined,662,ugly,physical-negative,physical,social,A,NULL
1744715936,fcce65d3b6e1654524853cfd0a6b9f8d,PennController,27,0,test_sp,NULL,PennController,38,_Header_,Start,1744715480184,undefined,662,ugly,physical-negative,physical,social,A,NULL
1744715936,fcce65d3b6e1654524853cfd0a6b9f8d,PennController,27,0,test_sp,NULL,PennController,38,_Header_,End,1744715480435,undefined,662,ugly,physical-negative,physical,social,A,NULL
1744715936,fcce65d3b6e1654524853cfd0a6b9f8d,PennController,27,0,test_sp,NULL,Selector,unnamed-Selector,Selection,physical,1744715481598,undefined,662,ugly,physical-negative,physical,social,A,physical;social
1744715936,fcce65d3b6e1654524853cfd0a6b9f8d,PennController,27,0,test_sp,NULL,PennController,38,_Trial_,End,1744715481601,undefined,662,ugly,physical-negative,physical,social,A,NULL
1744715936,fcce65d3b6e1654524853cfd0a6b9f8d,PennController,39,0,test_sp,NULL,PennController,50,_Trial_,Start,1744715481605,undefined,905,untrustworthy,social-negative,physical,social,A,NULL
1744715936,fcce65d3b6e1654524853cfd0a6b9f8d,PennController,39,0,test_sp,NULL,PennController,50,_Header_,Start,1744715481605,undefined,905,untrustworthy,social-negative,physical,social,A,NULL
1744715936,fcce65d3b6e1654524853cfd0a6b9f8d,PennController,39,0,test_sp,NULL,PennController,50,_Header_,End,1744715481855,undefined,905,untrustworthy,social-negative,physical,social,A,NULL
1744715936,fcce65d3b6e1654524853cfd0a6b9f8d,PennController,39,0,test_sp,NULL,Selector,unnamed-Selector,Selection,social,1744715483261,undefined,905,untrustworthy,social-negative,physical,social,A,physical;social
1744715936,fcce65d3b6e1654524853cfd0a6b9f8d,PennController,39,0,test_sp,NULL,PennController,50,_Trial_,End,1744715483265,undefined,905,untrustworthy,social-negative,physical,social,A,NULL
1744715936,fcce65d3b6e1654524853cfd0a6b9f8d,PennController,15,0,test_sp,NULL,PennController,26,_Trial_,Start,1744715483268,undefined,3332,prosperous,social-positive,physical,social,A,NULL
1744715936,fcce65d3b6e1654524853cfd0a6b9f8d,PennController,15,0,test_sp,NULL,PennController,26,_Header_,Start,1744715483268,undefined,3332,prosperous,social-positive,physical,social,A,NULL
1744715936,fcce65d3b6e1654524853cfd0a6b9f8d,PennController,15,0,test_sp,NULL,PennController,26,_Header_,End,1744715483520,undefined,3332,prosperous,social-positive,physical,social,A,NULL
1744715936,fcce65d3b6e1654524853cfd0a6b9f8d,PennController,15,0,test_sp,NULL,Selector,unnamed-Selector,Selection,social,1744715487355,undefined,3332,prosperous,social-positive,physical,social,A,physical;social
1744715936,fcce65d3b6e1654524853cfd0a6b9f8d,PennController,15,0,test_sp,NULL,PennController,26,_Trial_,End,1744715487359,undefined,3332,prosperous,social-positive,physical,social,A,NULL
1744715936,fcce65d3b6e1654524853cfd0a6b9f8d,PennController,19,0,test_sp,NULL,PennController,30,_Trial_,Start,1744715487362,undefined,941,harmonious,social-positive,physical,social,A,NULL
1744715936,fcce65d3b6e1654524853cfd0a6b9f8d,PennController,19,0,test_sp,NULL,PennController,30,_Header_,Start,1744715487362,undefined,941,harmonious,social-positive,physical,social,A,NULL
1744715936,fcce65d3b6e1654524853cfd0a6b9f8d,PennController,19,0,test_sp,NULL,PennController,30,_Header_,End,1744715487616,undefined,941,harmonious,social-positive,physical,social,A,NULL
1744715936,fcce65d3b6e1654524853cfd0a6b9f8d,PennController,19,0,test_sp,NULL,Selector,unnamed-Selector,Selection,social,1744715489061,undefined,941,harmonious,social-positive,physical,social,A,physical;social
1744715936,fcce65d3b6e1654524853cfd0a6b9f8d,PennController,19,0,test_sp,NULL,PennController,30,_Trial_,End,1744715489063,undefined,941,harmonious,social-positive,physical,social,A,NULL
1744715936,fcce65d3b6e1654524853cfd0a6b9f8d,PennController,43,0,test_sp,NULL,PennController,54,_Trial_,Start,1744715489064,undefined,722,sympathetic,social-positive,physical,social,A,NULL
1744715936,fcce65d3b6e1654524853cfd0a6b9f8d,PennController,43,0,test_sp,NULL,PennController,54,_Header_,Start,1744715489064,undefined,722,sympathetic,social-positive,physical,social,A,NULL
1744715936,fcce65d3b6e1654524853cfd0a6b9f8d,PennController,43,0,test_sp,NULL,PennController,54,_Header_,End,1744715489316,undefined,722,sympathetic,social-positive,physical,social,A,NULL
1744715936,fcce65d3b6e1654524853cfd0a6b9f8d,PennController,43,0,test_sp,NULL,Selector,unnamed-Selector,Selection,social,1744715490542,undefined,722,sympathetic,social-positive,physical,social,A,physical;social
1744715936,fcce65d3b6e1654524853cfd0a6b9f8d,PennController,43,0,test_sp,NULL,PennController,54,_Trial_,End,1744715490546,undefined,722,sympathetic,social-positive,physical,social,A,NULL
1744715936,fcce65d3b6e1654524853cfd0a6b9f8d,PennController,42,0,test_sp,NULL,PennController,53,_Trial_,Start,1744715490549,undefined,4701,judgmental,social-negative,physical,social,A,NULL
1744715936,fcce65d3b6e1654524853cfd0a6b9f8d,PennController,42,0,test_sp,NULL,PennController,53,_Header_,Start,1744715490549,undefined,4701,judgmental,social-negative,physical,social,A,NULL
1744715936,fcce65d3b6e1654524853cfd0a6b9f8d,PennController,42,0,test_sp,NULL,PennController,53,_Header_,End,1744715490799,undefined,4701,judgmental,social-negative,physical,social,A,NULL
1744715936,fcce65d3b6e1654524853cfd0a6b9f8d,PennController,42,0,test_sp,NULL,Selector,unnamed-Selector,Selection,social,1744715496004,undefined,4701,judgmental,social-negative,physical,social,A,physical;social
1744715936,fcce65d3b6e1654524853cfd0a6b9f8d,PennController,42,0,test_sp,NULL,PennController,53,_Trial_,End,1744715496008,undefined,4701,judgmental,social-negative,physical,social,A,NULL
1744715936,fcce65d3b6e1654524853cfd0a6b9f8d,PennController,17,0,test_sp,NULL,PennController,28,_Trial_,Start,1744715496011,undefined,2447,fair,social-positive,physical,social,A,NULL
1744715936,fcce65d3b6e1654524853cfd0a6b9f8d,PennController,17,0,test_sp,NULL,PennController,28,_Header_,Start,1744715496011,undefined,2447,fair,social-positive,physical,social,A,NULL
1744715936,fcce65d3b6e1654524853cfd0a6b9f8d,PennController,17,0,test_sp,NULL,PennController,28,_Header_,End,1744715496265,undefined,2447,fair,social-positive,physical,social,A,NULL
1744715936,fcce65d3b6e1654524853cfd0a6b9f8d,PennController,17,0,test_sp,NULL,Selector,unnamed-Selector,Selection,social,1744715499215,undefined,2447,fair,social-positive,physical,social,A,physical;social
1744715936,fcce65d3b6e1654524853cfd0a6b9f8d,PennController,17,0,test_sp,NULL,PennController,28,_Trial_,End,1744715499219,undefined,2447,fair,social-positive,physical,social,A,NULL
1744715936,fcce65d3b6e1654524853cfd0a6b9f8d,PennController,28,0,test_sp,NULL,PennController,39,_Trial_,Start,1744715499222,undefined,1273,scrawny,physical-negative,physical,social,A,NULL
1744715936,fcce65d3b6e1654524853cfd0a6b9f8d,PennController,28,0,test_sp,NULL,PennController,39,_Header_,Start,1744715499222,undefined,1273,scrawny,physical-negative,physical,social,A,NULL
1744715936,fcce65d3b6e1654524853cfd0a6b9f8d,PennController,28,0,test_sp,NULL,PennController,39,_Header_,End,1744715499472,undefined,1273,scrawny,physical-negative,physical,social,A,NULL
1744715936,fcce65d3b6e1654524853cfd0a6b9f8d,PennController,28,0,test_sp,NULL,Selector,unnamed-Selector,Selection,physical,1744715501252,undefined,1273,scrawny,physical-negative,physical,social,A,physical;social
1744715936,fcce65d3b6e1654524853cfd0a6b9f8d,PennController,28,0,test_sp,NULL,PennController,39,_Trial_,End,1744715501256,undefined,1273,scrawny,physical-negative,physical,social,A,NULL
1744715936,fcce65d3b6e1654524853cfd0a6b9f8d,PennController,16,0,test_sp,NULL,PennController,27,_Trial_,Start,1744715501259,undefined,1596,radiant,physical-positive,physical,social,A,NULL
1744715936,fcce65d3b6e1654524853cfd0a6b9f8d,PennController,16,0,test_sp,NULL,PennController,27,_Header_,Start,1744715501259,undefined,1596,radiant,physical-positive,physical,social,A,NULL
1744715936,fcce65d3b6e1654524853cfd0a6b9f8d,PennController,16,0,test_sp,NULL,PennController,27,_Header_,End,1744715501511,undefined,1596,radiant,physical-positive,physical,social,A,NULL
1744715936,fcce65d3b6e1654524853cfd0a6b9f8d,PennController,16,0,test_sp,NULL,Selector,unnamed-Selector,Selection,social,1744715503613,undefined,1596,radiant,physical-positive,physical,social,A,physical;social
1744715936,fcce65d3b6e1654524853cfd0a6b9f8d,PennController,16,0,test_sp,NULL,PennController,27,_Trial_,End,1744715503616,undefined,1596,radiant,physical-positive,physical,social,A,NULL
1744715936,fcce65d3b6e1654524853cfd0a6b9f8d,PennController,10,0,test_sp,NULL,PennController,21,_Trial_,Start,1744715503619,undefined,740,clammy,physical-negative,physical,social,A,NULL
1744715936,fcce65d3b6e1654524853cfd0a6b9f8d,PennController,10,0,test_sp,NULL,PennController,21,_Header_,Start,1744715503619,undefined,740,clammy,physical-negative,physical,social,A,NULL
1744715936,fcce65d3b6e1654524853cfd0a6b9f8d,PennController,10,0,test_sp,NULL,PennController,21,_Header_,End,1744715503870,undefined,740,clammy,physical-negative,physical,social,A,NULL
1744715936,fcce65d3b6e1654524853cfd0a6b9f8d,PennController,10,0,test_sp,NULL,Selector,unnamed-Selector,Selection,physical,1744715505115,undefined,740,clammy,physical-negative,physical,social,A,physical;social
1744715936,fcce65d3b6e1654524853cfd0a6b9f8d,PennController,10,0,test_sp,NULL,PennController,21,_Trial_,End,1744715505119,undefined,740,clammy,physical-negative,physical,social,A,NULL
1744715936,fcce65d3b6e1654524853cfd0a6b9f8d,PennController,22,0,test_sp,NULL,PennController,33,_Trial_,Start,1744715505122,undefined,770,oppressive,social-negative,physical,social,A,NULL
1744715936,fcce65d3b6e1654524853cfd0a6b9f8d,PennController,22,0,test_sp,NULL,PennController,33,_Header_,Start,1744715505122,undefined,770,oppressive,social-negative,physical,social,A,NULL
1744715936,fcce65d3b6e1654524853cfd0a6b9f8d,PennController,22,0,test_sp,NULL,PennController,33,_Header_,End,1744715505376,undefined,770,oppressive,social-negative,physical,social,A,NULL
1744715936,fcce65d3b6e1654524853cfd0a6b9f8d,PennController,22,0,test_sp,NULL,Selector,unnamed-Selector,Selection,social,1744715506652,undefined,770,oppressive,social-negative,physical,social,A,physical;social
1744715936,fcce65d3b6e1654524853cfd0a6b9f8d,PennController,22,0,test_sp,NULL,PennController,33,_Trial_,End,1744715506657,undefined,770,oppressive,social-negative,physical,social,A,NULL
1744715936,fcce65d3b6e1654524853cfd0a6b9f8d,PennController,36,0,test_sp,NULL,PennController,47,_Trial_,Start,1744715506660,undefined,1906,manipulative,social-negative,physical,social,A,NULL
1744715936,fcce65d3b6e1654524853cfd0a6b9f8d,PennController,36,0,test_sp,NULL,PennController,47,_Header_,Start,1744715506660,undefined,1906,manipulative,social-negative,physical,social,A,NULL
1744715936,fcce65d3b6e1654524853cfd0a6b9f8d,PennController,36,0,test_sp,NULL,PennController,47,_Header_,End,1744715506913,undefined,1906,manipulative,social-negative,physical,social,A,NULL
1744715936,fcce65d3b6e1654524853cfd0a6b9f8d,PennController,36,0,test_sp,NULL,Selector,unnamed-Selector,Selection,social,1744715509324,undefined,1906,manipulative,social-negative,physical,social,A,physical;social
1744715936,fcce65d3b6e1654524853cfd0a6b9f8d,PennController,36,0,test_sp,NULL,PennController,47,_Trial_,End,1744715509327,undefined,1906,manipulative,social-negative,physical,social,A,NULL
1744715936,fcce65d3b6e1654524853cfd0a6b9f8d,PennController,13,0,test_sp,NULL,PennController,24,_Trial_,Start,1744715509330,undefined,2641,sturdy,physical-positive,physical,social,A,NULL
1744715936,fcce65d3b6e1654524853cfd0a6b9f8d,PennController,13,0,test_sp,NULL,PennController,24,_Header_,Start,1744715509330,undefined,2641,sturdy,physical-positive,physical,social,A,NULL
1744715936,fcce65d3b6e1654524853cfd0a6b9f8d,PennController,13,0,test_sp,NULL,PennController,24,_Header_,End,1744715509581,undefined,2641,sturdy,physical-positive,physical,social,A,NULL
1744715936,fcce65d3b6e1654524853cfd0a6b9f8d,PennController,13,0,test_sp,NULL,Selector,unnamed-Selector,Selection,physical,1744715512729,undefined,2641,sturdy,physical-positive,physical,social,A,physical;social
1744715936,fcce65d3b6e1654524853cfd0a6b9f8d,PennController,13,0,test_sp,NULL,PennController,24,_Trial_,End,1744715512733,undefined,2641,sturdy,physical-positive,physical,social,A,NULL
1744715936,fcce65d3b6e1654524853cfd0a6b9f8d,PennController,35,0,test_sp,NULL,PennController,46,_Trial_,Start,1744715512738,undefined,2433,gorgeous,physical-positive,physical,social,A,NULL
1744715936,fcce65d3b6e1654524853cfd0a6b9f8d,PennController,35,0,test_sp,NULL,PennController,46,_Header_,Start,1744715512738,undefined,2433,gorgeous,physical-positive,physical,social,A,NULL
1744715936,fcce65d3b6e1654524853cfd0a6b9f8d,PennController,35,0,test_sp,NULL,PennController,46,_Header_,End,1744715512989,undefined,2433,gorgeous,physical-positive,physical,social,A,NULL
1744715936,fcce65d3b6e1654524853cfd0a6b9f8d,PennController,35,0,test_sp,NULL,Selector,unnamed-Selector,Selection,social,1744715515927,undefined,2433,gorgeous,physical-positive,physical,social,A,physical;social
1744715936,fcce65d3b6e1654524853cfd0a6b9f8d,PennController,35,0,test_sp,NULL,PennController,46,_Trial_,End,1744715515931,undefined,2433,gorgeous,physical-positive,physical,social,A,NULL
1744715936,fcce65d3b6e1654524853cfd0a6b9f8d,PennController,24,0,test_sp,NULL,PennController,35,_Trial_,Start,1744715515934,undefined,744,wrinkled,physical-negative,physical,social,A,NULL
1744715936,fcce65d3b6e1654524853cfd0a6b9f8d,PennController,24,0,test_sp,NULL,PennController,35,_Header_,Start,1744715515934,undefined,744,wrinkled,physical-negative,physical,social,A,NULL
1744715936,fcce65d3b6e1654524853cfd0a6b9f8d,PennController,24,0,test_sp,NULL,PennController,35,_Header_,End,1744715516186,undefined,744,wrinkled,physical-negative,physical,social,A,NULL
1744715936,fcce65d3b6e1654524853cfd0a6b9f8d,PennController,24,0,test_sp,NULL,Selector,unnamed-Selector,Selection,physical,1744715517438,undefined,744,wrinkled,physical-negative,physical,social,A,physical;social
1744715936,fcce65d3b6e1654524853cfd0a6b9f8d,PennController,24,0,test_sp,NULL,PennController,35,_Trial_,End,1744715517441,undefined,744,wrinkled,physical-negative,physical,social,A,NULL
1744715936,fcce65d3b6e1654524853cfd0a6b9f8d,PennController,30,0,test_sp,NULL,PennController,41,_Trial_,Start,1744715517445,undefined,688,hostile,social-negative,physical,social,A,NULL
1744715936,fcce65d3b6e1654524853cfd0a6b9f8d,PennController,30,0,test_sp,NULL,PennController,41,_Header_,Start,1744715517445,undefined,688,hostile,social-negative,physical,social,A,NULL
1744715936,fcce65d3b6e1654524853cfd0a6b9f8d,PennController,30,0,test_sp,NULL,PennController,41,_Header_,End,1744715517698,undefined,688,hostile,social-negative,physical,social,A,NULL
1744715936,fcce65d3b6e1654524853cfd0a6b9f8d,PennController,30,0,test_sp,NULL,Selector,unnamed-Selector,Selection,social,1744715518889,undefined,688,hostile,social-negative,physical,social,A,physical;social
1744715936,fcce65d3b6e1654524853cfd0a6b9f8d,PennController,30,0,test_sp,NULL,PennController,41,_Trial_,End,1744715518891,undefined,688,hostile,social-negative,physical,social,A,NULL
