"","ID.true","Word","Label","Task","BlockOrder","EventTime","Value","ReactionTime","Key_value_F","Key_value_J","Comments","Group","LogReactionTime","TrialNumber"
"1","5f4cd10836de2f02dbab436c","insecure","calibrator_val_feedback","Valence","VC",1731609317810,"positive",54,"negative","positive","negative;positive","A",3.98898404656427,1
"2","5f4cd10836de2f02dbab436c","free","calibrator_val_feedback","Valence","VC",1731609320090,"positive",1101,"negative","positive","negative;positive","A",7.00397413672268,2
"3","5f4cd10836de2f02dbab436c","icebox","calibrator_val_feedback","Valence","VC",1731609323418,"positive",562,"negative","positive","negative;positive","A",6.33150184989369,3
"4","5f4cd10836de2f02dbab436c","hat","calibrator_val_feedback","Valence","VC",1731609327234,"positive",1048,"negative","positive","negative;positive","A",6.95463886488099,4
"5","5f4cd10836de2f02dbab436c","industry","calibrator_val_feedback","Valence","VC",1731609330866,"positive",865,"negative","positive","negative;positive","A",6.76272950693188,5
"6","5f4cd10836de2f02dbab436c","jail","calibrator_val_feedback","Valence","VC",1731609334290,"negative",654,"negative","positive","negative;positive","A",6.4831073514572,6
"7","5f4cd10836de2f02dbab436c","invader","calibrator_val_feedback","Valence","VC",1731609337778,"negative",717,"negative","positive","negative;positive","A",6.57507584059962,7
"8","5f4cd10836de2f02dbab436c","kitten","calibrator_val_feedback","Valence","VC",1731609341090,"positive",544,"negative","positive","negative;positive","A",6.29894924685594,8
"9","5f4cd10836de2f02dbab436c","grin","calibrator_val_feedback","Valence","VC",1731609344490,"negative",633,"negative","positive","negative;positive","A",6.45047042214418,9
"10","5f4cd10836de2f02dbab436c","joke","calibrator_val_feedback","Valence","VC",1731609348082,"positive",821,"negative","positive","negative;positive","A",6.71052310945243,10
"11","5f4cd10836de2f02dbab436c","icebox","calibrator_val_no_feedback","Valence","VC",1731609351578,"positive",730,"A","negative;positive","","",6.59304453414244,11
"12","5f4cd10836de2f02dbab436c","grin","calibrator_val_no_feedback","Valence","VC",1731609353114,"positive",772,"A","negative;positive","","",6.64898455002478,12
"13","5f4cd10836de2f02dbab436c","jail","calibrator_val_no_feedback","Valence","VC",1731609354474,"negative",597,"A","negative;positive","","",6.3919171133926,13
"14","5f4cd10836de2f02dbab436c","industry","calibrator_val_no_feedback","Valence","VC",1731609355771,"negative",530,"A","negative;positive","","",6.27287700654617,14
"15","5f4cd10836de2f02dbab436c","free","calibrator_val_no_feedback","Valence","VC",1731609357082,"positive",549,"A","negative;positive","","",6.30809844150953,15
"16","5f4cd10836de2f02dbab436c","hat","calibrator_val_no_feedback","Valence","VC",1731609358410,"positive",568,"A","negative;positive","","",6.34212141872115,16
"17","5f4cd10836de2f02dbab436c","invader","calibrator_val_no_feedback","Valence","VC",1731609359674,"negative",502,"A","negative;positive","","",6.21860011969173,17
"18","5f4cd10836de2f02dbab436c","kitten","calibrator_val_no_feedback","Valence","VC",1731609360946,"positive",511,"A","negative;positive","","",6.2363695902037,18
"19","5f4cd10836de2f02dbab436c","insecure","calibrator_val_no_feedback","Valence","VC",1731609362282,"negative",571,"A","negative;positive","","",6.34738920965601,19
"20","5f4cd10836de2f02dbab436c","joke","calibrator_val_no_feedback","Valence","VC",1731609363498,"positive",453,"A","negative;positive","","",6.11589212548303,20
"21","5f4cd10836de2f02dbab436c","shirt","calibrator_conc_feedback","Concrete","VC",1731609560947,"concrete",1223,"abstract","concrete","abstract;concrete","A",7.10906213568717,21
"22","5f4cd10836de2f02dbab436c","marriage","calibrator_conc_feedback","Concrete","VC",1731609564219,"abstract",739,"abstract","concrete","abstract;concrete","A",6.6052979209482,22
"23","5f4cd10836de2f02dbab436c","polite","calibrator_conc_feedback","Concrete","VC",1731609566587,"concrete",1161,"abstract","concrete","abstract;concrete","A",7.05703698169789,23
"24","5f4cd10836de2f02dbab436c","sugar","calibrator_conc_feedback","Concrete","VC",1731609570707,"concrete",1353,"abstract","concrete","abstract;concrete","A",7.21007962817079,24
"25","5f4cd10836de2f02dbab436c","grasshopper","calibrator_conc_feedback","Concrete","VC",1731609574347,"concrete",878,"abstract","concrete","abstract;concrete","A",6.77764659363512,25
"26","5f4cd10836de2f02dbab436c","whistle","calibrator_conc_feedback","Concrete","VC",1731609577891,"concrete",775,"abstract","concrete","abstract;concrete","A",6.65286302935335,26
"27","5f4cd10836de2f02dbab436c","insecure","calibrator_conc_feedback","Concrete","VC",1731609581492,"abstract",831,"abstract","concrete","abstract;concrete","A",6.72262979485545,27
"28","5f4cd10836de2f02dbab436c","theory","calibrator_conc_feedback","Concrete","VC",1731609584923,"abstract",663,"abstract","concrete","abstract;concrete","A",6.49677499018586,28
"29","5f4cd10836de2f02dbab436c","kick","calibrator_conc_feedback","Concrete","VC",1731609589163,"concrete",1469,"abstract","concrete","abstract;concrete","A",7.29233717617388,29
"30","5f4cd10836de2f02dbab436c","gas","calibrator_conc_feedback","Concrete","VC",1731609593779,"abstract",1843,"abstract","concrete","abstract;concrete","A",7.51914995766982,30
"31","5f4cd10836de2f02dbab436c","grasshopper","calibrator_conc_no_feedback","Concrete","VC",1731609597611,"concrete",1064,"A","abstract;concrete","","",6.96979066990159,31
"32","5f4cd10836de2f02dbab436c","sugar","calibrator_conc_no_feedback","Concrete","VC",1731609599251,"concrete",881,"A","abstract;concrete","","",6.78105762593618,32
"33","5f4cd10836de2f02dbab436c","shirt","calibrator_conc_no_feedback","Concrete","VC",1731609600755,"concrete",743,"A","abstract;concrete","","",6.61069604471776,33
"34","5f4cd10836de2f02dbab436c","polite","calibrator_conc_no_feedback","Concrete","VC",1731609602459,"concrete",942,"A","abstract;concrete","","",6.84800527457636,34
"35","5f4cd10836de2f02dbab436c","kick","calibrator_conc_no_feedback","Concrete","VC",1731609603923,"abstract",703,"A","abstract;concrete","","",6.55535689181067,35
"36","5f4cd10836de2f02dbab436c","gas","calibrator_conc_no_feedback","Concrete","VC",1731609605715,"concrete",1027,"A","abstract;concrete","","",6.93439720992856,36
"37","5f4cd10836de2f02dbab436c","marriage","calibrator_conc_no_feedback","Concrete","VC",1731609607259,"abstract",782,"A","abstract;concrete","","",6.66185474054531,37
"38","5f4cd10836de2f02dbab436c","whistle","calibrator_conc_no_feedback","Concrete","VC",1731609609347,"concrete",1327,"A","abstract;concrete","","",7.19067603433221,38
"39","5f4cd10836de2f02dbab436c","insecure","calibrator_conc_no_feedback","Concrete","VC",1731609610836,"abstract",730,"A","abstract;concrete","","",6.59304453414244,39
"40","5f4cd10836de2f02dbab436c","theory","calibrator_conc_no_feedback","Concrete","VC",1731609612187,"abstract",592,"A","abstract;concrete","","",6.38350663488401,40
"41","6119bdc932d9ebe82ea581e1","shirt","calibrator_conc_feedback","Concrete","CV",1731619205138,"concrete",1601,"abstract","concrete","abstract;concrete","A",7.37838371299671,1
"42","6119bdc932d9ebe82ea581e1","gas","calibrator_conc_feedback","Concrete","CV",1731619209681,"concrete",1783,"abstract","concrete","abstract;concrete","A",7.48605261786314,2
"43","6119bdc932d9ebe82ea581e1","theory","calibrator_conc_feedback","Concrete","CV",1731619214273,"abstract",1828,"abstract","concrete","abstract;concrete","A",7.5109777520141,3
"44","6119bdc932d9ebe82ea581e1","polite","calibrator_conc_feedback","Concrete","CV",1731619219250,"abstract",2222,"abstract","concrete","abstract;concrete","A",7.70616297019958,4
"45","6119bdc932d9ebe82ea581e1","whistle","calibrator_conc_feedback","Concrete","CV",1731619223761,"concrete",1752,"abstract","concrete","abstract;concrete","A",7.46851327149634,5
"46","6119bdc932d9ebe82ea581e1","insecure","calibrator_conc_feedback","Concrete","CV",1731619228225,"abstract",1706,"abstract","concrete","abstract;concrete","A",7.44190672805162,6
"47","6119bdc932d9ebe82ea581e1","kick","calibrator_conc_feedback","Concrete","CV",1731619233841,"abstract",2857,"abstract","concrete","abstract;concrete","A",7.95752740223077,7
"48","6119bdc932d9ebe82ea581e1","grasshopper","calibrator_conc_feedback","Concrete","CV",1731619239129,"concrete",2528,"abstract","concrete","abstract;concrete","A",7.83518375526675,8
"49","6119bdc932d9ebe82ea581e1","sugar","calibrator_conc_feedback","Concrete","CV",1731619242657,"concrete",771,"abstract","concrete","abstract;concrete","A",6.64768837356333,9
"50","6119bdc932d9ebe82ea581e1","marriage","calibrator_conc_feedback","Concrete","CV",1731619247418,"abstract",2002,"abstract","concrete","abstract;concrete","A",7.60190195987517,10
"51","6119bdc932d9ebe82ea581e1","shirt","calibrator_conc_no_feedback","Concrete","CV",1731619250905,"concrete",727,"A","abstract;concrete","","",6.58892647753352,11
"52","6119bdc932d9ebe82ea581e1","sugar","calibrator_conc_no_feedback","Concrete","CV",1731619252529,"concrete",867,"A","abstract;concrete","","",6.76503897678054,12
"53","6119bdc932d9ebe82ea581e1","grasshopper","calibrator_conc_no_feedback","Concrete","CV",1731619254609,"concrete",1323,"A","abstract;concrete","","",7.18765716411496,13
"54","6119bdc932d9ebe82ea581e1","insecure","calibrator_conc_no_feedback","Concrete","CV",1731619256345,"abstract",980,"A","abstract;concrete","","",6.88755257166462,14
"55","6119bdc932d9ebe82ea581e1","polite","calibrator_conc_no_feedback","Concrete","CV",1731619258105,"abstract",1003,"A","abstract;concrete","","",6.91075078796194,15
"56","6119bdc932d9ebe82ea581e1","theory","calibrator_conc_no_feedback","Concrete","CV",1731619259953,"abstract",1093,"A","abstract;concrete","","",6.99668148817654,16
"57","6119bdc932d9ebe82ea581e1","marriage","calibrator_conc_no_feedback","Concrete","CV",1731619261625,"abstract",918,"A","abstract;concrete","","",6.82219739062049,17
"58","6119bdc932d9ebe82ea581e1","gas","calibrator_conc_no_feedback","Concrete","CV",1731619263361,"concrete",979,"A","abstract;concrete","","",6.88653164253051,18
"59","6119bdc932d9ebe82ea581e1","whistle","calibrator_conc_no_feedback","Concrete","CV",1731619265305,"concrete",1186,"A","abstract;concrete","","",7.07834157955767,19
"60","6119bdc932d9ebe82ea581e1","kick","calibrator_conc_no_feedback","Concrete","CV",1731619267257,"abstract",1194,"A","abstract;concrete","","",7.08506429395255,20
"61","6119bdc932d9ebe82ea581e1","industry","calibrator_val_feedback","Valence","CV",1731619537465,"positive",1392,"negative","positive","negative;positive","A",7.23849684089437,21
"62","6119bdc932d9ebe82ea581e1","kitten","calibrator_val_feedback","Valence","CV",1731619541249,"positive",1025,"negative","positive","negative;positive","A",6.93244789157251,22
"63","6119bdc932d9ebe82ea581e1","grin","calibrator_val_feedback","Valence","CV",1731619545657,"positive",1648,"negative","positive","negative;positive","A",7.40731771046942,23
"64","6119bdc932d9ebe82ea581e1","joke","calibrator_val_feedback","Valence","CV",1731619549401,"positive",988,"negative","positive","negative;positive","A",6.89568269774787,24
"65","6119bdc932d9ebe82ea581e1","invader","calibrator_val_feedback","Valence","CV",1731619553058,"negative",902,"negative","positive","negative;positive","A",6.80461452006262,25
"66","6119bdc932d9ebe82ea581e1","free","calibrator_val_feedback","Valence","CV",1731619557033,"positive",1218,"negative","positive","negative;positive","A",7.10496544826984,26
"67","6119bdc932d9ebe82ea581e1","hat","calibrator_val_feedback","Valence","CV",1731619560825,"positive",1033,"negative","positive","negative;positive","A",6.94022246911964,27
"68","6119bdc932d9ebe82ea581e1","icebox","calibrator_val_feedback","Valence","CV",1731619565097,"positive",1514,"negative","positive","negative;positive","A",7.32251043399739,28
"69","6119bdc932d9ebe82ea581e1","insecure","calibrator_val_feedback","Valence","CV",1731619569273,"negative",1418,"negative","positive","negative;positive","A",7.25700270709207,29
"70","6119bdc932d9ebe82ea581e1","jail","calibrator_val_feedback","Valence","CV",1731619573281,"negative",1250,"negative","positive","negative;positive","A",7.13089883029635,30
"71","6119bdc932d9ebe82ea581e1","insecure","calibrator_val_no_feedback","Valence","CV",1731619576953,"negative",910,"A","negative;positive","","",6.8134445995109,31
"72","6119bdc932d9ebe82ea581e1","hat","calibrator_val_no_feedback","Valence","CV",1731619579097,"positive",1388,"A","negative;positive","","",7.23561914106675,32
"73","6119bdc932d9ebe82ea581e1","joke","calibrator_val_no_feedback","Valence","CV",1731619580609,"positive",759,"A","negative;positive","","",6.63200177739563,33
"74","6119bdc932d9ebe82ea581e1","kitten","calibrator_val_no_feedback","Valence","CV",1731619581985,"positive",620,"A","negative;positive","","",6.42971947803914,34
"75","6119bdc932d9ebe82ea581e1","industry","calibrator_val_no_feedback","Valence","CV",1731619583681,"negative",941,"A","negative;positive","","",6.84694313958538,35
"76","6119bdc932d9ebe82ea581e1","jail","calibrator_val_no_feedback","Valence","CV",1731619585113,"negative",673,"A","negative;positive","","",6.51174532964473,36
"77","6119bdc932d9ebe82ea581e1","grin","calibrator_val_no_feedback","Valence","CV",1731619586497,"positive",630,"A","negative;positive","","",6.44571981938558,37
"78","6119bdc932d9ebe82ea581e1","icebox","calibrator_val_no_feedback","Valence","CV",1731619587833,"positive",581,"A","negative;positive","","",6.36475075685191,38
"79","6119bdc932d9ebe82ea581e1","invader","calibrator_val_no_feedback","Valence","CV",1731619589649,"negative",1062,"A","negative;positive","","",6.96790920180188,39
"80","6119bdc932d9ebe82ea581e1","free","calibrator_val_no_feedback","Valence","CV",1731619592209,"positive",1803,"A","negative;positive","","",7.49720722320332,40
"81","5dd43c63390fb6428d4974f0","kitten","calibrator_val_feedback","Valence","VC",1731609151563,"positive",1039,"negative","positive","negative;positive","A",6.94601399109923,1
"82","5dd43c63390fb6428d4974f0","icebox","calibrator_val_feedback","Valence","VC",1731609155853,"positive",1989,"negative","positive","negative;positive","A",7.59538727885397,2
"83","5dd43c63390fb6428d4974f0","joke","calibrator_val_feedback","Valence","VC",1731609159551,"positive",926,"negative","positive","negative;positive","A",6.83087423464618,3
"84","5dd43c63390fb6428d4974f0","invader","calibrator_val_feedback","Valence","VC",1731609163290,"negative",956,"negative","positive","negative;positive","A",6.8627579130514,4
"85","5dd43c63390fb6428d4974f0","grin","calibrator_val_feedback","Valence","VC",1731609166905,"positive",840,"negative","positive","negative;positive","A",6.73340189183736,5
"86","5dd43c63390fb6428d4974f0","insecure","calibrator_val_feedback","Valence","VC",1731609170491,"negative",800,"negative","positive","negative;positive","A",6.68461172766793,6
"87","5dd43c63390fb6428d4974f0","industry","calibrator_val_feedback","Valence","VC",1731609174249,"positive",973,"negative","positive","negative;positive","A",6.880384082186,7
"88","5dd43c63390fb6428d4974f0","free","calibrator_val_feedback","Valence","VC",1731609177756,"positive",729,"negative","positive","negative;positive","A",6.59167373200866,8
"89","5dd43c63390fb6428d4974f0","jail","calibrator_val_feedback","Valence","VC",1731609181269,"negative",735,"negative","positive","negative;positive","A",6.59987049921284,9
"90","5dd43c63390fb6428d4974f0","hat","calibrator_val_feedback","Valence","VC",1731609184973,"positive",928,"negative","positive","negative;positive","A",6.8330317327862,10
"91","5dd43c63390fb6428d4974f0","industry","calibrator_val_no_feedback","Valence","VC",1731609188636,"positive",883,"A","negative;positive","","",6.78332520060396,11
"92","5dd43c63390fb6428d4974f0","invader","calibrator_val_no_feedback","Valence","VC",1731609190123,"negative",719,"A","negative;positive","","",6.57786135772105,12
"93","5dd43c63390fb6428d4974f0","kitten","calibrator_val_no_feedback","Valence","VC",1731609191558,"positive",668,"A","negative;positive","","",6.50428817353665,13
"94","5dd43c63390fb6428d4974f0","grin","calibrator_val_no_feedback","Valence","VC",1731609192915,"positive",589,"A","negative;positive","","",6.37842618365159,14
"95","5dd43c63390fb6428d4974f0","free","calibrator_val_no_feedback","Valence","VC",1731609194254,"positive",562,"A","negative;positive","","",6.33150184989369,15
"96","5dd43c63390fb6428d4974f0","joke","calibrator_val_no_feedback","Valence","VC",1731609195567,"positive",545,"A","negative;positive","","",6.30078579466324,16
"97","5dd43c63390fb6428d4974f0","insecure","calibrator_val_no_feedback","Valence","VC",1731609196865,"negative",524,"A","negative;positive","","",6.26149168432104,17
"98","5dd43c63390fb6428d4974f0","jail","calibrator_val_no_feedback","Valence","VC",1731609198562,"negative",917,"A","negative;positive","","",6.82110747225646,18
"99","5dd43c63390fb6428d4974f0","hat","calibrator_val_no_feedback","Valence","VC",1731609199966,"positive",625,"A","negative;positive","","",6.4377516497364,19
"100","5dd43c63390fb6428d4974f0","icebox","calibrator_val_no_feedback","Valence","VC",1731609201297,"positive",565,"A","negative;positive","","",6.33682573114644,20
"101","5dd43c63390fb6428d4974f0","shirt","calibrator_conc_feedback","Concrete","VC",1731609448290,"concrete",1452,"abstract","concrete","abstract;concrete","A",7.28069719538474,21
"102","5dd43c63390fb6428d4974f0","whistle","calibrator_conc_feedback","Concrete","VC",1731609452344,"concrete",1270,"abstract","concrete","abstract;concrete","A",7.14677217945264,22
"103","5dd43c63390fb6428d4974f0","grasshopper","calibrator_conc_feedback","Concrete","VC",1731609456144,"concrete",1013,"abstract","concrete","abstract;concrete","A",6.92067150424868,23
"104","5dd43c63390fb6428d4974f0","insecure","calibrator_conc_feedback","Concrete","VC",1731609459747,"abstract",808,"abstract","concrete","abstract;concrete","A",6.69456205852109,24
"105","5dd43c63390fb6428d4974f0","polite","calibrator_conc_feedback","Concrete","VC",1731609464175,"abstract",1651,"abstract","concrete","abstract;concrete","A",7.40913644392013,25
"106","5dd43c63390fb6428d4974f0","marriage","calibrator_conc_feedback","Concrete","VC",1731609468702,"abstract",1753,"abstract","concrete","abstract;concrete","A",7.46908388492123,26
"107","5dd43c63390fb6428d4974f0","gas","calibrator_conc_feedback","Concrete","VC",1731609472364,"concrete",897,"abstract","concrete","abstract;concrete","A",6.7990558620588,27
"108","5dd43c63390fb6428d4974f0","theory","calibrator_conc_feedback","Concrete","VC",1731609476088,"abstract",955,"abstract","concrete","abstract;concrete","A",6.86171134048073,28
"109","5dd43c63390fb6428d4974f0","kick","calibrator_conc_feedback","Concrete","VC",1731609482456,"concrete",3599,"abstract","concrete","abstract;concrete","A",8.18841130807903,29
"110","5dd43c63390fb6428d4974f0","sugar","calibrator_conc_feedback","Concrete","VC",1731609486379,"concrete",1137,"abstract","concrete","abstract;concrete","A",7.03614849375054,30
"111","5dd43c63390fb6428d4974f0","sugar","calibrator_conc_no_feedback","Concrete","VC",1731609489821,"concrete",664,"A","abstract;concrete","","",6.49828214947643,31
"112","5dd43c63390fb6428d4974f0","insecure","calibrator_conc_no_feedback","Concrete","VC",1731609491402,"abstract",815,"A","abstract;concrete","","",6.70318811324086,32
"113","5dd43c63390fb6428d4974f0","kick","calibrator_conc_no_feedback","Concrete","VC",1731609492824,"abstract",661,"A","abstract;concrete","","",6.49375383985169,33
"114","5dd43c63390fb6428d4974f0","grasshopper","calibrator_conc_no_feedback","Concrete","VC",1731609494248,"concrete",663,"A","abstract;concrete","","",6.49677499018586,34
"115","5dd43c63390fb6428d4974f0","marriage","calibrator_conc_no_feedback","Concrete","VC",1731609495773,"abstract",763,"A","abstract;concrete","","",6.63725803128446,35
"116","5dd43c63390fb6428d4974f0","gas","calibrator_conc_no_feedback","Concrete","VC",1731609497375,"concrete",840,"A","abstract;concrete","","",6.73340189183736,36
"117","5dd43c63390fb6428d4974f0","whistle","calibrator_conc_no_feedback","Concrete","VC",1731609499078,"concrete",930,"A","abstract;concrete","","",6.8351845861473,37
"118","5dd43c63390fb6428d4974f0","shirt","calibrator_conc_no_feedback","Concrete","VC",1731609500435,"concrete",582,"A","abstract;concrete","","",6.36647044773144,38
"119","5dd43c63390fb6428d4974f0","polite","calibrator_conc_no_feedback","Concrete","VC",1731609501850,"abstract",633,"A","abstract;concrete","","",6.45047042214418,39
"120","5dd43c63390fb6428d4974f0","theory","calibrator_conc_no_feedback","Concrete","VC",1731609503249,"abstract",634,"A","abstract;concrete","","",6.45204895443723,40
"121","6413c7853eba2b2215197ff4","invader","calibrator_val_feedback","Valence","VC",1731609136934,"negative",1868,"negative","positive","negative;positive","A",7.53262361878879,1
"122","6413c7853eba2b2215197ff4","jail","calibrator_val_feedback","Valence","VC",1731609140185,"negative",1628,"negative","positive","negative;positive","A",7.39510754656249,2
"123","6413c7853eba2b2215197ff4","free","calibrator_val_feedback","Valence","VC",1731609144409,"positive",1454,"negative","positive","negative;positive","A",7.28207365809346,3
"124","6413c7853eba2b2215197ff4","industry","calibrator_val_feedback","Valence","VC",1731609149062,"positive",1883,"negative","positive","negative;positive","A",7.54062152865715,4
"125","6413c7853eba2b2215197ff4","joke","calibrator_val_feedback","Valence","VC",1731609153088,"positive",1252,"negative","positive","negative;positive","A",7.13249755166004,5
"126","6413c7853eba2b2215197ff4","insecure","calibrator_val_feedback","Valence","VC",1731609156797,"negative",938,"negative","positive","negative;positive","A",6.84374994900622,6
"127","6413c7853eba2b2215197ff4","grin","calibrator_val_feedback","Valence","VC",1731609160684,"positive",1116,"negative","positive","negative;positive","A",7.01750614294126,7
"128","6413c7853eba2b2215197ff4","kitten","calibrator_val_feedback","Valence","VC",1731609164097,"positive",647,"negative","positive","negative;positive","A",6.4723462945009,8
"129","6413c7853eba2b2215197ff4","hat","calibrator_val_feedback","Valence","VC",1731609167528,"positive",656,"negative","positive","negative;positive","A",6.48616078894409,9
"130","6413c7853eba2b2215197ff4","icebox","calibrator_val_feedback","Valence","VC",1731609170840,"positive",544,"negative","positive","negative;positive","A",6.29894924685594,10
"131","6413c7853eba2b2215197ff4","invader","calibrator_val_no_feedback","Valence","VC",1731609174327,"negative",721,"A","negative;positive","","",6.58063913728495,11
"132","6413c7853eba2b2215197ff4","insecure","calibrator_val_no_feedback","Valence","VC",1731609175757,"negative",661,"A","negative;positive","","",6.49375383985169,12
"133","6413c7853eba2b2215197ff4","industry","calibrator_val_no_feedback","Valence","VC",1731609177039,"negative",518,"A","negative;positive","","",6.24997524225948,13
"134","6413c7853eba2b2215197ff4","joke","calibrator_val_no_feedback","Valence","VC",1731609178284,"positive",487,"A","negative;positive","","",6.18826412308259,14
"135","6413c7853eba2b2215197ff4","grin","calibrator_val_no_feedback","Valence","VC",1731609179598,"positive",545,"A","negative;positive","","",6.30078579466324,15
"136","6413c7853eba2b2215197ff4","jail","calibrator_val_no_feedback","Valence","VC",1731609180974,"negative",614,"A","negative;positive","","",6.41999492814714,16
"137","6413c7853eba2b2215197ff4","icebox","calibrator_val_no_feedback","Valence","VC",1731609182335,"positive",592,"A","negative;positive","","",6.38350663488401,17
"138","6413c7853eba2b2215197ff4","kitten","calibrator_val_no_feedback","Valence","VC",1731609183644,"positive",543,"A","negative;positive","","",6.29710931993394,18
"139","6413c7853eba2b2215197ff4","free","calibrator_val_no_feedback","Valence","VC",1731609185069,"positive",659,"A","negative;positive","","",6.49072353450251,19
"140","6413c7853eba2b2215197ff4","hat","calibrator_val_no_feedback","Valence","VC",1731609186379,"positive",547,"A","negative;positive","","",6.30444880242198,20
"141","6413c7853eba2b2215197ff4","shirt","calibrator_conc_feedback","Concrete","VC",1731609464021,"concrete",1574,"abstract","concrete","abstract;concrete","A",7.36137542897735,21
"142","6413c7853eba2b2215197ff4","insecure","calibrator_conc_feedback","Concrete","VC",1731609467768,"abstract",975,"abstract","concrete","abstract;concrete","A",6.88243747099785,22
"143","6413c7853eba2b2215197ff4","polite","calibrator_conc_feedback","Concrete","VC",1731609472130,"abstract",1589,"abstract","concrete","abstract;concrete","A",7.37086016653672,23
"144","6413c7853eba2b2215197ff4","whistle","calibrator_conc_feedback","Concrete","VC",1731609475764,"concrete",866,"abstract","concrete","abstract;concrete","A",6.76388490856244,24
"145","6413c7853eba2b2215197ff4","gas","calibrator_conc_feedback","Concrete","VC",1731609479222,"concrete",681,"abstract","concrete","abstract;concrete","A",6.52356230614951,25
"146","6413c7853eba2b2215197ff4","kick","calibrator_conc_feedback","Concrete","VC",1731609482708,"concrete",717,"abstract","concrete","abstract;concrete","A",6.57507584059962,26
"147","6413c7853eba2b2215197ff4","grasshopper","calibrator_conc_feedback","Concrete","VC",1731609486175,"concrete",695,"abstract","concrete","abstract;concrete","A",6.54391184556479,27
"148","6413c7853eba2b2215197ff4","marriage","calibrator_conc_feedback","Concrete","VC",1731609489545,"concrete",601,"abstract","concrete","abstract;concrete","A",6.39859493453521,28
"149","6413c7853eba2b2215197ff4","theory","calibrator_conc_feedback","Concrete","VC",1731609493853,"concrete",1536,"abstract","concrete","abstract;concrete","A",7.33693691370762,29
"150","6413c7853eba2b2215197ff4","sugar","calibrator_conc_feedback","Concrete","VC",1731609497352,"concrete",726,"abstract","concrete","abstract;concrete","A",6.5875500148248,30
"151","6413c7853eba2b2215197ff4","sugar","calibrator_conc_no_feedback","Concrete","VC",1731609500644,"concrete",520,"A","abstract;concrete","","",6.25382881157547,31
"152","6413c7853eba2b2215197ff4","shirt","calibrator_conc_no_feedback","Concrete","VC",1731609502051,"concrete",644,"A","abstract;concrete","","",6.46769872610435,32
"153","6413c7853eba2b2215197ff4","theory","calibrator_conc_no_feedback","Concrete","VC",1731609503450,"concrete",643,"A","abstract;concrete","","",6.46614472423762,33
"154","6413c7853eba2b2215197ff4","polite","calibrator_conc_no_feedback","Concrete","VC",1731609504917,"abstract",701,"A","abstract;concrete","","",6.55250788703459,34
"155","6413c7853eba2b2215197ff4","grasshopper","calibrator_conc_no_feedback","Concrete","VC",1731609506221,"concrete",538,"A","abstract;concrete","","",6.28785856016178,35
"156","6413c7853eba2b2215197ff4","insecure","calibrator_conc_no_feedback","Concrete","VC",1731609507503,"abstract",515,"A","abstract;concrete","","",6.24416690066374,36
"157","6413c7853eba2b2215197ff4","marriage","calibrator_conc_no_feedback","Concrete","VC",1731609508828,"concrete",557,"A","abstract;concrete","","",6.32256523992728,37
"158","6413c7853eba2b2215197ff4","whistle","calibrator_conc_no_feedback","Concrete","VC",1731609510161,"concrete",563,"A","abstract;concrete","","",6.33327962813969,38
"159","6413c7853eba2b2215197ff4","kick","calibrator_conc_no_feedback","Concrete","VC",1731609511578,"concrete",648,"A","abstract;concrete","","",6.47389069635227,39
"160","6413c7853eba2b2215197ff4","gas","calibrator_conc_no_feedback","Concrete","VC",1731609512834,"concrete",490,"A","abstract;concrete","","",6.19440539110467,40
"161","58be162d2e4dc0000164b12c","sugar","calibrator_conc_feedback","Concrete","CV",1731619883603,"concrete",1838,"abstract","concrete","abstract;concrete","A",7.51643330291563,1
"162","58be162d2e4dc0000164b12c","theory","calibrator_conc_feedback","Concrete","CV",1731619887590,"abstract",1215,"abstract","concrete","abstract;concrete","A",7.10249935577465,2
"163","58be162d2e4dc0000164b12c","polite","calibrator_conc_feedback","Concrete","CV",1731619891806,"abstract",1455,"abstract","concrete","abstract;concrete","A",7.28276117960559,3
"164","58be162d2e4dc0000164b12c","gas","calibrator_conc_feedback","Concrete","CV",1731619895777,"concrete",1210,"abstract","concrete","abstract;concrete","A",7.09837563859079,4
"165","58be162d2e4dc0000164b12c","shirt","calibrator_conc_feedback","Concrete","CV",1731619899511,"concrete",974,"abstract","concrete","abstract;concrete","A",6.88141130364254,5
"166","58be162d2e4dc0000164b12c","marriage","calibrator_conc_feedback","Concrete","CV",1731619903766,"abstract",1497,"abstract","concrete","abstract;concrete","A",7.31121838441963,6
"167","58be162d2e4dc0000164b12c","whistle","calibrator_conc_feedback","Concrete","CV",1731619908045,"concrete",1516,"abstract","concrete","abstract;concrete","A",7.32383056620232,7
"168","58be162d2e4dc0000164b12c","kick","calibrator_conc_feedback","Concrete","CV",1731619911775,"concrete",963,"abstract","concrete","abstract;concrete","A",6.87005341179813,8
"169","58be162d2e4dc0000164b12c","insecure","calibrator_conc_feedback","Concrete","CV",1731619915568,"abstract",1028,"abstract","concrete","abstract;concrete","A",6.93537044601511,9
"170","58be162d2e4dc0000164b12c","grasshopper","calibrator_conc_feedback","Concrete","CV",1731619919423,"concrete",1090,"abstract","concrete","abstract;concrete","A",6.99393297522319,10
"171","58be162d2e4dc0000164b12c","kick","calibrator_conc_no_feedback","Concrete","CV",1731619923363,"concrete",1177,"A","abstract;concrete","","",7.07072410726028,11
"172","58be162d2e4dc0000164b12c","sugar","calibrator_conc_no_feedback","Concrete","CV",1731619925057,"concrete",934,"A","abstract;concrete","","",6.83947643822884,12
"173","58be162d2e4dc0000164b12c","shirt","calibrator_conc_no_feedback","Concrete","CV",1731619926666,"concrete",851,"A","abstract;concrete","","",6.74641212857337,13
"174","58be162d2e4dc0000164b12c","grasshopper","calibrator_conc_no_feedback","Concrete","CV",1731619928270,"concrete",847,"A","abstract;concrete","","",6.74170069465205,14
"175","58be162d2e4dc0000164b12c","whistle","calibrator_conc_no_feedback","Concrete","CV",1731619929944,"abstract",914,"A","abstract;concrete","","",6.81783057145415,15
"176","58be162d2e4dc0000164b12c","polite","calibrator_conc_no_feedback","Concrete","CV",1731619931865,"abstract",1163,"A","abstract;concrete","","",7.05875815251866,16
"177","58be162d2e4dc0000164b12c","insecure","calibrator_conc_no_feedback","Concrete","CV",1731619933435,"abstract",813,"A","abstract;concrete","","",6.70073110954781,17
"178","58be162d2e4dc0000164b12c","gas","calibrator_conc_no_feedback","Concrete","CV",1731619934997,"concrete",806,"A","abstract;concrete","","",6.69208374250663,18
"179","58be162d2e4dc0000164b12c","marriage","calibrator_conc_no_feedback","Concrete","CV",1731619936961,"abstract",1209,"A","abstract;concrete","","",7.09754885061479,19
"180","58be162d2e4dc0000164b12c","theory","calibrator_conc_no_feedback","Concrete","CV",1731619938427,"abstract",709,"A","abstract;concrete","","",6.56385552653213,20
"181","58be162d2e4dc0000164b12c","kitten","calibrator_val_feedback","Valence","CV",1731620149369,"positive",1483,"negative","positive","negative;positive","A",7.30182234213793,21
"182","58be162d2e4dc0000164b12c","icebox","calibrator_val_feedback","Valence","CV",1731620153588,"positive",1458,"negative","positive","negative;positive","A",7.2848209125686,22
"183","58be162d2e4dc0000164b12c","invader","calibrator_val_feedback","Valence","CV",1731620157072,"negative",719,"negative","positive","negative;positive","A",6.57786135772105,23
"184","58be162d2e4dc0000164b12c","jail","calibrator_val_feedback","Valence","CV",1731620160519,"negative",686,"negative","positive","negative;positive","A",6.53087762772588,24
"185","58be162d2e4dc0000164b12c","grin","calibrator_val_feedback","Valence","CV",1731620164177,"positive",900,"negative","positive","negative;positive","A",6.80239476332431,25
"186","58be162d2e4dc0000164b12c","joke","calibrator_val_feedback","Valence","CV",1731620167573,"positive",636,"negative","positive","negative;positive","A",6.45519856334012,26
"187","58be162d2e4dc0000164b12c","hat","calibrator_val_feedback","Valence","CV",1731620171479,"positive",1145,"negative","positive","negative;positive","A",7.04315991598834,27
"188","58be162d2e4dc0000164b12c","insecure","calibrator_val_feedback","Valence","CV",1731620174979,"negative",741,"negative","positive","negative;positive","A",6.60800062529609,28
"189","58be162d2e4dc0000164b12c","free","calibrator_val_feedback","Valence","CV",1731620178822,"positive",1084,"negative","positive","negative;positive","A",6.98841318199959,29
"190","58be162d2e4dc0000164b12c","industry","calibrator_val_feedback","Valence","CV",1731620182461,"positive",879,"negative","positive","negative;positive","A",6.77878489768518,30
"191","58be162d2e4dc0000164b12c","kitten","calibrator_val_no_feedback","Valence","CV",1731620185922,"positive",699,"A","negative;positive","","",6.54965074223381,31
"192","58be162d2e4dc0000164b12c","joke","calibrator_val_no_feedback","Valence","CV",1731620187535,"positive",853,"A","negative;positive","","",6.74875954749168,32
"193","58be162d2e4dc0000164b12c","jail","calibrator_val_no_feedback","Valence","CV",1731620189142,"negative",849,"A","negative;positive","","",6.74405918631135,33
"194","58be162d2e4dc0000164b12c","invader","calibrator_val_no_feedback","Valence","CV",1731620190463,"negative",565,"A","negative;positive","","",6.33682573114644,34
"195","58be162d2e4dc0000164b12c","industry","calibrator_val_no_feedback","Valence","CV",1731620191935,"positive",715,"A","negative;positive","","",6.57228254269401,35
"196","58be162d2e4dc0000164b12c","icebox","calibrator_val_no_feedback","Valence","CV",1731620193388,"positive",696,"A","negative;positive","","",6.54534966033442,36
"197","58be162d2e4dc0000164b12c","free","calibrator_val_no_feedback","Valence","CV",1731620194797,"positive",657,"A","negative;positive","","",6.48768401848461,37
"198","58be162d2e4dc0000164b12c","insecure","calibrator_val_no_feedback","Valence","CV",1731620196136,"negative",579,"A","negative;positive","","",6.361302477573,38
"199","58be162d2e4dc0000164b12c","hat","calibrator_val_no_feedback","Valence","CV",1731620197707,"positive",813,"A","negative;positive","","",6.70073110954781,39
"200","58be162d2e4dc0000164b12c","grin","calibrator_val_no_feedback","Valence","CV",1731620199102,"positive",638,"A","negative;positive","","",6.45833828334479,40
"201","5dc0ac2c441a2105cbb3bb0f","invader","calibrator_val_feedback","Valence","VC",1731609473898,"negative",1289,"negative","positive","negative;positive","A",7.16162200293919,1
"202","5dc0ac2c441a2105cbb3bb0f","hat","calibrator_val_feedback","Valence","VC",1731609477869,"positive",1216,"negative","positive","negative;positive","A",7.10332206252611,2
"203","5dc0ac2c441a2105cbb3bb0f","joke","calibrator_val_feedback","Valence","VC",1731609481652,"positive",1022,"negative","positive","negative;positive","A",6.92951677076365,3
"204","5dc0ac2c441a2105cbb3bb0f","jail","calibrator_val_feedback","Valence","VC",1731609485302,"negative",890,"negative","positive","negative;positive","A",6.79122146272619,4
"205","5dc0ac2c441a2105cbb3bb0f","kitten","calibrator_val_feedback","Valence","VC",1731609489105,"positive",1043,"negative","positive","negative;positive","A",6.94985645500077,5
"206","5dc0ac2c441a2105cbb3bb0f","insecure","calibrator_val_feedback","Valence","VC",1731609492806,"negative",946,"negative","positive","negative;positive","A",6.85224256905188,6
"207","5dc0ac2c441a2105cbb3bb0f","industry","calibrator_val_feedback","Valence","VC",1731609496896,"negative",1333,"negative","positive","negative;positive","A",7.19518732017871,7
"208","5dc0ac2c441a2105cbb3bb0f","free","calibrator_val_feedback","Valence","VC",1731609500933,"positive",1277,"negative","positive","negative;positive","A",7.15226885603254,8
"209","5dc0ac2c441a2105cbb3bb0f","grin","calibrator_val_feedback","Valence","VC",1731609504867,"positive",1177,"negative","positive","negative;positive","A",7.07072410726028,9
"210","5dc0ac2c441a2105cbb3bb0f","icebox","calibrator_val_feedback","Valence","VC",1731609509027,"positive",1398,"negative","positive","negative;positive","A",7.24279792279376,10
"211","5dc0ac2c441a2105cbb3bb0f","icebox","calibrator_val_no_feedback","Valence","VC",1731609515295,"negative",3507,"A","negative;positive","","",8.16251625014018,11
"212","5dc0ac2c441a2105cbb3bb0f","joke","calibrator_val_no_feedback","Valence","VC",1731609516960,"positive",910,"A","negative;positive","","",6.8134445995109,12
"213","5dc0ac2c441a2105cbb3bb0f","insecure","calibrator_val_no_feedback","Valence","VC",1731609518652,"negative",935,"A","negative;positive","","",6.84054652928869,13
"214","5dc0ac2c441a2105cbb3bb0f","invader","calibrator_val_no_feedback","Valence","VC",1731609520504,"negative",1095,"A","negative;positive","","",6.9985096422506,14
"215","5dc0ac2c441a2105cbb3bb0f","industry","calibrator_val_no_feedback","Valence","VC",1731609522668,"negative",1407,"A","negative;positive","","",7.24921505711439,15
"216","5dc0ac2c441a2105cbb3bb0f","free","calibrator_val_no_feedback","Valence","VC",1731609524123,"positive",695,"A","negative;positive","","",6.54391184556479,16
"217","5dc0ac2c441a2105cbb3bb0f","jail","calibrator_val_no_feedback","Valence","VC",1731609525680,"negative",799,"A","negative;positive","","",6.68336094576627,17
"218","5dc0ac2c441a2105cbb3bb0f","kitten","calibrator_val_no_feedback","Valence","VC",1731609527339,"positive",902,"A","negative;positive","","",6.80461452006262,18
"219","5dc0ac2c441a2105cbb3bb0f","hat","calibrator_val_no_feedback","Valence","VC",1731609528841,"positive",747,"A","negative;positive","","",6.61606518513282,19
"220","5dc0ac2c441a2105cbb3bb0f","grin","calibrator_val_no_feedback","Valence","VC",1731609530415,"positive",819,"A","negative;positive","","",6.70808408385307,20
"221","5dc0ac2c441a2105cbb3bb0f","theory","calibrator_conc_feedback","Concrete","VC",1731609882031,"abstract",914,"abstract","concrete","abstract;concrete","A",6.81783057145415,21
"222","5dc0ac2c441a2105cbb3bb0f","insecure","calibrator_conc_feedback","Concrete","VC",1731609886284,"abstract",1496,"abstract","concrete","abstract;concrete","A",7.31055015853442,22
"223","5dc0ac2c441a2105cbb3bb0f","gas","calibrator_conc_feedback","Concrete","VC",1731609889895,"concrete",850,"abstract","concrete","abstract;concrete","A",6.74523634948436,23
"224","5dc0ac2c441a2105cbb3bb0f","sugar","calibrator_conc_feedback","Concrete","VC",1731609893443,"concrete",793,"abstract","concrete","abstract;concrete","A",6.67582322163485,24
"225","5dc0ac2c441a2105cbb3bb0f","kick","calibrator_conc_feedback","Concrete","VC",1731609898051,"concrete",1847,"abstract","concrete","abstract;concrete","A",7.52131798019924,25
"226","5dc0ac2c441a2105cbb3bb0f","grasshopper","calibrator_conc_feedback","Concrete","VC",1731609902040,"concrete",1228,"abstract","concrete","abstract;concrete","A",7.11314210870709,26
"227","5dc0ac2c441a2105cbb3bb0f","marriage","calibrator_conc_feedback","Concrete","VC",1731609905916,"abstract",1116,"abstract","concrete","abstract;concrete","A",7.01750614294126,27
"228","5dc0ac2c441a2105cbb3bb0f","shirt","calibrator_conc_feedback","Concrete","VC",1731609909756,"concrete",1085,"abstract","concrete","abstract;concrete","A",6.98933526597456,28
"229","5dc0ac2c441a2105cbb3bb0f","polite","calibrator_conc_feedback","Concrete","VC",1731609913530,"abstract",1014,"abstract","concrete","abstract;concrete","A",6.92165818415113,29
"230","5dc0ac2c441a2105cbb3bb0f","whistle","calibrator_conc_feedback","Concrete","VC",1731609917578,"abstract",1290,"abstract","concrete","abstract;concrete","A",7.16239749735572,30
"231","5dc0ac2c441a2105cbb3bb0f","theory","calibrator_conc_no_feedback","Concrete","VC",1731609921729,"abstract",1391,"A","abstract;concrete","","",7.23777819192344,31
"232","5dc0ac2c441a2105cbb3bb0f","marriage","calibrator_conc_no_feedback","Concrete","VC",1731609923742,"abstract",1254,"A","abstract;concrete","","",7.13409372119287,32
"233","5dc0ac2c441a2105cbb3bb0f","sugar","calibrator_conc_no_feedback","Concrete","VC",1731609925186,"concrete",687,"A","abstract;concrete","","",6.53233429222235,33
"234","5dc0ac2c441a2105cbb3bb0f","grasshopper","calibrator_conc_no_feedback","Concrete","VC",1731609926671,"concrete",729,"A","abstract;concrete","","",6.59167373200866,34
"235","5dc0ac2c441a2105cbb3bb0f","polite","calibrator_conc_no_feedback","Concrete","VC",1731609928117,"abstract",689,"A","abstract;concrete","","",6.53524127101366,35
"236","5dc0ac2c441a2105cbb3bb0f","whistle","calibrator_conc_no_feedback","Concrete","VC",1731609929823,"concrete",948,"A","abstract;concrete","","",6.85435450225502,36
"237","5dc0ac2c441a2105cbb3bb0f","insecure","calibrator_conc_no_feedback","Concrete","VC",1731609931525,"abstract",946,"A","abstract;concrete","","",6.85224256905188,37
"238","5dc0ac2c441a2105cbb3bb0f","shirt","calibrator_conc_no_feedback","Concrete","VC",1731609933018,"concrete",740,"A","abstract;concrete","","",6.60665018619822,38
"239","5dc0ac2c441a2105cbb3bb0f","gas","calibrator_conc_no_feedback","Concrete","VC",1731609934509,"concrete",739,"A","abstract;concrete","","",6.6052979209482,39
"240","5dc0ac2c441a2105cbb3bb0f","kick","calibrator_conc_no_feedback","Concrete","VC",1731609936512,"concrete",1246,"A","abstract;concrete","","",7.1276936993474,40
"241","5f1b84872171f838a8a3cfa9","polite","calibrator_conc_feedback","Concrete","CV",1731620114680,"abstract",3752,"concrete","abstract","concrete;abstract","B",8.23004431012611,1
"242","5f1b84872171f838a8a3cfa9","sugar","calibrator_conc_feedback","Concrete","CV",1731620124594,"concrete",7141,"concrete","abstract","concrete;abstract","B",8.87360810154911,2
"243","5f1b84872171f838a8a3cfa9","kick","calibrator_conc_feedback","Concrete","CV",1731620134194,"concrete",6827,"concrete","abstract","concrete;abstract","B",8.82864061741828,3
"244","5f1b84872171f838a8a3cfa9","whistle","calibrator_conc_feedback","Concrete","CV",1731620144562,"concrete",7597,"concrete","abstract","concrete;abstract","B",8.93550871150322,4
"245","5f1b84872171f838a8a3cfa9","gas","calibrator_conc_feedback","Concrete","CV",1731620149754,"concrete",2426,"concrete","abstract","concrete;abstract","B",7.793999089504,5
"246","5f1b84872171f838a8a3cfa9","insecure","calibrator_conc_feedback","Concrete","CV",1731620155858,"abstract",3342,"concrete","abstract","concrete;abstract","B",8.11432470915534,6
"247","5f1b84872171f838a8a3cfa9","shirt","calibrator_conc_feedback","Concrete","CV",1731620159794,"concrete",1172,"concrete","abstract","concrete;abstract","B",7.06646697013696,7
"248","5f1b84872171f838a8a3cfa9","marriage","calibrator_conc_feedback","Concrete","CV",1731620165434,"abstract",2876,"concrete","abstract","concrete;abstract","B",7.96415571884094,8
"249","5f1b84872171f838a8a3cfa9","grasshopper","calibrator_conc_feedback","Concrete","CV",1731620169410,"concrete",1211,"concrete","abstract","concrete;abstract","B",7.09920174355309,9
"250","5f1b84872171f838a8a3cfa9","theory","calibrator_conc_feedback","Concrete","CV",1731620173634,"abstract",1465,"concrete","abstract","concrete;abstract","B",7.28961052145117,10
"251","5f1b84872171f838a8a3cfa9","polite","calibrator_conc_no_feedback","Concrete","CV",1731620177666,"abstract",1266,"B","concrete;abstract","","",7.14361760270412,11
"252","5f1b84872171f838a8a3cfa9","theory","calibrator_conc_no_feedback","Concrete","CV",1731620181202,"abstract",2776,"B","concrete;abstract","","",7.9287663216267,12
"253","5f1b84872171f838a8a3cfa9","shirt","calibrator_conc_no_feedback","Concrete","CV",1731620182937,"concrete",976,"B","concrete;abstract","","",6.88346258641309,13
"254","5f1b84872171f838a8a3cfa9","gas","calibrator_conc_no_feedback","Concrete","CV",1731620186466,"concrete",2771,"B","concrete;abstract","","",7.92696354486298,14
"255","5f1b84872171f838a8a3cfa9","grasshopper","calibrator_conc_no_feedback","Concrete","CV",1731620188506,"concrete",1276,"B","concrete;abstract","","",7.15148546390474,15
"256","5f1b84872171f838a8a3cfa9","sugar","calibrator_conc_no_feedback","Concrete","CV",1731620190538,"concrete",1271,"B","concrete;abstract","","",7.14755927118945,16
"257","5f1b84872171f838a8a3cfa9","marriage","calibrator_conc_no_feedback","Concrete","CV",1731620192666,"concrete",1369,"B","concrete;abstract","","",7.22183582528845,17
"258","5f1b84872171f838a8a3cfa9","whistle","calibrator_conc_no_feedback","Concrete","CV",1731620197538,"concrete",4112,"B","concrete;abstract","","",8.321664807135,18
"259","5f1b84872171f838a8a3cfa9","kick","calibrator_conc_no_feedback","Concrete","CV",1731620210066,"concrete",11770,"B","concrete;abstract","","",9.37330920025432,19
"260","5f1b84872171f838a8a3cfa9","insecure","calibrator_conc_no_feedback","Concrete","CV",1731620211930,"abstract",1102,"B","concrete;abstract","","",7.00488198971286,20
"261","5f1b84872171f838a8a3cfa9","industry","calibrator_val_feedback","Valence","CV",1731620699514,"positive",5515,"positive","negative","positive;negative","B",8.6152269316876,21
"262","5f1b84872171f838a8a3cfa9","icebox","calibrator_val_feedback","Valence","CV",1731620708954,"positive",6677,"positive","negative","positive;negative","B",8.80642406385787,22
"263","5f1b84872171f838a8a3cfa9","kitten","calibrator_val_feedback","Valence","CV",1731620713146,"positive",1427,"positive","negative","positive;negative","B",7.26332961747684,23
"264","5f1b84872171f838a8a3cfa9","hat","calibrator_val_feedback","Valence","CV",1731620717979,"positive",2073,"positive","negative","positive;negative","B",7.63675211243578,24
"265","5f1b84872171f838a8a3cfa9","jail","calibrator_val_feedback","Valence","CV",1731620721730,"negative",994,"positive","negative","positive;negative","B",6.90173720665657,25
"266","5f1b84872171f838a8a3cfa9","joke","calibrator_val_feedback","Valence","CV",1731620725570,"positive",1078,"positive","negative","positive;negative","B",6.98286275146894,26
"267","5f1b84872171f838a8a3cfa9","invader","calibrator_val_feedback","Valence","CV",1731620729521,"negative",1191,"positive","negative","positive;negative","B",7.0825485693553,27
"268","5f1b84872171f838a8a3cfa9","insecure","calibrator_val_feedback","Valence","CV",1731620734410,"negative",2130,"positive","negative","positive;negative","B",7.66387725870347,28
"269","5f1b84872171f838a8a3cfa9","free","calibrator_val_feedback","Valence","CV",1731620738458,"positive",1285,"positive","negative","positive;negative","B",7.15851399732932,29
"270","5f1b84872171f838a8a3cfa9","grin","calibrator_val_feedback","Valence","CV",1731620742042,"positive",823,"positive","negative","positive;negative","B",6.71295620067707,30
"271","5f1b84872171f838a8a3cfa9","hat","calibrator_val_no_feedback","Valence","CV",1731620746042,"positive",1241,"B","positive;negative","","",7.12367278520461,31
"272","5f1b84872171f838a8a3cfa9","invader","calibrator_val_no_feedback","Valence","CV",1731620747666,"negative",865,"B","positive;negative","","",6.76272950693188,32
"273","5f1b84872171f838a8a3cfa9","industry","calibrator_val_no_feedback","Valence","CV",1731620749563,"positive",1134,"B","positive;negative","","",7.0335064842877,33
"274","5f1b84872171f838a8a3cfa9","jail","calibrator_val_no_feedback","Valence","CV",1731620751330,"negative",1010,"B","positive;negative","","",6.9177056098353,34
"275","5f1b84872171f838a8a3cfa9","insecure","calibrator_val_no_feedback","Valence","CV",1731620753114,"negative",1026,"B","positive;negative","","",6.93342302573071,35
"276","5f1b84872171f838a8a3cfa9","free","calibrator_val_no_feedback","Valence","CV",1731620754819,"positive",943,"B","positive;negative","","",6.84906628263346,36
"277","5f1b84872171f838a8a3cfa9","grin","calibrator_val_no_feedback","Valence","CV",1731620756347,"positive",766,"B","positive;negative","","",6.64118216974059,37
"278","5f1b84872171f838a8a3cfa9","kitten","calibrator_val_no_feedback","Valence","CV",1731620757842,"positive",734,"B","positive;negative","","",6.59850902861452,38
"279","5f1b84872171f838a8a3cfa9","joke","calibrator_val_no_feedback","Valence","CV",1731620759530,"positive",925,"B","positive;negative","","",6.82979373751242,39
"280","5f1b84872171f838a8a3cfa9","icebox","calibrator_val_no_feedback","Valence","CV",1731620761258,"positive",966,"B","positive;negative","","",6.87316383421252,40
"281","5f455ed3326727130e7d4a49","invader","calibrator_val_feedback","Valence","VC",1731610146681,"negative",1614,"negative","positive","negative;positive","A",7.38647084882989,1
"282","5f455ed3326727130e7d4a49","industry","calibrator_val_feedback","Valence","VC",1731610151400,"positive",1950,"negative","positive","negative;positive","A",7.57558465155779,2
"283","5f455ed3326727130e7d4a49","icebox","calibrator_val_feedback","Valence","VC",1731610155609,"positive",1444,"negative","positive","negative;positive","A",7.27517231945277,3
"284","5f455ed3326727130e7d4a49","grin","calibrator_val_feedback","Valence","VC",1731610159265,"positive",894,"negative","positive","negative;positive","A",6.79570577517351,4
"285","5f455ed3326727130e7d4a49","kitten","calibrator_val_feedback","Valence","VC",1731610162798,"positive",767,"negative","positive","negative;positive","A",6.64248680136726,5
"286","5f455ed3326727130e7d4a49","hat","calibrator_val_feedback","Valence","VC",1731610166392,"positive",830,"negative","positive","negative;positive","A",6.72142570079064,6
"287","5f455ed3326727130e7d4a49","jail","calibrator_val_feedback","Valence","VC",1731610169820,"negative",662,"negative","positive","negative;positive","A",6.49526555593701,7
"288","5f455ed3326727130e7d4a49","insecure","calibrator_val_feedback","Valence","VC",1731610173443,"negative",860,"negative","positive","negative;positive","A",6.75693238924755,8
"289","5f455ed3326727130e7d4a49","joke","calibrator_val_feedback","Valence","VC",1731610176976,"negative",766,"negative","positive","negative;positive","A",6.64118216974059,9
"290","5f455ed3326727130e7d4a49","free","calibrator_val_feedback","Valence","VC",1731610180836,"positive",1102,"negative","positive","negative;positive","A",7.00488198971286,10
"291","5f455ed3326727130e7d4a49","kitten","calibrator_val_no_feedback","Valence","VC",1731610184360,"positive",754,"A","negative;positive","","",6.62539236800796,11
"292","5f455ed3326727130e7d4a49","hat","calibrator_val_no_feedback","Valence","VC",1731610186025,"positive",904,"A","negative;positive","","",6.80682936039218,12
"293","5f455ed3326727130e7d4a49","icebox","calibrator_val_no_feedback","Valence","VC",1731610187584,"positive",797,"A","negative;positive","","",6.68085467879022,13
"294","5f455ed3326727130e7d4a49","grin","calibrator_val_no_feedback","Valence","VC",1731610189060,"positive",716,"A","negative;positive","","",6.57368016696065,14
"295","5f455ed3326727130e7d4a49","insecure","calibrator_val_no_feedback","Valence","VC",1731610190621,"negative",799,"A","negative;positive","","",6.68336094576627,15
"296","5f455ed3326727130e7d4a49","jail","calibrator_val_no_feedback","Valence","VC",1731610192637,"negative",1252,"A","negative;positive","","",7.13249755166004,16
"297","5f455ed3326727130e7d4a49","invader","calibrator_val_no_feedback","Valence","VC",1731610194485,"negative",1089,"A","negative;positive","","",6.99301512293296,17
"298","5f455ed3326727130e7d4a49","free","calibrator_val_no_feedback","Valence","VC",1731610195905,"positive",656,"A","negative;positive","","",6.48616078894409,18
"299","5f455ed3326727130e7d4a49","industry","calibrator_val_no_feedback","Valence","VC",1731610197397,"negative",731,"A","negative;positive","","",6.59441345974978,19
"300","5f455ed3326727130e7d4a49","joke","calibrator_val_no_feedback","Valence","VC",1731610199220,"positive",1065,"A","negative;positive","","",6.97073007814353,20
"301","5f455ed3326727130e7d4a49","kick","calibrator_conc_feedback","Concrete","VC",1731612351559,"concrete",1515,"abstract","concrete","abstract;concrete","A",7.32317071794347,21
"302","5f455ed3326727130e7d4a49","sugar","calibrator_conc_feedback","Concrete","VC",1731612355181,"concrete",856,"abstract","concrete","abstract;concrete","A",6.75227037614174,22
"303","5f455ed3326727130e7d4a49","whistle","calibrator_conc_feedback","Concrete","VC",1731612359644,"concrete",1074,"abstract","concrete","abstract;concrete","A",6.97914527506881,23
"304","5f455ed3326727130e7d4a49","shirt","calibrator_conc_feedback","Concrete","VC",1731612362674,"concrete",888,"abstract","concrete","abstract;concrete","A",6.78897174299217,24
"305","5f455ed3326727130e7d4a49","gas","calibrator_conc_feedback","Concrete","VC",1731612366292,"concrete",850,"abstract","concrete","abstract;concrete","A",6.74523634948436,25
"306","5f455ed3326727130e7d4a49","insecure","calibrator_conc_feedback","Concrete","VC",1731612370019,"abstract",966,"abstract","concrete","abstract;concrete","A",6.87316383421252,26
"307","5f455ed3326727130e7d4a49","marriage","calibrator_conc_feedback","Concrete","VC",1731612373626,"concrete",839,"abstract","concrete","abstract;concrete","A",6.73221070646721,27
"308","5f455ed3326727130e7d4a49","grasshopper","calibrator_conc_feedback","Concrete","VC",1731612377321,"concrete",931,"abstract","concrete","abstract;concrete","A",6.83625927727707,28
"309","5f455ed3326727130e7d4a49","theory","calibrator_conc_feedback","Concrete","VC",1731612381027,"abstract",944,"abstract","concrete","abstract;concrete","A",6.8501261661455,29
"310","5f455ed3326727130e7d4a49","polite","calibrator_conc_feedback","Concrete","VC",1731612384972,"concrete",1183,"abstract","concrete","abstract;concrete","A",7.07580886397839,30
"311","5f455ed3326727130e7d4a49","whistle","calibrator_conc_no_feedback","Concrete","VC",1731612388833,"concrete",1096,"A","abstract;concrete","","",6.99942246750796,31
"312","5f455ed3326727130e7d4a49","shirt","calibrator_conc_no_feedback","Concrete","VC",1731612390520,"concrete",928,"A","abstract;concrete","","",6.8330317327862,32
"313","5f455ed3326727130e7d4a49","kick","calibrator_conc_no_feedback","Concrete","VC",1731612391961,"concrete",680,"A","abstract;concrete","","",6.52209279817015,33
"314","5f455ed3326727130e7d4a49","insecure","calibrator_conc_no_feedback","Concrete","VC",1731612393609,"abstract",890,"A","abstract;concrete","","",6.79122146272619,34
"315","5f455ed3326727130e7d4a49","gas","calibrator_conc_no_feedback","Concrete","VC",1731612395152,"concrete",780,"A","abstract;concrete","","",6.65929391968364,35
"316","5f455ed3326727130e7d4a49","marriage","calibrator_conc_no_feedback","Concrete","VC",1731612396590,"concrete",673,"A","abstract;concrete","","",6.51174532964473,36
"317","5f455ed3326727130e7d4a49","polite","calibrator_conc_no_feedback","Concrete","VC",1731612398114,"concrete",764,"A","abstract;concrete","","",6.63856778916652,37
"318","5f455ed3326727130e7d4a49","theory","calibrator_conc_no_feedback","Concrete","VC",1731612399738,"abstract",859,"A","abstract;concrete","","",6.75576892198425,38
"319","5f455ed3326727130e7d4a49","sugar","calibrator_conc_no_feedback","Concrete","VC",1731612401199,"concrete",702,"A","abstract;concrete","","",6.55393340402581,39
"320","5f455ed3326727130e7d4a49","grasshopper","calibrator_conc_no_feedback","Concrete","VC",1731612402582,"concrete",624,"A","abstract;concrete","","",6.43615036836943,40
"321","5f1bf8c6fe7ca34249b7c334","grasshopper","calibrator_conc_feedback","Concrete","CV",1731619399018,"concrete",1910,"abstract","concrete","abstract;concrete","A",7.55485852104068,1
"322","5f1bf8c6fe7ca34249b7c334","sugar","calibrator_conc_feedback","Concrete","CV",1731619402972,"concrete",1147,"abstract","concrete","abstract;concrete","A",7.04490511712937,2
"323","5f1bf8c6fe7ca34249b7c334","marriage","calibrator_conc_feedback","Concrete","CV",1731619406940,"concrete",1176,"abstract","concrete","abstract;concrete","A",7.06987412845857,3
"324","5f1bf8c6fe7ca34249b7c334","shirt","calibrator_conc_feedback","Concrete","CV",1731619410699,"concrete",967,"abstract","concrete","abstract;concrete","A",6.87419849545329,4
"325","5f1bf8c6fe7ca34249b7c334","insecure","calibrator_conc_feedback","Concrete","CV",1731619414377,"abstract",875,"abstract","concrete","abstract;concrete","A",6.77422388635761,5
"326","5f1bf8c6fe7ca34249b7c334","polite","calibrator_conc_feedback","Concrete","CV",1731619418359,"abstract",1187,"abstract","concrete","abstract;concrete","A",7.07918439460967,6
"327","5f1bf8c6fe7ca34249b7c334","theory","calibrator_conc_feedback","Concrete","CV",1731619421814,"abstract",653,"abstract","concrete","abstract;concrete","A",6.48157712927643,7
"328","5f1bf8c6fe7ca34249b7c334","kick","calibrator_conc_feedback","Concrete","CV",1731619425792,"concrete",1179,"abstract","concrete","abstract;concrete","A",7.07242190053737,8
"329","5f1bf8c6fe7ca34249b7c334","gas","calibrator_conc_feedback","Concrete","CV",1731619433288,"concrete",4690,"abstract","concrete","abstract;concrete","A",8.45318786144033,9
"330","5f1bf8c6fe7ca34249b7c334","whistle","calibrator_conc_feedback","Concrete","CV",1731619438063,"concrete",1170,"abstract","concrete","abstract;concrete","A",7.0647590277918,10
"331","5f1bf8c6fe7ca34249b7c334","grasshopper","calibrator_conc_no_feedback","Concrete","CV",1731619442802,"concrete",1916,"A","abstract;concrete","","",7.55799495853081,11
"332","5f1bf8c6fe7ca34249b7c334","sugar","calibrator_conc_no_feedback","Concrete","CV",1731619445418,"concrete",1825,"A","abstract;concrete","","",7.50933526601659,12
"333","5f1bf8c6fe7ca34249b7c334","insecure","calibrator_conc_no_feedback","Concrete","CV",1731619448158,"abstract",1962,"A","abstract;concrete","","",7.58171964012531,13
"334","5f1bf8c6fe7ca34249b7c334","marriage","calibrator_conc_no_feedback","Concrete","CV",1731619450867,"concrete",1920,"A","abstract;concrete","","",7.56008046502183,14
"335","5f1bf8c6fe7ca34249b7c334","polite","calibrator_conc_no_feedback","Concrete","CV",1731619454584,"abstract",2925,"A","abstract;concrete","","",7.98104975966596,15
"336","5f1bf8c6fe7ca34249b7c334","shirt","calibrator_conc_no_feedback","Concrete","CV",1731619459633,"concrete",4266,"A","abstract;concrete","","",8.3584318990313,16
"337","5f1bf8c6fe7ca34249b7c334","gas","calibrator_conc_no_feedback","Concrete","CV",1731619462923,"concrete",2492,"A","abstract;concrete","","",7.82084087990734,17
"338","5f1bf8c6fe7ca34249b7c334","kick","calibrator_conc_no_feedback","Concrete","CV",1731619465436,"concrete",1299,"A","abstract;concrete","","",7.1693500166706,18
"339","5f1bf8c6fe7ca34249b7c334","whistle","calibrator_conc_no_feedback","Concrete","CV",1731619467037,"concrete",814,"A","abstract;concrete","","",6.70196036600254,19
"340","5f1bf8c6fe7ca34249b7c334","theory","calibrator_conc_no_feedback","Concrete","CV",1731619469561,"abstract",1731,"A","abstract;concrete","","",7.45645455517621,20
"341","5f1bf8c6fe7ca34249b7c334","kitten","calibrator_val_feedback","Valence","CV",1731619886269,"positive",2301,"negative","positive","negative;positive","A",7.74109909003537,21
"342","5f1bf8c6fe7ca34249b7c334","insecure","calibrator_val_feedback","Valence","CV",1731619890293,"negative",1203,"negative","positive","negative;positive","A",7.09257371597468,22
"343","5f1bf8c6fe7ca34249b7c334","jail","calibrator_val_feedback","Valence","CV",1731619894509,"negative",1414,"negative","positive","negative;positive","A",7.25417784645652,23
"344","5f1bf8c6fe7ca34249b7c334","grin","calibrator_val_feedback","Valence","CV",1731619898577,"positive",1282,"negative","positive","negative;positive","A",7.15617663748062,24
"345","5f1bf8c6fe7ca34249b7c334","joke","calibrator_val_feedback","Valence","CV",1731619902671,"positive",1315,"negative","positive","negative;positive","A",7.18159194461187,25
"346","5f1bf8c6fe7ca34249b7c334","invader","calibrator_val_feedback","Valence","CV",1731619906848,"negative",1379,"negative","positive","negative;positive","A",7.2291138777933,26
"347","5f1bf8c6fe7ca34249b7c334","hat","calibrator_val_feedback","Valence","CV",1731619910937,"positive",1292,"negative","positive","negative;positive","A",7.16394668434255,27
"348","5f1bf8c6fe7ca34249b7c334","free","calibrator_val_feedback","Valence","CV",1731619922420,"positive",8691,"negative","positive","negative;positive","A",9.07004328643746,28
"349","5f1bf8c6fe7ca34249b7c334","icebox","calibrator_val_feedback","Valence","CV",1731619930200,"positive",3061,"negative","positive","negative;positive","A",8.02649693894541,29
"350","5f1bf8c6fe7ca34249b7c334","industry","calibrator_val_feedback","Valence","CV",1731619934910,"negative",1912,"negative","positive","negative;positive","A",7.55590509361135,30
"351","5f1bf8c6fe7ca34249b7c334","industry","calibrator_val_no_feedback","Valence","CV",1731619940068,"negative",1415,"A","negative;positive","","",7.25488481007734,31
"352","5f1bf8c6fe7ca34249b7c334","grin","calibrator_val_no_feedback","Valence","CV",1731619941974,"positive",1109,"A","negative;positive","","",7.01121398735037,32
"353","5f1bf8c6fe7ca34249b7c334","free","calibrator_val_no_feedback","Valence","CV",1731619943983,"positive",1222,"A","negative;positive","","",7.10824413973154,33
"354","5f1bf8c6fe7ca34249b7c334","jail","calibrator_val_no_feedback","Valence","CV",1731619945761,"negative",978,"A","negative;positive","","",6.88550967003482,34
"355","5f1bf8c6fe7ca34249b7c334","insecure","calibrator_val_no_feedback","Valence","CV",1731619947500,"negative",959,"A","negative;positive","","",6.86589107488344,35
"356","5f1bf8c6fe7ca34249b7c334","joke","calibrator_val_no_feedback","Valence","CV",1731619949523,"positive",1243,"A","negative;positive","","",7.12528309151071,36
"357","5f1bf8c6fe7ca34249b7c334","hat","calibrator_val_no_feedback","Valence","CV",1731619951198,"positive",895,"A","negative;positive","","",6.79682371827486,37
"358","5f1bf8c6fe7ca34249b7c334","invader","calibrator_val_no_feedback","Valence","CV",1731619953251,"negative",1261,"A","negative;positive","","",7.13966033596492,38
"359","5f1bf8c6fe7ca34249b7c334","kitten","calibrator_val_no_feedback","Valence","CV",1731619954950,"positive",922,"A","negative;positive","","",6.82654522355659,39
"360","5f1bf8c6fe7ca34249b7c334","icebox","calibrator_val_no_feedback","Valence","CV",1731619956551,"positive",830,"A","negative;positive","","",6.72142570079064,40
"361","601b9077694f034f0092dd8f","hat","calibrator_val_feedback","Valence","VC",1731609695694,"positive",1630,"negative","positive","negative;positive","A",7.39633529380081,1
"362","601b9077694f034f0092dd8f","invader","calibrator_val_feedback","Valence","VC",1731609698144,"negative",1081,"negative","positive","negative;positive","A",6.98564181763921,2
"363","601b9077694f034f0092dd8f","grin","calibrator_val_feedback","Valence","VC",1731609702098,"positive",1193,"negative","positive","negative;positive","A",7.08422642209792,3
"364","601b9077694f034f0092dd8f","industry","calibrator_val_feedback","Valence","VC",1731609706027,"negative",1170,"negative","positive","negative;positive","A",7.0647590277918,4
"365","601b9077694f034f0092dd8f","free","calibrator_val_feedback","Valence","VC",1731609709647,"positive",856,"negative","positive","negative;positive","A",6.75227037614174,5
"366","601b9077694f034f0092dd8f","joke","calibrator_val_feedback","Valence","VC",1731609713100,"positive",691,"negative","positive","negative;positive","A",6.53813982376767,6
"367","601b9077694f034f0092dd8f","icebox","calibrator_val_feedback","Valence","VC",1731609716777,"positive",915,"negative","positive","negative;positive","A",6.81892406527552,7
"368","601b9077694f034f0092dd8f","kitten","calibrator_val_feedback","Valence","VC",1731609720203,"positive",663,"negative","positive","negative;positive","A",6.49677499018586,8
"369","601b9077694f034f0092dd8f","insecure","calibrator_val_feedback","Valence","VC",1731609723775,"negative",808,"negative","positive","negative;positive","A",6.69456205852109,9
"370","601b9077694f034f0092dd8f","jail","calibrator_val_feedback","Valence","VC",1731609727144,"negative",612,"negative","positive","negative;positive","A",6.41673228251233,10
"371","601b9077694f034f0092dd8f","free","calibrator_val_no_feedback","Valence","VC",1731609730746,"positive",840,"A","negative;positive","","",6.73340189183736,11
"372","601b9077694f034f0092dd8f","invader","calibrator_val_no_feedback","Valence","VC",1731609732387,"negative",884,"A","negative;positive","","",6.78445706263764,12
"373","601b9077694f034f0092dd8f","grin","calibrator_val_no_feedback","Valence","VC",1731609733915,"positive",774,"A","negative;positive","","",6.65157187358973,13
"374","601b9077694f034f0092dd8f","kitten","calibrator_val_no_feedback","Valence","VC",1731609735523,"positive",851,"A","negative;positive","","",6.74641212857337,14
"375","601b9077694f034f0092dd8f","industry","calibrator_val_no_feedback","Valence","VC",1731609737078,"negative",796,"A","negative;positive","","",6.67959918584438,15
"376","601b9077694f034f0092dd8f","hat","calibrator_val_no_feedback","Valence","VC",1731609738492,"positive",654,"A","negative;positive","","",6.4831073514572,16
"377","601b9077694f034f0092dd8f","jail","calibrator_val_no_feedback","Valence","VC",1731609740125,"negative",874,"A","negative;positive","","",6.77308037565554,17
"378","601b9077694f034f0092dd8f","icebox","calibrator_val_no_feedback","Valence","VC",1731609741862,"negative",981,"A","negative;positive","","",6.88857245956536,18
"379","601b9077694f034f0092dd8f","joke","calibrator_val_no_feedback","Valence","VC",1731609743203,"positive",581,"A","negative;positive","","",6.36475075685191,19
"380","601b9077694f034f0092dd8f","insecure","calibrator_val_no_feedback","Valence","VC",1731609744779,"negative",819,"A","negative;positive","","",6.70808408385307,20
"381","601b9077694f034f0092dd8f","shirt","calibrator_conc_feedback","Concrete","VC",1731609956083,"concrete",1702,"abstract","concrete","abstract;concrete","A",7.43955930913332,21
"382","601b9077694f034f0092dd8f","theory","calibrator_conc_feedback","Concrete","VC",1731609960471,"abstract",1627,"abstract","concrete","abstract;concrete","A",7.39449310721904,22
"383","601b9077694f034f0092dd8f","whistle","calibrator_conc_feedback","Concrete","VC",1731609964200,"concrete",971,"abstract","concrete","abstract;concrete","A",6.87832646829133,23
"384","601b9077694f034f0092dd8f","polite","calibrator_conc_feedback","Concrete","VC",1731609968525,"abstract",1564,"abstract","concrete","abstract;concrete","A",7.35500192110526,24
"385","601b9077694f034f0092dd8f","grasshopper","calibrator_conc_feedback","Concrete","VC",1731609972230,"concrete",946,"abstract","concrete","abstract;concrete","A",6.85224256905188,25
"386","601b9077694f034f0092dd8f","marriage","calibrator_conc_feedback","Concrete","VC",1731609975913,"concrete",918,"abstract","concrete","abstract;concrete","A",6.82219739062049,26
"387","601b9077694f034f0092dd8f","kick","calibrator_conc_feedback","Concrete","VC",1731609980011,"concrete",1339,"abstract","concrete","abstract;concrete","A",7.19967834569117,27
"388","601b9077694f034f0092dd8f","sugar","calibrator_conc_feedback","Concrete","VC",1731609983637,"concrete",865,"abstract","concrete","abstract;concrete","A",6.76272950693188,28
"389","601b9077694f034f0092dd8f","insecure","calibrator_conc_feedback","Concrete","VC",1731609987359,"abstract",958,"abstract","concrete","abstract;concrete","A",6.86484777797086,29
"390","601b9077694f034f0092dd8f","gas","calibrator_conc_feedback","Concrete","VC",1731609991428,"concrete",1312,"abstract","concrete","abstract;concrete","A",7.17930796950403,30
"391","601b9077694f034f0092dd8f","whistle","calibrator_conc_no_feedback","Concrete","VC",1731609995171,"concrete",981,"A","abstract;concrete","","",6.88857245956536,31
"392","601b9077694f034f0092dd8f","sugar","calibrator_conc_no_feedback","Concrete","VC",1731609996556,"concrete",627,"A","abstract;concrete","","",6.44094654063292,32
"393","601b9077694f034f0092dd8f","theory","calibrator_conc_no_feedback","Concrete","VC",1731609997985,"abstract",670,"A","abstract;concrete","","",6.50727771238501,33
"394","601b9077694f034f0092dd8f","gas","calibrator_conc_no_feedback","Concrete","VC",1731609999599,"concrete",857,"A","abstract;concrete","","",6.75343791859778,34
"395","601b9077694f034f0092dd8f","kick","calibrator_conc_no_feedback","Concrete","VC",1731610001256,"concrete",897,"A","abstract;concrete","","",6.7990558620588,35
"396","601b9077694f034f0092dd8f","grasshopper","calibrator_conc_no_feedback","Concrete","VC",1731610002648,"concrete",630,"A","abstract;concrete","","",6.44571981938558,36
"397","601b9077694f034f0092dd8f","insecure","calibrator_conc_no_feedback","Concrete","VC",1731610004245,"abstract",838,"A","abstract;concrete","","",6.73101810048208,37
"398","601b9077694f034f0092dd8f","polite","calibrator_conc_no_feedback","Concrete","VC",1731610005973,"abstract",969,"A","abstract;concrete","","",6.87626461189077,38
"399","601b9077694f034f0092dd8f","marriage","calibrator_conc_no_feedback","Concrete","VC",1731610007545,"concrete",815,"A","abstract;concrete","","",6.70318811324086,39
"400","601b9077694f034f0092dd8f","shirt","calibrator_conc_no_feedback","Concrete","VC",1731610009341,"concrete",1039,"A","abstract;concrete","","",6.94601399109923,40
"401","63127690860023ab6b50a0b2","sugar","calibrator_conc_feedback","Concrete","CV",1731621688519,"concrete",1280,"concrete","abstract","concrete;abstract","B",7.15461535691366,1
"402","63127690860023ab6b50a0b2","whistle","calibrator_conc_feedback","Concrete","CV",1731621693280,"abstract",2005,"concrete","abstract","concrete;abstract","B",7.60339933974067,2
"403","63127690860023ab6b50a0b2","kick","calibrator_conc_feedback","Concrete","CV",1731621697003,"concrete",966,"concrete","abstract","concrete;abstract","B",6.87316383421252,3
"404","63127690860023ab6b50a0b2","polite","calibrator_conc_feedback","Concrete","CV",1731621700682,"abstract",925,"concrete","abstract","concrete;abstract","B",6.82979373751242,4
"405","63127690860023ab6b50a0b2","marriage","calibrator_conc_feedback","Concrete","CV",1731621705333,"abstract",1893,"concrete","abstract","concrete;abstract","B",7.54591815120932,5
"406","63127690860023ab6b50a0b2","shirt","calibrator_conc_feedback","Concrete","CV",1731621709111,"concrete",1021,"concrete","abstract","concrete;abstract","B",6.92853781816467,6
"407","63127690860023ab6b50a0b2","theory","calibrator_conc_feedback","Concrete","CV",1731621712640,"abstract",771,"concrete","abstract","concrete;abstract","B",6.64768837356333,7
"408","63127690860023ab6b50a0b2","gas","calibrator_conc_feedback","Concrete","CV",1731621716532,"abstract",1137,"concrete","abstract","concrete;abstract","B",7.03614849375054,8
"409","63127690860023ab6b50a0b2","insecure","calibrator_conc_feedback","Concrete","CV",1731621719949,"abstract",656,"concrete","abstract","concrete;abstract","B",6.48616078894409,9
"410","63127690860023ab6b50a0b2","grasshopper","calibrator_conc_feedback","Concrete","CV",1731621723532,"concrete",829,"concrete","abstract","concrete;abstract","B",6.7202201551353,10
"411","63127690860023ab6b50a0b2","theory","calibrator_conc_no_feedback","Concrete","CV",1731621727128,"abstract",838,"B","concrete;abstract","","",6.73101810048208,11
"412","63127690860023ab6b50a0b2","whistle","calibrator_conc_no_feedback","Concrete","CV",1731621728677,"concrete",792,"B","concrete;abstract","","",6.67456139181443,12
"413","63127690860023ab6b50a0b2","marriage","calibrator_conc_no_feedback","Concrete","CV",1731621730206,"abstract",776,"B","concrete;abstract","","",6.65415252018322,13
"414","63127690860023ab6b50a0b2","kick","calibrator_conc_no_feedback","Concrete","CV",1731621731489,"concrete",524,"B","concrete;abstract","","",6.26149168432104,14
"415","63127690860023ab6b50a0b2","polite","calibrator_conc_no_feedback","Concrete","CV",1731621732822,"abstract",574,"B","concrete;abstract","","",6.35262939631957,15
"416","63127690860023ab6b50a0b2","grasshopper","calibrator_conc_no_feedback","Concrete","CV",1731621734068,"concrete",491,"B","concrete;abstract","","",6.19644412779452,16
"417","63127690860023ab6b50a0b2","gas","calibrator_conc_no_feedback","Concrete","CV",1731621735515,"concrete",690,"B","concrete;abstract","","",6.5366915975913,17
"418","63127690860023ab6b50a0b2","shirt","calibrator_conc_no_feedback","Concrete","CV",1731621736795,"concrete",521,"B","concrete;abstract","","",6.25575004175337,18
"419","63127690860023ab6b50a0b2","sugar","calibrator_conc_no_feedback","Concrete","CV",1731621737988,"concrete",436,"B","concrete;abstract","","",6.07764224334903,19
"420","63127690860023ab6b50a0b2","insecure","calibrator_conc_no_feedback","Concrete","CV",1731621739407,"abstract",663,"B","concrete;abstract","","",6.49677499018586,20
"421","63127690860023ab6b50a0b2","icebox","calibrator_val_feedback","Valence","CV",1731621952274,"positive",2750,"positive","negative","positive;negative","B",7.91935619066062,21
"422","63127690860023ab6b50a0b2","free","calibrator_val_feedback","Valence","CV",1731621956965,"positive",1935,"positive","negative","positive;negative","B",7.56786260546388,22
"423","63127690860023ab6b50a0b2","kitten","calibrator_val_feedback","Valence","CV",1731621960632,"positive",913,"positive","negative","positive;negative","B",6.81673588059497,23
"424","63127690860023ab6b50a0b2","hat","calibrator_val_feedback","Valence","CV",1731621964253,"positive",864,"positive","negative","positive;negative","B",6.76157276880406,24
"425","63127690860023ab6b50a0b2","invader","calibrator_val_feedback","Valence","CV",1731621968105,"negative",1096,"positive","negative","positive;negative","B",6.99942246750796,25
"426","63127690860023ab6b50a0b2","grin","calibrator_val_feedback","Valence","CV",1731621971709,"positive",850,"positive","negative","positive;negative","B",6.74523634948436,26
"427","63127690860023ab6b50a0b2","insecure","calibrator_val_feedback","Valence","CV",1731621975445,"negative",978,"positive","negative","positive;negative","B",6.88550967003482,27
"428","63127690860023ab6b50a0b2","industry","calibrator_val_feedback","Valence","CV",1731621979417,"positive",1215,"positive","negative","positive;negative","B",7.10249935577465,28
"429","63127690860023ab6b50a0b2","jail","calibrator_val_feedback","Valence","CV",1731621983702,"negative",1526,"positive","negative","positive;negative","B",7.3304052118444,29
"430","63127690860023ab6b50a0b2","joke","calibrator_val_feedback","Valence","CV",1731621987305,"positive",843,"positive","negative","positive;negative","B",6.73696695800186,30
"431","63127690860023ab6b50a0b2","industry","calibrator_val_no_feedback","Valence","CV",1731621991104,"positive",1039,"B","positive;negative","","",6.94601399109923,31
"432","63127690860023ab6b50a0b2","insecure","calibrator_val_no_feedback","Valence","CV",1731621992539,"negative",681,"B","positive;negative","","",6.52356230614951,32
"433","63127690860023ab6b50a0b2","free","calibrator_val_no_feedback","Valence","CV",1731621993982,"positive",688,"B","positive;negative","","",6.53378883793334,33
"434","63127690860023ab6b50a0b2","hat","calibrator_val_no_feedback","Valence","CV",1731621995303,"positive",565,"B","positive;negative","","",6.33682573114644,34
"435","63127690860023ab6b50a0b2","invader","calibrator_val_no_feedback","Valence","CV",1731621997004,"positive",946,"B","positive;negative","","",6.85224256905188,35
"436","63127690860023ab6b50a0b2","icebox","calibrator_val_no_feedback","Valence","CV",1731621999407,"positive",1645,"B","positive;negative","","",7.40549566319947,36
"437","63127690860023ab6b50a0b2","joke","calibrator_val_no_feedback","Valence","CV",1731622000752,"negative",587,"B","positive;negative","","",6.3750248198281,37
"438","63127690860023ab6b50a0b2","kitten","calibrator_val_no_feedback","Valence","CV",1731622002354,"positive",850,"B","positive;negative","","",6.74523634948436,38
"439","63127690860023ab6b50a0b2","grin","calibrator_val_no_feedback","Valence","CV",1731622006031,"positive",2924,"B","positive;negative","","",7.98070782086967,39
"440","63127690860023ab6b50a0b2","jail","calibrator_val_no_feedback","Valence","CV",1731622007385,"negative",597,"B","positive;negative","","",6.3919171133926,40
"441","63bf745cc01669a110ec48ba","jail","calibrator_val_feedback","Valence","VC",1731610941411,"negative",4683,"positive","negative","positive;negative","B",8.45169420918354,1
"442","63bf745cc01669a110ec48ba","invader","calibrator_val_feedback","Valence","VC",1731610945231,"negative",1049,"positive","negative","positive;negative","B",6.9555926083963,2
"443","63bf745cc01669a110ec48ba","free","calibrator_val_feedback","Valence","VC",1731610948822,"positive",825,"positive","negative","positive;negative","B",6.71538338633468,3
"444","63bf745cc01669a110ec48ba","grin","calibrator_val_feedback","Valence","VC",1731610952343,"positive",750,"positive","negative","positive;negative","B",6.62007320653036,4
"445","63bf745cc01669a110ec48ba","insecure","calibrator_val_feedback","Valence","VC",1731610956447,"negative",1333,"positive","negative","positive;negative","B",7.19518732017871,5
"446","63bf745cc01669a110ec48ba","industry","calibrator_val_feedback","Valence","VC",1731610960938,"positive",1725,"positive","negative","positive;negative","B",7.45298232946546,6
"447","63bf745cc01669a110ec48ba","kitten","calibrator_val_feedback","Valence","VC",1731610964733,"positive",1025,"positive","negative","positive;negative","B",6.93244789157251,7
"448","63bf745cc01669a110ec48ba","icebox","calibrator_val_feedback","Valence","VC",1731610969131,"positive",1635,"positive","negative","positive;negative","B",7.39939808333135,8
"449","63bf745cc01669a110ec48ba","hat","calibrator_val_feedback","Valence","VC",1731610972905,"positive",1009,"positive","negative","positive;negative","B",6.91671502035361,9
"450","63bf745cc01669a110ec48ba","joke","calibrator_val_feedback","Valence","VC",1731610976421,"positive",749,"positive","negative","positive;negative","B",6.61873898351722,10
"451","63bf745cc01669a110ec48ba","hat","calibrator_val_no_feedback","Valence","VC",1731610980064,"positive",872,"B","positive;negative","","",6.77078942390898,11
"452","63bf745cc01669a110ec48ba","jail","calibrator_val_no_feedback","Valence","VC",1731610981662,"negative",836,"B","positive;negative","","",6.7286286130847,12
"453","63bf745cc01669a110ec48ba","kitten","calibrator_val_no_feedback","Valence","VC",1731610983112,"positive",683,"B","positive;negative","","",6.52649485957079,13
"454","63bf745cc01669a110ec48ba","joke","calibrator_val_no_feedback","Valence","VC",1731610984479,"positive",605,"B","positive;negative","","",6.40522845803084,14
"455","63bf745cc01669a110ec48ba","invader","calibrator_val_no_feedback","Valence","VC",1731610985803,"negative",565,"B","positive;negative","","",6.33682573114644,15
"456","63bf745cc01669a110ec48ba","industry","calibrator_val_no_feedback","Valence","VC",1731610987244,"positive",681,"B","positive;negative","","",6.52356230614951,16
"457","63bf745cc01669a110ec48ba","free","calibrator_val_no_feedback","Valence","VC",1731610988620,"positive",614,"B","positive;negative","","",6.41999492814714,17
"458","63bf745cc01669a110ec48ba","grin","calibrator_val_no_feedback","Valence","VC",1731610989993,"positive",611,"B","positive;negative","","",6.4150969591716,18
"459","63bf745cc01669a110ec48ba","insecure","calibrator_val_no_feedback","Valence","VC",1731610991300,"negative",545,"B","positive;negative","","",6.30078579466324,19
"460","63bf745cc01669a110ec48ba","icebox","calibrator_val_no_feedback","Valence","VC",1731610992806,"positive",740,"B","positive;negative","","",6.60665018619822,20
"461","63bf745cc01669a110ec48ba","marriage","calibrator_conc_feedback","Concrete","VC",1731611256066,"abstract",3831,"concrete","abstract","concrete;abstract","B",8.25088114470065,21
"462","63bf745cc01669a110ec48ba","gas","calibrator_conc_feedback","Concrete","VC",1731611259774,"concrete",941,"concrete","abstract","concrete;abstract","B",6.84694313958538,22
"463","63bf745cc01669a110ec48ba","polite","calibrator_conc_feedback","Concrete","VC",1731611263312,"abstract",772,"concrete","abstract","concrete;abstract","B",6.64898455002478,23
"464","63bf745cc01669a110ec48ba","sugar","calibrator_conc_feedback","Concrete","VC",1731611266934,"concrete",862,"concrete","abstract","concrete;abstract","B",6.75925527066369,24
"465","63bf745cc01669a110ec48ba","grasshopper","calibrator_conc_feedback","Concrete","VC",1731611270770,"concrete",1069,"concrete","abstract","concrete;abstract","B",6.97447891102505,25
"466","63bf745cc01669a110ec48ba","theory","calibrator_conc_feedback","Concrete","VC",1731611274422,"abstract",886,"concrete","abstract","concrete;abstract","B",6.78671695060508,26
"467","63bf745cc01669a110ec48ba","whistle","calibrator_conc_feedback","Concrete","VC",1731611278076,"concrete",889,"concrete","abstract","concrete;abstract","B",6.7900972355139,27
"468","63bf745cc01669a110ec48ba","insecure","calibrator_conc_feedback","Concrete","VC",1731611284361,"abstract",3522,"concrete","abstract","concrete;abstract","B",8.16678428905615,28
"469","63bf745cc01669a110ec48ba","shirt","calibrator_conc_feedback","Concrete","VC",1731611289516,"concrete",2391,"concrete","abstract","concrete;abstract","B",7.77946696745832,29
"470","63bf745cc01669a110ec48ba","kick","calibrator_conc_feedback","Concrete","VC",1731611295743,"concrete",3461,"concrete","abstract","concrete;abstract","B",8.14931284363534,30
"471","63bf745cc01669a110ec48ba","shirt","calibrator_conc_no_feedback","Concrete","VC",1731611299664,"concrete",1152,"B","concrete;abstract","","",7.04925484125584,31
"472","63bf745cc01669a110ec48ba","theory","calibrator_conc_no_feedback","Concrete","VC",1731611301183,"abstract",756,"B","concrete;abstract","","",6.62804137617953,32
"473","63bf745cc01669a110ec48ba","whistle","calibrator_conc_no_feedback","Concrete","VC",1731611302973,"concrete",1025,"B","concrete;abstract","","",6.93244789157251,33
"474","63bf745cc01669a110ec48ba","insecure","calibrator_conc_no_feedback","Concrete","VC",1731611305410,"abstract",1673,"B","concrete;abstract","","",7.42237370098682,34
"475","63bf745cc01669a110ec48ba","kick","calibrator_conc_no_feedback","Concrete","VC",1731611307120,"abstract",949,"B","concrete;abstract","","",6.85540879860993,35
"476","63bf745cc01669a110ec48ba","sugar","calibrator_conc_no_feedback","Concrete","VC",1731611308516,"concrete",634,"B","concrete;abstract","","",6.45204895443723,36
"477","63bf745cc01669a110ec48ba","marriage","calibrator_conc_no_feedback","Concrete","VC",1731611310165,"abstract",888,"B","concrete;abstract","","",6.78897174299217,37
"478","63bf745cc01669a110ec48ba","polite","calibrator_conc_no_feedback","Concrete","VC",1731611311675,"abstract",746,"B","concrete;abstract","","",6.61472560020376,38
"479","63bf745cc01669a110ec48ba","gas","calibrator_conc_no_feedback","Concrete","VC",1731611313021,"concrete",585,"B","concrete;abstract","","",6.37161184723186,39
"480","63bf745cc01669a110ec48ba","grasshopper","calibrator_conc_no_feedback","Concrete","VC",1731611314440,"concrete",658,"B","concrete;abstract","","",6.48920493132532,40
"481","5b9c2c816f92f30001ecce7a","kitten","calibrator_val_feedback","Valence","VC",1731610731536,"positive",557,"positive","negative","positive;negative","B",6.32256523992728,1
"482","5b9c2c816f92f30001ecce7a","insecure","calibrator_val_feedback","Valence","VC",1731610734919,"negative",619,"positive","negative","positive;negative","B",6.4281052726846,2
"483","5b9c2c816f92f30001ecce7a","hat","calibrator_val_feedback","Valence","VC",1731610738279,"positive",489,"positive","negative","positive;negative","B",6.19236248947487,3
"484","5b9c2c816f92f30001ecce7a","grin","calibrator_val_feedback","Valence","VC",1731610741472,"positive",543,"positive","negative","positive;negative","B",6.29710931993394,4
"485","5b9c2c816f92f30001ecce7a","joke","calibrator_val_feedback","Valence","VC",1731610744831,"negative",602,"positive","negative","positive;negative","B",6.40025744530882,5
"486","5b9c2c816f92f30001ecce7a","jail","calibrator_val_feedback","Valence","VC",1731610748239,"negative",649,"positive","negative","positive;negative","B",6.47543271670409,6
"487","5b9c2c816f92f30001ecce7a","industry","calibrator_val_feedback","Valence","VC",1731610751536,"positive",538,"positive","negative","positive;negative","B",6.28785856016178,7
"488","5b9c2c816f92f30001ecce7a","icebox","calibrator_val_feedback","Valence","VC",1731610755055,"negative",757,"positive","negative","positive;negative","B",6.62936325343745,8
"489","5b9c2c816f92f30001ecce7a","free","calibrator_val_feedback","Valence","VC",1731610758311,"positive",493,"positive","negative","positive;negative","B",6.20050917404269,9
"490","5b9c2c816f92f30001ecce7a","invader","calibrator_val_feedback","Valence","VC",1731610761824,"negative",753,"positive","negative","positive;negative","B",6.62406522779989,10
"491","5b9c2c816f92f30001ecce7a","kitten","calibrator_val_no_feedback","Valence","VC",1731610765024,"positive",438,"B","positive;negative","","",6.08221891037645,11
"492","5b9c2c816f92f30001ecce7a","free","calibrator_val_no_feedback","Valence","VC",1731610766423,"positive",640,"B","positive;negative","","",6.46146817635372,12
"493","5b9c2c816f92f30001ecce7a","jail","calibrator_val_no_feedback","Valence","VC",1731610767767,"negative",585,"B","positive;negative","","",6.37161184723186,13
"494","5b9c2c816f92f30001ecce7a","icebox","calibrator_val_no_feedback","Valence","VC",1731610768952,"positive",427,"B","positive;negative","","",6.05678401322862,14
"495","5b9c2c816f92f30001ecce7a","industry","calibrator_val_no_feedback","Valence","VC",1731610770304,"positive",591,"B","positive;negative","","",6.3818160174061,15
"496","5b9c2c816f92f30001ecce7a","hat","calibrator_val_no_feedback","Valence","VC",1731610771487,"positive",427,"B","positive;negative","","",6.05678401322862,16
"497","5b9c2c816f92f30001ecce7a","grin","calibrator_val_no_feedback","Valence","VC",1731610772672,"positive",424,"B","positive;negative","","",6.04973345523196,17
"498","5b9c2c816f92f30001ecce7a","joke","calibrator_val_no_feedback","Valence","VC",1731610773895,"negative",465,"B","positive;negative","","",6.14203740558736,18
"499","5b9c2c816f92f30001ecce7a","insecure","calibrator_val_no_feedback","Valence","VC",1731610775159,"negative",506,"B","positive;negative","","",6.22653666928747,19
"500","5b9c2c816f92f30001ecce7a","invader","calibrator_val_no_feedback","Valence","VC",1731610776424,"negative",504,"B","positive;negative","","",6.22257626807137,20
"501","5b9c2c816f92f30001ecce7a","shirt","calibrator_conc_feedback","Concrete","VC",1731611111399,"concrete",767,"concrete","abstract","concrete;abstract","B",6.64248680136726,21
"502","5b9c2c816f92f30001ecce7a","marriage","calibrator_conc_feedback","Concrete","VC",1731611115263,"abstract",1104,"concrete","abstract","concrete;abstract","B",7.00669522683704,22
"503","5b9c2c816f92f30001ecce7a","theory","calibrator_conc_feedback","Concrete","VC",1731611118767,"abstract",738,"concrete","abstract","concrete;abstract","B",6.60394382460047,23
"504","5b9c2c816f92f30001ecce7a","kick","calibrator_conc_feedback","Concrete","VC",1731611122216,"concrete",687,"concrete","abstract","concrete;abstract","B",6.53233429222235,24
"505","5b9c2c816f92f30001ecce7a","grasshopper","calibrator_conc_feedback","Concrete","VC",1731611125943,"concrete",967,"concrete","abstract","concrete;abstract","B",6.87419849545329,25
"506","5b9c2c816f92f30001ecce7a","whistle","calibrator_conc_feedback","Concrete","VC",1731611129495,"concrete",787,"concrete","abstract","concrete;abstract","B",6.6682282484174,26
"507","5b9c2c816f92f30001ecce7a","polite","calibrator_conc_feedback","Concrete","VC",1731611133318,"abstract",1063,"concrete","abstract","concrete;abstract","B",6.96885037834195,27
"508","5b9c2c816f92f30001ecce7a","insecure","calibrator_conc_feedback","Concrete","VC",1731611140335,"abstract",4258,"concrete","abstract","concrete;abstract","B",8.35655484545343,28
"509","5b9c2c816f92f30001ecce7a","gas","calibrator_conc_feedback","Concrete","VC",1731611143703,"concrete",607,"concrete","abstract","concrete;abstract","B",6.4085287910595,29
"510","5b9c2c816f92f30001ecce7a","sugar","calibrator_conc_feedback","Concrete","VC",1731611147207,"concrete",746,"concrete","abstract","concrete;abstract","B",6.61472560020376,30
"511","5b9c2c816f92f30001ecce7a","insecure","calibrator_conc_no_feedback","Concrete","VC",1731611151487,"abstract",1521,"B","concrete;abstract","","",7.32712329225929,31
"512","5b9c2c816f92f30001ecce7a","whistle","calibrator_conc_no_feedback","Concrete","VC",1731611152927,"concrete",681,"B","concrete;abstract","","",6.52356230614951,32
"513","5b9c2c816f92f30001ecce7a","marriage","calibrator_conc_no_feedback","Concrete","VC",1731611154384,"abstract",697,"B","concrete;abstract","","",6.54678541076052,33
"514","5b9c2c816f92f30001ecce7a","kick","calibrator_conc_no_feedback","Concrete","VC",1731611155791,"concrete",648,"B","concrete;abstract","","",6.47389069635227,34
"515","5b9c2c816f92f30001ecce7a","gas","calibrator_conc_no_feedback","Concrete","VC",1731611157080,"concrete",532,"B","concrete;abstract","","",6.27664348934164,35
"516","5b9c2c816f92f30001ecce7a","shirt","calibrator_conc_no_feedback","Concrete","VC",1731611158352,"concrete",516,"B","concrete;abstract","","",6.24610676548156,36
"517","5b9c2c816f92f30001ecce7a","theory","calibrator_conc_no_feedback","Concrete","VC",1731611159823,"abstract",718,"B","concrete;abstract","","",6.57646956904822,37
"518","5b9c2c816f92f30001ecce7a","grasshopper","calibrator_conc_no_feedback","Concrete","VC",1731611161416,"concrete",839,"B","concrete;abstract","","",6.73221070646721,38
"519","5b9c2c816f92f30001ecce7a","polite","calibrator_conc_no_feedback","Concrete","VC",1731611163128,"abstract",958,"B","concrete;abstract","","",6.86484777797086,39
"520","5b9c2c816f92f30001ecce7a","sugar","calibrator_conc_no_feedback","Concrete","VC",1731611164432,"concrete",549,"B","concrete;abstract","","",6.30809844150953,40
"521","63ae2788c3e5ec6d1cfcad16","sugar","calibrator_conc_feedback","Concrete","CV",1731618895379,"concrete",1279,"abstract","concrete","abstract;concrete","A",7.15383380157884,1
"522","63ae2788c3e5ec6d1cfcad16","grasshopper","calibrator_conc_feedback","Concrete","CV",1731618900217,"concrete",1378,"abstract","concrete","abstract;concrete","A",7.2283884515736,2
"523","63ae2788c3e5ec6d1cfcad16","polite","calibrator_conc_feedback","Concrete","CV",1731618904284,"abstract",1999,"abstract","concrete","abstract;concrete","A",7.6004023345004,3
"524","63ae2788c3e5ec6d1cfcad16","insecure","calibrator_conc_feedback","Concrete","CV",1731618909501,"abstract",2452,"abstract","concrete","abstract;concrete","A",7.8046592970561,4
"525","63ae2788c3e5ec6d1cfcad16","gas","calibrator_conc_feedback","Concrete","CV",1731618913704,"abstract",1433,"abstract","concrete","abstract;concrete","A",7.26752542782817,5
"526","63ae2788c3e5ec6d1cfcad16","kick","calibrator_conc_feedback","Concrete","CV",1731618918016,"abstract",1547,"abstract","concrete","abstract;concrete","A",7.34407285057307,6
"527","63ae2788c3e5ec6d1cfcad16","whistle","calibrator_conc_feedback","Concrete","CV",1731618921975,"concrete",790,"abstract","concrete","abstract;concrete","A",6.67203294546107,7
"528","63ae2788c3e5ec6d1cfcad16","theory","calibrator_conc_feedback","Concrete","CV",1731618925219,"abstract",882,"abstract","concrete","abstract;concrete","A",6.78219205600679,8
"529","63ae2788c3e5ec6d1cfcad16","shirt","calibrator_conc_feedback","Concrete","CV",1731618928986,"concrete",993,"abstract","concrete","abstract;concrete","A",6.90073066404517,9
"530","63ae2788c3e5ec6d1cfcad16","marriage","calibrator_conc_feedback","Concrete","CV",1731618933149,"concrete",1391,"abstract","concrete","abstract;concrete","A",7.23777819192344,10
"531","63ae2788c3e5ec6d1cfcad16","shirt","calibrator_conc_no_feedback","Concrete","CV",1731618936445,"abstract",536,"A","abstract;concrete","","",6.2841341610708,11
"532","63ae2788c3e5ec6d1cfcad16","polite","calibrator_conc_no_feedback","Concrete","CV",1731618937529,"concrete",324,"A","abstract;concrete","","",5.78074351579233,12
"533","63ae2788c3e5ec6d1cfcad16","grasshopper","calibrator_conc_no_feedback","Concrete","CV",1731618938701,"abstract",412,"A","abstract;concrete","","",6.02102334934953,13
"534","63ae2788c3e5ec6d1cfcad16","whistle","calibrator_conc_no_feedback","Concrete","CV",1731618939676,"concrete",211,"A","abstract;concrete","","",5.35185813347607,14
"535","63ae2788c3e5ec6d1cfcad16","marriage","calibrator_conc_no_feedback","Concrete","CV",1731618940708,"abstract",268,"A","abstract;concrete","","",5.59098698051086,15
"536","63ae2788c3e5ec6d1cfcad16","sugar","calibrator_conc_no_feedback","Concrete","CV",1731618941484,"concrete",7,"A","abstract;concrete","","",1.94591014905531,16
"537","63ae2788c3e5ec6d1cfcad16","kick","calibrator_conc_no_feedback","Concrete","CV",1731618942537,"abstract",289,"A","abstract;concrete","","",5.66642668811243,17
"538","63ae2788c3e5ec6d1cfcad16","gas","calibrator_conc_no_feedback","Concrete","CV",1731618943562,"concrete",263,"A","abstract;concrete","","",5.57215403217776,18
"539","63ae2788c3e5ec6d1cfcad16","insecure","calibrator_conc_no_feedback","Concrete","CV",1731618944343,"abstract",17,"A","abstract;concrete","","",2.83321334405622,19
"540","63ae2788c3e5ec6d1cfcad16","theory","calibrator_conc_no_feedback","Concrete","CV",1731618945747,"concrete",638,"A","abstract;concrete","","",6.45833828334479,20
"541","63ae2788c3e5ec6d1cfcad16","invader","calibrator_val_feedback","Valence","CV",1731619148489,"positive",369,"negative","positive","negative;positive","A",5.91079664404053,21
"542","63ae2788c3e5ec6d1cfcad16","hat","calibrator_val_feedback","Valence","CV",1731619151626,"positive",605,"negative","positive","negative;positive","A",6.40522845803084,22
"543","63ae2788c3e5ec6d1cfcad16","icebox","calibrator_val_feedback","Valence","CV",1731619156058,"positive",607,"negative","positive","negative;positive","A",6.4085287910595,23
"544","63ae2788c3e5ec6d1cfcad16","joke","calibrator_val_feedback","Valence","CV",1731619158462,"negative",127,"negative","positive","negative;positive","A",4.84418708645859,24
"545","63ae2788c3e5ec6d1cfcad16","industry","calibrator_val_feedback","Valence","CV",1731619160799,"negative",804,"negative","positive","negative;positive","A",6.68959926917897,25
"546","63ae2788c3e5ec6d1cfcad16","jail","calibrator_val_feedback","Valence","CV",1731619167016,"negative",1650,"negative","positive","negative;positive","A",7.40853056689463,26
"547","63ae2788c3e5ec6d1cfcad16","grin","calibrator_val_feedback","Valence","CV",1731619169645,"positive",698,"negative","positive","negative;positive","A",6.54821910276237,27
"548","63ae2788c3e5ec6d1cfcad16","insecure","calibrator_val_feedback","Valence","CV",1731619172140,"negative",681,"negative","positive","negative;positive","A",6.52356230614951,28
"549","63ae2788c3e5ec6d1cfcad16","free","calibrator_val_feedback","Valence","CV",1731619175186,"positive",279,"negative","positive","negative;positive","A",5.63121178182137,29
"550","63ae2788c3e5ec6d1cfcad16","kitten","calibrator_val_feedback","Valence","CV",1731619179867,"positive",1064,"negative","positive","negative;positive","A",6.96979066990159,30
"551","63ae2788c3e5ec6d1cfcad16","jail","calibrator_val_no_feedback","Valence","CV",1731619183049,"negative",1267,"A","negative;positive","","",7.14440718032114,31
"552","63ae2788c3e5ec6d1cfcad16","industry","calibrator_val_no_feedback","Valence","CV",1731619184480,"positive",665,"A","negative;positive","","",6.49978704065585,32
"553","63ae2788c3e5ec6d1cfcad16","icebox","calibrator_val_no_feedback","Valence","CV",1731619185792,"positive",546,"A","negative;positive","","",6.30261897574491,33
"554","63ae2788c3e5ec6d1cfcad16","hat","calibrator_val_no_feedback","Valence","CV",1731619187404,"positive",858,"A","negative;positive","","",6.75460409948796,34
"555","63ae2788c3e5ec6d1cfcad16","kitten","calibrator_val_no_feedback","Valence","CV",1731619188649,"positive",480,"A","negative;positive","","",6.17378610390194,35
"556","63ae2788c3e5ec6d1cfcad16","insecure","calibrator_val_no_feedback","Valence","CV",1731619193308,"positive",3902,"A","negative;positive","","",8.26924452118306,36
"557","63ae2788c3e5ec6d1cfcad16","grin","calibrator_val_no_feedback","Valence","CV",1731619195227,"positive",1161,"A","negative;positive","","",7.05703698169789,37
"558","63ae2788c3e5ec6d1cfcad16","free","calibrator_val_no_feedback","Valence","CV",1731619196582,"positive",600,"A","negative;positive","","",6.39692965521615,38
"559","63ae2788c3e5ec6d1cfcad16","invader","calibrator_val_no_feedback","Valence","CV",1731619198376,"negative",1028,"A","negative;positive","","",6.93537044601511,39
"560","63ae2788c3e5ec6d1cfcad16","joke","calibrator_val_no_feedback","Valence","CV",1731619199798,"positive",660,"A","negative;positive","","",6.49223983502047,40
"561","64077ddd11208afe2bec171a","hat","calibrator_val_feedback","Valence","VC",1731609498196,"positive",1340,"negative","positive","negative;positive","A",7.20042489294496,1
"562","64077ddd11208afe2bec171a","joke","calibrator_val_feedback","Valence","VC",1731609502211,"positive",1257,"negative","positive","negative;positive","A",7.13648320859025,2
"563","64077ddd11208afe2bec171a","free","calibrator_val_feedback","Valence","VC",1731609506372,"positive",1401,"negative","positive","negative;positive","A",7.24494154633701,3
"564","64077ddd11208afe2bec171a","jail","calibrator_val_feedback","Valence","VC",1731609510467,"negative",1337,"negative","positive","negative;positive","A",7.19818357710194,4
"565","64077ddd11208afe2bec171a","grin","calibrator_val_feedback","Valence","VC",1731609514323,"positive",1093,"negative","positive","negative;positive","A",6.99668148817654,5
"566","64077ddd11208afe2bec171a","kitten","calibrator_val_feedback","Valence","VC",1731609517860,"positive",775,"negative","positive","negative;positive","A",6.65286302935335,6
"567","64077ddd11208afe2bec171a","icebox","calibrator_val_feedback","Valence","VC",1731609525843,"negative",5223,"negative","positive","negative;positive","A",8.5608272284363,7
"568","64077ddd11208afe2bec171a","invader","calibrator_val_feedback","Valence","VC",1731609529684,"negative",1084,"negative","positive","negative;positive","A",6.98841318199959,8
"569","64077ddd11208afe2bec171a","insecure","calibrator_val_feedback","Valence","VC",1731609534547,"negative",2103,"negative","positive","negative;positive","A",7.6511201757027,9
"570","64077ddd11208afe2bec171a","industry","calibrator_val_feedback","Valence","VC",1731609550276,"positive",12967,"negative","positive","negative;positive","A",9.47016294754888,10
"571","64077ddd11208afe2bec171a","invader","calibrator_val_no_feedback","Valence","VC",1731609554163,"negative",1129,"A","negative;positive","","",7.02908756414966,11
"572","64077ddd11208afe2bec171a","free","calibrator_val_no_feedback","Valence","VC",1731609555891,"positive",972,"A","negative;positive","","",6.87935580446044,12
"573","64077ddd11208afe2bec171a","insecure","calibrator_val_no_feedback","Valence","VC",1731609557875,"negative",1222,"A","negative;positive","","",7.10824413973154,13
"574","64077ddd11208afe2bec171a","icebox","calibrator_val_no_feedback","Valence","VC",1731609559651,"negative",1018,"A","negative;positive","","",6.92559519711047,14
"575","64077ddd11208afe2bec171a","hat","calibrator_val_no_feedback","Valence","VC",1731609563460,"positive",3048,"A","negative;positive","","",8.02224091680654,15
"576","64077ddd11208afe2bec171a","industry","calibrator_val_no_feedback","Valence","VC",1731609565571,"positive",1354,"A","negative;positive","","",7.21081845347222,16
"577","64077ddd11208afe2bec171a","joke","calibrator_val_no_feedback","Valence","VC",1731609567395,"positive",1068,"A","negative;positive","","",6.97354301952014,17
"578","64077ddd11208afe2bec171a","jail","calibrator_val_no_feedback","Valence","VC",1731609569235,"negative",1081,"A","negative;positive","","",6.98564181763921,18
"579","64077ddd11208afe2bec171a","grin","calibrator_val_no_feedback","Valence","VC",1731609570595,"positive",607,"A","negative;positive","","",6.4085287910595,19
