"","ID.true","Word","Label","ConcValCombo","Task","BlockOrder","Group","Response","Accuracy","EventTime","Value","RT","ReactionTime","Key_value_F","Key_value_J","Comments","LogReactionTime","LogRT","TrialNumber"
"1","65c39067cbd525efe109a5e4","popcorn","test_conc","concrete-positive","Concrete","CV","A","concrete",1,1736430553058,"concrete",1376,560,"concrete","A","",6.32793678372919,7.22693601849329,1
"2","65c39067cbd525efe109a5e4","duckling","test_conc","concrete-positive","Concrete","CV","A","concrete",1,1736430554489,"concrete",1394.16666666667,669,"concrete","A","",6.50578406012823,7.24005214419287,2
"3","65c39067cbd525efe109a5e4","sadness","test_conc","abstract-negative","Concrete","CV","A","abstract",1,1736430555993,"abstract",1364.33333333333,742,"concrete","A","",6.60934924316738,7.21842118782429,3
"4","65c39067cbd525efe109a5e4","wellness","test_conc","abstract-positive","Concrete","CV","A","abstract",1,1736430557344,"abstract",1406,589,"concrete","A","",6.37842618365159,7.24850407237061,4
"5","65c39067cbd525efe109a5e4","revenge","test_conc","abstract-negative","Concrete","CV","A","abstract",1,1736430558832,"abstract",1471.83333333333,725,"concrete","A","",6.58617165485467,7.29426406824075,5
"6","65c39067cbd525efe109a5e4","pancake","test_conc","concrete-positive","Concrete","CV","A","concrete",1,1736430560176,"concrete",1339.16666666667,584,"concrete","A","",6.36990098282823,7.19980280894356,6
"7","65c39067cbd525efe109a5e4","splendor","test_conc","abstract-positive","Concrete","CV","A","abstract",1,1736430561624,"abstract",1492.83333333333,684,"concrete","A","",6.52795791762255,7.30843115924714,7
"8","65c39067cbd525efe109a5e4","feces","test_conc","concrete-negative","Concrete","CV","A","concrete",1,1736430563050,"concrete",1448.33333333333,666,"concrete","A","",6.50128967054039,7.27816874903138,8
"9","65c39067cbd525efe109a5e4","rapist","test_conc","concrete-negative","Concrete","CV","A","concrete",1,1736430564457,"concrete",1368.33333333333,646,"concrete","A","",6.4707995037826,7.22134873321842,9
"10","65c39067cbd525efe109a5e4","bunny","test_conc","concrete-positive","Concrete","CV","A","concrete",1,1736430565809,"concrete",1348.66666666667,588,"concrete","A","",6.37672694789863,7.20687172905958,10
"11","65c39067cbd525efe109a5e4","hatred","test_conc","abstract-negative","Concrete","CV","A","abstract",1,1736430567217,"abstract",1402.16666666667,651,"concrete","A","",6.47850964220857,7.24577393832276,11
"12","65c39067cbd525efe109a5e4","justice","test_conc","abstract-positive","Concrete","CV","A","abstract",1,1736430568736,"abstract",1481,758,"concrete","A","",6.63068338564237,7.3004728142678,12
"13","65c39067cbd525efe109a5e4","prison","test_conc","concrete-negative","Concrete","CV","A","concrete",1,1736430570138,"concrete",1410.66666666667,642,"concrete","A","",6.46458830368996,7.25181768487003,13
"14","65c39067cbd525efe109a5e4","dollar","test_conc","concrete-positive","Concrete","CV","A","concrete",1,1736430571497,"concrete",1386,598,"concrete","A","",6.39359075395063,7.23417717974985,14
"15","65c39067cbd525efe109a5e4","goodness","test_conc","abstract-positive","Concrete","CV","A","abstract",1,1736430572873,"abstract",1390.16666666667,621,"concrete","A","",6.43133108193348,7.23717892301356,15
"16","65c39067cbd525efe109a5e4","wisdom","test_conc","abstract-positive","Concrete","CV","A","abstract",1,1736430574234,"abstract",1414.5,603,"concrete","A","",6.40191719672719,7.25453139074162,16
"17","65c39067cbd525efe109a5e4","greatness","test_conc","abstract-positive","Concrete","CV","A","abstract",1,1736430575561,"abstract",1383.33333333333,570,"concrete","A","",6.3456363608286,7.23225132455663,17
"18","65c39067cbd525efe109a5e4","fascism","test_conc","abstract-negative","Concrete","CV","A","abstract",1,1736430577649,"abstract",1625.33333333333,1330,"concrete","A","",7.1929342212158,7.39346820193305,18
"19","65c39067cbd525efe109a5e4","chipmunk","test_conc","concrete-positive","Concrete","CV","A","concrete",1,1736430579113,"concrete",1447.66666666667,706,"concrete","A","",6.55961523749324,7.27770834386671,19
"20","65c39067cbd525efe109a5e4","traffic","test_conc","concrete-negative","Concrete","CV","A","concrete",1,1736430581128,"concrete",1649.66666666667,1254,"concrete","A","",7.13409372119287,7.40832852628378,20
"21","65c39067cbd525efe109a5e4","breakup","test_conc","abstract-negative","Concrete","CV","A","abstract",1,1736430582944,"abstract",1597.16666666667,1054,"concrete","A","",6.96034772910131,7.37598650511571,21
"22","65c39067cbd525efe109a5e4","knowledge","test_conc","abstract-positive","Concrete","CV","A","abstract",1,1736430584440,"abstract",1424.16666666667,736,"concrete","A","",6.60123011872888,7.26134212632164,22
"23","65c39067cbd525efe109a5e4","blanket","test_conc","concrete-positive","Concrete","CV","A","concrete",1,1736430586097,"concrete",1416.5,899,"concrete","A","",6.80128303447162,7.25594431927057,23
"24","65c39067cbd525efe109a5e4","cockroach","test_conc","concrete-negative","Concrete","CV","A","concrete",1,1736430587560,"concrete",1445.16666666667,704,"concrete","A","",6.55677835615804,7.27597993414911,24
"25","65c39067cbd525efe109a5e4","madness","test_conc","abstract-negative","Concrete","CV","A","abstract",1,1736430589761,"abstract",1548.66666666667,1442,"concrete","A","",7.27378631784489,7.34514962466224,25
"26","65c39067cbd525efe109a5e4","lynching","test_conc","concrete-negative","Concrete","CV","A","concrete",1,1736430591632,"concrete",1499.16666666667,1111,"concrete","A","",7.01301578963963,7.31266467715658,26
"27","65c39067cbd525efe109a5e4","loathing","test_conc","abstract-negative","Concrete","CV","A","abstract",1,1736430593257,"abstract",1455.5,864,"concrete","A","",6.76157276880406,7.28310476318568,27
"28","65c39067cbd525efe109a5e4","doughnut","test_conc","concrete-positive","Concrete","CV","A","concrete",1,1736430594672,"concrete",1386.66666666667,659,"concrete","A","",6.49072353450251,7.2346580645872,28
"29","65c39067cbd525efe109a5e4","casket","test_conc","concrete-negative","Concrete","CV","A","concrete",1,1736430596169,"concrete",1461.83333333333,738,"concrete","A","",6.60394382460047,7.28744663472333,29
"30","65c39067cbd525efe109a5e4","betrayal","test_conc","abstract-negative","Concrete","CV","A","abstract",1,1736430597665,"abstract",1378.83333333333,738,"concrete","A","",6.60394382460047,7.22899300996213,30
"31","65c39067cbd525efe109a5e4","maggot","test_conc","concrete-negative","Concrete","CV","A","concrete",1,1736430599113,"concrete",1469,688,"concrete","A","",6.53378883793334,7.29233717617388,31
"32","65c39067cbd525efe109a5e4","courage","test_conc","abstract-positive","Concrete","CV","A","abstract",1,1736430600641,"abstract",1483,766,"concrete","A","",6.64118216974059,7.30182234213793,32
"33","65c39067cbd525efe109a5e4","sandwich","test_conc","concrete-positive","Concrete","CV","A","concrete",1,1736430602016,"concrete",1384.16666666667,621,"concrete","A","",6.43133108193348,7.23285355281934,33
"34","65c39067cbd525efe109a5e4","bummer","test_conc","abstract-negative","Concrete","CV","A","abstract",1,1736430603480,"abstract",1434.33333333333,702,"concrete","A","",6.55393340402581,7.26845544417049,34
"35","65c39067cbd525efe109a5e4","contempt","test_conc","abstract-negative","Concrete","CV","A","abstract",1,1736430605033,"abstract",1535.16666666667,793,"concrete","A","",6.67582322163485,7.33639423176018,35
"36","65c39067cbd525efe109a5e4","bedpan","test_conc","concrete-negative","Concrete","CV","A","concrete",1,1736430606449,"concrete",1509.16666666667,655,"concrete","A","",6.48463523563525,7.31931290108946,36
"37","65c39067cbd525efe109a5e4","fondness","test_conc","abstract-positive","Concrete","CV","A","abstract",1,1736430607984,"abstract",1446.16666666667,779,"concrete","A","",6.65801104587075,7.27667165656543,37
"38","65c39067cbd525efe109a5e4","pizza","test_conc","concrete-positive","Concrete","CV","A","concrete",1,1736430609328,"concrete",1334.83333333333,584,"concrete","A","",6.36990098282823,7.19656171909563,38
"39","65c39067cbd525efe109a5e4","fairness","test_conc","abstract-positive","Concrete","CV","A","abstract",1,1736430610842,"abstract",1407.33333333333,754,"concrete","A","",6.62539236800796,7.24945193974016,39
"40","65c39067cbd525efe109a5e4","frostbite","test_conc","concrete-negative","Concrete","CV","A","concrete",1,1736430612400,"concrete",1594.08333333333,803,"concrete","A","",6.68835471394676,7.37405413736465,40
"41","65c39067cbd525efe109a5e4","sandwich","test_conc","concrete-positive","Concrete","CV","A","concrete",1,1736430613784,"concrete",1384.16666666667,623,"concrete","A","",6.43454651878745,7.23285355281934,41
"42","65c39067cbd525efe109a5e4","traffic","test_conc","concrete-negative","Concrete","CV","A","concrete",1,1736430615424,"concrete",1649.66666666667,878,"concrete","A","",6.77764659363512,7.40832852628378,42
"43","65c39067cbd525efe109a5e4","doughnut","test_conc","concrete-positive","Concrete","CV","A","concrete",1,1736430616944,"concrete",1386.66666666667,758,"concrete","A","",6.63068338564237,7.2346580645872,43
"44","65c39067cbd525efe109a5e4","justice","test_conc","abstract-positive","Concrete","CV","A","abstract",1,1736430618360,"abstract",1481,659,"concrete","A","",6.49072353450251,7.3004728142678,44
"45","65c39067cbd525efe109a5e4","fondness","test_conc","abstract-positive","Concrete","CV","A","abstract",1,1736430619968,"abstract",1446.16666666667,849,"concrete","A","",6.74405918631135,7.27667165656543,45
"46","65c39067cbd525efe109a5e4","madness","test_conc","abstract-negative","Concrete","CV","A","abstract",1,1736430621247,"abstract",1548.66666666667,518,"concrete","A","",6.24997524225948,7.34514962466224,46
"47","65c39067cbd525efe109a5e4","breakup","test_conc","abstract-negative","Concrete","CV","A","abstract",1,1736430623201,"abstract",1597.16666666667,1196,"concrete","A","",7.08673793451058,7.37598650511571,47
"48","65c39067cbd525efe109a5e4","prison","test_conc","concrete-negative","Concrete","CV","A","concrete",1,1736430624752,"concrete",1410.66666666667,792,"concrete","A","",6.67456139181443,7.25181768487003,48
"49","65c39067cbd525efe109a5e4","fascism","test_conc","abstract-negative","Concrete","CV","A","abstract",1,1736430626297,"abstract",1625.33333333333,783,"concrete","A","",6.6631326959908,7.39346820193305,49
"50","65c39067cbd525efe109a5e4","cockroach","test_conc","concrete-negative","Concrete","CV","A","concrete",1,1736430627728,"concrete",1445.16666666667,670,"concrete","A","",6.50727771238501,7.27597993414911,50
"51","65c39067cbd525efe109a5e4","contempt","test_conc","abstract-negative","Concrete","CV","A","abstract",1,1736430629209,"abstract",1535.16666666667,720,"concrete","A","",6.5792512120101,7.33639423176018,51
"52","65c39067cbd525efe109a5e4","betrayal","test_conc","abstract-negative","Concrete","CV","A","abstract",1,1736430630547,"abstract",1378.83333333333,576,"concrete","A","",6.35610766069589,7.22899300996213,52
"53","65c39067cbd525efe109a5e4","feces","test_conc","concrete-negative","Concrete","CV","A","concrete",1,1736430631920,"concrete",1448.33333333333,615,"concrete","A","",6.42162226780652,7.27816874903138,53
"54","65c39067cbd525efe109a5e4","splendor","test_conc","abstract-positive","Concrete","CV","A","abstract",1,1736430633320,"abstract",1492.83333333333,639,"concrete","A","",6.45990445437753,7.30843115924714,54
"55","65c39067cbd525efe109a5e4","dollar","test_conc","concrete-positive","Concrete","CV","A","concrete",1,1736430634784,"concrete",1386,705,"concrete","A","",6.55819780281227,7.23417717974985,55
"56","65c39067cbd525efe109a5e4","loathing","test_conc","abstract-negative","Concrete","CV","A","abstract",1,1736430636160,"abstract",1455.5,618,"concrete","A","",6.42648845745769,7.28310476318568,56
"57","65c39067cbd525efe109a5e4","rapist","test_conc","concrete-negative","Concrete","CV","A","concrete",1,1736430637681,"concrete",1368.33333333333,761,"concrete","A","",6.63463335786169,7.22134873321842,57
"58","65c39067cbd525efe109a5e4","frostbite","test_conc","concrete-negative","Concrete","CV","A","concrete",1,1736430639096,"concrete",1594.08333333333,658,"concrete","A","",6.48920493132532,7.37405413736465,58
"59","65c39067cbd525efe109a5e4","courage","test_conc","abstract-positive","Concrete","CV","A","abstract",1,1736430640424,"abstract",1483,567,"concrete","A","",6.34035930372775,7.30182234213793,59
"60","65c39067cbd525efe109a5e4","sadness","test_conc","abstract-negative","Concrete","CV","A","abstract",1,1736430641720,"abstract",1364.33333333333,535,"concrete","A","",6.28226674689601,7.21842118782429,60
"61","65c39067cbd525efe109a5e4","pancake","test_conc","concrete-positive","Concrete","CV","A","concrete",1,1736430643071,"concrete",1339.16666666667,596,"concrete","A","",6.39024066706535,7.19980280894356,61
"62","65c39067cbd525efe109a5e4","lynching","test_conc","concrete-negative","Concrete","CV","A","concrete",1,1736430644535,"concrete",1499.16666666667,706,"concrete","A","",6.55961523749324,7.31266467715658,62
"63","65c39067cbd525efe109a5e4","maggot","test_conc","concrete-negative","Concrete","CV","A","concrete",1,1736430645928,"concrete",1469,634,"concrete","A","",6.45204895443723,7.29233717617388,63
"64","65c39067cbd525efe109a5e4","knowledge","test_conc","abstract-positive","Concrete","CV","A","abstract",1,1736430647295,"abstract",1424.16666666667,606,"concrete","A","",6.40687998606931,7.26134212632164,64
"65","65c39067cbd525efe109a5e4","duckling","test_conc","concrete-positive","Concrete","CV","A","concrete",1,1736430648632,"concrete",1394.16666666667,574,"concrete","A","",6.35262939631957,7.24005214419287,65
"66","65c39067cbd525efe109a5e4","bunny","test_conc","concrete-positive","Concrete","CV","A","concrete",1,1736430649951,"concrete",1348.66666666667,561,"concrete","A","",6.3297209055227,7.20687172905958,66
"67","65c39067cbd525efe109a5e4","bedpan","test_conc","concrete-negative","Concrete","CV","A","concrete",1,1736430651296,"concrete",1509.16666666667,583,"concrete","A","",6.36818718635049,7.31931290108946,67
"68","65c39067cbd525efe109a5e4","wisdom","test_conc","abstract-positive","Concrete","CV","A","abstract",1,1736430652680,"abstract",1414.5,621,"concrete","A","",6.43133108193348,7.25453139074162,68
"69","65c39067cbd525efe109a5e4","fairness","test_conc","abstract-positive","Concrete","CV","A","abstract",1,1736430654120,"abstract",1407.33333333333,683,"concrete","A","",6.52649485957079,7.24945193974016,69
"70","65c39067cbd525efe109a5e4","greatness","test_conc","abstract-positive","Concrete","CV","A","abstract",1,1736430655487,"abstract",1383.33333333333,609,"concrete","A","",6.4118182677099,7.23225132455663,70
"71","65c39067cbd525efe109a5e4","popcorn","test_conc","concrete-positive","Concrete","CV","A","concrete",1,1736430656880,"concrete",1376,634,"concrete","A","",6.45204895443723,7.22693601849329,71
"72","65c39067cbd525efe109a5e4","chipmunk","test_conc","concrete-positive","Concrete","CV","A","concrete",1,1736430658256,"concrete",1447.66666666667,615,"concrete","A","",6.42162226780652,7.27770834386671,72
"73","65c39067cbd525efe109a5e4","hatred","test_conc","abstract-negative","Concrete","CV","A","abstract",1,1736430659632,"abstract",1402.16666666667,617,"concrete","A","",6.42486902390539,7.24577393832276,73
"74","65c39067cbd525efe109a5e4","wellness","test_conc","abstract-positive","Concrete","CV","A","abstract",1,1736430661063,"abstract",1406,672,"concrete","A","",6.51025834052315,7.24850407237061,74
"75","65c39067cbd525efe109a5e4","casket","test_conc","concrete-negative","Concrete","CV","A","concrete",1,1736430662407,"concrete",1461.83333333333,584,"concrete","A","",6.36990098282823,7.28744663472333,75
"76","65c39067cbd525efe109a5e4","revenge","test_conc","abstract-negative","Concrete","CV","A","abstract",1,1736430663816,"abstract",1471.83333333333,649,"concrete","A","",6.47543271670409,7.29426406824075,76
"77","65c39067cbd525efe109a5e4","blanket","test_conc","concrete-positive","Concrete","CV","A","concrete",1,1736430665135,"concrete",1416.5,558,"concrete","A","",6.32435896238131,7.25594431927057,77
"78","65c39067cbd525efe109a5e4","goodness","test_conc","abstract-positive","Concrete","CV","A","abstract",1,1736430666447,"abstract",1390.16666666667,551,"concrete","A","",6.31173480915291,7.23717892301356,78
"79","65c39067cbd525efe109a5e4","bummer","test_conc","abstract-negative","Concrete","CV","A","abstract",1,1736430667862,"abstract",1434.33333333333,654,"concrete","A","",6.4831073514572,7.26845544417049,79
"80","65c39067cbd525efe109a5e4","pizza","test_conc","concrete-positive","Concrete","CV","A","concrete",1,1736430669191,"concrete",1334.83333333333,571,"concrete","A","",6.34738920965601,7.19656171909563,80
"81","65c39067cbd525efe109a5e4","loathing","test_conc","abstract-negative","Concrete","CV","A","abstract",1,1736430670496,"abstract",1455.5,542,"concrete","A","",6.29526600143965,7.28310476318568,81
"82","65c39067cbd525efe109a5e4","bedpan","test_conc","concrete-negative","Concrete","CV","A","concrete",1,1736430671879,"concrete",1509.16666666667,622,"concrete","A","",6.43294009273918,7.31931290108946,82
"83","65c39067cbd525efe109a5e4","traffic","test_conc","concrete-negative","Concrete","CV","A","concrete",1,1736430673304,"concrete",1649.66666666667,668,"concrete","A","",6.50428817353665,7.40832852628378,83
"84","65c39067cbd525efe109a5e4","sadness","test_conc","abstract-negative","Concrete","CV","A","abstract",1,1736430674631,"abstract",1364.33333333333,569,"concrete","A","",6.34388043412633,7.21842118782429,84
"85","65c39067cbd525efe109a5e4","cockroach","test_conc","concrete-negative","Concrete","CV","A","concrete",1,1736430676006,"concrete",1445.16666666667,616,"concrete","A","",6.42324696353352,7.27597993414911,85
"86","65c39067cbd525efe109a5e4","doughnut","test_conc","concrete-positive","Concrete","CV","A","concrete",1,1736430677351,"concrete",1386.66666666667,586,"concrete","A","",6.37331978957701,7.2346580645872,86
"87","65c39067cbd525efe109a5e4","dollar","test_conc","concrete-positive","Concrete","CV","A","concrete",1,1736430678686,"concrete",1386,578,"concrete","A","",6.35957386867238,7.23417717974985,87
"88","65c39067cbd525efe109a5e4","blanket","test_conc","concrete-positive","Concrete","CV","A","concrete",1,1736430679967,"concrete",1416.5,523,"concrete","A","",6.25958146406492,7.25594431927057,88
"89","65c39067cbd525efe109a5e4","popcorn","test_conc","concrete-positive","Concrete","CV","A","concrete",1,1736430681215,"concrete",1376,488,"concrete","A","",6.19031540585315,7.22693601849329,89
"90","65c39067cbd525efe109a5e4","lynching","test_conc","concrete-negative","Concrete","CV","A","concrete",1,1736430682631,"concrete",1499.16666666667,658,"concrete","A","",6.48920493132532,7.31266467715658,90
"91","65c39067cbd525efe109a5e4","pizza","test_conc","concrete-positive","Concrete","CV","A","concrete",1,1736430683999,"concrete",1334.83333333333,610,"concrete","A","",6.41345895716736,7.19656171909563,91
"92","65c39067cbd525efe109a5e4","chipmunk","test_conc","concrete-positive","Concrete","CV","A","concrete",1,1736430685351,"concrete",1447.66666666667,591,"concrete","A","",6.3818160174061,7.27770834386671,92
"93","65c39067cbd525efe109a5e4","courage","test_conc","abstract-positive","Concrete","CV","A","abstract",1,1736430686751,"abstract",1483,641,"concrete","A","",6.46302945692067,7.30182234213793,93
"94","65c39067cbd525efe109a5e4","casket","test_conc","concrete-negative","Concrete","CV","A","concrete",1,1736430688088,"concrete",1461.83333333333,580,"concrete","A","",6.36302810354046,7.28744663472333,94
"95","65c39067cbd525efe109a5e4","pancake","test_conc","concrete-positive","Concrete","CV","A","concrete",1,1736430689366,"concrete",1339.16666666667,514,"concrete","A","",6.24222326545517,7.19980280894356,95
"96","65c39067cbd525efe109a5e4","prison","test_conc","concrete-negative","Concrete","CV","A","concrete",1,1736430690679,"concrete",1410.66666666667,555,"concrete","A","",6.31896811374643,7.25181768487003,96
"97","65c39067cbd525efe109a5e4","breakup","test_conc","abstract-negative","Concrete","CV","A","abstract",1,1736430692096,"abstract",1597.16666666667,659,"concrete","A","",6.49072353450251,7.37598650511571,97
"98","65c39067cbd525efe109a5e4","frostbite","test_conc","concrete-negative","Concrete","CV","A","concrete",1,1736430693983,"concrete",1594.08333333333,1123,"concrete","A","",7.02375895473844,7.37405413736465,98
"99","65c39067cbd525efe109a5e4","hatred","test_conc","abstract-negative","Concrete","CV","A","abstract",1,1736430695318,"abstract",1402.16666666667,575,"concrete","A","",6.35437004079735,7.24577393832276,99
"100","65c39067cbd525efe109a5e4","revenge","test_conc","abstract-negative","Concrete","CV","A","abstract",1,1736430696862,"abstract",1471.83333333333,782,"concrete","A","",6.66185474054531,7.29426406824075,100
"101","65c39067cbd525efe109a5e4","bunny","test_conc","concrete-positive","Concrete","CV","A","concrete",1,1736430698175,"concrete",1348.66666666667,554,"concrete","A","",6.31716468674728,7.20687172905958,101
"102","65c39067cbd525efe109a5e4","maggot","test_conc","concrete-negative","Concrete","CV","A","concrete",1,1736430699838,"concrete",1469,905,"concrete","A","",6.80793494369993,7.29233717617388,102
"103","65c39067cbd525efe109a5e4","knowledge","test_conc","abstract-positive","Concrete","CV","A","abstract",1,1736430701230,"abstract",1424.16666666667,636,"concrete","A","",6.45519856334012,7.26134212632164,103
"104","65c39067cbd525efe109a5e4","contempt","test_conc","abstract-negative","Concrete","CV","A","abstract",1,1736430702998,"abstract",1535.16666666667,1006,"concrete","A","",6.91373735065968,7.33639423176018,104
"105","65c39067cbd525efe109a5e4","justice","test_conc","abstract-positive","Concrete","CV","A","abstract",1,1736430704343,"abstract",1481,587,"concrete","A","",6.3750248198281,7.3004728142678,105
"106","65c39067cbd525efe109a5e4","madness","test_conc","abstract-negative","Concrete","CV","A","abstract",1,1736430705622,"abstract",1548.66666666667,519,"concrete","A","",6.25190388316589,7.34514962466224,106
"107","65c39067cbd525efe109a5e4","wisdom","test_conc","abstract-positive","Concrete","CV","A","abstract",1,1736430707014,"abstract",1414.5,633,"concrete","A","",6.45047042214418,7.25453139074162,107
"108","65c39067cbd525efe109a5e4","greatness","test_conc","abstract-positive","Concrete","CV","A","abstract",1,1736430708295,"abstract",1383.33333333333,519,"concrete","A","",6.25190388316589,7.23225132455663,108
"109","65c39067cbd525efe109a5e4","fondness","test_conc","abstract-positive","Concrete","CV","A","abstract",1,1736430709670,"abstract",1446.16666666667,617,"concrete","A","",6.42486902390539,7.27667165656543,109
"110","65c39067cbd525efe109a5e4","fairness","test_conc","abstract-positive","Concrete","CV","A","abstract",1,1736430710959,"abstract",1407.33333333333,531,"concrete","A","",6.27476202124194,7.24945193974016,110
"111","65c39067cbd525efe109a5e4","feces","test_conc","concrete-negative","Concrete","CV","A","concrete",1,1736430712502,"concrete",1448.33333333333,782,"concrete","A","",6.66185474054531,7.27816874903138,111
"112","65c39067cbd525efe109a5e4","betrayal","test_conc","abstract-negative","Concrete","CV","A","abstract",1,1736430713863,"abstract",1378.83333333333,599,"concrete","A","",6.39526159811545,7.22899300996213,112
"113","65c39067cbd525efe109a5e4","wellness","test_conc","abstract-positive","Concrete","CV","A","abstract",1,1736430715199,"abstract",1406,576,"concrete","A","",6.35610766069589,7.24850407237061,113
"114","65c39067cbd525efe109a5e4","duckling","test_conc","concrete-positive","Concrete","CV","A","concrete",1,1736430716567,"concrete",1394.16666666667,609,"concrete","A","",6.4118182677099,7.24005214419287,114
"115","65c39067cbd525efe109a5e4","fascism","test_conc","abstract-negative","Concrete","CV","A","abstract",1,1736430718311,"abstract",1625.33333333333,987,"concrete","A","",6.89467003943348,7.39346820193305,115
"116","65c39067cbd525efe109a5e4","splendor","test_conc","abstract-positive","Concrete","CV","A","abstract",1,1736430720054,"abstract",1492.83333333333,983,"concrete","A","",6.89060912014717,7.30843115924714,116
"117","65c39067cbd525efe109a5e4","rapist","test_conc","concrete-negative","Concrete","CV","A","concrete",1,1736430721416,"concrete",1368.33333333333,604,"concrete","A","",6.40357419793482,7.22134873321842,117
"118","65c39067cbd525efe109a5e4","goodness","test_conc","abstract-positive","Concrete","CV","A","abstract",1,1736430722710,"abstract",1390.16666666667,533,"concrete","A","",6.27852142416584,7.23717892301356,118
"119","65c39067cbd525efe109a5e4","bummer","test_conc","abstract-negative","Concrete","CV","A","abstract",1,1736430724008,"abstract",1434.33333333333,539,"concrete","A","",6.289715570909,7.26845544417049,119
"120","65c39067cbd525efe109a5e4","sandwich","test_conc","concrete-positive","Concrete","CV","A","concrete",1,1736430725477,"concrete",1384.16666666667,707,"concrete","A","",6.56103066589657,7.23285355281934,120
"121","65c39067cbd525efe109a5e4","pizza","test_val","concrete-positive","Valence","CV","A","positive",1,1736430859851,"positive",1334.83333333333,568,"positive","A","",6.34212141872115,7.19656171909563,121
"122","65c39067cbd525efe109a5e4","casket","test_val","concrete-negative","Valence","CV","A","negative",1,1736430861387,"negative",1461.83333333333,776,"positive","A","",6.65415252018322,7.28744663472333,122
"123","65c39067cbd525efe109a5e4","duckling","test_val","concrete-positive","Valence","CV","A","positive",1,1736430862891,"positive",1394.16666666667,745,"positive","A","",6.61338421837956,7.24005214419287,123
"124","65c39067cbd525efe109a5e4","doughnut","test_val","concrete-positive","Valence","CV","A","positive",1,1736430864284,"positive",1386.66666666667,630,"positive","A","",6.44571981938558,7.2346580645872,124
"125","65c39067cbd525efe109a5e4","wellness","test_val","abstract-positive","Valence","CV","A","positive",1,1736430865876,"positive",1406,828,"positive","A","",6.71901315438526,7.24850407237061,125
"126","65c39067cbd525efe109a5e4","sadness","test_val","abstract-negative","Valence","CV","A","negative",1,1736430867194,"negative",1364.33333333333,562,"positive","A","",6.33150184989369,7.21842118782429,126
"127","65c39067cbd525efe109a5e4","frostbite","test_val","concrete-negative","Valence","CV","A","negative",1,1736430868788,"negative",1594.08333333333,833,"positive","A","",6.72503364216684,7.37405413736465,127
"128","65c39067cbd525efe109a5e4","greatness","test_val","abstract-positive","Valence","CV","A","positive",1,1736430870443,"positive",1383.33333333333,897,"positive","A","",6.7990558620588,7.23225132455663,128
"129","65c39067cbd525efe109a5e4","prison","test_val","concrete-negative","Valence","CV","A","negative",1,1736430872051,"negative",1410.66666666667,848,"positive","A","",6.7428806357919,7.25181768487003,129
"130","65c39067cbd525efe109a5e4","wisdom","test_val","abstract-positive","Valence","CV","A","positive",1,1736430873650,"positive",1414.5,831,"positive","A","",6.72262979485545,7.25453139074162,130
"131","65c39067cbd525efe109a5e4","goodness","test_val","abstract-positive","Valence","CV","A","positive",1,1736430874988,"positive",1390.16666666667,579,"positive","A","",6.361302477573,7.23717892301356,131
"132","65c39067cbd525efe109a5e4","betrayal","test_val","abstract-negative","Valence","CV","A","negative",1,1736430876315,"negative",1378.83333333333,565,"positive","A","",6.33682573114644,7.22899300996213,132
"133","65c39067cbd525efe109a5e4","rapist","test_val","concrete-negative","Valence","CV","A","negative",1,1736430877643,"negative",1368.33333333333,566,"positive","A","",6.33859407820318,7.22134873321842,133
"134","65c39067cbd525efe109a5e4","popcorn","test_val","concrete-positive","Valence","CV","A","positive",1,1736430879043,"positive",1376,639,"positive","A","",6.45990445437753,7.22693601849329,134
"135","65c39067cbd525efe109a5e4","feces","test_val","concrete-negative","Valence","CV","A","negative",1,1736430880563,"negative",1448.33333333333,757,"positive","A","",6.62936325343745,7.27816874903138,135
"136","65c39067cbd525efe109a5e4","breakup","test_val","abstract-negative","Valence","CV","A","negative",1,1736430882011,"negative",1597.16666666667,685,"positive","A","",6.52941883826223,7.37598650511571,136
"137","65c39067cbd525efe109a5e4","splendor","test_val","abstract-positive","Valence","CV","A","positive",1,1736430883507,"positive",1492.83333333333,736,"positive","A","",6.60123011872888,7.30843115924714,137
"138","65c39067cbd525efe109a5e4","fondness","test_val","abstract-positive","Valence","CV","A","positive",1,1736430884866,"positive",1446.16666666667,597,"positive","A","",6.3919171133926,7.27667165656543,138
"139","65c39067cbd525efe109a5e4","blanket","test_val","concrete-positive","Valence","CV","A","positive",1,1736430886387,"positive",1416.5,761,"positive","A","",6.63463335786169,7.25594431927057,139
"140","65c39067cbd525efe109a5e4","fairness","test_val","abstract-positive","Valence","CV","A","positive",1,1736430887803,"positive",1407.33333333333,655,"positive","A","",6.48463523563525,7.24945193974016,140
"141","65c39067cbd525efe109a5e4","maggot","test_val","concrete-negative","Valence","CV","A","negative",1,1736430889275,"negative",1469,711,"positive","A","",6.56667242980324,7.29233717617388,141
"142","65c39067cbd525efe109a5e4","revenge","test_val","abstract-negative","Valence","CV","A","negative",1,1736430890657,"negative",1471.83333333333,625,"positive","A","",6.4377516497364,7.29426406824075,142
"143","65c39067cbd525efe109a5e4","bedpan","test_val","concrete-negative","Valence","CV","A","negative",1,1736430892578,"negative",1509.16666666667,1158,"positive","A","",7.05444965813294,7.31931290108946,143
"144","65c39067cbd525efe109a5e4","justice","test_val","abstract-positive","Valence","CV","A","positive",1,1736430894131,"positive",1481,795,"positive","A","",6.67834211465433,7.3004728142678,144
"145","65c39067cbd525efe109a5e4","fascism","test_val","abstract-negative","Valence","CV","A","negative",1,1736430895651,"negative",1625.33333333333,760,"positive","A","",6.63331843328038,7.39346820193305,145
"146","65c39067cbd525efe109a5e4","bunny","test_val","concrete-positive","Valence","CV","A","positive",1,1736430897091,"positive",1348.66666666667,679,"positive","A","",6.5206211275587,7.20687172905958,146
"147","65c39067cbd525efe109a5e4","hatred","test_val","abstract-negative","Valence","CV","A","negative",1,1736430898539,"negative",1402.16666666667,688,"positive","A","",6.53378883793334,7.24577393832276,147
"148","65c39067cbd525efe109a5e4","dollar","test_val","concrete-positive","Valence","CV","A","positive",1,1736430899987,"positive",1386,690,"positive","A","",6.5366915975913,7.23417717974985,148
"149","65c39067cbd525efe109a5e4","loathing","test_val","abstract-negative","Valence","CV","A","negative",1,1736430901482,"negative",1455.5,735,"positive","A","",6.59987049921284,7.28310476318568,149
"150","65c39067cbd525efe109a5e4","pancake","test_val","concrete-positive","Valence","CV","A","positive",1,1736430902802,"positive",1339.16666666667,563,"positive","A","",6.33327962813969,7.19980280894356,150
"151","65c39067cbd525efe109a5e4","cockroach","test_val","concrete-negative","Valence","CV","A","negative",1,1736430904211,"negative",1445.16666666667,650,"positive","A","",6.47697236288968,7.27597993414911,151
"152","65c39067cbd525efe109a5e4","lynching","test_val","concrete-negative","Valence","CV","A","negative",1,1736430905626,"negative",1499.16666666667,660,"positive","A","",6.49223983502047,7.31266467715658,152
"153","65c39067cbd525efe109a5e4","sandwich","test_val","concrete-positive","Valence","CV","A","positive",1,1736430907043,"positive",1384.16666666667,658,"positive","A","",6.48920493132532,7.23285355281934,153
"154","65c39067cbd525efe109a5e4","courage","test_val","abstract-positive","Valence","CV","A","positive",1,1736430908643,"positive",1483,842,"positive","A","",6.73578001424233,7.30182234213793,154
"155","65c39067cbd525efe109a5e4","madness","test_val","abstract-negative","Valence","CV","A","negative",1,1736430910123,"negative",1548.66666666667,720,"positive","A","",6.5792512120101,7.34514962466224,155
"156","65c39067cbd525efe109a5e4","traffic","test_val","concrete-negative","Valence","CV","A","negative",1,1736430911921,"negative",1649.66666666667,1038,"positive","A","",6.94505106372583,7.40832852628378,156
"157","65c39067cbd525efe109a5e4","knowledge","test_val","abstract-positive","Valence","CV","A","positive",1,1736430913418,"positive",1424.16666666667,736,"positive","A","",6.60123011872888,7.26134212632164,157
"158","65c39067cbd525efe109a5e4","chipmunk","test_val","concrete-positive","Valence","CV","A","positive",1,1736430914946,"positive",1447.66666666667,764,"positive","A","",6.63856778916652,7.27770834386671,158
"159","65c39067cbd525efe109a5e4","contempt","test_val","abstract-negative","Valence","CV","A","negative",1,1736430916387,"negative",1535.16666666667,681,"positive","A","",6.52356230614951,7.33639423176018,159
"160","65c39067cbd525efe109a5e4","bummer","test_val","abstract-negative","Valence","CV","A","negative",1,1736430918041,"negative",1434.33333333333,895,"positive","A","",6.79682371827486,7.26845544417049,160
"161","65c39067cbd525efe109a5e4","casket","test_val","concrete-negative","Valence","CV","A","negative",1,1736430919594,"negative",1461.83333333333,796,"positive","A","",6.67959918584438,7.28744663472333,161
"162","65c39067cbd525efe109a5e4","pizza","test_val","concrete-positive","Valence","CV","A","positive",1,1736430920961,"positive",1334.83333333333,609,"positive","A","",6.4118182677099,7.19656171909563,162
"163","65c39067cbd525efe109a5e4","wellness","test_val","abstract-positive","Valence","CV","A","negative",0,1736430922330,"negative",1406,610,"positive","A","",6.41345895716736,7.24850407237061,163
"164","65c39067cbd525efe109a5e4","lynching","test_val","concrete-negative","Valence","CV","A","negative",1,1736430923866,"negative",1499.16666666667,772,"positive","A","",6.64898455002478,7.31266467715658,164
"165","65c39067cbd525efe109a5e4","sandwich","test_val","concrete-positive","Valence","CV","A","positive",1,1736430925258,"positive",1384.16666666667,631,"positive","A","",6.44730586254121,7.23285355281934,165
"166","65c39067cbd525efe109a5e4","cockroach","test_val","concrete-negative","Valence","CV","A","negative",1,1736430926709,"negative",1445.16666666667,694,"positive","A","",6.5424719605068,7.27597993414911,166
"167","65c39067cbd525efe109a5e4","knowledge","test_val","abstract-positive","Valence","CV","A","positive",1,1736430928202,"positive",1424.16666666667,732,"positive","A","",6.59578051396131,7.26134212632164,167
"168","65c39067cbd525efe109a5e4","loathing","test_val","abstract-negative","Valence","CV","A","negative",1,1736430929689,"negative",1455.5,732,"positive","A","",6.59578051396131,7.28310476318568,168
"169","65c39067cbd525efe109a5e4","rapist","test_val","concrete-negative","Valence","CV","A","negative",1,1736430930970,"negative",1368.33333333333,526,"positive","A","",6.26530121273771,7.22134873321842,169
"170","65c39067cbd525efe109a5e4","greatness","test_val","abstract-positive","Valence","CV","A","positive",1,1736430932361,"positive",1383.33333333333,635,"positive","A","",6.45362499889269,7.23225132455663,170
"171","65c39067cbd525efe109a5e4","fairness","test_val","abstract-positive","Valence","CV","A","positive",1,1736430933785,"positive",1407.33333333333,666,"positive","A","",6.50128967054039,7.24945193974016,171
"172","65c39067cbd525efe109a5e4","splendor","test_val","abstract-positive","Valence","CV","A","positive",1,1736430935137,"positive",1492.83333333333,594,"positive","A","",6.38687931936265,7.30843115924714,172
"173","65c39067cbd525efe109a5e4","hatred","test_val","abstract-negative","Valence","CV","A","negative",1,1736430936513,"negative",1402.16666666667,617,"positive","A","",6.42486902390539,7.24577393832276,173
"174","65c39067cbd525efe109a5e4","fascism","test_val","abstract-negative","Valence","CV","A","negative",1,1736430937977,"negative",1625.33333333333,705,"positive","A","",6.55819780281227,7.39346820193305,174
"175","65c39067cbd525efe109a5e4","chipmunk","test_val","concrete-positive","Valence","CV","A","positive",1,1736430939337,"positive",1447.66666666667,604,"positive","A","",6.40357419793482,7.27770834386671,175
"176","65c39067cbd525efe109a5e4","madness","test_val","abstract-negative","Valence","CV","A","negative",1,1736430940856,"negative",1548.66666666667,761,"positive","A","",6.63463335786169,7.34514962466224,176
"177","65c39067cbd525efe109a5e4","feces","test_val","concrete-negative","Valence","CV","A","negative",1,1736430942265,"negative",1448.33333333333,647,"positive","A","",6.4723462945009,7.27816874903138,177
"178","65c39067cbd525efe109a5e4","breakup","test_val","abstract-negative","Valence","CV","A","negative",1,1736430943681,"negative",1597.16666666667,662,"positive","A","",6.49526555593701,7.37598650511571,178
"179","65c39067cbd525efe109a5e4","sadness","test_val","abstract-negative","Valence","CV","A","negative",1,1736430945041,"negative",1364.33333333333,605,"positive","A","",6.40522845803084,7.21842118782429,179
"180","65c39067cbd525efe109a5e4","prison","test_val","concrete-negative","Valence","CV","A","negative",1,1736430946330,"negative",1410.66666666667,528,"positive","A","",6.26909628370626,7.25181768487003,180
"181","65c39067cbd525efe109a5e4","bunny","test_val","concrete-positive","Valence","CV","A","positive",1,1736430947640,"positive",1348.66666666667,550,"positive","A","",6.30991827822652,7.20687172905958,181
"182","65c39067cbd525efe109a5e4","revenge","test_val","abstract-negative","Valence","CV","A","negative",1,1736430949026,"negative",1471.83333333333,625,"positive","A","",6.4377516497364,7.29426406824075,182
"183","65c39067cbd525efe109a5e4","frostbite","test_val","concrete-negative","Valence","CV","A","negative",1,1736430950488,"negative",1594.08333333333,706,"positive","A","",6.55961523749324,7.37405413736465,183
"184","65c39067cbd525efe109a5e4","popcorn","test_val","concrete-positive","Valence","CV","A","positive",1,1736430951824,"positive",1376,579,"positive","A","",6.361302477573,7.22693601849329,184
"185","65c39067cbd525efe109a5e4","dollar","test_val","concrete-positive","Valence","CV","A","positive",1,1736430953249,"positive",1386,669,"positive","A","",6.50578406012823,7.23417717974985,185
"186","65c39067cbd525efe109a5e4","goodness","test_val","abstract-positive","Valence","CV","A","positive",1,1736430954904,"positive",1390.16666666667,897,"positive","A","",6.7990558620588,7.23717892301356,186
"187","65c39067cbd525efe109a5e4","justice","test_val","abstract-positive","Valence","CV","A","positive",1,1736430956512,"positive",1481,848,"positive","A","",6.7428806357919,7.3004728142678,187
"188","65c39067cbd525efe109a5e4","betrayal","test_val","abstract-negative","Valence","CV","A","negative",1,1736430957841,"negative",1378.83333333333,568,"positive","A","",6.34212141872115,7.22899300996213,188
"189","65c39067cbd525efe109a5e4","courage","test_val","abstract-positive","Valence","CV","A","positive",1,1736430959458,"positive",1483,859,"positive","A","",6.75576892198425,7.30182234213793,189
"190","65c39067cbd525efe109a5e4","duckling","test_val","concrete-positive","Valence","CV","A","positive",1,1736430960833,"positive",1394.16666666667,616,"positive","A","",6.42324696353352,7.24005214419287,190
"191","65c39067cbd525efe109a5e4","doughnut","test_val","concrete-positive","Valence","CV","A","positive",1,1736430962185,"positive",1386.66666666667,593,"positive","A","",6.38519439899773,7.2346580645872,191
"192","65c39067cbd525efe109a5e4","blanket","test_val","concrete-positive","Valence","CV","A","positive",1,1736430963529,"positive",1416.5,587,"positive","A","",6.3750248198281,7.25594431927057,192
"193","65c39067cbd525efe109a5e4","pancake","test_val","concrete-positive","Valence","CV","A","positive",1,1736430964856,"positive",1339.16666666667,568,"positive","A","",6.34212141872115,7.19980280894356,193
"194","65c39067cbd525efe109a5e4","fondness","test_val","abstract-positive","Valence","CV","A","positive",1,1736430966304,"positive",1446.16666666667,687,"positive","A","",6.53233429222235,7.27667165656543,194
"195","65c39067cbd525efe109a5e4","contempt","test_val","abstract-negative","Valence","CV","A","negative",1,1736430967753,"negative",1535.16666666667,688,"positive","A","",6.53378883793334,7.33639423176018,195
"196","65c39067cbd525efe109a5e4","maggot","test_val","concrete-negative","Valence","CV","A","negative",1,1736430969185,"negative",1469,671,"positive","A","",6.50876913697168,7.29233717617388,196
"197","65c39067cbd525efe109a5e4","wisdom","test_val","abstract-positive","Valence","CV","A","positive",1,1736430970520,"positive",1414.5,575,"positive","A","",6.35437004079735,7.25453139074162,197
"198","65c39067cbd525efe109a5e4","bummer","test_val","abstract-negative","Valence","CV","A","negative",1,1736430971896,"negative",1434.33333333333,619,"positive","A","",6.4281052726846,7.26845544417049,198
"199","65c39067cbd525efe109a5e4","bedpan","test_val","concrete-negative","Valence","CV","A","negative",1,1736430973513,"negative",1509.16666666667,855,"positive","A","",6.75110146893676,7.31931290108946,199
"200","65c39067cbd525efe109a5e4","traffic","test_val","concrete-negative","Valence","CV","A","negative",1,1736430975080,"negative",1649.66666666667,810,"positive","A","",6.69703424766648,7.40832852628378,200
"201","65c39067cbd525efe109a5e4","wellness","test_val","abstract-positive","Valence","CV","A","positive",1,1736430976457,"positive",1406,618,"positive","A","",6.42648845745769,7.24850407237061,201
"202","65c39067cbd525efe109a5e4","doughnut","test_val","concrete-positive","Valence","CV","A","positive",1,1736430977769,"positive",1386.66666666667,552,"positive","A","",6.31354804627709,7.2346580645872,202
"203","65c39067cbd525efe109a5e4","greatness","test_val","abstract-positive","Valence","CV","A","positive",1,1736430979065,"positive",1383.33333333333,540,"positive","A","",6.29156913955832,7.23225132455663,203
"204","65c39067cbd525efe109a5e4","dollar","test_val","concrete-positive","Valence","CV","A","positive",1,1736430980369,"positive",1386,545,"positive","A","",6.30078579466324,7.23417717974985,204
"205","65c39067cbd525efe109a5e4","hatred","test_val","abstract-negative","Valence","CV","A","negative",1,1736430981857,"negative",1402.16666666667,728,"positive","A","",6.59030104819669,7.24577393832276,205
"206","65c39067cbd525efe109a5e4","maggot","test_val","concrete-negative","Valence","CV","A","negative",1,1736430983281,"negative",1469,665,"positive","A","",6.49978704065585,7.29233717617388,206
"207","65c39067cbd525efe109a5e4","sadness","test_val","abstract-negative","Valence","CV","A","negative",1,1736430984681,"negative",1364.33333333333,639,"positive","A","",6.45990445437753,7.21842118782429,207
"208","65c39067cbd525efe109a5e4","rapist","test_val","concrete-negative","Valence","CV","A","negative",1,1736430986010,"negative",1368.33333333333,570,"positive","A","",6.3456363608286,7.22134873321842,208
"209","65c39067cbd525efe109a5e4","sandwich","test_val","concrete-positive","Valence","CV","A","positive",1,1736430987296,"positive",1384.16666666667,526,"positive","A","",6.26530121273771,7.23285355281934,209
"210","65c39067cbd525efe109a5e4","bedpan","test_val","concrete-negative","Valence","CV","A","negative",1,1736430988688,"negative",1509.16666666667,633,"positive","A","",6.45047042214418,7.31931290108946,210
"211","65c39067cbd525efe109a5e4","chipmunk","test_val","concrete-positive","Valence","CV","A","positive",1,1736430990312,"positive",1447.66666666667,866,"positive","A","",6.76388490856244,7.27770834386671,211
"212","65c39067cbd525efe109a5e4","goodness","test_val","abstract-positive","Valence","CV","A","positive",1,1736430991697,"positive",1390.16666666667,630,"positive","A","",6.44571981938558,7.23717892301356,212
"213","65c39067cbd525efe109a5e4","prison","test_val","concrete-negative","Valence","CV","A","negative",1,1736430993016,"negative",1410.66666666667,558,"positive","A","",6.32435896238131,7.25181768487003,213
"214","65c39067cbd525efe109a5e4","splendor","test_val","abstract-positive","Valence","CV","A","positive",1,1736430994552,"positive",1492.83333333333,780,"positive","A","",6.65929391968364,7.30843115924714,214
"215","65c39067cbd525efe109a5e4","wisdom","test_val","abstract-positive","Valence","CV","A","positive",1,1736430995984,"positive",1414.5,674,"positive","A","",6.51323011091231,7.25453139074162,215
"216","65c39067cbd525efe109a5e4","traffic","test_val","concrete-negative","Valence","CV","A","negative",1,1736430997456,"negative",1649.66666666667,713,"positive","A","",6.5694814204143,7.40832852628378,216
"217","65c39067cbd525efe109a5e4","fondness","test_val","abstract-positive","Valence","CV","A","positive",1,1736430998825,"positive",1446.16666666667,609,"positive","A","",6.4118182677099,7.27667165656543,217
"218","65c39067cbd525efe109a5e4","contempt","test_val","abstract-negative","Valence","CV","A","negative",1,1736431000361,"negative",1535.16666666667,780,"positive","A","",6.65929391968364,7.33639423176018,218
"219","65c39067cbd525efe109a5e4","fascism","test_val","abstract-negative","Valence","CV","A","negative",1,1736431001769,"negative",1625.33333333333,645,"positive","A","",6.46925031679577,7.39346820193305,219
"220","65c39067cbd525efe109a5e4","lynching","test_val","concrete-negative","Valence","CV","A","negative",1,1736431003081,"negative",1499.16666666667,556,"positive","A","",6.32076829425058,7.31266467715658,220
"221","65c39067cbd525efe109a5e4","bummer","test_val","abstract-negative","Valence","CV","A","negative",1,1736431004497,"negative",1434.33333333333,657,"positive","A","",6.48768401848461,7.26845544417049,221
"222","65c39067cbd525efe109a5e4","pancake","test_val","concrete-positive","Valence","CV","A","positive",1,1736431005929,"positive",1339.16666666667,670,"positive","A","",6.50727771238501,7.19980280894356,222
"223","65c39067cbd525efe109a5e4","betrayal","test_val","abstract-negative","Valence","CV","A","negative",1,1736431007369,"negative",1378.83333333333,678,"positive","A","",6.5191472879404,7.22899300996213,223
"224","65c39067cbd525efe109a5e4","loathing","test_val","abstract-negative","Valence","CV","A","negative",1,1736431008832,"negative",1455.5,703,"positive","A","",6.55535689181067,7.28310476318568,224
"225","65c39067cbd525efe109a5e4","pizza","test_val","concrete-positive","Valence","CV","A","positive",1,1736431010121,"positive",1334.83333333333,534,"positive","A","",6.2803958389602,7.19656171909563,225
"226","65c39067cbd525efe109a5e4","feces","test_val","concrete-negative","Valence","CV","A","negative",1,1736431011560,"negative",1448.33333333333,679,"positive","A","",6.5206211275587,7.27816874903138,226
"227","65c39067cbd525efe109a5e4","revenge","test_val","abstract-negative","Valence","CV","A","negative",1,1736431013199,"negative",1471.83333333333,880,"positive","A","",6.77992190747225,7.29426406824075,227
"228","65c39067cbd525efe109a5e4","fairness","test_val","abstract-positive","Valence","CV","A","positive",1,1736431014577,"positive",1407.33333333333,617,"positive","A","",6.42486902390539,7.24945193974016,228
"229","65c39067cbd525efe109a5e4","madness","test_val","abstract-negative","Valence","CV","A","negative",1,1736431016129,"negative",1548.66666666667,791,"positive","A","",6.67329796776765,7.34514962466224,229
"230","65c39067cbd525efe109a5e4","cockroach","test_val","concrete-negative","Valence","CV","A","negative",1,1736431017688,"negative",1445.16666666667,795,"positive","A","",6.67834211465433,7.27597993414911,230
"231","65c39067cbd525efe109a5e4","duckling","test_val","concrete-positive","Valence","CV","A","positive",1,1736431019056,"positive",1394.16666666667,608,"positive","A","",6.41017488196617,7.24005214419287,231
"232","65c39067cbd525efe109a5e4","casket","test_val","concrete-negative","Valence","CV","A","negative",1,1736431020577,"negative",1461.83333333333,758,"positive","A","",6.63068338564237,7.28744663472333,232
"233","65c39067cbd525efe109a5e4","justice","test_val","abstract-positive","Valence","CV","A","positive",1,1736431022039,"positive",1481,702,"positive","A","",6.55393340402581,7.3004728142678,233
"234","65c39067cbd525efe109a5e4","blanket","test_val","concrete-positive","Valence","CV","A","positive",1,1736431023433,"positive",1416.5,631,"positive","A","",6.44730586254121,7.25594431927057,234
"235","65c39067cbd525efe109a5e4","breakup","test_val","abstract-negative","Valence","CV","A","negative",1,1736431024983,"negative",1597.16666666667,793,"positive","A","",6.67582322163485,7.37598650511571,235
"236","65c39067cbd525efe109a5e4","courage","test_val","abstract-positive","Valence","CV","A","positive",1,1736431026425,"positive",1483,684,"positive","A","",6.52795791762255,7.30182234213793,236
"237","65c39067cbd525efe109a5e4","popcorn","test_val","concrete-positive","Valence","CV","A","positive",1,1736431027999,"positive",1376,816,"positive","A","",6.70441435496411,7.22693601849329,237
"238","65c39067cbd525efe109a5e4","bunny","test_val","concrete-positive","Valence","CV","A","positive",1,1736431029375,"positive",1348.66666666667,614,"positive","A","",6.41999492814714,7.20687172905958,238
"239","65c39067cbd525efe109a5e4","frostbite","test_val","concrete-negative","Valence","CV","A","negative",1,1736431031041,"negative",1594.08333333333,905,"positive","A","",6.80793494369993,7.37405413736465,239
"240","65c39067cbd525efe109a5e4","knowledge","test_val","abstract-positive","Valence","CV","A","positive",1,1736431032359,"positive",1424.16666666667,559,"positive","A","",6.3261494731551,7.26134212632164,240
"241","5720a9f6fd3a5200113c1891","revenge","test_conc","abstract-negative","Concrete","CV","B","concrete",0,1736436236715,"concrete",1530.5,947,"abstract","B","",6.85329909318608,7.33334975838547,1
"242","5720a9f6fd3a5200113c1891","justice","test_conc","abstract-positive","Concrete","CV","B","concrete",0,1736436238618,"concrete",1629.16666666667,1144,"abstract","B","",7.04228617193974,7.39582391562551,2
"243","5720a9f6fd3a5200113c1891","wellness","test_conc","abstract-positive","Concrete","CV","B","concrete",0,1736436240359,"concrete",1584.83333333333,984,"abstract","B","",6.89162589705225,7.36823452831139,3
"244","5720a9f6fd3a5200113c1891","breakup","test_conc","abstract-negative","Concrete","CV","B","abstract",1,1736436241822,"abstract",1584.16666666667,700,"abstract","B","",6.5510803350434,7.36781378569447,4
"245","5720a9f6fd3a5200113c1891","bunny","test_conc","concrete-positive","Concrete","CV","B","abstract",0,1736436243284,"abstract",1494.83333333333,702,"abstract","B","",6.55393340402581,7.30976999688995,5
"246","5720a9f6fd3a5200113c1891","splendor","test_conc","abstract-positive","Concrete","CV","B","concrete",0,1736436245010,"concrete",1552.33333333333,969,"abstract","B","",6.87626461189077,7.34751445431427,6
"247","5720a9f6fd3a5200113c1891","fairness","test_conc","abstract-positive","Concrete","CV","B","concrete",0,1736436246647,"concrete",1498.66666666667,875,"abstract","B","",6.77422388635761,7.31233110290542,7
"248","5720a9f6fd3a5200113c1891","doughnut","test_conc","concrete-positive","Concrete","CV","B","abstract",0,1736436248141,"abstract",1556.16666666667,732,"abstract","B","",6.59578051396131,7.34998081125587,8
"249","5720a9f6fd3a5200113c1891","lynching","test_conc","concrete-negative","Concrete","CV","B","concrete",1,1736436249606,"concrete",1470.83333333333,705,"abstract","B","",6.55819780281227,7.29358441257344,9
"250","5720a9f6fd3a5200113c1891","bedpan","test_conc","concrete-negative","Concrete","CV","B","abstract",0,1736436251077,"abstract",1595,715,"abstract","B","",6.57228254269401,7.37462901521894,10
"251","5720a9f6fd3a5200113c1891","pancake","test_conc","concrete-positive","Concrete","CV","B","abstract",0,1736436252493,"abstract",1451.16666666667,657,"abstract","B","",6.48768401848461,7.28012310960056,11
"252","5720a9f6fd3a5200113c1891","greatness","test_conc","abstract-positive","Concrete","CV","B","concrete",0,1736436254012,"concrete",1510.83333333333,761,"abstract","B","",6.63463335786169,7.3204166539609,12
"253","5720a9f6fd3a5200113c1891","sandwich","test_conc","concrete-positive","Concrete","CV","B","abstract",0,1736436255426,"abstract",1550.16666666667,656,"abstract","B","",6.48616078894409,7.34611773101441,13
"254","5720a9f6fd3a5200113c1891","blanket","test_conc","concrete-positive","Concrete","CV","B","abstract",0,1736436256822,"abstract",1491.08333333333,636,"abstract","B","",6.45519856334012,7.30725820410386,14
"255","5720a9f6fd3a5200113c1891","contempt","test_conc","abstract-negative","Concrete","CV","B","concrete",0,1736436258283,"concrete",1518.66666666667,706,"abstract","B","",6.55961523749324,7.32558803589896,15
"256","5720a9f6fd3a5200113c1891","maggot","test_conc","concrete-negative","Concrete","CV","B","abstract",0,1736436259924,"abstract",1569.16666666667,882,"abstract","B","",6.78219205600679,7.3582999718632,16
"257","5720a9f6fd3a5200113c1891","goodness","test_conc","abstract-positive","Concrete","CV","B","concrete",0,1736436261498,"concrete",1494.16666666667,815,"abstract","B","",6.70318811324086,7.30932391681118,17
"258","5720a9f6fd3a5200113c1891","rapist","test_conc","concrete-negative","Concrete","CV","B","concrete",1,1736436263467,"concrete",1617,1208,"abstract","B","",7.09672137849476,7.38832785957711,18
"259","5720a9f6fd3a5200113c1891","duckling","test_conc","concrete-positive","Concrete","CV","B","abstract",0,1736436264968,"abstract",1524.16666666667,746,"abstract","B","",6.61472560020376,7.32920309159691,19
"260","5720a9f6fd3a5200113c1891","betrayal","test_conc","abstract-negative","Concrete","CV","B","concrete",0,1736436266378,"concrete",1468.33333333333,648,"abstract","B","",6.47389069635227,7.29188324970217,20
"261","5720a9f6fd3a5200113c1891","sadness","test_conc","abstract-negative","Concrete","CV","B","concrete",0,1736436267859,"concrete",1527.66666666667,720,"abstract","B","",6.5792512120101,7.33149679584101,21
"262","5720a9f6fd3a5200113c1891","loathing","test_conc","abstract-negative","Concrete","CV","B","concrete",0,1736436269436,"concrete",1466,819,"abstract","B","",6.70808408385307,7.2902928824466,22
"263","5720a9f6fd3a5200113c1891","hatred","test_conc","abstract-negative","Concrete","CV","B","concrete",0,1736436270941,"concrete",1560.83333333333,747,"abstract","B","",6.61606518513282,7.35297514565013,23
"264","5720a9f6fd3a5200113c1891","dollar","test_conc","concrete-positive","Concrete","CV","B","abstract",0,1736436272444,"abstract",1561,746,"abstract","B","",6.61472560020376,7.35308192051543,24
"265","5720a9f6fd3a5200113c1891","madness","test_conc","abstract-negative","Concrete","CV","B","concrete",0,1736436274176,"concrete",1525.5,973,"abstract","B","",6.880384082186,7.33007750415672,25
"266","5720a9f6fd3a5200113c1891","fondness","test_conc","abstract-positive","Concrete","CV","B","concrete",0,1736436275900,"concrete",1621.83333333333,969,"abstract","B","",6.87626461189077,7.39131247559393,26
"267","5720a9f6fd3a5200113c1891","wisdom","test_conc","abstract-positive","Concrete","CV","B","abstract",1,1736436277531,"abstract",1617.66666666667,871,"abstract","B","",6.7696419768525,7.38874006073711,27
"268","5720a9f6fd3a5200113c1891","feces","test_conc","concrete-negative","Concrete","CV","B","abstract",0,1736436279161,"abstract",1551.33333333333,870,"abstract","B","",6.76849321164863,7.34687005519413,28
"269","5720a9f6fd3a5200113c1891","pizza","test_conc","concrete-positive","Concrete","CV","B","abstract",0,1736436280631,"abstract",1485.66666666667,712,"abstract","B","",6.56807791141198,7.30361888427845,29
"270","5720a9f6fd3a5200113c1891","courage","test_conc","abstract-positive","Concrete","CV","B","concrete",0,1736436282167,"concrete",1557.66666666667,775,"abstract","B","",6.65286302935335,7.35094425403232,30
"271","5720a9f6fd3a5200113c1891","fascism","test_conc","abstract-negative","Concrete","CV","B","concrete",0,1736436283648,"concrete",1472.33333333333,724,"abstract","B","",6.58479139238572,7.29460372292842,31
"272","5720a9f6fd3a5200113c1891","bummer","test_conc","abstract-negative","Concrete","CV","B","concrete",0,1736436285223,"concrete",1511.5,818,"abstract","B","",6.70686233660275,7.32085781421951,32
"273","5720a9f6fd3a5200113c1891","popcorn","test_conc","concrete-positive","Concrete","CV","B","abstract",0,1736436286716,"abstract",1563,734,"abstract","B","",6.59850902861452,7.35436233042148,33
"274","5720a9f6fd3a5200113c1891","prison","test_conc","concrete-negative","Concrete","CV","B","abstract",0,1736436288226,"abstract",1525.5,753,"abstract","B","",6.62406522779989,7.33007750415672,34
"275","5720a9f6fd3a5200113c1891","chipmunk","test_conc","concrete-positive","Concrete","CV","B","abstract",0,1736436289744,"abstract",1541,759,"abstract","B","",6.63200177739563,7.34018683532012,35
"276","5720a9f6fd3a5200113c1891","casket","test_conc","concrete-negative","Concrete","CV","B","abstract",0,1736436291208,"abstract",1531.41666666667,707,"abstract","B","",6.56103066589657,7.33394851190742,36
"277","5720a9f6fd3a5200113c1891","cockroach","test_conc","concrete-negative","Concrete","CV","B","abstract",0,1736436292588,"abstract",1534.83333333333,623,"abstract","B","",6.43454651878745,7.33617707649331,37
"278","5720a9f6fd3a5200113c1891","traffic","test_conc","concrete-negative","Concrete","CV","B","abstract",0,1736436294159,"abstract",1586,814,"abstract","B","",6.70196036600254,7.36897040219479,38
"279","5720a9f6fd3a5200113c1891","frostbite","test_conc","concrete-negative","Concrete","CV","B","abstract",0,1736436295723,"abstract",1686.66666666667,804,"abstract","B","",6.68959926917897,7.4305094736134,39
"280","5720a9f6fd3a5200113c1891","knowledge","test_conc","abstract-positive","Concrete","CV","B","concrete",0,1736436297484,"concrete",1584,1006,"abstract","B","",6.91373735065968,7.36770857237437,40
"281","5720a9f6fd3a5200113c1891","betrayal","test_conc","abstract-negative","Concrete","CV","B","concrete",0,1736436298970,"concrete",1468.33333333333,723,"abstract","B","",6.58340922215876,7.29188324970217,41
"282","5720a9f6fd3a5200113c1891","blanket","test_conc","concrete-positive","Concrete","CV","B","abstract",0,1736436300380,"abstract",1491.08333333333,656,"abstract","B","",6.48616078894409,7.30725820410386,42
"283","5720a9f6fd3a5200113c1891","contempt","test_conc","abstract-negative","Concrete","CV","B","concrete",0,1736436301837,"concrete",1518.66666666667,701,"abstract","B","",6.55250788703459,7.32558803589896,43
"284","5720a9f6fd3a5200113c1891","dollar","test_conc","concrete-positive","Concrete","CV","B","abstract",0,1736436303363,"abstract",1561,772,"abstract","B","",6.64898455002478,7.35308192051543,44
"285","5720a9f6fd3a5200113c1891","bedpan","test_conc","concrete-negative","Concrete","CV","B","abstract",0,1736436304842,"abstract",1595,723,"abstract","B","",6.58340922215876,7.37462901521894,45
"286","5720a9f6fd3a5200113c1891","loathing","test_conc","abstract-negative","Concrete","CV","B","concrete",0,1736436306300,"concrete",1466,699,"abstract","B","",6.54965074223381,7.2902928824466,46
"287","5720a9f6fd3a5200113c1891","traffic","test_conc","concrete-negative","Concrete","CV","B","abstract",0,1736436307681,"abstract",1586,620,"abstract","B","",6.42971947803914,7.36897040219479,47
"288","5720a9f6fd3a5200113c1891","splendor","test_conc","abstract-positive","Concrete","CV","B","concrete",0,1736436309185,"concrete",1552.33333333333,745,"abstract","B","",6.61338421837956,7.34751445431427,48
"289","5720a9f6fd3a5200113c1891","courage","test_conc","abstract-positive","Concrete","CV","B","concrete",0,1736436310632,"concrete",1557.66666666667,691,"abstract","B","",6.53813982376767,7.35094425403232,49
"290","5720a9f6fd3a5200113c1891","knowledge","test_conc","abstract-positive","Concrete","CV","B","concrete",0,1736436312026,"concrete",1584,633,"abstract","B","",6.45047042214418,7.36770857237437,50
"291","5720a9f6fd3a5200113c1891","fascism","test_conc","abstract-negative","Concrete","CV","B","concrete",0,1736436313439,"concrete",1472.33333333333,657,"abstract","B","",6.48768401848461,7.29460372292842,51
"292","5720a9f6fd3a5200113c1891","pancake","test_conc","concrete-positive","Concrete","CV","B","abstract",0,1736436314779,"abstract",1451.16666666667,580,"abstract","B","",6.36302810354046,7.28012310960056,52
"293","5720a9f6fd3a5200113c1891","maggot","test_conc","concrete-negative","Concrete","CV","B","abstract",0,1736436316140,"abstract",1569.16666666667,605,"abstract","B","",6.40522845803084,7.3582999718632,53
"294","5720a9f6fd3a5200113c1891","hatred","test_conc","abstract-negative","Concrete","CV","B","concrete",0,1736436317577,"concrete",1560.83333333333,680,"abstract","B","",6.52209279817015,7.35297514565013,54
"295","5720a9f6fd3a5200113c1891","chipmunk","test_conc","concrete-positive","Concrete","CV","B","abstract",0,1736436319013,"abstract",1541,679,"abstract","B","",6.5206211275587,7.34018683532012,55
"296","5720a9f6fd3a5200113c1891","casket","test_conc","concrete-negative","Concrete","CV","B","abstract",0,1736436320539,"abstract",1531.41666666667,766,"abstract","B","",6.64118216974059,7.33394851190742,56
"297","5720a9f6fd3a5200113c1891","revenge","test_conc","abstract-negative","Concrete","CV","B","concrete",0,1736436322014,"concrete",1530.5,720,"abstract","B","",6.5792512120101,7.33334975838547,57
"298","5720a9f6fd3a5200113c1891","wellness","test_conc","abstract-positive","Concrete","CV","B","concrete",0,1736436323390,"concrete",1584.83333333333,620,"abstract","B","",6.42971947803914,7.36823452831139,58
"299","5720a9f6fd3a5200113c1891","doughnut","test_conc","concrete-positive","Concrete","CV","B","abstract",0,1736436324874,"abstract",1556.16666666667,729,"abstract","B","",6.59167373200866,7.34998081125587,59
"300","5720a9f6fd3a5200113c1891","justice","test_conc","abstract-positive","Concrete","CV","B","concrete",0,1736436326566,"concrete",1629.16666666667,934,"abstract","B","",6.83947643822884,7.39582391562551,60
"301","5720a9f6fd3a5200113c1891","duckling","test_conc","concrete-positive","Concrete","CV","B","abstract",0,1736436328060,"abstract",1524.16666666667,731,"abstract","B","",6.59441345974978,7.32920309159691,61
"302","5720a9f6fd3a5200113c1891","lynching","test_conc","concrete-negative","Concrete","CV","B","concrete",1,1736436329479,"concrete",1470.83333333333,660,"abstract","B","",6.49223983502047,7.29358441257344,62
"303","5720a9f6fd3a5200113c1891","feces","test_conc","concrete-negative","Concrete","CV","B","concrete",1,1736436331214,"concrete",1551.33333333333,974,"abstract","B","",6.88141130364254,7.34687005519413,63
"304","5720a9f6fd3a5200113c1891","fairness","test_conc","abstract-positive","Concrete","CV","B","concrete",0,1736436332708,"concrete",1498.66666666667,733,"abstract","B","",6.59714570188665,7.31233110290542,64
"305","5720a9f6fd3a5200113c1891","popcorn","test_conc","concrete-positive","Concrete","CV","B","abstract",0,1736436334211,"abstract",1563,746,"abstract","B","",6.61472560020376,7.35436233042148,65
"306","5720a9f6fd3a5200113c1891","bummer","test_conc","abstract-negative","Concrete","CV","B","concrete",0,1736436335644,"concrete",1511.5,672,"abstract","B","",6.51025834052315,7.32085781421951,66
"307","5720a9f6fd3a5200113c1891","cockroach","test_conc","concrete-negative","Concrete","CV","B","abstract",0,1736436337300,"abstract",1534.83333333333,897,"abstract","B","",6.7990558620588,7.33617707649331,67
"308","5720a9f6fd3a5200113c1891","madness","test_conc","abstract-negative","Concrete","CV","B","concrete",0,1736436338783,"concrete",1525.5,725,"abstract","B","",6.58617165485467,7.33007750415672,68
"309","5720a9f6fd3a5200113c1891","bunny","test_conc","concrete-positive","Concrete","CV","B","abstract",0,1736436340338,"abstract",1494.83333333333,794,"abstract","B","",6.67708346124714,7.30976999688995,69
"310","5720a9f6fd3a5200113c1891","sandwich","test_conc","concrete-positive","Concrete","CV","B","abstract",0,1736436341732,"abstract",1550.16666666667,635,"abstract","B","",6.45362499889269,7.34611773101441,70
"311","5720a9f6fd3a5200113c1891","rapist","test_conc","concrete-negative","Concrete","CV","B","concrete",1,1736436343311,"concrete",1617,823,"abstract","B","",6.71295620067707,7.38832785957711,71
"312","5720a9f6fd3a5200113c1891","fondness","test_conc","abstract-positive","Concrete","CV","B","concrete",0,1736436344772,"concrete",1621.83333333333,701,"abstract","B","",6.55250788703459,7.39131247559393,72
"313","5720a9f6fd3a5200113c1891","wisdom","test_conc","abstract-positive","Concrete","CV","B","abstract",1,1736436346407,"abstract",1617.66666666667,875,"abstract","B","",6.77422388635761,7.38874006073711,73
"314","5720a9f6fd3a5200113c1891","breakup","test_conc","abstract-negative","Concrete","CV","B","abstract",1,1736436348189,"abstract",1584.16666666667,1022,"abstract","B","",6.92951677076365,7.36781378569447,74
"315","5720a9f6fd3a5200113c1891","frostbite","test_conc","concrete-negative","Concrete","CV","B","abstract",0,1736436349758,"abstract",1686.66666666667,814,"abstract","B","",6.70196036600254,7.4305094736134,75
"316","5720a9f6fd3a5200113c1891","pizza","test_conc","concrete-positive","Concrete","CV","B","abstract",0,1736436351273,"abstract",1485.66666666667,756,"abstract","B","",6.62804137617953,7.30361888427845,76
"317","5720a9f6fd3a5200113c1891","sadness","test_conc","abstract-negative","Concrete","CV","B","concrete",0,1736436352703,"concrete",1527.66666666667,670,"abstract","B","",6.50727771238501,7.33149679584101,77
"318","5720a9f6fd3a5200113c1891","greatness","test_conc","abstract-positive","Concrete","CV","B","concrete",0,1736436354108,"concrete",1510.83333333333,651,"abstract","B","",6.47850964220857,7.3204166539609,78
"319","5720a9f6fd3a5200113c1891","prison","test_conc","concrete-negative","Concrete","CV","B","abstract",0,1736436355593,"abstract",1525.5,728,"abstract","B","",6.59030104819669,7.33007750415672,79
"320","5720a9f6fd3a5200113c1891","goodness","test_conc","abstract-positive","Concrete","CV","B","concrete",0,1736436356994,"concrete",1494.16666666667,641,"abstract","B","",6.46302945692067,7.30932391681118,80
"321","5720a9f6fd3a5200113c1891","pancake","test_conc","concrete-positive","Concrete","CV","B","abstract",0,1736436358431,"abstract",1451.16666666667,680,"abstract","B","",6.52209279817015,7.28012310960056,81
"322","5720a9f6fd3a5200113c1891","contempt","test_conc","abstract-negative","Concrete","CV","B","concrete",0,1736436360026,"concrete",1518.66666666667,837,"abstract","B","",6.72982407048948,7.32558803589896,82
"323","5720a9f6fd3a5200113c1891","revenge","test_conc","abstract-negative","Concrete","CV","B","concrete",0,1736436361449,"concrete",1530.5,666,"abstract","B","",6.50128967054039,7.33334975838547,83
"324","5720a9f6fd3a5200113c1891","bedpan","test_conc","concrete-negative","Concrete","CV","B","abstract",0,1736436362860,"abstract",1595,653,"abstract","B","",6.48157712927643,7.37462901521894,84
"325","5720a9f6fd3a5200113c1891","lynching","test_conc","concrete-negative","Concrete","CV","B","concrete",1,1736436364291,"concrete",1470.83333333333,675,"abstract","B","",6.51471269087253,7.29358441257344,85
"326","5720a9f6fd3a5200113c1891","fascism","test_conc","abstract-negative","Concrete","CV","B","concrete",0,1736436365752,"concrete",1472.33333333333,698,"abstract","B","",6.54821910276237,7.29460372292842,86
"327","5720a9f6fd3a5200113c1891","bummer","test_conc","abstract-negative","Concrete","CV","B","concrete",0,1736436367246,"concrete",1511.5,736,"abstract","B","",6.60123011872888,7.32085781421951,87
"328","5720a9f6fd3a5200113c1891","goodness","test_conc","abstract-positive","Concrete","CV","B","concrete",0,1736436368587,"concrete",1494.16666666667,584,"abstract","B","",6.36990098282823,7.30932391681118,88
"329","5720a9f6fd3a5200113c1891","feces","test_conc","concrete-negative","Concrete","CV","B","concrete",1,1736436370130,"concrete",1551.33333333333,784,"abstract","B","",6.66440902035041,7.34687005519413,89
"330","5720a9f6fd3a5200113c1891","splendor","test_conc","abstract-positive","Concrete","CV","B","concrete",0,1736436371563,"concrete",1552.33333333333,675,"abstract","B","",6.51471269087253,7.34751445431427,90
"331","5720a9f6fd3a5200113c1891","blanket","test_conc","concrete-positive","Concrete","CV","B","abstract",0,1736436373061,"abstract",1491.08333333333,740,"abstract","B","",6.60665018619822,7.30725820410386,91
"332","5720a9f6fd3a5200113c1891","breakup","test_conc","abstract-negative","Concrete","CV","B","concrete",0,1736436374521,"concrete",1584.16666666667,703,"abstract","B","",6.55535689181067,7.36781378569447,92
"333","5720a9f6fd3a5200113c1891","bunny","test_conc","concrete-positive","Concrete","CV","B","abstract",0,1736436376029,"abstract",1494.83333333333,752,"abstract","B","",6.62273632394984,7.30976999688995,93
"334","5720a9f6fd3a5200113c1891","casket","test_conc","concrete-negative","Concrete","CV","B","abstract",0,1736436377548,"abstract",1531.41666666667,759,"abstract","B","",6.63200177739563,7.33394851190742,94
"335","5720a9f6fd3a5200113c1891","duckling","test_conc","concrete-positive","Concrete","CV","B","abstract",0,1736436378964,"abstract",1524.16666666667,652,"abstract","B","",6.48004456192665,7.32920309159691,95
"336","5720a9f6fd3a5200113c1891","cockroach","test_conc","concrete-negative","Concrete","CV","B","abstract",0,1736436380405,"abstract",1534.83333333333,683,"abstract","B","",6.52649485957079,7.33617707649331,96
"337","5720a9f6fd3a5200113c1891","fairness","test_conc","abstract-positive","Concrete","CV","B","concrete",0,1736436381796,"concrete",1498.66666666667,633,"abstract","B","",6.45047042214418,7.31233110290542,97
"338","5720a9f6fd3a5200113c1891","fondness","test_conc","abstract-positive","Concrete","CV","B","concrete",0,1736436383241,"concrete",1621.83333333333,685,"abstract","B","",6.52941883826223,7.39131247559393,98
"339","5720a9f6fd3a5200113c1891","wisdom","test_conc","abstract-positive","Concrete","CV","B","concrete",0,1736436385015,"concrete",1617.66666666667,1016,"abstract","B","",6.92362862813843,7.38874006073711,99
"340","5720a9f6fd3a5200113c1891","rapist","test_conc","concrete-negative","Concrete","CV","B","abstract",0,1736436386720,"abstract",1617,949,"abstract","B","",6.85540879860993,7.38832785957711,100
"341","5720a9f6fd3a5200113c1891","dollar","test_conc","concrete-positive","Concrete","CV","B","abstract",0,1736436388316,"abstract",1561,840,"abstract","B","",6.73340189183736,7.35308192051543,101
"342","5720a9f6fd3a5200113c1891","madness","test_conc","abstract-negative","Concrete","CV","B","concrete",0,1736436389759,"concrete",1525.5,685,"abstract","B","",6.52941883826223,7.33007750415672,102
"343","5720a9f6fd3a5200113c1891","sadness","test_conc","abstract-negative","Concrete","CV","B","concrete",0,1736436391205,"concrete",1527.66666666667,687,"abstract","B","",6.53233429222235,7.33149679584101,103
"344","5720a9f6fd3a5200113c1891","prison","test_conc","concrete-negative","Concrete","CV","B","abstract",0,1736436392702,"abstract",1525.5,735,"abstract","B","",6.59987049921284,7.33007750415672,104
"345","5720a9f6fd3a5200113c1891","traffic","test_conc","concrete-negative","Concrete","CV","B","abstract",0,1736436394356,"abstract",1586,897,"abstract","B","",6.7990558620588,7.36897040219479,105
"346","5720a9f6fd3a5200113c1891","sandwich","test_conc","concrete-positive","Concrete","CV","B","abstract",0,1736436395787,"abstract",1550.16666666667,674,"abstract","B","",6.51323011091231,7.34611773101441,106
"347","5720a9f6fd3a5200113c1891","pizza","test_conc","concrete-positive","Concrete","CV","B","abstract",0,1736436397184,"abstract",1485.66666666667,636,"abstract","B","",6.45519856334012,7.30361888427845,107
"348","5720a9f6fd3a5200113c1891","wellness","test_conc","abstract-positive","Concrete","CV","B","concrete",0,1736436398620,"concrete",1584.83333333333,677,"abstract","B","",6.51767127291227,7.36823452831139,108
"349","5720a9f6fd3a5200113c1891","justice","test_conc","abstract-positive","Concrete","CV","B","concrete",0,1736436400083,"concrete",1629.16666666667,704,"abstract","B","",6.55677835615804,7.39582391562551,109
"350","5720a9f6fd3a5200113c1891","loathing","test_conc","abstract-negative","Concrete","CV","B","concrete",0,1736436401512,"concrete",1466,670,"abstract","B","",6.50727771238501,7.2902928824466,110
"351","5720a9f6fd3a5200113c1891","courage","test_conc","abstract-positive","Concrete","CV","B","concrete",0,1736436403047,"concrete",1557.66666666667,776,"abstract","B","",6.65415252018322,7.35094425403232,111
"352","5720a9f6fd3a5200113c1891","chipmunk","test_conc","concrete-positive","Concrete","CV","B","abstract",0,1736436404656,"abstract",1541,849,"abstract","B","",6.74405918631135,7.34018683532012,112
"353","5720a9f6fd3a5200113c1891","greatness","test_conc","abstract-positive","Concrete","CV","B","concrete",0,1736436406163,"concrete",1510.83333333333,750,"abstract","B","",6.62007320653036,7.3204166539609,113
"354","5720a9f6fd3a5200113c1891","frostbite","test_conc","concrete-negative","Concrete","CV","B","concrete",1,1736436407897,"concrete",1686.66666666667,974,"abstract","B","",6.88141130364254,7.4305094736134,114
"355","5720a9f6fd3a5200113c1891","knowledge","test_conc","abstract-positive","Concrete","CV","B","concrete",0,1736436409460,"concrete",1584,808,"abstract","B","",6.69456205852109,7.36770857237437,115
"356","5720a9f6fd3a5200113c1891","maggot","test_conc","concrete-negative","Concrete","CV","B","abstract",0,1736436411001,"abstract",1569.16666666667,782,"abstract","B","",6.66185474054531,7.3582999718632,116
"357","5720a9f6fd3a5200113c1891","betrayal","test_conc","abstract-negative","Concrete","CV","B","concrete",0,1736436412496,"concrete",1468.33333333333,739,"abstract","B","",6.6052979209482,7.29188324970217,117
"358","5720a9f6fd3a5200113c1891","doughnut","test_conc","concrete-positive","Concrete","CV","B","abstract",0,1736436413933,"abstract",1556.16666666667,678,"abstract","B","",6.5191472879404,7.34998081125587,118
"359","5720a9f6fd3a5200113c1891","hatred","test_conc","abstract-negative","Concrete","CV","B","concrete",0,1736436415377,"concrete",1560.83333333333,684,"abstract","B","",6.52795791762255,7.35297514565013,119
"360","5720a9f6fd3a5200113c1891","popcorn","test_conc","concrete-positive","Concrete","CV","B","abstract",0,1736436416780,"abstract",1563,642,"abstract","B","",6.46458830368996,7.35436233042148,120
"361","5720a9f6fd3a5200113c1891","hatred","test_val","abstract-negative","Valence","CV","B","negative",1,1736436584427,"negative",1560.83333333333,1332,"negative","B","",7.19443685110033,7.35297514565013,121
"362","5720a9f6fd3a5200113c1891","dollar","test_val","concrete-positive","Valence","CV","B","positive",1,1736436586317,"positive",1561,1134,"negative","B","",7.0335064842877,7.35308192051543,122
"363","5720a9f6fd3a5200113c1891","goodness","test_val","abstract-positive","Valence","CV","B","positive",1,1736436588150,"positive",1494.16666666667,1078,"negative","B","",6.98286275146894,7.30932391681118,123
"364","5720a9f6fd3a5200113c1891","lynching","test_val","concrete-negative","Valence","CV","B","negative",1,1736436589857,"negative",1470.83333333333,948,"negative","B","",6.85435450225502,7.29358441257344,124
"365","5720a9f6fd3a5200113c1891","doughnut","test_val","concrete-positive","Valence","CV","B","positive",1,1736436591606,"positive",1556.16666666667,993,"negative","B","",6.90073066404517,7.34998081125587,125
"366","5720a9f6fd3a5200113c1891","sadness","test_val","abstract-negative","Valence","CV","B","negative",1,1736436593579,"negative",1527.66666666667,1214,"negative","B","",7.10167597161944,7.33149679584101,126
"367","5720a9f6fd3a5200113c1891","courage","test_val","abstract-positive","Valence","CV","B","positive",1,1736436595392,"positive",1557.66666666667,1057,"negative","B","",6.96318998587024,7.35094425403232,127
"368","5720a9f6fd3a5200113c1891","revenge","test_val","abstract-negative","Valence","CV","B","negative",1,1736436597168,"negative",1530.5,1014,"negative","B","",6.92165818415113,7.33334975838547,128
"369","5720a9f6fd3a5200113c1891","knowledge","test_val","abstract-positive","Valence","CV","B","positive",1,1736436598863,"positive",1584,935,"negative","B","",6.84054652928869,7.36770857237437,129
"370","5720a9f6fd3a5200113c1891","fondness","test_val","abstract-positive","Valence","CV","B","positive",1,1736436600861,"positive",1621.83333333333,1245,"negative","B","",7.12689080889881,7.39131247559393,130
"371","5720a9f6fd3a5200113c1891","bedpan","test_val","concrete-negative","Valence","CV","B","positive",0,1736436602900,"positive",1595,1279,"negative","B","",7.15383380157884,7.37462901521894,131
"372","5720a9f6fd3a5200113c1891","popcorn","test_val","concrete-positive","Valence","CV","B","positive",1,1736436604975,"positive",1563,1320,"negative","B","",7.18538701558042,7.35436233042148,132
"373","5720a9f6fd3a5200113c1891","madness","test_val","abstract-negative","Valence","CV","B","negative",1,1736436606564,"negative",1525.5,832,"negative","B","",6.72383244082121,7.33007750415672,133
"374","5720a9f6fd3a5200113c1891","sandwich","test_val","concrete-positive","Valence","CV","B","positive",1,1736436608758,"positive",1550.16666666667,1436,"negative","B","",7.26961674960817,7.34611773101441,134
"375","5720a9f6fd3a5200113c1891","prison","test_val","concrete-negative","Valence","CV","B","negative",1,1736436610669,"negative",1525.5,1152,"negative","B","",7.04925484125584,7.33007750415672,135
"376","5720a9f6fd3a5200113c1891","wellness","test_val","abstract-positive","Valence","CV","B","positive",1,1736436612793,"positive",1584.83333333333,1365,"negative","B","",7.21890970761906,7.36823452831139,136
"377","5720a9f6fd3a5200113c1891","maggot","test_val","concrete-negative","Valence","CV","B","negative",1,1736436614699,"negative",1569.16666666667,1149,"negative","B","",7.04664727784876,7.3582999718632,137
"378","5720a9f6fd3a5200113c1891","betrayal","test_val","abstract-negative","Valence","CV","B","negative",1,1736436616255,"negative",1468.33333333333,801,"negative","B","",6.68586094706836,7.29188324970217,138
"379","5720a9f6fd3a5200113c1891","duckling","test_val","concrete-positive","Valence","CV","B","positive",1,1736436618089,"positive",1524.16666666667,1078,"negative","B","",6.98286275146894,7.32920309159691,139
"380","5720a9f6fd3a5200113c1891","wisdom","test_val","abstract-positive","Valence","CV","B","positive",1,1736436619668,"positive",1617.66666666667,825,"negative","B","",6.71538338633468,7.38874006073711,140
"381","5720a9f6fd3a5200113c1891","frostbite","test_val","concrete-negative","Valence","CV","B","negative",1,1736436621793,"negative",1686.66666666667,1364,"negative","B","",7.21817683840341,7.4305094736134,141
"382","5720a9f6fd3a5200113c1891","blanket","test_val","concrete-positive","Valence","CV","B","positive",1,1736436623528,"positive",1491.08333333333,974,"negative","B","",6.88141130364254,7.30725820410386,142
"383","5720a9f6fd3a5200113c1891","bummer","test_val","abstract-negative","Valence","CV","B","negative",1,1736436625177,"negative",1511.5,889,"negative","B","",6.7900972355139,7.32085781421951,143
"384","5720a9f6fd3a5200113c1891","casket","test_val","concrete-negative","Valence","CV","B","negative",1,1736436627042,"negative",1531.41666666667,1107,"negative","B","",7.00940893270864,7.33394851190742,144
"385","5720a9f6fd3a5200113c1891","rapist","test_val","concrete-negative","Valence","CV","B","negative",1,1736436628600,"negative",1617,800,"negative","B","",6.68461172766793,7.38832785957711,145
"386","5720a9f6fd3a5200113c1891","loathing","test_val","abstract-negative","Valence","CV","B","negative",1,1736436630068,"negative",1466,707,"negative","B","",6.56103066589657,7.2902928824466,146
"387","5720a9f6fd3a5200113c1891","fairness","test_val","abstract-positive","Valence","CV","B","positive",1,1736436631497,"positive",1498.66666666667,670,"negative","B","",6.50727771238501,7.31233110290542,147
"388","5720a9f6fd3a5200113c1891","justice","test_val","abstract-positive","Valence","CV","B","positive",1,1736436633026,"positive",1629.16666666667,770,"negative","B","",6.64639051484773,7.39582391562551,148
"389","5720a9f6fd3a5200113c1891","traffic","test_val","concrete-negative","Valence","CV","B","negative",1,1736436634775,"negative",1586,989,"negative","B","",6.89669433162271,7.36897040219479,149
"390","5720a9f6fd3a5200113c1891","pancake","test_val","concrete-positive","Valence","CV","B","positive",1,1736436636378,"positive",1451.16666666667,846,"negative","B","",6.74051935960622,7.28012310960056,150
"391","5720a9f6fd3a5200113c1891","contempt","test_val","abstract-negative","Valence","CV","B","negative",1,1736436638126,"negative",1518.66666666667,989,"negative","B","",6.89669433162271,7.32558803589896,151
"392","5720a9f6fd3a5200113c1891","greatness","test_val","abstract-positive","Valence","CV","B","positive",1,1736436639849,"positive",1510.83333333333,965,"negative","B","",6.87212810133899,7.3204166539609,152
"393","5720a9f6fd3a5200113c1891","pizza","test_val","concrete-positive","Valence","CV","B","positive",1,1736436641586,"positive",1485.66666666667,979,"negative","B","",6.88653164253051,7.30361888427845,153
"394","5720a9f6fd3a5200113c1891","cockroach","test_val","concrete-negative","Valence","CV","B","negative",1,1736436643240,"negative",1534.83333333333,899,"negative","B","",6.80128303447162,7.33617707649331,154
"395","5720a9f6fd3a5200113c1891","splendor","test_val","abstract-positive","Valence","CV","B","positive",1,1736436645072,"positive",1552.33333333333,1075,"negative","B","",6.98007594056176,7.34751445431427,155
"396","5720a9f6fd3a5200113c1891","bunny","test_val","concrete-positive","Valence","CV","B","positive",1,1736436646661,"positive",1494.83333333333,830,"negative","B","",6.72142570079064,7.30976999688995,156
"397","5720a9f6fd3a5200113c1891","chipmunk","test_val","concrete-positive","Valence","CV","B","positive",1,1736436648371,"positive",1541,955,"negative","B","",6.86171134048073,7.34018683532012,157
"398","5720a9f6fd3a5200113c1891","breakup","test_val","abstract-negative","Valence","CV","B","negative",1,1736436650128,"negative",1584.16666666667,998,"negative","B","",6.90575327631146,7.36781378569447,158
"399","5720a9f6fd3a5200113c1891","fascism","test_val","abstract-negative","Valence","CV","B","negative",1,1736436651723,"negative",1472.33333333333,838,"negative","B","",6.73101810048208,7.29460372292842,159
"400","5720a9f6fd3a5200113c1891","feces","test_val","concrete-negative","Valence","CV","B","negative",1,1736436653184,"negative",1551.33333333333,701,"negative","B","",6.55250788703459,7.34687005519413,160
"401","5720a9f6fd3a5200113c1891","prison","test_val","concrete-negative","Valence","CV","B","negative",1,1736436654581,"negative",1525.5,643,"negative","B","",6.46614472423762,7.33007750415672,161
"402","5720a9f6fd3a5200113c1891","greatness","test_val","abstract-positive","Valence","CV","B","positive",1,1736436656060,"positive",1510.83333333333,721,"negative","B","",6.58063913728495,7.3204166539609,162
"403","5720a9f6fd3a5200113c1891","breakup","test_val","abstract-negative","Valence","CV","B","negative",1,1736436657710,"negative",1584.16666666667,891,"negative","B","",6.79234442747081,7.36781378569447,163
"404","5720a9f6fd3a5200113c1891","pancake","test_val","concrete-positive","Valence","CV","B","positive",1,1736436659230,"positive",1451.16666666667,764,"negative","B","",6.63856778916652,7.28012310960056,164
"405","5720a9f6fd3a5200113c1891","feces","test_val","concrete-negative","Valence","CV","B","negative",1,1736436660763,"negative",1551.33333333333,776,"negative","B","",6.65415252018322,7.34687005519413,165
"406","5720a9f6fd3a5200113c1891","lynching","test_val","concrete-negative","Valence","CV","B","negative",1,1736436662194,"negative",1470.83333333333,674,"negative","B","",6.51323011091231,7.29358441257344,166
"407","5720a9f6fd3a5200113c1891","bummer","test_val","abstract-negative","Valence","CV","B","negative",1,1736436663677,"negative",1511.5,724,"negative","B","",6.58479139238572,7.32085781421951,167
"408","5720a9f6fd3a5200113c1891","bedpan","test_val","concrete-negative","Valence","CV","B","negative",1,1736436665291,"negative",1595,850,"negative","B","",6.74523634948436,7.37462901521894,168
"409","5720a9f6fd3a5200113c1891","casket","test_val","concrete-negative","Valence","CV","B","negative",1,1736436666689,"negative",1531.41666666667,641,"negative","B","",6.46302945692067,7.33394851190742,169
"410","5720a9f6fd3a5200113c1891","sadness","test_val","abstract-negative","Valence","CV","B","negative",1,1736436668128,"negative",1527.66666666667,680,"negative","B","",6.52209279817015,7.33149679584101,170
"411","5720a9f6fd3a5200113c1891","splendor","test_val","abstract-positive","Valence","CV","B","positive",1,1736436669548,"positive",1552.33333333333,658,"negative","B","",6.48920493132532,7.34751445431427,171
"412","5720a9f6fd3a5200113c1891","goodness","test_val","abstract-positive","Valence","CV","B","positive",1,1736436670919,"positive",1494.16666666667,617,"negative","B","",6.42486902390539,7.30932391681118,172
"413","5720a9f6fd3a5200113c1891","justice","test_val","abstract-positive","Valence","CV","B","negative",0,1736436672594,"negative",1629.16666666667,916,"negative","B","",6.82001636467413,7.39582391562551,173
"414","5720a9f6fd3a5200113c1891","fondness","test_val","abstract-positive","Valence","CV","B","positive",1,1736436674239,"positive",1621.83333333333,882,"negative","B","",6.78219205600679,7.39131247559393,174
"415","5720a9f6fd3a5200113c1891","knowledge","test_val","abstract-positive","Valence","CV","B","positive",1,1736436675892,"positive",1584,892,"negative","B","",6.79346613258001,7.36770857237437,175
"416","5720a9f6fd3a5200113c1891","pizza","test_val","concrete-positive","Valence","CV","B","positive",1,1736436677341,"positive",1485.66666666667,687,"negative","B","",6.53233429222235,7.30361888427845,176
"417","5720a9f6fd3a5200113c1891","madness","test_val","abstract-negative","Valence","CV","B","negative",1,1736436678817,"negative",1525.5,716,"negative","B","",6.57368016696065,7.33007750415672,177
"418","5720a9f6fd3a5200113c1891","betrayal","test_val","abstract-negative","Valence","CV","B","negative",1,1736436680239,"negative",1468.33333333333,663,"negative","B","",6.49677499018586,7.29188324970217,178
"419","5720a9f6fd3a5200113c1891","revenge","test_val","abstract-negative","Valence","CV","B","negative",1,1736436681628,"negative",1530.5,633,"negative","B","",6.45047042214418,7.33334975838547,179
"420","5720a9f6fd3a5200113c1891","rapist","test_val","concrete-negative","Valence","CV","B","negative",1,1736436683092,"negative",1617,708,"negative","B","",6.56244409369372,7.38832785957711,180
"421","5720a9f6fd3a5200113c1891","loathing","test_val","abstract-negative","Valence","CV","B","negative",1,1736436684519,"negative",1466,666,"negative","B","",6.50128967054039,7.2902928824466,181
"422","5720a9f6fd3a5200113c1891","popcorn","test_val","concrete-positive","Valence","CV","B","positive",1,1736436685986,"positive",1563,703,"negative","B","",6.55535689181067,7.35436233042148,182
"423","5720a9f6fd3a5200113c1891","maggot","test_val","concrete-negative","Valence","CV","B","negative",1,1736436687578,"negative",1569.16666666667,834,"negative","B","",6.72623340235875,7.3582999718632,183
"424","5720a9f6fd3a5200113c1891","bunny","test_val","concrete-positive","Valence","CV","B","positive",1,1736436689065,"positive",1494.83333333333,731,"negative","B","",6.59441345974978,7.30976999688995,184
"425","5720a9f6fd3a5200113c1891","fairness","test_val","abstract-positive","Valence","CV","B","positive",1,1736436690601,"positive",1498.66666666667,781,"negative","B","",6.66057514983969,7.31233110290542,185
"426","5720a9f6fd3a5200113c1891","cockroach","test_val","concrete-negative","Valence","CV","B","negative",1,1736436692106,"negative",1534.83333333333,749,"negative","B","",6.61873898351722,7.33617707649331,186
"427","5720a9f6fd3a5200113c1891","traffic","test_val","concrete-negative","Valence","CV","B","negative",1,1736436693777,"negative",1586,913,"negative","B","",6.81673588059497,7.36897040219479,187
"428","5720a9f6fd3a5200113c1891","fascism","test_val","abstract-negative","Valence","CV","B","negative",1,1736436695249,"negative",1472.33333333333,717,"negative","B","",6.57507584059962,7.29460372292842,188
"429","5720a9f6fd3a5200113c1891","courage","test_val","abstract-positive","Valence","CV","B","positive",1,1736436696823,"positive",1557.66666666667,815,"negative","B","",6.70318811324086,7.35094425403232,189
"430","5720a9f6fd3a5200113c1891","sandwich","test_val","concrete-positive","Valence","CV","B","positive",1,1736436698271,"positive",1550.16666666667,689,"negative","B","",6.53524127101366,7.34611773101441,190
"431","5720a9f6fd3a5200113c1891","wisdom","test_val","abstract-positive","Valence","CV","B","positive",1,1736436699864,"positive",1617.66666666667,837,"negative","B","",6.72982407048948,7.38874006073711,191
"432","5720a9f6fd3a5200113c1891","wellness","test_val","abstract-positive","Valence","CV","B","positive",1,1736436701262,"positive",1584.83333333333,640,"negative","B","",6.46146817635372,7.36823452831139,192
"433","5720a9f6fd3a5200113c1891","contempt","test_val","abstract-negative","Valence","CV","B","negative",1,1736436702719,"negative",1518.66666666667,698,"negative","B","",6.54821910276237,7.32558803589896,193
"434","5720a9f6fd3a5200113c1891","doughnut","test_val","concrete-positive","Valence","CV","B","positive",1,1736436704213,"positive",1556.16666666667,740,"negative","B","",6.60665018619822,7.34998081125587,194
"435","5720a9f6fd3a5200113c1891","chipmunk","test_val","concrete-positive","Valence","CV","B","positive",1,1736436705697,"positive",1541,726,"negative","B","",6.5875500148248,7.34018683532012,195
"436","5720a9f6fd3a5200113c1891","dollar","test_val","concrete-positive","Valence","CV","B","positive",1,1736436707143,"positive",1561,686,"negative","B","",6.53087762772588,7.35308192051543,196
"437","5720a9f6fd3a5200113c1891","duckling","test_val","concrete-positive","Valence","CV","B","positive",1,1736436708603,"positive",1524.16666666667,706,"negative","B","",6.55961523749324,7.32920309159691,197
"438","5720a9f6fd3a5200113c1891","hatred","test_val","abstract-negative","Valence","CV","B","negative",1,1736436710070,"negative",1560.83333333333,707,"negative","B","",6.56103066589657,7.35297514565013,198
"439","5720a9f6fd3a5200113c1891","blanket","test_val","concrete-positive","Valence","CV","B","positive",1,1736436711501,"positive",1491.08333333333,674,"negative","B","",6.51323011091231,7.30725820410386,199
"440","5720a9f6fd3a5200113c1891","frostbite","test_val","concrete-negative","Valence","CV","B","negative",1,1736436713178,"negative",1686.66666666667,918,"negative","B","",6.82219739062049,7.4305094736134,200
"441","5720a9f6fd3a5200113c1891","feces","test_val","concrete-negative","Valence","CV","B","negative",1,1736436714598,"negative",1551.33333333333,661,"negative","B","",6.49375383985169,7.34687005519413,201
"442","5720a9f6fd3a5200113c1891","blanket","test_val","concrete-positive","Valence","CV","B","positive",1,1736436716091,"positive",1491.08333333333,735,"negative","B","",6.59987049921284,7.30725820410386,202
"443","5720a9f6fd3a5200113c1891","bedpan","test_val","concrete-negative","Valence","CV","B","negative",1,1736436717665,"negative",1595,816,"negative","B","",6.70441435496411,7.37462901521894,203
"444","5720a9f6fd3a5200113c1891","sadness","test_val","abstract-negative","Valence","CV","B","negative",1,1736436719078,"negative",1527.66666666667,659,"negative","B","",6.49072353450251,7.33149679584101,204
"445","5720a9f6fd3a5200113c1891","dollar","test_val","concrete-positive","Valence","CV","B","positive",1,1736436720496,"positive",1561,656,"negative","B","",6.48616078894409,7.35308192051543,205
"446","5720a9f6fd3a5200113c1891","madness","test_val","abstract-negative","Valence","CV","B","negative",1,1736436721941,"negative",1525.5,685,"negative","B","",6.52941883826223,7.33007750415672,206
"447","5720a9f6fd3a5200113c1891","contempt","test_val","abstract-negative","Valence","CV","B","negative",1,1736436723350,"negative",1518.66666666667,648,"negative","B","",6.47389069635227,7.32558803589896,207
"448","5720a9f6fd3a5200113c1891","knowledge","test_val","abstract-positive","Valence","CV","B","positive",1,1736436724803,"positive",1584,694,"negative","B","",6.5424719605068,7.36770857237437,208
"449","5720a9f6fd3a5200113c1891","duckling","test_val","concrete-positive","Valence","CV","B","positive",1,1736436726257,"positive",1524.16666666667,698,"negative","B","",6.54821910276237,7.32920309159691,209
"450","5720a9f6fd3a5200113c1891","bunny","test_val","concrete-positive","Valence","CV","B","positive",1,1736436727640,"positive",1494.83333333333,625,"negative","B","",6.4377516497364,7.30976999688995,210
"451","5720a9f6fd3a5200113c1891","courage","test_val","abstract-positive","Valence","CV","B","positive",1,1736436729097,"positive",1557.66666666667,697,"negative","B","",6.54678541076052,7.35094425403232,211
"452","5720a9f6fd3a5200113c1891","betrayal","test_val","abstract-negative","Valence","CV","B","negative",1,1736436730555,"negative",1468.33333333333,699,"negative","B","",6.54965074223381,7.29188324970217,212
"453","5720a9f6fd3a5200113c1891","frostbite","test_val","concrete-negative","Valence","CV","B","negative",1,1736436732025,"negative",1686.66666666667,710,"negative","B","",6.56526497003536,7.4305094736134,213
"454","5720a9f6fd3a5200113c1891","breakup","test_val","abstract-negative","Valence","CV","B","negative",1,1736436733433,"negative",1584.16666666667,651,"negative","B","",6.47850964220857,7.36781378569447,214
"455","5720a9f6fd3a5200113c1891","justice","test_val","abstract-positive","Valence","CV","B","positive",1,1736436734964,"positive",1629.16666666667,775,"negative","B","",6.65286302935335,7.39582391562551,215
"456","5720a9f6fd3a5200113c1891","chipmunk","test_val","concrete-positive","Valence","CV","B","positive",1,1736436736473,"positive",1541,753,"negative","B","",6.62406522779989,7.34018683532012,216
"457","5720a9f6fd3a5200113c1891","fascism","test_val","abstract-negative","Valence","CV","B","negative",1,1736436737906,"negative",1472.33333333333,675,"negative","B","",6.51471269087253,7.29460372292842,217
"458","5720a9f6fd3a5200113c1891","sandwich","test_val","concrete-positive","Valence","CV","B","positive",1,1736436739344,"positive",1550.16666666667,680,"negative","B","",6.52209279817015,7.34611773101441,218
"459","5720a9f6fd3a5200113c1891","bummer","test_val","abstract-negative","Valence","CV","B","negative",1,1736436740793,"negative",1511.5,688,"negative","B","",6.53378883793334,7.32085781421951,219
"460","5720a9f6fd3a5200113c1891","lynching","test_val","concrete-negative","Valence","CV","B","negative",1,1736436742184,"negative",1470.83333333333,632,"negative","B","",6.44888939414686,7.29358441257344,220
"461","5720a9f6fd3a5200113c1891","pizza","test_val","concrete-positive","Valence","CV","B","positive",1,1736436743545,"positive",1485.66666666667,600,"negative","B","",6.39692965521615,7.30361888427845,221
"462","5720a9f6fd3a5200113c1891","casket","test_val","concrete-negative","Valence","CV","B","negative",1,1736436744979,"negative",1531.41666666667,675,"negative","B","",6.51471269087253,7.33394851190742,222
"463","5720a9f6fd3a5200113c1891","pancake","test_val","concrete-positive","Valence","CV","B","positive",1,1736436746385,"positive",1451.16666666667,648,"negative","B","",6.47389069635227,7.28012310960056,223
"464","5720a9f6fd3a5200113c1891","splendor","test_val","abstract-positive","Valence","CV","B","positive",1,1736436747804,"positive",1552.33333333333,662,"negative","B","",6.49526555593701,7.34751445431427,224
"465","5720a9f6fd3a5200113c1891","revenge","test_val","abstract-negative","Valence","CV","B","negative",1,1736436749231,"negative",1530.5,672,"negative","B","",6.51025834052315,7.33334975838547,225
"466","5720a9f6fd3a5200113c1891","traffic","test_val","concrete-negative","Valence","CV","B","negative",1,1736436750736,"negative",1586,746,"negative","B","",6.61472560020376,7.36897040219479,226
"467","5720a9f6fd3a5200113c1891","rapist","test_val","concrete-negative","Valence","CV","B","negative",1,1736436752177,"negative",1617,685,"negative","B","",6.52941883826223,7.38832785957711,227
"468","5720a9f6fd3a5200113c1891","cockroach","test_val","concrete-negative","Valence","CV","B","negative",1,1736436753765,"negative",1534.83333333333,831,"negative","B","",6.72262979485545,7.33617707649331,228
"469","5720a9f6fd3a5200113c1891","maggot","test_val","concrete-negative","Valence","CV","B","negative",1,1736436755158,"negative",1569.16666666667,635,"negative","B","",6.45362499889269,7.3582999718632,229
"470","5720a9f6fd3a5200113c1891","fairness","test_val","abstract-positive","Valence","CV","B","positive",1,1736436756682,"positive",1498.66666666667,767,"negative","B","",6.64248680136726,7.31233110290542,230
"471","5720a9f6fd3a5200113c1891","hatred","test_val","abstract-negative","Valence","CV","B","negative",1,1736436758117,"negative",1560.83333333333,680,"negative","B","",6.52209279817015,7.35297514565013,231
"472","5720a9f6fd3a5200113c1891","popcorn","test_val","concrete-positive","Valence","CV","B","positive",1,1736436759568,"positive",1563,691,"negative","B","",6.53813982376767,7.35436233042148,232
"473","5720a9f6fd3a5200113c1891","prison","test_val","concrete-negative","Valence","CV","B","negative",1,1736436760940,"negative",1525.5,615,"negative","B","",6.42162226780652,7.33007750415672,233
"474","5720a9f6fd3a5200113c1891","goodness","test_val","abstract-positive","Valence","CV","B","positive",1,1736436762401,"positive",1494.16666666667,704,"negative","B","",6.55677835615804,7.30932391681118,234
"475","5720a9f6fd3a5200113c1891","wellness","test_val","abstract-positive","Valence","CV","B","positive",1,1736436763852,"positive",1584.83333333333,692,"negative","B","",6.53958595561767,7.36823452831139,235
"476","5720a9f6fd3a5200113c1891","fondness","test_val","abstract-positive","Valence","CV","B","positive",1,1736436765325,"positive",1621.83333333333,718,"negative","B","",6.57646956904822,7.39131247559393,236
"477","5720a9f6fd3a5200113c1891","doughnut","test_val","concrete-positive","Valence","CV","B","positive",1,1736436767015,"positive",1556.16666666667,932,"negative","B","",6.83733281468559,7.34998081125587,237
"478","5720a9f6fd3a5200113c1891","greatness","test_val","abstract-positive","Valence","CV","B","positive",1,1736436768458,"positive",1510.83333333333,686,"negative","B","",6.53087762772588,7.3204166539609,238
"479","5720a9f6fd3a5200113c1891","wisdom","test_val","abstract-positive","Valence","CV","B","positive",1,1736436769967,"positive",1617.66666666667,752,"negative","B","",6.62273632394984,7.38874006073711,239
"480","5720a9f6fd3a5200113c1891","loathing","test_val","abstract-negative","Valence","CV","B","negative",1,1736436771418,"negative",1466,691,"negative","B","",6.53813982376767,7.2902928824466,240
"481","615c5d5d1768e12bba80f289","justice","test_conc","abstract-positive","Concrete","CV","A","abstract",1,1736430422513,"abstract",1893.16666666667,1032,"concrete","A","",6.93925394604151,7.54600619100337,1
"482","615c5d5d1768e12bba80f289","blanket","test_conc","concrete-positive","Concrete","CV","A","concrete",1,1736430423983,"concrete",1371.5,708,"concrete","A","",6.56244409369372,7.22366031037766,2
"483","615c5d5d1768e12bba80f289","prison","test_conc","concrete-negative","Concrete","CV","A","concrete",1,1736430425566,"concrete",1820.91666666667,824,"concrete","A","",6.71417052990947,7.50709531627887,3
"484","615c5d5d1768e12bba80f289","duckling","test_conc","concrete-positive","Concrete","CV","A","concrete",1,1736430427267,"concrete",1539.16666666667,937,"concrete","A","",6.84268328223842,7.33899642340529,4
"485","615c5d5d1768e12bba80f289","fascism","test_conc","abstract-negative","Concrete","CV","A","abstract",1,1736430428905,"abstract",1464.83333333333,878,"concrete","A","",6.77764659363512,7.28949674933659,5
