#
# Results on Thu, 09 Jan 2025 14:32:58 GMT
# USER AGENT: Mozilla/5.0 (Windows NT 10.0; Win64; x64) AppleWebKit/537.36 (KHTML, like Gecko) Chrome/131.0.0.0 Safari/537.36
# Design number was non-random = 0
#
# Columns below this comment are as follows:
# 1. Results reception time.
# 2. MD5 hash of participant's IP address.
# 3. Controller name.
# 4. Order number of item.
# 5. Inner element number.
# 6. Label.
# 7. Latin Square Group.
# 8. PennElementType.
# 9. PennElementName.
# 10. Parameter.
# 11. Value.
# 12. EventTime.
# 13. Comments.
1736433178,39c9a38213a970984739bd35e81eb88e,PennController,1,0,welcome,NULL,PennController,0,_Trial_,Start,1736432454584,NULL
1736433178,39c9a38213a970984739bd35e81eb88e,PennController,1,0,welcome,NULL,PennController,0,_Header_,Start,1736432454584,NULL
1736433178,39c9a38213a970984739bd35e81eb88e,PennController,1,0,welcome,NULL,PennController,0,_Header_,End,1736432454839,NULL
1736433178,39c9a38213a970984739bd35e81eb88e,PennController,1,0,welcome,NULL,PennController,0,_Trial_,End,1736432488031,NULL
# 13. ID.
# 14. Comments.
1736433178,39c9a38213a970984739bd35e81eb88e,PennController,124,0,consent,NULL,PennController,2,_Trial_,Start,1736432488033,6111af1630b35a24a8476060,NULL
1736433178,39c9a38213a970984739bd35e81eb88e,PennController,124,0,consent,NULL,PennController,2,_Header_,Start,1736432488033,6111af1630b35a24a8476060,NULL
1736433178,39c9a38213a970984739bd35e81eb88e,PennController,124,0,consent,NULL,PennController,2,_Header_,End,1736432488287,6111af1630b35a24a8476060,NULL
1736433178,39c9a38213a970984739bd35e81eb88e,PennController,124,0,consent,NULL,TextInput,ID,Final,6111af1630b35a24a8476060,1736432520575,6111af1630b35a24a8476060,NULL
1736433178,39c9a38213a970984739bd35e81eb88e,PennController,124,0,consent,NULL,PennController,2,_Trial_,End,1736432520575,6111af1630b35a24a8476060,NULL
# 13. Comments.
1736433178,39c9a38213a970984739bd35e81eb88e,PennController,126,0,instructions1_val,NULL,PennController,4,_Trial_,Start,1736432520575,NULL
1736433178,39c9a38213a970984739bd35e81eb88e,PennController,126,0,instructions1_val,NULL,PennController,4,_Header_,Start,1736432520575,NULL
1736433178,39c9a38213a970984739bd35e81eb88e,PennController,126,0,instructions1_val,NULL,PennController,4,_Header_,End,1736432520828,NULL
1736433178,39c9a38213a970984739bd35e81eb88e,PennController,126,0,instructions1_val,NULL,PennController,4,_Trial_,End,1736432536954,NULL
1736433178,39c9a38213a970984739bd35e81eb88e,PennController,127,0,instructions2_val,NULL,PennController,5,_Trial_,Start,1736432536954,NULL
1736433178,39c9a38213a970984739bd35e81eb88e,PennController,127,0,instructions2_val,NULL,PennController,5,_Header_,Start,1736432536954,NULL
1736433178,39c9a38213a970984739bd35e81eb88e,PennController,127,0,instructions2_val,NULL,PennController,5,_Header_,End,1736432537206,NULL
1736433178,39c9a38213a970984739bd35e81eb88e,PennController,127,0,instructions2_val,NULL,PennController,5,_Trial_,End,1736432549276,NULL
1736433178,39c9a38213a970984739bd35e81eb88e,PennController,128,0,instructions3_hands,NULL,PennController,6,_Trial_,Start,1736432549276,NULL
1736433178,39c9a38213a970984739bd35e81eb88e,PennController,128,0,instructions3_hands,NULL,PennController,6,_Header_,Start,1736432549276,NULL
1736433178,39c9a38213a970984739bd35e81eb88e,PennController,128,0,instructions3_hands,NULL,PennController,6,_Header_,End,1736432549529,NULL
1736433178,39c9a38213a970984739bd35e81eb88e,PennController,128,0,instructions3_hands,NULL,PennController,6,_Trial_,End,1736432566002,NULL
1736433178,39c9a38213a970984739bd35e81eb88e,PennController,129,0,practice_intro_val,NULL,PennController,7,_Trial_,Start,1736432566003,NULL
1736433178,39c9a38213a970984739bd35e81eb88e,PennController,129,0,practice_intro_val,NULL,PennController,7,_Header_,Start,1736432566003,NULL
1736433178,39c9a38213a970984739bd35e81eb88e,PennController,129,0,practice_intro_val,NULL,PennController,7,_Header_,End,1736432566255,NULL
1736433178,39c9a38213a970984739bd35e81eb88e,PennController,129,0,practice_intro_val,NULL,PennController,7,_Trial_,End,1736432568310,NULL
# 13. ID.
# 14. ReactionTime.
# 15. Word.
# 16. selectedKey.
# 17. selectedValue.
# 18. Key_value_F.
# 19. Key_value_J.
# 20. Group.
# 21. Comments.
1736433178,39c9a38213a970984739bd35e81eb88e,PennController,110,0,calibrator_val_feedback,NULL,PennController,121,_Trial_,Start,1736432568311,undefined,4257,invader,undefined,positive,negative,positive,A,NULL
1736433178,39c9a38213a970984739bd35e81eb88e,PennController,110,0,calibrator_val_feedback,NULL,PennController,121,_Header_,Start,1736432568311,undefined,4257,invader,undefined,positive,negative,positive,A,NULL
1736433178,39c9a38213a970984739bd35e81eb88e,PennController,110,0,calibrator_val_feedback,NULL,PennController,121,_Header_,End,1736432568562,undefined,4257,invader,undefined,positive,negative,positive,A,NULL
1736433178,39c9a38213a970984739bd35e81eb88e,PennController,110,0,calibrator_val_feedback,NULL,Selector,Selection,Selection,negative,1736432573323,undefined,4257,invader,undefined,positive,negative,positive,A,negative;positive
1736433178,39c9a38213a970984739bd35e81eb88e,PennController,110,0,calibrator_val_feedback,NULL,PennController,121,_Trial_,End,1736432575327,undefined,4257,invader,undefined,positive,negative,positive,A,NULL
1736433178,39c9a38213a970984739bd35e81eb88e,PennController,107,0,calibrator_val_feedback,NULL,PennController,118,_Trial_,Start,1736432575329,undefined,1917,icebox,undefined,positive,negative,positive,A,NULL
1736433178,39c9a38213a970984739bd35e81eb88e,PennController,107,0,calibrator_val_feedback,NULL,PennController,118,_Header_,Start,1736432575329,undefined,1917,icebox,undefined,positive,negative,positive,A,NULL
1736433178,39c9a38213a970984739bd35e81eb88e,PennController,107,0,calibrator_val_feedback,NULL,PennController,118,_Header_,End,1736432575579,undefined,1917,icebox,undefined,positive,negative,positive,A,NULL
1736433178,39c9a38213a970984739bd35e81eb88e,PennController,107,0,calibrator_val_feedback,NULL,Selector,Selection,Selection,positive,1736432577999,undefined,1917,icebox,undefined,positive,negative,positive,A,negative;positive
1736433178,39c9a38213a970984739bd35e81eb88e,PennController,107,0,calibrator_val_feedback,NULL,PennController,118,_Trial_,End,1736432580005,undefined,1917,icebox,undefined,positive,negative,positive,A,NULL
1736433178,39c9a38213a970984739bd35e81eb88e,PennController,109,0,calibrator_val_feedback,NULL,PennController,120,_Trial_,Start,1736432580005,undefined,1049,insecure,undefined,positive,negative,positive,A,NULL
1736433178,39c9a38213a970984739bd35e81eb88e,PennController,109,0,calibrator_val_feedback,NULL,PennController,120,_Header_,Start,1736432580005,undefined,1049,insecure,undefined,positive,negative,positive,A,NULL
1736433178,39c9a38213a970984739bd35e81eb88e,PennController,109,0,calibrator_val_feedback,NULL,PennController,120,_Header_,End,1736432580255,undefined,1049,insecure,undefined,positive,negative,positive,A,NULL
1736433178,39c9a38213a970984739bd35e81eb88e,PennController,109,0,calibrator_val_feedback,NULL,Selector,Selection,Selection,negative,1736432581809,undefined,1049,insecure,undefined,positive,negative,positive,A,negative;positive
1736433178,39c9a38213a970984739bd35e81eb88e,PennController,109,0,calibrator_val_feedback,NULL,PennController,120,_Trial_,End,1736432583809,undefined,1049,insecure,undefined,positive,negative,positive,A,NULL
1736433178,39c9a38213a970984739bd35e81eb88e,PennController,111,0,calibrator_val_feedback,NULL,PennController,122,_Trial_,Start,1736432583810,undefined,1346,jail,undefined,positive,negative,positive,A,NULL
1736433178,39c9a38213a970984739bd35e81eb88e,PennController,111,0,calibrator_val_feedback,NULL,PennController,122,_Header_,Start,1736432583810,undefined,1346,jail,undefined,positive,negative,positive,A,NULL
1736433178,39c9a38213a970984739bd35e81eb88e,PennController,111,0,calibrator_val_feedback,NULL,PennController,122,_Header_,End,1736432584060,undefined,1346,jail,undefined,positive,negative,positive,A,NULL
1736433178,39c9a38213a970984739bd35e81eb88e,PennController,111,0,calibrator_val_feedback,NULL,Selector,Selection,Selection,negative,1736432585907,undefined,1346,jail,undefined,positive,negative,positive,A,negative;positive
1736433178,39c9a38213a970984739bd35e81eb88e,PennController,111,0,calibrator_val_feedback,NULL,PennController,122,_Trial_,End,1736432587910,undefined,1346,jail,undefined,positive,negative,positive,A,NULL
1736433178,39c9a38213a970984739bd35e81eb88e,PennController,104,0,calibrator_val_feedback,NULL,PennController,115,_Trial_,Start,1736432587911,undefined,1124,free,undefined,positive,negative,positive,A,NULL
1736433178,39c9a38213a970984739bd35e81eb88e,PennController,104,0,calibrator_val_feedback,NULL,PennController,115,_Header_,Start,1736432587911,undefined,1124,free,undefined,positive,negative,positive,A,NULL
1736433178,39c9a38213a970984739bd35e81eb88e,PennController,104,0,calibrator_val_feedback,NULL,PennController,115,_Header_,End,1736432588162,undefined,1124,free,undefined,positive,negative,positive,A,NULL
1736433178,39c9a38213a970984739bd35e81eb88e,PennController,104,0,calibrator_val_feedback,NULL,Selector,Selection,Selection,positive,1736432589790,undefined,1124,free,undefined,positive,negative,positive,A,negative;positive
1736433178,39c9a38213a970984739bd35e81eb88e,PennController,104,0,calibrator_val_feedback,NULL,PennController,115,_Trial_,End,1736432591791,undefined,1124,free,undefined,positive,negative,positive,A,NULL
1736433178,39c9a38213a970984739bd35e81eb88e,PennController,105,0,calibrator_val_feedback,NULL,PennController,116,_Trial_,Start,1736432591791,undefined,1023,grin,undefined,positive,negative,positive,A,NULL
1736433178,39c9a38213a970984739bd35e81eb88e,PennController,105,0,calibrator_val_feedback,NULL,PennController,116,_Header_,Start,1736432591791,undefined,1023,grin,undefined,positive,negative,positive,A,NULL
1736433178,39c9a38213a970984739bd35e81eb88e,PennController,105,0,calibrator_val_feedback,NULL,PennController,116,_Header_,End,1736432592046,undefined,1023,grin,undefined,positive,negative,positive,A,NULL
1736433178,39c9a38213a970984739bd35e81eb88e,PennController,105,0,calibrator_val_feedback,NULL,Selector,Selection,Selection,positive,1736432593571,undefined,1023,grin,undefined,positive,negative,positive,A,negative;positive
1736433178,39c9a38213a970984739bd35e81eb88e,PennController,105,0,calibrator_val_feedback,NULL,PennController,116,_Trial_,End,1736432595573,undefined,1023,grin,undefined,positive,negative,positive,A,NULL
1736433178,39c9a38213a970984739bd35e81eb88e,PennController,113,0,calibrator_val_feedback,NULL,PennController,124,_Trial_,Start,1736432595575,undefined,671,kitten,undefined,positive,negative,positive,A,NULL
1736433178,39c9a38213a970984739bd35e81eb88e,PennController,113,0,calibrator_val_feedback,NULL,PennController,124,_Header_,Start,1736432595575,undefined,671,kitten,undefined,positive,negative,positive,A,NULL
1736433178,39c9a38213a970984739bd35e81eb88e,PennController,113,0,calibrator_val_feedback,NULL,PennController,124,_Header_,End,1736432595830,undefined,671,kitten,undefined,positive,negative,positive,A,NULL
1736433178,39c9a38213a970984739bd35e81eb88e,PennController,113,0,calibrator_val_feedback,NULL,Selector,Selection,Selection,positive,1736432597004,undefined,671,kitten,undefined,positive,negative,positive,A,negative;positive
1736433178,39c9a38213a970984739bd35e81eb88e,PennController,113,0,calibrator_val_feedback,NULL,PennController,124,_Trial_,End,1736432599008,undefined,671,kitten,undefined,positive,negative,positive,A,NULL
1736433178,39c9a38213a970984739bd35e81eb88e,PennController,108,0,calibrator_val_feedback,NULL,PennController,119,_Trial_,Start,1736432599010,undefined,1667,industry,undefined,positive,negative,positive,A,NULL
1736433178,39c9a38213a970984739bd35e81eb88e,PennController,108,0,calibrator_val_feedback,NULL,PennController,119,_Header_,Start,1736432599010,undefined,1667,industry,undefined,positive,negative,positive,A,NULL
1736433178,39c9a38213a970984739bd35e81eb88e,PennController,108,0,calibrator_val_feedback,NULL,PennController,119,_Header_,End,1736432599262,undefined,1667,industry,undefined,positive,negative,positive,A,NULL
1736433178,39c9a38213a970984739bd35e81eb88e,PennController,108,0,calibrator_val_feedback,NULL,Selector,Selection,Selection,negative,1736432601430,undefined,1667,industry,undefined,positive,negative,positive,A,negative;positive
1736433178,39c9a38213a970984739bd35e81eb88e,PennController,108,0,calibrator_val_feedback,NULL,PennController,119,_Trial_,End,1736432603435,undefined,1667,industry,undefined,positive,negative,positive,A,NULL
1736433178,39c9a38213a970984739bd35e81eb88e,PennController,106,0,calibrator_val_feedback,NULL,PennController,117,_Trial_,Start,1736432603436,undefined,946,hat,undefined,positive,negative,positive,A,NULL
1736433178,39c9a38213a970984739bd35e81eb88e,PennController,106,0,calibrator_val_feedback,NULL,PennController,117,_Header_,Start,1736432603436,undefined,946,hat,undefined,positive,negative,positive,A,NULL
1736433178,39c9a38213a970984739bd35e81eb88e,PennController,106,0,calibrator_val_feedback,NULL,PennController,117,_Header_,End,1736432603689,undefined,946,hat,undefined,positive,negative,positive,A,NULL
1736433178,39c9a38213a970984739bd35e81eb88e,PennController,106,0,calibrator_val_feedback,NULL,Selector,Selection,Selection,positive,1736432605137,undefined,946,hat,undefined,positive,negative,positive,A,negative;positive
1736433178,39c9a38213a970984739bd35e81eb88e,PennController,106,0,calibrator_val_feedback,NULL,PennController,117,_Trial_,End,1736432607142,undefined,946,hat,undefined,positive,negative,positive,A,NULL
1736433178,39c9a38213a970984739bd35e81eb88e,PennController,112,0,calibrator_val_feedback,NULL,PennController,123,_Trial_,Start,1736432607144,undefined,852,joke,undefined,positive,negative,positive,A,NULL
1736433178,39c9a38213a970984739bd35e81eb88e,PennController,112,0,calibrator_val_feedback,NULL,PennController,123,_Header_,Start,1736432607144,undefined,852,joke,undefined,positive,negative,positive,A,NULL
1736433178,39c9a38213a970984739bd35e81eb88e,PennController,112,0,calibrator_val_feedback,NULL,PennController,123,_Header_,End,1736432607395,undefined,852,joke,undefined,positive,negative,positive,A,NULL
1736433178,39c9a38213a970984739bd35e81eb88e,PennController,112,0,calibrator_val_feedback,NULL,Selector,Selection,Selection,positive,1736432609230,undefined,852,joke,undefined,positive,negative,positive,A,negative;positive
1736433178,39c9a38213a970984739bd35e81eb88e,PennController,112,0,calibrator_val_feedback,NULL,PennController,123,_Trial_,End,1736432610756,undefined,852,joke,undefined,positive,negative,positive,A,NULL
# 16. Key_value_F.
# 17. Key_value_J.
# 18. Group.
# 19. Comments.
1736433178,39c9a38213a970984739bd35e81eb88e,PennController,116,0,calibrator_val_no_feedback,NULL,PennController,127,_Trial_,Start,1736432610757,undefined,1047,hat,negative,positive,A,NULL
1736433178,39c9a38213a970984739bd35e81eb88e,PennController,116,0,calibrator_val_no_feedback,NULL,PennController,127,_Header_,Start,1736432610757,undefined,1047,hat,negative,positive,A,NULL
1736433178,39c9a38213a970984739bd35e81eb88e,PennController,116,0,calibrator_val_no_feedback,NULL,PennController,127,_Header_,End,1736432611009,undefined,1047,hat,negative,positive,A,NULL
1736433178,39c9a38213a970984739bd35e81eb88e,PennController,116,0,calibrator_val_no_feedback,NULL,Selector,unnamed-Selector,Selection,positive,1736432612561,undefined,1047,hat,negative,positive,A,negative;positive
1736433178,39c9a38213a970984739bd35e81eb88e,PennController,116,0,calibrator_val_no_feedback,NULL,PennController,127,_Trial_,End,1736432612562,undefined,1047,hat,negative,positive,A,NULL
1736433178,39c9a38213a970984739bd35e81eb88e,PennController,115,0,calibrator_val_no_feedback,NULL,PennController,126,_Trial_,Start,1736432612563,undefined,653,grin,negative,positive,A,NULL
1736433178,39c9a38213a970984739bd35e81eb88e,PennController,115,0,calibrator_val_no_feedback,NULL,PennController,126,_Header_,Start,1736432612563,undefined,653,grin,negative,positive,A,NULL
1736433178,39c9a38213a970984739bd35e81eb88e,PennController,115,0,calibrator_val_no_feedback,NULL,PennController,126,_Header_,End,1736432612814,undefined,653,grin,negative,positive,A,NULL
1736433178,39c9a38213a970984739bd35e81eb88e,PennController,115,0,calibrator_val_no_feedback,NULL,Selector,unnamed-Selector,Selection,positive,1736432613969,undefined,653,grin,negative,positive,A,negative;positive
1736433178,39c9a38213a970984739bd35e81eb88e,PennController,115,0,calibrator_val_no_feedback,NULL,PennController,126,_Trial_,End,1736432613970,undefined,653,grin,negative,positive,A,NULL
1736433178,39c9a38213a970984739bd35e81eb88e,PennController,118,0,calibrator_val_no_feedback,NULL,PennController,129,_Trial_,Start,1736432613971,undefined,1145,industry,negative,positive,A,NULL
1736433178,39c9a38213a970984739bd35e81eb88e,PennController,118,0,calibrator_val_no_feedback,NULL,PennController,129,_Header_,Start,1736432613971,undefined,1145,industry,negative,positive,A,NULL
1736433178,39c9a38213a970984739bd35e81eb88e,PennController,118,0,calibrator_val_no_feedback,NULL,PennController,129,_Header_,End,1736432614225,undefined,1145,industry,negative,positive,A,NULL
1736433178,39c9a38213a970984739bd35e81eb88e,PennController,118,0,calibrator_val_no_feedback,NULL,Selector,unnamed-Selector,Selection,negative,1736432615875,undefined,1145,industry,negative,positive,A,negative;positive
1736433178,39c9a38213a970984739bd35e81eb88e,PennController,118,0,calibrator_val_no_feedback,NULL,PennController,129,_Trial_,End,1736432615876,undefined,1145,industry,negative,positive,A,NULL
1736433178,39c9a38213a970984739bd35e81eb88e,PennController,122,0,calibrator_val_no_feedback,NULL,PennController,133,_Trial_,Start,1736432615877,undefined,818,joke,negative,positive,A,NULL
1736433178,39c9a38213a970984739bd35e81eb88e,PennController,122,0,calibrator_val_no_feedback,NULL,PennController,133,_Header_,Start,1736432615877,undefined,818,joke,negative,positive,A,NULL
1736433178,39c9a38213a970984739bd35e81eb88e,PennController,122,0,calibrator_val_no_feedback,NULL,PennController,133,_Header_,End,1736432616128,undefined,818,joke,negative,positive,A,NULL
1736433178,39c9a38213a970984739bd35e81eb88e,PennController,122,0,calibrator_val_no_feedback,NULL,Selector,unnamed-Selector,Selection,positive,1736432617449,undefined,818,joke,negative,positive,A,negative;positive
1736433178,39c9a38213a970984739bd35e81eb88e,PennController,122,0,calibrator_val_no_feedback,NULL,PennController,133,_Trial_,End,1736432617450,undefined,818,joke,negative,positive,A,NULL
1736433178,39c9a38213a970984739bd35e81eb88e,PennController,119,0,calibrator_val_no_feedback,NULL,PennController,130,_Trial_,Start,1736432617451,undefined,2273,insecure,negative,positive,A,NULL
1736433178,39c9a38213a970984739bd35e81eb88e,PennController,119,0,calibrator_val_no_feedback,NULL,PennController,130,_Header_,Start,1736432617451,undefined,2273,insecure,negative,positive,A,NULL
1736433178,39c9a38213a970984739bd35e81eb88e,PennController,119,0,calibrator_val_no_feedback,NULL,PennController,130,_Header_,End,1736432617701,undefined,2273,insecure,negative,positive,A,NULL
1736433178,39c9a38213a970984739bd35e81eb88e,PennController,119,0,calibrator_val_no_feedback,NULL,Selector,unnamed-Selector,Selection,negative,1736432620480,undefined,2273,insecure,negative,positive,A,negative;positive
1736433178,39c9a38213a970984739bd35e81eb88e,PennController,119,0,calibrator_val_no_feedback,NULL,PennController,130,_Trial_,End,1736432620481,undefined,2273,insecure,negative,positive,A,NULL
1736433178,39c9a38213a970984739bd35e81eb88e,PennController,120,0,calibrator_val_no_feedback,NULL,PennController,131,_Trial_,Start,1736432620482,undefined,700,invader,negative,positive,A,NULL
1736433178,39c9a38213a970984739bd35e81eb88e,PennController,120,0,calibrator_val_no_feedback,NULL,PennController,131,_Header_,Start,1736432620482,undefined,700,invader,negative,positive,A,NULL
1736433178,39c9a38213a970984739bd35e81eb88e,PennController,120,0,calibrator_val_no_feedback,NULL,PennController,131,_Header_,End,1736432620732,undefined,700,invader,negative,positive,A,NULL
1736433178,39c9a38213a970984739bd35e81eb88e,PennController,120,0,calibrator_val_no_feedback,NULL,Selector,unnamed-Selector,Selection,negative,1736432621933,undefined,700,invader,negative,positive,A,negative;positive
1736433178,39c9a38213a970984739bd35e81eb88e,PennController,120,0,calibrator_val_no_feedback,NULL,PennController,131,_Trial_,End,1736432621933,undefined,700,invader,negative,positive,A,NULL
1736433178,39c9a38213a970984739bd35e81eb88e,PennController,114,0,calibrator_val_no_feedback,NULL,PennController,125,_Trial_,Start,1736432621934,undefined,719,free,negative,positive,A,NULL
1736433178,39c9a38213a970984739bd35e81eb88e,PennController,114,0,calibrator_val_no_feedback,NULL,PennController,125,_Header_,Start,1736432621934,undefined,719,free,negative,positive,A,NULL
1736433178,39c9a38213a970984739bd35e81eb88e,PennController,114,0,calibrator_val_no_feedback,NULL,PennController,125,_Header_,End,1736432622185,undefined,719,free,negative,positive,A,NULL
1736433178,39c9a38213a970984739bd35e81eb88e,PennController,114,0,calibrator_val_no_feedback,NULL,Selector,unnamed-Selector,Selection,positive,1736432623409,undefined,719,free,negative,positive,A,negative;positive
1736433178,39c9a38213a970984739bd35e81eb88e,PennController,114,0,calibrator_val_no_feedback,NULL,PennController,125,_Trial_,End,1736432623409,undefined,719,free,negative,positive,A,NULL
1736433178,39c9a38213a970984739bd35e81eb88e,PennController,123,0,calibrator_val_no_feedback,NULL,PennController,134,_Trial_,Start,1736432623410,undefined,601,kitten,negative,positive,A,NULL
1736433178,39c9a38213a970984739bd35e81eb88e,PennController,123,0,calibrator_val_no_feedback,NULL,PennController,134,_Header_,Start,1736432623410,undefined,601,kitten,negative,positive,A,NULL
1736433178,39c9a38213a970984739bd35e81eb88e,PennController,123,0,calibrator_val_no_feedback,NULL,PennController,134,_Header_,End,1736432623663,undefined,601,kitten,negative,positive,A,NULL
1736433178,39c9a38213a970984739bd35e81eb88e,PennController,123,0,calibrator_val_no_feedback,NULL,Selector,unnamed-Selector,Selection,positive,1736432624770,undefined,601,kitten,negative,positive,A,negative;positive
1736433178,39c9a38213a970984739bd35e81eb88e,PennController,123,0,calibrator_val_no_feedback,NULL,PennController,134,_Trial_,End,1736432624771,undefined,601,kitten,negative,positive,A,NULL
1736433178,39c9a38213a970984739bd35e81eb88e,PennController,117,0,calibrator_val_no_feedback,NULL,PennController,128,_Trial_,Start,1736432624772,undefined,743,icebox,negative,positive,A,NULL
1736433178,39c9a38213a970984739bd35e81eb88e,PennController,117,0,calibrator_val_no_feedback,NULL,PennController,128,_Header_,Start,1736432624772,undefined,743,icebox,negative,positive,A,NULL
1736433178,39c9a38213a970984739bd35e81eb88e,PennController,117,0,calibrator_val_no_feedback,NULL,PennController,128,_Header_,End,1736432625022,undefined,743,icebox,negative,positive,A,NULL
1736433178,39c9a38213a970984739bd35e81eb88e,PennController,117,0,calibrator_val_no_feedback,NULL,Selector,unnamed-Selector,Selection,positive,1736432626270,undefined,743,icebox,negative,positive,A,negative;positive
1736433178,39c9a38213a970984739bd35e81eb88e,PennController,117,0,calibrator_val_no_feedback,NULL,PennController,128,_Trial_,End,1736432626271,undefined,743,icebox,negative,positive,A,NULL
1736433178,39c9a38213a970984739bd35e81eb88e,PennController,121,0,calibrator_val_no_feedback,NULL,PennController,132,_Trial_,Start,1736432626272,undefined,685,jail,negative,positive,A,NULL
1736433178,39c9a38213a970984739bd35e81eb88e,PennController,121,0,calibrator_val_no_feedback,NULL,PennController,132,_Header_,Start,1736432626272,undefined,685,jail,negative,positive,A,NULL
1736433178,39c9a38213a970984739bd35e81eb88e,PennController,121,0,calibrator_val_no_feedback,NULL,PennController,132,_Header_,End,1736432626522,undefined,685,jail,negative,positive,A,NULL
1736433178,39c9a38213a970984739bd35e81eb88e,PennController,121,0,calibrator_val_no_feedback,NULL,Selector,unnamed-Selector,Selection,negative,1736432627710,undefined,685,jail,negative,positive,A,negative;positive
1736433178,39c9a38213a970984739bd35e81eb88e,PennController,121,0,calibrator_val_no_feedback,NULL,PennController,132,_Trial_,End,1736432627710,undefined,685,jail,negative,positive,A,NULL
# 13. Comments.
1736433178,39c9a38213a970984739bd35e81eb88e,PennController,130,0,endinstructions_val,NULL,PennController,8,_Trial_,Start,1736432627710,NULL
1736433178,39c9a38213a970984739bd35e81eb88e,PennController,130,0,endinstructions_val,NULL,PennController,8,_Header_,Start,1736432627710,NULL
1736433178,39c9a38213a970984739bd35e81eb88e,PennController,130,0,endinstructions_val,NULL,PennController,8,_Header_,End,1736432627961,NULL
1736433178,39c9a38213a970984739bd35e81eb88e,PennController,130,0,endinstructions_val,NULL,PennController,8,_Trial_,End,1736432640627,NULL
# 13. ID.
# 14. ReactionTime.
# 15. Word.
# 16. ConcValCombo.
# 17. Key_value_F.
# 18. Key_value_J.
# 19. Group.
# 20. Comments.
1736433178,39c9a38213a970984739bd35e81eb88e,PennController,73,0,test_val,NULL,PennController,84,_Trial_,Start,1736432640628,undefined,624,knowledge,,negative,positive,A,NULL
1736433178,39c9a38213a970984739bd35e81eb88e,PennController,73,0,test_val,NULL,PennController,84,_Header_,Start,1736432640628,undefined,624,knowledge,,negative,positive,A,NULL
1736433178,39c9a38213a970984739bd35e81eb88e,PennController,73,0,test_val,NULL,PennController,84,_Header_,End,1736432640878,undefined,624,knowledge,,negative,positive,A,NULL
1736433178,39c9a38213a970984739bd35e81eb88e,PennController,73,0,test_val,NULL,Selector,unnamed-Selector,Selection,positive,1736432642003,undefined,624,knowledge,,negative,positive,A,negative;positive
1736433178,39c9a38213a970984739bd35e81eb88e,PennController,73,0,test_val,NULL,PennController,84,_Trial_,End,1736432642004,undefined,624,knowledge,,negative,positive,A,NULL
1736433178,39c9a38213a970984739bd35e81eb88e,PennController,75,0,test_val,NULL,PennController,86,_Trial_,Start,1736432642004,undefined,716,maggot,,negative,positive,A,NULL
1736433178,39c9a38213a970984739bd35e81eb88e,PennController,75,0,test_val,NULL,PennController,86,_Header_,Start,1736432642004,undefined,716,maggot,,negative,positive,A,NULL
1736433178,39c9a38213a970984739bd35e81eb88e,PennController,75,0,test_val,NULL,PennController,86,_Header_,End,1736432642256,undefined,716,maggot,,negative,positive,A,NULL
1736433178,39c9a38213a970984739bd35e81eb88e,PennController,75,0,test_val,NULL,Selector,unnamed-Selector,Selection,negative,1736432643476,undefined,716,maggot,,negative,positive,A,negative;positive
1736433178,39c9a38213a970984739bd35e81eb88e,PennController,75,0,test_val,NULL,PennController,86,_Trial_,End,1736432643476,undefined,716,maggot,,negative,positive,A,NULL
1736433178,39c9a38213a970984739bd35e81eb88e,PennController,72,0,test_val,NULL,PennController,83,_Trial_,Start,1736432643477,undefined,684,justice,,negative,positive,A,NULL
1736433178,39c9a38213a970984739bd35e81eb88e,PennController,72,0,test_val,NULL,PennController,83,_Header_,Start,1736432643477,undefined,684,justice,,negative,positive,A,NULL
1736433178,39c9a38213a970984739bd35e81eb88e,PennController,72,0,test_val,NULL,PennController,83,_Header_,End,1736432643728,undefined,684,justice,,negative,positive,A,NULL
1736433178,39c9a38213a970984739bd35e81eb88e,PennController,72,0,test_val,NULL,Selector,unnamed-Selector,Selection,positive,1736432644917,undefined,684,justice,,negative,positive,A,negative;positive
1736433178,39c9a38213a970984739bd35e81eb88e,PennController,72,0,test_val,NULL,PennController,83,_Trial_,End,1736432644917,undefined,684,justice,,negative,positive,A,NULL
1736433178,39c9a38213a970984739bd35e81eb88e,PennController,52,0,test_val,NULL,PennController,63,_Trial_,Start,1736432644918,undefined,592,sadness,,negative,positive,A,NULL
1736433178,39c9a38213a970984739bd35e81eb88e,PennController,52,0,test_val,NULL,PennController,63,_Header_,Start,1736432644918,undefined,592,sadness,,negative,positive,A,NULL
1736433178,39c9a38213a970984739bd35e81eb88e,PennController,52,0,test_val,NULL,PennController,63,_Header_,End,1736432645171,undefined,592,sadness,,negative,positive,A,NULL
1736433178,39c9a38213a970984739bd35e81eb88e,PennController,52,0,test_val,NULL,Selector,unnamed-Selector,Selection,negative,1736432646265,undefined,592,sadness,,negative,positive,A,negative;positive
1736433178,39c9a38213a970984739bd35e81eb88e,PennController,52,0,test_val,NULL,PennController,63,_Trial_,End,1736432646265,undefined,592,sadness,,negative,positive,A,NULL
1736433178,39c9a38213a970984739bd35e81eb88e,PennController,81,0,test_val,NULL,PennController,92,_Trial_,Start,1736432646266,undefined,659,prison,,negative,positive,A,NULL
1736433178,39c9a38213a970984739bd35e81eb88e,PennController,81,0,test_val,NULL,PennController,92,_Header_,Start,1736432646266,undefined,659,prison,,negative,positive,A,NULL
1736433178,39c9a38213a970984739bd35e81eb88e,PennController,81,0,test_val,NULL,PennController,92,_Header_,End,1736432646516,undefined,659,prison,,negative,positive,A,NULL
1736433178,39c9a38213a970984739bd35e81eb88e,PennController,81,0,test_val,NULL,Selector,unnamed-Selector,Selection,negative,1736432647679,undefined,659,prison,,negative,positive,A,negative;positive
1736433178,39c9a38213a970984739bd35e81eb88e,PennController,81,0,test_val,NULL,PennController,92,_Trial_,End,1736432647680,undefined,659,prison,,negative,positive,A,NULL
1736433178,39c9a38213a970984739bd35e81eb88e,PennController,45,0,test_val,NULL,PennController,56,_Trial_,Start,1736432647680,undefined,734,betrayal,,negative,positive,A,NULL
1736433178,39c9a38213a970984739bd35e81eb88e,PennController,45,0,test_val,NULL,PennController,56,_Header_,Start,1736432647680,undefined,734,betrayal,,negative,positive,A,NULL
1736433178,39c9a38213a970984739bd35e81eb88e,PennController,45,0,test_val,NULL,PennController,56,_Header_,End,1736432647934,undefined,734,betrayal,,negative,positive,A,NULL
1736433178,39c9a38213a970984739bd35e81eb88e,PennController,45,0,test_val,NULL,Selector,unnamed-Selector,Selection,negative,1736432649175,undefined,734,betrayal,,negative,positive,A,negative;positive
1736433178,39c9a38213a970984739bd35e81eb88e,PennController,45,0,test_val,NULL,PennController,56,_Trial_,End,1736432649176,undefined,734,betrayal,,negative,positive,A,NULL
1736433178,39c9a38213a970984739bd35e81eb88e,PennController,63,0,test_val,NULL,PennController,74,_Trial_,Start,1736432649177,undefined,681,sandwich,,negative,positive,A,NULL
1736433178,39c9a38213a970984739bd35e81eb88e,PennController,63,0,test_val,NULL,PennController,74,_Header_,Start,1736432649177,undefined,681,sandwich,,negative,positive,A,NULL
1736433178,39c9a38213a970984739bd35e81eb88e,PennController,63,0,test_val,NULL,PennController,74,_Header_,End,1736432649428,undefined,681,sandwich,,negative,positive,A,NULL
1736433178,39c9a38213a970984739bd35e81eb88e,PennController,63,0,test_val,NULL,Selector,unnamed-Selector,Selection,positive,1736432650614,undefined,681,sandwich,,negative,positive,A,negative;positive
1736433178,39c9a38213a970984739bd35e81eb88e,PennController,63,0,test_val,NULL,PennController,74,_Trial_,End,1736432650614,undefined,681,sandwich,,negative,positive,A,NULL
1736433178,39c9a38213a970984739bd35e81eb88e,PennController,59,0,test_val,NULL,PennController,70,_Trial_,Start,1736432650615,undefined,580,dollar,,negative,positive,A,NULL
1736433178,39c9a38213a970984739bd35e81eb88e,PennController,59,0,test_val,NULL,PennController,70,_Header_,Start,1736432650615,undefined,580,dollar,,negative,positive,A,NULL
1736433178,39c9a38213a970984739bd35e81eb88e,PennController,59,0,test_val,NULL,PennController,70,_Header_,End,1736432650866,undefined,580,dollar,,negative,positive,A,NULL
1736433178,39c9a38213a970984739bd35e81eb88e,PennController,59,0,test_val,NULL,Selector,unnamed-Selector,Selection,positive,1736432651949,undefined,580,dollar,,negative,positive,A,negative;positive
1736433178,39c9a38213a970984739bd35e81eb88e,PennController,59,0,test_val,NULL,PennController,70,_Trial_,End,1736432651949,undefined,580,dollar,,negative,positive,A,NULL
1736433178,39c9a38213a970984739bd35e81eb88e,PennController,49,0,test_val,NULL,PennController,60,_Trial_,Start,1736432651950,undefined,670,madness,,negative,positive,A,NULL
1736433178,39c9a38213a970984739bd35e81eb88e,PennController,49,0,test_val,NULL,PennController,60,_Header_,Start,1736432651950,undefined,670,madness,,negative,positive,A,NULL
1736433178,39c9a38213a970984739bd35e81eb88e,PennController,49,0,test_val,NULL,PennController,60,_Header_,End,1736432652201,undefined,670,madness,,negative,positive,A,NULL
1736433178,39c9a38213a970984739bd35e81eb88e,PennController,49,0,test_val,NULL,Selector,unnamed-Selector,Selection,negative,1736432653376,undefined,670,madness,,negative,positive,A,negative;positive
1736433178,39c9a38213a970984739bd35e81eb88e,PennController,49,0,test_val,NULL,PennController,60,_Trial_,End,1736432653377,undefined,670,madness,,negative,positive,A,NULL
1736433178,39c9a38213a970984739bd35e81eb88e,PennController,64,0,test_val,NULL,PennController,75,_Trial_,Start,1736432653377,undefined,701,wisdom,,negative,positive,A,NULL
1736433178,39c9a38213a970984739bd35e81eb88e,PennController,64,0,test_val,NULL,PennController,75,_Header_,Start,1736432653377,undefined,701,wisdom,,negative,positive,A,NULL
1736433178,39c9a38213a970984739bd35e81eb88e,PennController,64,0,test_val,NULL,PennController,75,_Header_,End,1736432653629,undefined,701,wisdom,,negative,positive,A,NULL
1736433178,39c9a38213a970984739bd35e81eb88e,PennController,64,0,test_val,NULL,Selector,unnamed-Selector,Selection,positive,1736432654831,undefined,701,wisdom,,negative,positive,A,negative;positive
1736433178,39c9a38213a970984739bd35e81eb88e,PennController,64,0,test_val,NULL,PennController,75,_Trial_,End,1736432654832,undefined,701,wisdom,,negative,positive,A,NULL
1736433178,39c9a38213a970984739bd35e81eb88e,PennController,82,0,test_val,NULL,PennController,93,_Trial_,Start,1736432654832,undefined,818,lynching,,negative,positive,A,NULL
1736433178,39c9a38213a970984739bd35e81eb88e,PennController,82,0,test_val,NULL,PennController,93,_Header_,Start,1736432654832,undefined,818,lynching,,negative,positive,A,NULL
1736433178,39c9a38213a970984739bd35e81eb88e,PennController,82,0,test_val,NULL,PennController,93,_Header_,End,1736432655085,undefined,818,lynching,,negative,positive,A,NULL
1736433178,39c9a38213a970984739bd35e81eb88e,PennController,82,0,test_val,NULL,Selector,unnamed-Selector,Selection,negative,1736432656408,undefined,818,lynching,,negative,positive,A,negative;positive
1736433178,39c9a38213a970984739bd35e81eb88e,PennController,82,0,test_val,NULL,PennController,93,_Trial_,End,1736432656409,undefined,818,lynching,,negative,positive,A,NULL
1736433178,39c9a38213a970984739bd35e81eb88e,PennController,62,0,test_val,NULL,PennController,73,_Trial_,Start,1736432656409,undefined,713,pancake,,negative,positive,A,NULL
1736433178,39c9a38213a970984739bd35e81eb88e,PennController,62,0,test_val,NULL,PennController,73,_Header_,Start,1736432656409,undefined,713,pancake,,negative,positive,A,NULL
1736433178,39c9a38213a970984739bd35e81eb88e,PennController,62,0,test_val,NULL,PennController,73,_Header_,End,1736432656661,undefined,713,pancake,,negative,positive,A,NULL
1736433178,39c9a38213a970984739bd35e81eb88e,PennController,62,0,test_val,NULL,Selector,unnamed-Selector,Selection,positive,1736432657876,undefined,713,pancake,,negative,positive,A,negative;positive
1736433178,39c9a38213a970984739bd35e81eb88e,PennController,62,0,test_val,NULL,PennController,73,_Trial_,End,1736432657877,undefined,713,pancake,,negative,positive,A,NULL
1736433178,39c9a38213a970984739bd35e81eb88e,PennController,57,0,test_val,NULL,PennController,68,_Trial_,Start,1736432657878,undefined,1057,duckling,,negative,positive,A,NULL
1736433178,39c9a38213a970984739bd35e81eb88e,PennController,57,0,test_val,NULL,PennController,68,_Header_,Start,1736432657878,undefined,1057,duckling,,negative,positive,A,NULL
1736433178,39c9a38213a970984739bd35e81eb88e,PennController,57,0,test_val,NULL,PennController,68,_Header_,End,1736432658132,undefined,1057,duckling,,negative,positive,A,NULL
1736433178,39c9a38213a970984739bd35e81eb88e,PennController,57,0,test_val,NULL,Selector,unnamed-Selector,Selection,positive,1736432659692,undefined,1057,duckling,,negative,positive,A,negative;positive
1736433178,39c9a38213a970984739bd35e81eb88e,PennController,57,0,test_val,NULL,PennController,68,_Trial_,End,1736432659692,undefined,1057,duckling,,negative,positive,A,NULL
1736433178,39c9a38213a970984739bd35e81eb88e,PennController,70,0,test_val,NULL,PennController,81,_Trial_,Start,1736432659693,undefined,880,fairness,,negative,positive,A,NULL
1736433178,39c9a38213a970984739bd35e81eb88e,PennController,70,0,test_val,NULL,PennController,81,_Header_,Start,1736432659693,undefined,880,fairness,,negative,positive,A,NULL
1736433178,39c9a38213a970984739bd35e81eb88e,PennController,70,0,test_val,NULL,PennController,81,_Header_,End,1736432659943,undefined,880,fairness,,negative,positive,A,NULL
1736433178,39c9a38213a970984739bd35e81eb88e,PennController,70,0,test_val,NULL,Selector,unnamed-Selector,Selection,positive,1736432661327,undefined,880,fairness,,negative,positive,A,negative;positive
1736433178,39c9a38213a970984739bd35e81eb88e,PennController,70,0,test_val,NULL,PennController,81,_Trial_,End,1736432661327,undefined,880,fairness,,negative,positive,A,NULL
1736433178,39c9a38213a970984739bd35e81eb88e,PennController,69,0,test_val,NULL,PennController,80,_Trial_,Start,1736432661328,undefined,1147,splendor,,negative,positive,A,NULL
1736433178,39c9a38213a970984739bd35e81eb88e,PennController,69,0,test_val,NULL,PennController,80,_Header_,Start,1736432661328,undefined,1147,splendor,,negative,positive,A,NULL
1736433178,39c9a38213a970984739bd35e81eb88e,PennController,69,0,test_val,NULL,PennController,80,_Header_,End,1736432661581,undefined,1147,splendor,,negative,positive,A,NULL
1736433178,39c9a38213a970984739bd35e81eb88e,PennController,69,0,test_val,NULL,Selector,unnamed-Selector,Selection,positive,1736432663231,undefined,1147,splendor,,negative,positive,A,negative;positive
1736433178,39c9a38213a970984739bd35e81eb88e,PennController,69,0,test_val,NULL,PennController,80,_Trial_,End,1736432663231,undefined,1147,splendor,,negative,positive,A,NULL
1736433178,39c9a38213a970984739bd35e81eb88e,PennController,77,0,test_val,NULL,PennController,88,_Trial_,Start,1736432663232,undefined,926,traffic,,negative,positive,A,NULL
1736433178,39c9a38213a970984739bd35e81eb88e,PennController,77,0,test_val,NULL,PennController,88,_Header_,Start,1736432663232,undefined,926,traffic,,negative,positive,A,NULL
1736433178,39c9a38213a970984739bd35e81eb88e,PennController,77,0,test_val,NULL,PennController,88,_Header_,End,1736432663482,undefined,926,traffic,,negative,positive,A,NULL
1736433178,39c9a38213a970984739bd35e81eb88e,PennController,77,0,test_val,NULL,Selector,unnamed-Selector,Selection,negative,1736432664910,undefined,926,traffic,,negative,positive,A,negative;positive
1736433178,39c9a38213a970984739bd35e81eb88e,PennController,77,0,test_val,NULL,PennController,88,_Trial_,End,1736432664911,undefined,926,traffic,,negative,positive,A,NULL
1736433178,39c9a38213a970984739bd35e81eb88e,PennController,61,0,test_val,NULL,PennController,72,_Trial_,Start,1736432664912,undefined,714,chipmunk,,negative,positive,A,NULL
1736433178,39c9a38213a970984739bd35e81eb88e,PennController,61,0,test_val,NULL,PennController,72,_Header_,Start,1736432664912,undefined,714,chipmunk,,negative,positive,A,NULL
1736433178,39c9a38213a970984739bd35e81eb88e,PennController,61,0,test_val,NULL,PennController,72,_Header_,End,1736432665164,undefined,714,chipmunk,,negative,positive,A,NULL
1736433178,39c9a38213a970984739bd35e81eb88e,PennController,61,0,test_val,NULL,Selector,unnamed-Selector,Selection,positive,1736432666380,undefined,714,chipmunk,,negative,positive,A,negative;positive
1736433178,39c9a38213a970984739bd35e81eb88e,PennController,61,0,test_val,NULL,PennController,72,_Trial_,End,1736432666381,undefined,714,chipmunk,,negative,positive,A,NULL
1736433178,39c9a38213a970984739bd35e81eb88e,PennController,55,0,test_val,NULL,PennController,66,_Trial_,Start,1736432666381,undefined,596,popcorn,,negative,positive,A,NULL
1736433178,39c9a38213a970984739bd35e81eb88e,PennController,55,0,test_val,NULL,PennController,66,_Header_,Start,1736432666381,undefined,596,popcorn,,negative,positive,A,NULL
1736433178,39c9a38213a970984739bd35e81eb88e,PennController,55,0,test_val,NULL,PennController,66,_Header_,End,1736432666633,undefined,596,popcorn,,negative,positive,A,NULL
1736433178,39c9a38213a970984739bd35e81eb88e,PennController,55,0,test_val,NULL,Selector,unnamed-Selector,Selection,positive,1736432667730,undefined,596,popcorn,,negative,positive,A,negative;positive
1736433178,39c9a38213a970984739bd35e81eb88e,PennController,55,0,test_val,NULL,PennController,66,_Trial_,End,1736432667731,undefined,596,popcorn,,negative,positive,A,NULL
1736433178,39c9a38213a970984739bd35e81eb88e,PennController,68,0,test_val,NULL,PennController,79,_Trial_,Start,1736432667731,undefined,607,goodness,,negative,positive,A,NULL
1736433178,39c9a38213a970984739bd35e81eb88e,PennController,68,0,test_val,NULL,PennController,79,_Header_,Start,1736432667731,undefined,607,goodness,,negative,positive,A,NULL
1736433178,39c9a38213a970984739bd35e81eb88e,PennController,68,0,test_val,NULL,PennController,79,_Header_,End,1736432667985,undefined,607,goodness,,negative,positive,A,NULL
1736433178,39c9a38213a970984739bd35e81eb88e,PennController,68,0,test_val,NULL,Selector,unnamed-Selector,Selection,positive,1736432669093,undefined,607,goodness,,negative,positive,A,negative;positive
1736433178,39c9a38213a970984739bd35e81eb88e,PennController,68,0,test_val,NULL,PennController,79,_Trial_,End,1736432669094,undefined,607,goodness,,negative,positive,A,NULL
1736433178,39c9a38213a970984739bd35e81eb88e,PennController,51,0,test_val,NULL,PennController,62,_Trial_,Start,1736432669094,undefined,780,revenge,,negative,positive,A,NULL
1736433178,39c9a38213a970984739bd35e81eb88e,PennController,51,0,test_val,NULL,PennController,62,_Header_,Start,1736432669094,undefined,780,revenge,,negative,positive,A,NULL
1736433178,39c9a38213a970984739bd35e81eb88e,PennController,51,0,test_val,NULL,PennController,62,_Header_,End,1736432669345,undefined,780,revenge,,negative,positive,A,NULL
1736433178,39c9a38213a970984739bd35e81eb88e,PennController,51,0,test_val,NULL,Selector,unnamed-Selector,Selection,negative,1736432670626,undefined,780,revenge,,negative,positive,A,negative;positive
1736433178,39c9a38213a970984739bd35e81eb88e,PennController,51,0,test_val,NULL,PennController,62,_Trial_,End,1736432670627,undefined,780,revenge,,negative,positive,A,NULL
1736433178,39c9a38213a970984739bd35e81eb88e,PennController,76,0,test_val,NULL,PennController,87,_Trial_,Start,1736432670628,undefined,758,rapist,,negative,positive,A,NULL
1736433178,39c9a38213a970984739bd35e81eb88e,PennController,76,0,test_val,NULL,PennController,87,_Header_,Start,1736432670628,undefined,758,rapist,,negative,positive,A,NULL
1736433178,39c9a38213a970984739bd35e81eb88e,PennController,76,0,test_val,NULL,PennController,87,_Header_,End,1736432670880,undefined,758,rapist,,negative,positive,A,NULL
1736433178,39c9a38213a970984739bd35e81eb88e,PennController,76,0,test_val,NULL,Selector,unnamed-Selector,Selection,negative,1736432672141,undefined,758,rapist,,negative,positive,A,negative;positive
1736433178,39c9a38213a970984739bd35e81eb88e,PennController,76,0,test_val,NULL,PennController,87,_Trial_,End,1736432672141,undefined,758,rapist,,negative,positive,A,NULL
1736433178,39c9a38213a970984739bd35e81eb88e,PennController,83,0,test_val,NULL,PennController,94,_Trial_,Start,1736432672141,undefined,1164,frostbite,,negative,positive,A,NULL
1736433178,39c9a38213a970984739bd35e81eb88e,PennController,83,0,test_val,NULL,PennController,94,_Header_,Start,1736432672141,undefined,1164,frostbite,,negative,positive,A,NULL
1736433178,39c9a38213a970984739bd35e81eb88e,PennController,83,0,test_val,NULL,PennController,94,_Header_,End,1736432672394,undefined,1164,frostbite,,negative,positive,A,NULL
1736433178,39c9a38213a970984739bd35e81eb88e,PennController,83,0,test_val,NULL,Selector,unnamed-Selector,Selection,positive,1736432674060,undefined,1164,frostbite,,negative,positive,A,negative;positive
1736433178,39c9a38213a970984739bd35e81eb88e,PennController,83,0,test_val,NULL,PennController,94,_Trial_,End,1736432674060,undefined,1164,frostbite,,negative,positive,A,NULL
1736433178,39c9a38213a970984739bd35e81eb88e,PennController,54,0,test_val,NULL,PennController,65,_Trial_,Start,1736432674061,undefined,1930,pizza,,negative,positive,A,NULL
1736433178,39c9a38213a970984739bd35e81eb88e,PennController,54,0,test_val,NULL,PennController,65,_Header_,Start,1736432674061,undefined,1930,pizza,,negative,positive,A,NULL
1736433178,39c9a38213a970984739bd35e81eb88e,PennController,54,0,test_val,NULL,PennController,65,_Header_,End,1736432674315,undefined,1930,pizza,,negative,positive,A,NULL
1736433178,39c9a38213a970984739bd35e81eb88e,PennController,54,0,test_val,NULL,Selector,unnamed-Selector,Selection,positive,1736432676747,undefined,1930,pizza,,negative,positive,A,negative;positive
1736433178,39c9a38213a970984739bd35e81eb88e,PennController,54,0,test_val,NULL,PennController,65,_Trial_,End,1736432676747,undefined,1930,pizza,,negative,positive,A,NULL
1736433178,39c9a38213a970984739bd35e81eb88e,PennController,56,0,test_val,NULL,PennController,67,_Trial_,Start,1736432676748,undefined,710,doughnut,,negative,positive,A,NULL
1736433178,39c9a38213a970984739bd35e81eb88e,PennController,56,0,test_val,NULL,PennController,67,_Header_,Start,1736432676748,undefined,710,doughnut,,negative,positive,A,NULL
1736433178,39c9a38213a970984739bd35e81eb88e,PennController,56,0,test_val,NULL,PennController,67,_Header_,End,1736432677002,undefined,710,doughnut,,negative,positive,A,NULL
1736433178,39c9a38213a970984739bd35e81eb88e,PennController,56,0,test_val,NULL,Selector,unnamed-Selector,Selection,positive,1736432678216,undefined,710,doughnut,,negative,positive,A,negative;positive
1736433178,39c9a38213a970984739bd35e81eb88e,PennController,56,0,test_val,NULL,PennController,67,_Trial_,End,1736432678217,undefined,710,doughnut,,negative,positive,A,NULL
1736433178,39c9a38213a970984739bd35e81eb88e,PennController,79,0,test_val,NULL,PennController,90,_Trial_,Start,1736432678218,undefined,804,cockroach,,negative,positive,A,NULL
1736433178,39c9a38213a970984739bd35e81eb88e,PennController,79,0,test_val,NULL,PennController,90,_Header_,Start,1736432678218,undefined,804,cockroach,,negative,positive,A,NULL
1736433178,39c9a38213a970984739bd35e81eb88e,PennController,79,0,test_val,NULL,PennController,90,_Header_,End,1736432678470,undefined,804,cockroach,,negative,positive,A,NULL
1736433178,39c9a38213a970984739bd35e81eb88e,PennController,79,0,test_val,NULL,Selector,unnamed-Selector,Selection,negative,1736432679778,undefined,804,cockroach,,negative,positive,A,negative;positive
1736433178,39c9a38213a970984739bd35e81eb88e,PennController,79,0,test_val,NULL,PennController,90,_Trial_,End,1736432679778,undefined,804,cockroach,,negative,positive,A,NULL
1736433178,39c9a38213a970984739bd35e81eb88e,PennController,44,0,test_val,NULL,PennController,55,_Trial_,Start,1736432679779,undefined,681,fascism,,negative,positive,A,NULL
1736433178,39c9a38213a970984739bd35e81eb88e,PennController,44,0,test_val,NULL,PennController,55,_Header_,Start,1736432679779,undefined,681,fascism,,negative,positive,A,NULL
1736433178,39c9a38213a970984739bd35e81eb88e,PennController,44,0,test_val,NULL,PennController,55,_Header_,End,1736432680030,undefined,681,fascism,,negative,positive,A,NULL
1736433178,39c9a38213a970984739bd35e81eb88e,PennController,44,0,test_val,NULL,Selector,unnamed-Selector,Selection,negative,1736432681216,undefined,681,fascism,,negative,positive,A,negative;positive
1736433178,39c9a38213a970984739bd35e81eb88e,PennController,44,0,test_val,NULL,PennController,55,_Trial_,End,1736432681217,undefined,681,fascism,,negative,positive,A,NULL
1736433178,39c9a38213a970984739bd35e81eb88e,PennController,58,0,test_val,NULL,PennController,69,_Trial_,Start,1736432681217,undefined,691,bunny,,negative,positive,A,NULL
1736433178,39c9a38213a970984739bd35e81eb88e,PennController,58,0,test_val,NULL,PennController,69,_Header_,Start,1736432681217,undefined,691,bunny,,negative,positive,A,NULL
1736433178,39c9a38213a970984739bd35e81eb88e,PennController,58,0,test_val,NULL,PennController,69,_Header_,End,1736432681467,undefined,691,bunny,,negative,positive,A,NULL
1736433178,39c9a38213a970984739bd35e81eb88e,PennController,58,0,test_val,NULL,Selector,unnamed-Selector,Selection,positive,1736432682658,undefined,691,bunny,,negative,positive,A,negative;positive
1736433178,39c9a38213a970984739bd35e81eb88e,PennController,58,0,test_val,NULL,PennController,69,_Trial_,End,1736432682659,undefined,691,bunny,,negative,positive,A,NULL
1736433178,39c9a38213a970984739bd35e81eb88e,PennController,48,0,test_val,NULL,PennController,59,_Trial_,Start,1736432682660,undefined,805,loathing,,negative,positive,A,NULL
1736433178,39c9a38213a970984739bd35e81eb88e,PennController,48,0,test_val,NULL,PennController,59,_Header_,Start,1736432682660,undefined,805,loathing,,negative,positive,A,NULL
1736433178,39c9a38213a970984739bd35e81eb88e,PennController,48,0,test_val,NULL,PennController,59,_Header_,End,1736432682910,undefined,805,loathing,,negative,positive,A,NULL
1736433178,39c9a38213a970984739bd35e81eb88e,PennController,48,0,test_val,NULL,Selector,unnamed-Selector,Selection,negative,1736432684216,undefined,805,loathing,,negative,positive,A,negative;positive
1736433178,39c9a38213a970984739bd35e81eb88e,PennController,48,0,test_val,NULL,PennController,59,_Trial_,End,1736432684216,undefined,805,loathing,,negative,positive,A,NULL
1736433178,39c9a38213a970984739bd35e81eb88e,PennController,66,0,test_val,NULL,PennController,77,_Trial_,Start,1736432684217,undefined,758,fondness,,negative,positive,A,NULL
1736433178,39c9a38213a970984739bd35e81eb88e,PennController,66,0,test_val,NULL,PennController,77,_Header_,Start,1736432684217,undefined,758,fondness,,negative,positive,A,NULL
1736433178,39c9a38213a970984739bd35e81eb88e,PennController,66,0,test_val,NULL,PennController,77,_Header_,End,1736432684467,undefined,758,fondness,,negative,positive,A,NULL
1736433178,39c9a38213a970984739bd35e81eb88e,PennController,66,0,test_val,NULL,Selector,unnamed-Selector,Selection,positive,1736432685730,undefined,758,fondness,,negative,positive,A,negative;positive
1736433178,39c9a38213a970984739bd35e81eb88e,PennController,66,0,test_val,NULL,PennController,77,_Trial_,End,1736432685731,undefined,758,fondness,,negative,positive,A,NULL
1736433178,39c9a38213a970984739bd35e81eb88e,PennController,80,0,test_val,NULL,PennController,91,_Trial_,Start,1736432685732,undefined,1194,bedpan,,negative,positive,A,NULL
1736433178,39c9a38213a970984739bd35e81eb88e,PennController,80,0,test_val,NULL,PennController,91,_Header_,Start,1736432685732,undefined,1194,bedpan,,negative,positive,A,NULL
1736433178,39c9a38213a970984739bd35e81eb88e,PennController,80,0,test_val,NULL,PennController,91,_Header_,End,1736432685982,undefined,1194,bedpan,,negative,positive,A,NULL
1736433178,39c9a38213a970984739bd35e81eb88e,PennController,80,0,test_val,NULL,Selector,unnamed-Selector,Selection,negative,1736432687680,undefined,1194,bedpan,,negative,positive,A,negative;positive
1736433178,39c9a38213a970984739bd35e81eb88e,PennController,80,0,test_val,NULL,PennController,91,_Trial_,End,1736432687681,undefined,1194,bedpan,,negative,positive,A,NULL
1736433178,39c9a38213a970984739bd35e81eb88e,PennController,53,0,test_val,NULL,PennController,64,_Trial_,Start,1736432687682,undefined,771,bummer,,negative,positive,A,NULL
1736433178,39c9a38213a970984739bd35e81eb88e,PennController,53,0,test_val,NULL,PennController,64,_Header_,Start,1736432687682,undefined,771,bummer,,negative,positive,A,NULL
1736433178,39c9a38213a970984739bd35e81eb88e,PennController,53,0,test_val,NULL,PennController,64,_Header_,End,1736432687936,undefined,771,bummer,,negative,positive,A,NULL
1736433178,39c9a38213a970984739bd35e81eb88e,PennController,53,0,test_val,NULL,Selector,unnamed-Selector,Selection,negative,1736432689210,undefined,771,bummer,,negative,positive,A,negative;positive
1736433178,39c9a38213a970984739bd35e81eb88e,PennController,53,0,test_val,NULL,PennController,64,_Trial_,End,1736432689210,undefined,771,bummer,,negative,positive,A,NULL
1736433178,39c9a38213a970984739bd35e81eb88e,PennController,71,0,test_val,NULL,PennController,82,_Trial_,Start,1736432689210,undefined,615,wellness,,negative,positive,A,NULL
1736433178,39c9a38213a970984739bd35e81eb88e,PennController,71,0,test_val,NULL,PennController,82,_Header_,Start,1736432689210,undefined,615,wellness,,negative,positive,A,NULL
1736433178,39c9a38213a970984739bd35e81eb88e,PennController,71,0,test_val,NULL,PennController,82,_Header_,End,1736432689461,undefined,615,wellness,,negative,positive,A,NULL
1736433178,39c9a38213a970984739bd35e81eb88e,PennController,71,0,test_val,NULL,Selector,unnamed-Selector,Selection,positive,1736432690577,undefined,615,wellness,,negative,positive,A,negative;positive
1736433178,39c9a38213a970984739bd35e81eb88e,PennController,71,0,test_val,NULL,PennController,82,_Trial_,End,1736432690578,undefined,615,wellness,,negative,positive,A,NULL
1736433178,39c9a38213a970984739bd35e81eb88e,PennController,60,0,test_val,NULL,PennController,71,_Trial_,Start,1736432690578,undefined,1029,blanket,,negative,positive,A,NULL
1736433178,39c9a38213a970984739bd35e81eb88e,PennController,60,0,test_val,NULL,PennController,71,_Header_,Start,1736432690578,undefined,1029,blanket,,negative,positive,A,NULL
1736433178,39c9a38213a970984739bd35e81eb88e,PennController,60,0,test_val,NULL,PennController,71,_Header_,End,1736432690829,undefined,1029,blanket,,negative,positive,A,NULL
1736433178,39c9a38213a970984739bd35e81eb88e,PennController,60,0,test_val,NULL,Selector,unnamed-Selector,Selection,positive,1736432692360,undefined,1029,blanket,,negative,positive,A,negative;positive
1736433178,39c9a38213a970984739bd35e81eb88e,PennController,60,0,test_val,NULL,PennController,71,_Trial_,End,1736432692361,undefined,1029,blanket,,negative,positive,A,NULL
1736433178,39c9a38213a970984739bd35e81eb88e,PennController,46,0,test_val,NULL,PennController,57,_Trial_,Start,1736432692362,undefined,681,hatred,,negative,positive,A,NULL
1736433178,39c9a38213a970984739bd35e81eb88e,PennController,46,0,test_val,NULL,PennController,57,_Header_,Start,1736432692362,undefined,681,hatred,,negative,positive,A,NULL
1736433178,39c9a38213a970984739bd35e81eb88e,PennController,46,0,test_val,NULL,PennController,57,_Header_,End,1736432692616,undefined,681,hatred,,negative,positive,A,NULL
1736433178,39c9a38213a970984739bd35e81eb88e,PennController,46,0,test_val,NULL,Selector,unnamed-Selector,Selection,negative,1736432693801,undefined,681,hatred,,negative,positive,A,negative;positive
1736433178,39c9a38213a970984739bd35e81eb88e,PennController,46,0,test_val,NULL,PennController,57,_Trial_,End,1736432693802,undefined,681,hatred,,negative,positive,A,NULL
1736433178,39c9a38213a970984739bd35e81eb88e,PennController,74,0,test_val,NULL,PennController,85,_Trial_,Start,1736432693802,undefined,806,feces,,negative,positive,A,NULL
1736433178,39c9a38213a970984739bd35e81eb88e,PennController,74,0,test_val,NULL,PennController,85,_Header_,Start,1736432693802,undefined,806,feces,,negative,positive,A,NULL
1736433178,39c9a38213a970984739bd35e81eb88e,PennController,74,0,test_val,NULL,PennController,85,_Header_,End,1736432694052,undefined,806,feces,,negative,positive,A,NULL
1736433178,39c9a38213a970984739bd35e81eb88e,PennController,74,0,test_val,NULL,Selector,unnamed-Selector,Selection,negative,1736432695362,undefined,806,feces,,negative,positive,A,negative;positive
1736433178,39c9a38213a970984739bd35e81eb88e,PennController,74,0,test_val,NULL,PennController,85,_Trial_,End,1736432695363,undefined,806,feces,,negative,positive,A,NULL
1736433178,39c9a38213a970984739bd35e81eb88e,PennController,50,0,test_val,NULL,PennController,61,_Trial_,Start,1736432695363,undefined,821,contempt,,negative,positive,A,NULL
1736433178,39c9a38213a970984739bd35e81eb88e,PennController,50,0,test_val,NULL,PennController,61,_Header_,Start,1736432695363,undefined,821,contempt,,negative,positive,A,NULL
1736433178,39c9a38213a970984739bd35e81eb88e,PennController,50,0,test_val,NULL,PennController,61,_Header_,End,1736432695614,undefined,821,contempt,,negative,positive,A,NULL
1736433178,39c9a38213a970984739bd35e81eb88e,PennController,50,0,test_val,NULL,Selector,unnamed-Selector,Selection,negative,1736432696936,undefined,821,contempt,,negative,positive,A,negative;positive
1736433178,39c9a38213a970984739bd35e81eb88e,PennController,50,0,test_val,NULL,PennController,61,_Trial_,End,1736432696937,undefined,821,contempt,,negative,positive,A,NULL
1736433178,39c9a38213a970984739bd35e81eb88e,PennController,47,0,test_val,NULL,PennController,58,_Trial_,Start,1736432696938,undefined,744,breakup,,negative,positive,A,NULL
1736433178,39c9a38213a970984739bd35e81eb88e,PennController,47,0,test_val,NULL,PennController,58,_Header_,Start,1736432696938,undefined,744,breakup,,negative,positive,A,NULL
1736433178,39c9a38213a970984739bd35e81eb88e,PennController,47,0,test_val,NULL,PennController,58,_Header_,End,1736432697189,undefined,744,breakup,,negative,positive,A,NULL
1736433178,39c9a38213a970984739bd35e81eb88e,PennController,47,0,test_val,NULL,Selector,unnamed-Selector,Selection,negative,1736432698436,undefined,744,breakup,,negative,positive,A,negative;positive
1736433178,39c9a38213a970984739bd35e81eb88e,PennController,47,0,test_val,NULL,PennController,58,_Trial_,End,1736432698436,undefined,744,breakup,,negative,positive,A,NULL
1736433178,39c9a38213a970984739bd35e81eb88e,PennController,67,0,test_val,NULL,PennController,78,_Trial_,Start,1736432698437,undefined,575,courage,,negative,positive,A,NULL
1736433178,39c9a38213a970984739bd35e81eb88e,PennController,67,0,test_val,NULL,PennController,78,_Header_,Start,1736432698437,undefined,575,courage,,negative,positive,A,NULL
1736433178,39c9a38213a970984739bd35e81eb88e,PennController,67,0,test_val,NULL,PennController,78,_Header_,End,1736432698692,undefined,575,courage,,negative,positive,A,NULL
1736433178,39c9a38213a970984739bd35e81eb88e,PennController,67,0,test_val,NULL,Selector,unnamed-Selector,Selection,positive,1736432699771,undefined,575,courage,,negative,positive,A,negative;positive
1736433178,39c9a38213a970984739bd35e81eb88e,PennController,67,0,test_val,NULL,PennController,78,_Trial_,End,1736432699772,undefined,575,courage,,negative,positive,A,NULL
1736433178,39c9a38213a970984739bd35e81eb88e,PennController,78,0,test_val,NULL,PennController,89,_Trial_,Start,1736432699772,undefined,772,casket,,negative,positive,A,NULL
1736433178,39c9a38213a970984739bd35e81eb88e,PennController,78,0,test_val,NULL,PennController,89,_Header_,Start,1736432699772,undefined,772,casket,,negative,positive,A,NULL
1736433178,39c9a38213a970984739bd35e81eb88e,PennController,78,0,test_val,NULL,PennController,89,_Header_,End,1736432700024,undefined,772,casket,,negative,positive,A,NULL
1736433178,39c9a38213a970984739bd35e81eb88e,PennController,78,0,test_val,NULL,Selector,unnamed-Selector,Selection,negative,1736432701300,undefined,772,casket,,negative,positive,A,negative;positive
1736433178,39c9a38213a970984739bd35e81eb88e,PennController,78,0,test_val,NULL,PennController,89,_Trial_,End,1736432701301,undefined,772,casket,,negative,positive,A,NULL
1736433178,39c9a38213a970984739bd35e81eb88e,PennController,65,0,test_val,NULL,PennController,76,_Trial_,Start,1736432701302,undefined,669,greatness,,negative,positive,A,NULL
1736433178,39c9a38213a970984739bd35e81eb88e,PennController,65,0,test_val,NULL,PennController,76,_Header_,Start,1736432701302,undefined,669,greatness,,negative,positive,A,NULL
1736433178,39c9a38213a970984739bd35e81eb88e,PennController,65,0,test_val,NULL,PennController,76,_Header_,End,1736432701556,undefined,669,greatness,,negative,positive,A,NULL
1736433178,39c9a38213a970984739bd35e81eb88e,PennController,65,0,test_val,NULL,Selector,unnamed-Selector,Selection,positive,1736432702728,undefined,669,greatness,,negative,positive,A,negative;positive
1736433178,39c9a38213a970984739bd35e81eb88e,PennController,65,0,test_val,NULL,PennController,76,_Trial_,End,1736432702728,undefined,669,greatness,,negative,positive,A,NULL
1736433178,39c9a38213a970984739bd35e81eb88e,PennController,82,0,test_val,NULL,PennController,93,_Trial_,Start,1736432702729,undefined,607,lynching,,negative,positive,A,NULL
1736433178,39c9a38213a970984739bd35e81eb88e,PennController,82,0,test_val,NULL,PennController,93,_Header_,Start,1736432702729,undefined,607,lynching,,negative,positive,A,NULL
1736433178,39c9a38213a970984739bd35e81eb88e,PennController,82,0,test_val,NULL,PennController,93,_Header_,End,1736432702981,undefined,607,lynching,,negative,positive,A,NULL
1736433178,39c9a38213a970984739bd35e81eb88e,PennController,82,0,test_val,NULL,Selector,unnamed-Selector,Selection,negative,1736432704092,undefined,607,lynching,,negative,positive,A,negative;positive
1736433178,39c9a38213a970984739bd35e81eb88e,PennController,82,0,test_val,NULL,PennController,93,_Trial_,End,1736432704092,undefined,607,lynching,,negative,positive,A,NULL
1736433178,39c9a38213a970984739bd35e81eb88e,PennController,51,0,test_val,NULL,PennController,62,_Trial_,Start,1736432704092,undefined,578,revenge,,negative,positive,A,NULL
1736433178,39c9a38213a970984739bd35e81eb88e,PennController,51,0,test_val,NULL,PennController,62,_Header_,Start,1736432704092,undefined,578,revenge,,negative,positive,A,NULL
1736433178,39c9a38213a970984739bd35e81eb88e,PennController,51,0,test_val,NULL,PennController,62,_Header_,End,1736432704345,undefined,578,revenge,,negative,positive,A,NULL
1736433178,39c9a38213a970984739bd35e81eb88e,PennController,51,0,test_val,NULL,Selector,unnamed-Selector,Selection,negative,1736432705426,undefined,578,revenge,,negative,positive,A,negative;positive
1736433178,39c9a38213a970984739bd35e81eb88e,PennController,51,0,test_val,NULL,PennController,62,_Trial_,End,1736432705426,undefined,578,revenge,,negative,positive,A,NULL
1736433178,39c9a38213a970984739bd35e81eb88e,PennController,78,0,test_val,NULL,PennController,89,_Trial_,Start,1736432705427,undefined,896,casket,,negative,positive,A,NULL
1736433178,39c9a38213a970984739bd35e81eb88e,PennController,78,0,test_val,NULL,PennController,89,_Header_,Start,1736432705427,undefined,896,casket,,negative,positive,A,NULL
1736433178,39c9a38213a970984739bd35e81eb88e,PennController,78,0,test_val,NULL,PennController,89,_Header_,End,1736432705677,undefined,896,casket,,negative,positive,A,NULL
1736433178,39c9a38213a970984739bd35e81eb88e,PennController,78,0,test_val,NULL,Selector,unnamed-Selector,Selection,negative,1736432707076,undefined,896,casket,,negative,positive,A,negative;positive
1736433178,39c9a38213a970984739bd35e81eb88e,PennController,78,0,test_val,NULL,PennController,89,_Trial_,End,1736432707077,undefined,896,casket,,negative,positive,A,NULL
1736433178,39c9a38213a970984739bd35e81eb88e,PennController,76,0,test_val,NULL,PennController,87,_Trial_,Start,1736432707077,undefined,577,rapist,,negative,positive,A,NULL
1736433178,39c9a38213a970984739bd35e81eb88e,PennController,76,0,test_val,NULL,PennController,87,_Header_,Start,1736432707077,undefined,577,rapist,,negative,positive,A,NULL
1736433178,39c9a38213a970984739bd35e81eb88e,PennController,76,0,test_val,NULL,PennController,87,_Header_,End,1736432707331,undefined,577,rapist,,negative,positive,A,NULL
1736433178,39c9a38213a970984739bd35e81eb88e,PennController,76,0,test_val,NULL,Selector,unnamed-Selector,Selection,negative,1736432708410,undefined,577,rapist,,negative,positive,A,negative;positive
1736433178,39c9a38213a970984739bd35e81eb88e,PennController,76,0,test_val,NULL,PennController,87,_Trial_,End,1736432708411,undefined,577,rapist,,negative,positive,A,NULL
1736433178,39c9a38213a970984739bd35e81eb88e,PennController,49,0,test_val,NULL,PennController,60,_Trial_,Start,1736432708411,undefined,695,madness,,negative,positive,A,NULL
1736433178,39c9a38213a970984739bd35e81eb88e,PennController,49,0,test_val,NULL,PennController,60,_Header_,Start,1736432708411,undefined,695,madness,,negative,positive,A,NULL
1736433178,39c9a38213a970984739bd35e81eb88e,PennController,49,0,test_val,NULL,PennController,60,_Header_,End,1736432708665,undefined,695,madness,,negative,positive,A,NULL
1736433178,39c9a38213a970984739bd35e81eb88e,PennController,49,0,test_val,NULL,Selector,unnamed-Selector,Selection,negative,1736432709866,undefined,695,madness,,negative,positive,A,negative;positive
1736433178,39c9a38213a970984739bd35e81eb88e,PennController,49,0,test_val,NULL,PennController,60,_Trial_,End,1736432709867,undefined,695,madness,,negative,positive,A,NULL
1736433178,39c9a38213a970984739bd35e81eb88e,PennController,44,0,test_val,NULL,PennController,55,_Trial_,Start,1736432709867,undefined,656,fascism,,negative,positive,A,NULL
1736433178,39c9a38213a970984739bd35e81eb88e,PennController,44,0,test_val,NULL,PennController,55,_Header_,Start,1736432709867,undefined,656,fascism,,negative,positive,A,NULL
1736433178,39c9a38213a970984739bd35e81eb88e,PennController,44,0,test_val,NULL,PennController,55,_Header_,End,1736432710118,undefined,656,fascism,,negative,positive,A,NULL
1736433178,39c9a38213a970984739bd35e81eb88e,PennController,44,0,test_val,NULL,Selector,unnamed-Selector,Selection,negative,1736432711276,undefined,656,fascism,,negative,positive,A,negative;positive
1736433178,39c9a38213a970984739bd35e81eb88e,PennController,44,0,test_val,NULL,PennController,55,_Trial_,End,1736432711277,undefined,656,fascism,,negative,positive,A,NULL
1736433178,39c9a38213a970984739bd35e81eb88e,PennController,59,0,test_val,NULL,PennController,70,_Trial_,Start,1736432711277,undefined,740,dollar,,negative,positive,A,NULL
1736433178,39c9a38213a970984739bd35e81eb88e,PennController,59,0,test_val,NULL,PennController,70,_Header_,Start,1736432711277,undefined,740,dollar,,negative,positive,A,NULL
1736433178,39c9a38213a970984739bd35e81eb88e,PennController,59,0,test_val,NULL,PennController,70,_Header_,End,1736432711531,undefined,740,dollar,,negative,positive,A,NULL
1736433178,39c9a38213a970984739bd35e81eb88e,PennController,59,0,test_val,NULL,Selector,unnamed-Selector,Selection,positive,1736432712775,undefined,740,dollar,,negative,positive,A,negative;positive
1736433178,39c9a38213a970984739bd35e81eb88e,PennController,59,0,test_val,NULL,PennController,70,_Trial_,End,1736432712776,undefined,740,dollar,,negative,positive,A,NULL
1736433178,39c9a38213a970984739bd35e81eb88e,PennController,55,0,test_val,NULL,PennController,66,_Trial_,Start,1736432712776,undefined,615,popcorn,,negative,positive,A,NULL
1736433178,39c9a38213a970984739bd35e81eb88e,PennController,55,0,test_val,NULL,PennController,66,_Header_,Start,1736432712776,undefined,615,popcorn,,negative,positive,A,NULL
1736433178,39c9a38213a970984739bd35e81eb88e,PennController,55,0,test_val,NULL,PennController,66,_Header_,End,1736432713026,undefined,615,popcorn,,negative,positive,A,NULL
1736433178,39c9a38213a970984739bd35e81eb88e,PennController,55,0,test_val,NULL,Selector,unnamed-Selector,Selection,positive,1736432714142,undefined,615,popcorn,,negative,positive,A,negative;positive
1736433178,39c9a38213a970984739bd35e81eb88e,PennController,55,0,test_val,NULL,PennController,66,_Trial_,End,1736432714143,undefined,615,popcorn,,negative,positive,A,NULL
1736433178,39c9a38213a970984739bd35e81eb88e,PennController,74,0,test_val,NULL,PennController,85,_Trial_,Start,1736432714143,undefined,651,feces,,negative,positive,A,NULL
1736433178,39c9a38213a970984739bd35e81eb88e,PennController,74,0,test_val,NULL,PennController,85,_Header_,Start,1736432714143,undefined,651,feces,,negative,positive,A,NULL
1736433178,39c9a38213a970984739bd35e81eb88e,PennController,74,0,test_val,NULL,PennController,85,_Header_,End,1736432714397,undefined,651,feces,,negative,positive,A,NULL
1736433178,39c9a38213a970984739bd35e81eb88e,PennController,74,0,test_val,NULL,Selector,unnamed-Selector,Selection,negative,1736432715552,undefined,651,feces,,negative,positive,A,negative;positive
1736433178,39c9a38213a970984739bd35e81eb88e,PennController,74,0,test_val,NULL,PennController,85,_Trial_,End,1736432715552,undefined,651,feces,,negative,positive,A,NULL
1736433178,39c9a38213a970984739bd35e81eb88e,PennController,67,0,test_val,NULL,PennController,78,_Trial_,Start,1736432715553,undefined,847,courage,,negative,positive,A,NULL
1736433178,39c9a38213a970984739bd35e81eb88e,PennController,67,0,test_val,NULL,PennController,78,_Header_,Start,1736432715553,undefined,847,courage,,negative,positive,A,NULL
1736433178,39c9a38213a970984739bd35e81eb88e,PennController,67,0,test_val,NULL,PennController,78,_Header_,End,1736432715804,undefined,847,courage,,negative,positive,A,NULL
1736433178,39c9a38213a970984739bd35e81eb88e,PennController,67,0,test_val,NULL,Selector,unnamed-Selector,Selection,positive,1736432717157,undefined,847,courage,,negative,positive,A,negative;positive
1736433178,39c9a38213a970984739bd35e81eb88e,PennController,67,0,test_val,NULL,PennController,78,_Trial_,End,1736432717158,undefined,847,courage,,negative,positive,A,NULL
1736433178,39c9a38213a970984739bd35e81eb88e,PennController,73,0,test_val,NULL,PennController,84,_Trial_,Start,1736432717158,undefined,618,knowledge,,negative,positive,A,NULL
1736433178,39c9a38213a970984739bd35e81eb88e,PennController,73,0,test_val,NULL,PennController,84,_Header_,Start,1736432717158,undefined,618,knowledge,,negative,positive,A,NULL
1736433178,39c9a38213a970984739bd35e81eb88e,PennController,73,0,test_val,NULL,PennController,84,_Header_,End,1736432717412,undefined,618,knowledge,,negative,positive,A,NULL
1736433178,39c9a38213a970984739bd35e81eb88e,PennController,73,0,test_val,NULL,Selector,unnamed-Selector,Selection,positive,1736432718535,undefined,618,knowledge,,negative,positive,A,negative;positive
1736433178,39c9a38213a970984739bd35e81eb88e,PennController,73,0,test_val,NULL,PennController,84,_Trial_,End,1736432718536,undefined,618,knowledge,,negative,positive,A,NULL
1736433178,39c9a38213a970984739bd35e81eb88e,PennController,83,0,test_val,NULL,PennController,94,_Trial_,Start,1736432718536,undefined,2512,frostbite,,negative,positive,A,NULL
1736433178,39c9a38213a970984739bd35e81eb88e,PennController,83,0,test_val,NULL,PennController,94,_Header_,Start,1736432718536,undefined,2512,frostbite,,negative,positive,A,NULL
1736433178,39c9a38213a970984739bd35e81eb88e,PennController,83,0,test_val,NULL,PennController,94,_Header_,End,1736432718790,undefined,2512,frostbite,,negative,positive,A,NULL
1736433178,39c9a38213a970984739bd35e81eb88e,PennController,83,0,test_val,NULL,Selector,unnamed-Selector,Selection,negative,1736432721807,undefined,2512,frostbite,,negative,positive,A,negative;positive
1736433178,39c9a38213a970984739bd35e81eb88e,PennController,83,0,test_val,NULL,PennController,94,_Trial_,End,1736432721808,undefined,2512,frostbite,,negative,positive,A,NULL
1736433178,39c9a38213a970984739bd35e81eb88e,PennController,46,0,test_val,NULL,PennController,57,_Trial_,Start,1736432721808,undefined,638,hatred,,negative,positive,A,NULL
1736433178,39c9a38213a970984739bd35e81eb88e,PennController,46,0,test_val,NULL,PennController,57,_Header_,Start,1736432721808,undefined,638,hatred,,negative,positive,A,NULL
1736433178,39c9a38213a970984739bd35e81eb88e,PennController,46,0,test_val,NULL,PennController,57,_Header_,End,1736432722060,undefined,638,hatred,,negative,positive,A,NULL
1736433178,39c9a38213a970984739bd35e81eb88e,PennController,46,0,test_val,NULL,Selector,unnamed-Selector,Selection,negative,1736432723202,undefined,638,hatred,,negative,positive,A,negative;positive
1736433178,39c9a38213a970984739bd35e81eb88e,PennController,46,0,test_val,NULL,PennController,57,_Trial_,End,1736432723203,undefined,638,hatred,,negative,positive,A,NULL
1736433178,39c9a38213a970984739bd35e81eb88e,PennController,72,0,test_val,NULL,PennController,83,_Trial_,Start,1736432723204,undefined,608,justice,,negative,positive,A,NULL
1736433178,39c9a38213a970984739bd35e81eb88e,PennController,72,0,test_val,NULL,PennController,83,_Header_,Start,1736432723204,undefined,608,justice,,negative,positive,A,NULL
1736433178,39c9a38213a970984739bd35e81eb88e,PennController,72,0,test_val,NULL,PennController,83,_Header_,End,1736432723454,undefined,608,justice,,negative,positive,A,NULL
1736433178,39c9a38213a970984739bd35e81eb88e,PennController,72,0,test_val,NULL,Selector,unnamed-Selector,Selection,positive,1736432724567,undefined,608,justice,,negative,positive,A,negative;positive
1736433178,39c9a38213a970984739bd35e81eb88e,PennController,72,0,test_val,NULL,PennController,83,_Trial_,End,1736432724568,undefined,608,justice,,negative,positive,A,NULL
1736433178,39c9a38213a970984739bd35e81eb88e,PennController,61,0,test_val,NULL,PennController,72,_Trial_,Start,1736432724569,undefined,671,chipmunk,,negative,positive,A,NULL
1736433178,39c9a38213a970984739bd35e81eb88e,PennController,61,0,test_val,NULL,PennController,72,_Header_,Start,1736432724569,undefined,671,chipmunk,,negative,positive,A,NULL
1736433178,39c9a38213a970984739bd35e81eb88e,PennController,61,0,test_val,NULL,PennController,72,_Header_,End,1736432724820,undefined,671,chipmunk,,negative,positive,A,NULL
1736433178,39c9a38213a970984739bd35e81eb88e,PennController,61,0,test_val,NULL,Selector,unnamed-Selector,Selection,positive,1736432725991,undefined,671,chipmunk,,negative,positive,A,negative;positive
1736433178,39c9a38213a970984739bd35e81eb88e,PennController,61,0,test_val,NULL,PennController,72,_Trial_,End,1736432725992,undefined,671,chipmunk,,negative,positive,A,NULL
1736433178,39c9a38213a970984739bd35e81eb88e,PennController,47,0,test_val,NULL,PennController,58,_Trial_,Start,1736432725993,undefined,897,breakup,,negative,positive,A,NULL
1736433178,39c9a38213a970984739bd35e81eb88e,PennController,47,0,test_val,NULL,PennController,58,_Header_,Start,1736432725993,undefined,897,breakup,,negative,positive,A,NULL
1736433178,39c9a38213a970984739bd35e81eb88e,PennController,47,0,test_val,NULL,PennController,58,_Header_,End,1736432726246,undefined,897,breakup,,negative,positive,A,NULL
1736433178,39c9a38213a970984739bd35e81eb88e,PennController,47,0,test_val,NULL,Selector,unnamed-Selector,Selection,negative,1736432727643,undefined,897,breakup,,negative,positive,A,negative;positive
1736433178,39c9a38213a970984739bd35e81eb88e,PennController,47,0,test_val,NULL,PennController,58,_Trial_,End,1736432727644,undefined,897,breakup,,negative,positive,A,NULL
1736433178,39c9a38213a970984739bd35e81eb88e,PennController,62,0,test_val,NULL,PennController,73,_Trial_,Start,1736432727644,undefined,911,pancake,,negative,positive,A,NULL
1736433178,39c9a38213a970984739bd35e81eb88e,PennController,62,0,test_val,NULL,PennController,73,_Header_,Start,1736432727644,undefined,911,pancake,,negative,positive,A,NULL
1736433178,39c9a38213a970984739bd35e81eb88e,PennController,62,0,test_val,NULL,PennController,73,_Header_,End,1736432727896,undefined,911,pancake,,negative,positive,A,NULL
1736433178,39c9a38213a970984739bd35e81eb88e,PennController,62,0,test_val,NULL,Selector,unnamed-Selector,Selection,positive,1736432729307,undefined,911,pancake,,negative,positive,A,negative;positive
1736433178,39c9a38213a970984739bd35e81eb88e,PennController,62,0,test_val,NULL,PennController,73,_Trial_,End,1736432729308,undefined,911,pancake,,negative,positive,A,NULL
1736433178,39c9a38213a970984739bd35e81eb88e,PennController,48,0,test_val,NULL,PennController,59,_Trial_,Start,1736432729309,undefined,672,loathing,,negative,positive,A,NULL
1736433178,39c9a38213a970984739bd35e81eb88e,PennController,48,0,test_val,NULL,PennController,59,_Header_,Start,1736432729309,undefined,672,loathing,,negative,positive,A,NULL
1736433178,39c9a38213a970984739bd35e81eb88e,PennController,48,0,test_val,NULL,PennController,59,_Header_,End,1736432729560,undefined,672,loathing,,negative,positive,A,NULL
1736433178,39c9a38213a970984739bd35e81eb88e,PennController,48,0,test_val,NULL,Selector,unnamed-Selector,Selection,negative,1736432730732,undefined,672,loathing,,negative,positive,A,negative;positive
1736433178,39c9a38213a970984739bd35e81eb88e,PennController,48,0,test_val,NULL,PennController,59,_Trial_,End,1736432730732,undefined,672,loathing,,negative,positive,A,NULL
1736433178,39c9a38213a970984739bd35e81eb88e,PennController,69,0,test_val,NULL,PennController,80,_Trial_,Start,1736432730733,undefined,673,splendor,,negative,positive,A,NULL
1736433178,39c9a38213a970984739bd35e81eb88e,PennController,69,0,test_val,NULL,PennController,80,_Header_,Start,1736432730733,undefined,673,splendor,,negative,positive,A,NULL
1736433178,39c9a38213a970984739bd35e81eb88e,PennController,69,0,test_val,NULL,PennController,80,_Header_,End,1736432730983,undefined,673,splendor,,negative,positive,A,NULL
1736433178,39c9a38213a970984739bd35e81eb88e,PennController,69,0,test_val,NULL,Selector,unnamed-Selector,Selection,positive,1736432732160,undefined,673,splendor,,negative,positive,A,negative;positive
1736433178,39c9a38213a970984739bd35e81eb88e,PennController,69,0,test_val,NULL,PennController,80,_Trial_,End,1736432732160,undefined,673,splendor,,negative,positive,A,NULL
1736433178,39c9a38213a970984739bd35e81eb88e,PennController,54,0,test_val,NULL,PennController,65,_Trial_,Start,1736432732161,undefined,730,pizza,,negative,positive,A,NULL
1736433178,39c9a38213a970984739bd35e81eb88e,PennController,54,0,test_val,NULL,PennController,65,_Header_,Start,1736432732161,undefined,730,pizza,,negative,positive,A,NULL
1736433178,39c9a38213a970984739bd35e81eb88e,PennController,54,0,test_val,NULL,PennController,65,_Header_,End,1736432732412,undefined,730,pizza,,negative,positive,A,NULL
1736433178,39c9a38213a970984739bd35e81eb88e,PennController,54,0,test_val,NULL,Selector,unnamed-Selector,Selection,positive,1736432733644,undefined,730,pizza,,negative,positive,A,negative;positive
1736433178,39c9a38213a970984739bd35e81eb88e,PennController,54,0,test_val,NULL,PennController,65,_Trial_,End,1736432733644,undefined,730,pizza,,negative,positive,A,NULL
1736433178,39c9a38213a970984739bd35e81eb88e,PennController,79,0,test_val,NULL,PennController,90,_Trial_,Start,1736432733645,undefined,532,cockroach,,negative,positive,A,NULL
1736433178,39c9a38213a970984739bd35e81eb88e,PennController,79,0,test_val,NULL,PennController,90,_Header_,Start,1736432733645,undefined,532,cockroach,,negative,positive,A,NULL
1736433178,39c9a38213a970984739bd35e81eb88e,PennController,79,0,test_val,NULL,PennController,90,_Header_,End,1736432733897,undefined,532,cockroach,,negative,positive,A,NULL
1736433178,39c9a38213a970984739bd35e81eb88e,PennController,79,0,test_val,NULL,Selector,unnamed-Selector,Selection,negative,1736432734930,undefined,532,cockroach,,negative,positive,A,negative;positive
1736433178,39c9a38213a970984739bd35e81eb88e,PennController,79,0,test_val,NULL,PennController,90,_Trial_,End,1736432734931,undefined,532,cockroach,,negative,positive,A,NULL
1736433178,39c9a38213a970984739bd35e81eb88e,PennController,70,0,test_val,NULL,PennController,81,_Trial_,Start,1736432734932,undefined,851,fairness,,negative,positive,A,NULL
1736433178,39c9a38213a970984739bd35e81eb88e,PennController,70,0,test_val,NULL,PennController,81,_Header_,Start,1736432734932,undefined,851,fairness,,negative,positive,A,NULL
1736433178,39c9a38213a970984739bd35e81eb88e,PennController,70,0,test_val,NULL,PennController,81,_Header_,End,1736432735185,undefined,851,fairness,,negative,positive,A,NULL
1736433178,39c9a38213a970984739bd35e81eb88e,PennController,70,0,test_val,NULL,Selector,unnamed-Selector,Selection,positive,1736432736537,undefined,851,fairness,,negative,positive,A,negative;positive
1736433178,39c9a38213a970984739bd35e81eb88e,PennController,70,0,test_val,NULL,PennController,81,_Trial_,End,1736432736538,undefined,851,fairness,,negative,positive,A,NULL
1736433178,39c9a38213a970984739bd35e81eb88e,PennController,75,0,test_val,NULL,PennController,86,_Trial_,Start,1736432736539,undefined,623,maggot,,negative,positive,A,NULL
1736433178,39c9a38213a970984739bd35e81eb88e,PennController,75,0,test_val,NULL,PennController,86,_Header_,Start,1736432736539,undefined,623,maggot,,negative,positive,A,NULL
1736433178,39c9a38213a970984739bd35e81eb88e,PennController,75,0,test_val,NULL,PennController,86,_Header_,End,1736432736790,undefined,623,maggot,,negative,positive,A,NULL
1736433178,39c9a38213a970984739bd35e81eb88e,PennController,75,0,test_val,NULL,Selector,unnamed-Selector,Selection,negative,1736432737916,undefined,623,maggot,,negative,positive,A,negative;positive
1736433178,39c9a38213a970984739bd35e81eb88e,PennController,75,0,test_val,NULL,PennController,86,_Trial_,End,1736432737916,undefined,623,maggot,,negative,positive,A,NULL
1736433178,39c9a38213a970984739bd35e81eb88e,PennController,52,0,test_val,NULL,PennController,63,_Trial_,Start,1736432737917,undefined,593,sadness,,negative,positive,A,NULL
1736433178,39c9a38213a970984739bd35e81eb88e,PennController,52,0,test_val,NULL,PennController,63,_Header_,Start,1736432737917,undefined,593,sadness,,negative,positive,A,NULL
1736433178,39c9a38213a970984739bd35e81eb88e,PennController,52,0,test_val,NULL,PennController,63,_Header_,End,1736432738168,undefined,593,sadness,,negative,positive,A,NULL
1736433178,39c9a38213a970984739bd35e81eb88e,PennController,52,0,test_val,NULL,Selector,unnamed-Selector,Selection,negative,1736432739267,undefined,593,sadness,,negative,positive,A,negative;positive
1736433178,39c9a38213a970984739bd35e81eb88e,PennController,52,0,test_val,NULL,PennController,63,_Trial_,End,1736432739268,undefined,593,sadness,,negative,positive,A,NULL
1736433178,39c9a38213a970984739bd35e81eb88e,PennController,50,0,test_val,NULL,PennController,61,_Trial_,Start,1736432739268,undefined,671,contempt,,negative,positive,A,NULL
1736433178,39c9a38213a970984739bd35e81eb88e,PennController,50,0,test_val,NULL,PennController,61,_Header_,Start,1736432739268,undefined,671,contempt,,negative,positive,A,NULL
1736433178,39c9a38213a970984739bd35e81eb88e,PennController,50,0,test_val,NULL,PennController,61,_Header_,End,1736432739523,undefined,671,contempt,,negative,positive,A,NULL
1736433178,39c9a38213a970984739bd35e81eb88e,PennController,50,0,test_val,NULL,Selector,unnamed-Selector,Selection,negative,1736432740695,undefined,671,contempt,,negative,positive,A,negative;positive
1736433178,39c9a38213a970984739bd35e81eb88e,PennController,50,0,test_val,NULL,PennController,61,_Trial_,End,1736432740696,undefined,671,contempt,,negative,positive,A,NULL
1736433178,39c9a38213a970984739bd35e81eb88e,PennController,60,0,test_val,NULL,PennController,71,_Trial_,Start,1736432740696,undefined,635,blanket,,negative,positive,A,NULL
1736433178,39c9a38213a970984739bd35e81eb88e,PennController,60,0,test_val,NULL,PennController,71,_Header_,Start,1736432740696,undefined,635,blanket,,negative,positive,A,NULL
1736433178,39c9a38213a970984739bd35e81eb88e,PennController,60,0,test_val,NULL,PennController,71,_Header_,End,1736432740948,undefined,635,blanket,,negative,positive,A,NULL
1736433178,39c9a38213a970984739bd35e81eb88e,PennController,60,0,test_val,NULL,Selector,unnamed-Selector,Selection,positive,1736432742086,undefined,635,blanket,,negative,positive,A,negative;positive
1736433178,39c9a38213a970984739bd35e81eb88e,PennController,60,0,test_val,NULL,PennController,71,_Trial_,End,1736432742086,undefined,635,blanket,,negative,positive,A,NULL
1736433178,39c9a38213a970984739bd35e81eb88e,PennController,45,0,test_val,NULL,PennController,56,_Trial_,Start,1736432742086,undefined,720,betrayal,,negative,positive,A,NULL
1736433178,39c9a38213a970984739bd35e81eb88e,PennController,45,0,test_val,NULL,PennController,56,_Header_,Start,1736432742086,undefined,720,betrayal,,negative,positive,A,NULL
1736433178,39c9a38213a970984739bd35e81eb88e,PennController,45,0,test_val,NULL,PennController,56,_Header_,End,1736432742336,undefined,720,betrayal,,negative,positive,A,NULL
1736433178,39c9a38213a970984739bd35e81eb88e,PennController,45,0,test_val,NULL,Selector,unnamed-Selector,Selection,negative,1736432743556,undefined,720,betrayal,,negative,positive,A,negative;positive
1736433178,39c9a38213a970984739bd35e81eb88e,PennController,45,0,test_val,NULL,PennController,56,_Trial_,End,1736432743557,undefined,720,betrayal,,negative,positive,A,NULL
1736433178,39c9a38213a970984739bd35e81eb88e,PennController,64,0,test_val,NULL,PennController,75,_Trial_,Start,1736432743557,undefined,716,wisdom,,negative,positive,A,NULL
1736433178,39c9a38213a970984739bd35e81eb88e,PennController,64,0,test_val,NULL,PennController,75,_Header_,Start,1736432743557,undefined,716,wisdom,,negative,positive,A,NULL
1736433178,39c9a38213a970984739bd35e81eb88e,PennController,64,0,test_val,NULL,PennController,75,_Header_,End,1736432743807,undefined,716,wisdom,,negative,positive,A,NULL
1736433178,39c9a38213a970984739bd35e81eb88e,PennController,64,0,test_val,NULL,Selector,unnamed-Selector,Selection,positive,1736432745027,undefined,716,wisdom,,negative,positive,A,negative;positive
1736433178,39c9a38213a970984739bd35e81eb88e,PennController,64,0,test_val,NULL,PennController,75,_Trial_,End,1736432745027,undefined,716,wisdom,,negative,positive,A,NULL
1736433178,39c9a38213a970984739bd35e81eb88e,PennController,63,0,test_val,NULL,PennController,74,_Trial_,Start,1736432745028,undefined,971,sandwich,,negative,positive,A,NULL
1736433178,39c9a38213a970984739bd35e81eb88e,PennController,63,0,test_val,NULL,PennController,74,_Header_,Start,1736432745028,undefined,971,sandwich,,negative,positive,A,NULL
1736433178,39c9a38213a970984739bd35e81eb88e,PennController,63,0,test_val,NULL,PennController,74,_Header_,End,1736432745280,undefined,971,sandwich,,negative,positive,A,NULL
1736433178,39c9a38213a970984739bd35e81eb88e,PennController,63,0,test_val,NULL,Selector,unnamed-Selector,Selection,positive,1736432746752,undefined,971,sandwich,,negative,positive,A,negative;positive
1736433178,39c9a38213a970984739bd35e81eb88e,PennController,63,0,test_val,NULL,PennController,74,_Trial_,End,1736432746752,undefined,971,sandwich,,negative,positive,A,NULL
1736433178,39c9a38213a970984739bd35e81eb88e,PennController,77,0,test_val,NULL,PennController,88,_Trial_,Start,1736432746753,undefined,970,traffic,,negative,positive,A,NULL
1736433178,39c9a38213a970984739bd35e81eb88e,PennController,77,0,test_val,NULL,PennController,88,_Header_,Start,1736432746753,undefined,970,traffic,,negative,positive,A,NULL
1736433178,39c9a38213a970984739bd35e81eb88e,PennController,77,0,test_val,NULL,PennController,88,_Header_,End,1736432747006,undefined,970,traffic,,negative,positive,A,NULL
1736433178,39c9a38213a970984739bd35e81eb88e,PennController,77,0,test_val,NULL,Selector,unnamed-Selector,Selection,negative,1736432748477,undefined,970,traffic,,negative,positive,A,negative;positive
1736433178,39c9a38213a970984739bd35e81eb88e,PennController,77,0,test_val,NULL,PennController,88,_Trial_,End,1736432748477,undefined,970,traffic,,negative,positive,A,NULL
1736433178,39c9a38213a970984739bd35e81eb88e,PennController,81,0,test_val,NULL,PennController,92,_Trial_,Start,1736432748478,undefined,578,prison,,negative,positive,A,NULL
1736433178,39c9a38213a970984739bd35e81eb88e,PennController,81,0,test_val,NULL,PennController,92,_Header_,Start,1736432748478,undefined,578,prison,,negative,positive,A,NULL
1736433178,39c9a38213a970984739bd35e81eb88e,PennController,81,0,test_val,NULL,PennController,92,_Header_,End,1736432748728,undefined,578,prison,,negative,positive,A,NULL
1736433178,39c9a38213a970984739bd35e81eb88e,PennController,81,0,test_val,NULL,Selector,unnamed-Selector,Selection,negative,1736432749811,undefined,578,prison,,negative,positive,A,negative;positive
1736433178,39c9a38213a970984739bd35e81eb88e,PennController,81,0,test_val,NULL,PennController,92,_Trial_,End,1736432749811,undefined,578,prison,,negative,positive,A,NULL
1736433178,39c9a38213a970984739bd35e81eb88e,PennController,58,0,test_val,NULL,PennController,69,_Trial_,Start,1736432749812,undefined,593,bunny,,negative,positive,A,NULL
1736433178,39c9a38213a970984739bd35e81eb88e,PennController,58,0,test_val,NULL,PennController,69,_Header_,Start,1736432749812,undefined,593,bunny,,negative,positive,A,NULL
1736433178,39c9a38213a970984739bd35e81eb88e,PennController,58,0,test_val,NULL,PennController,69,_Header_,End,1736432750065,undefined,593,bunny,,negative,positive,A,NULL
1736433178,39c9a38213a970984739bd35e81eb88e,PennController,58,0,test_val,NULL,Selector,unnamed-Selector,Selection,positive,1736432751162,undefined,593,bunny,,negative,positive,A,negative;positive
1736433178,39c9a38213a970984739bd35e81eb88e,PennController,58,0,test_val,NULL,PennController,69,_Trial_,End,1736432751162,undefined,593,bunny,,negative,positive,A,NULL
1736433178,39c9a38213a970984739bd35e81eb88e,PennController,57,0,test_val,NULL,PennController,68,_Trial_,Start,1736432751163,undefined,2004,duckling,,negative,positive,A,NULL
1736433178,39c9a38213a970984739bd35e81eb88e,PennController,57,0,test_val,NULL,PennController,68,_Header_,Start,1736432751163,undefined,2004,duckling,,negative,positive,A,NULL
1736433178,39c9a38213a970984739bd35e81eb88e,PennController,57,0,test_val,NULL,PennController,68,_Header_,End,1736432751413,undefined,2004,duckling,,negative,positive,A,NULL
1736433178,39c9a38213a970984739bd35e81eb88e,PennController,57,0,test_val,NULL,Selector,unnamed-Selector,Selection,positive,1736432753923,undefined,2004,duckling,,negative,positive,A,negative;positive
1736433178,39c9a38213a970984739bd35e81eb88e,PennController,57,0,test_val,NULL,PennController,68,_Trial_,End,1736432753923,undefined,2004,duckling,,negative,positive,A,NULL
1736433178,39c9a38213a970984739bd35e81eb88e,PennController,65,0,test_val,NULL,PennController,76,_Trial_,Start,1736432753923,undefined,665,greatness,,negative,positive,A,NULL
1736433178,39c9a38213a970984739bd35e81eb88e,PennController,65,0,test_val,NULL,PennController,76,_Header_,Start,1736432753923,undefined,665,greatness,,negative,positive,A,NULL
1736433178,39c9a38213a970984739bd35e81eb88e,PennController,65,0,test_val,NULL,PennController,76,_Header_,End,1736432754177,undefined,665,greatness,,negative,positive,A,NULL
1736433178,39c9a38213a970984739bd35e81eb88e,PennController,65,0,test_val,NULL,Selector,unnamed-Selector,Selection,positive,1736432755347,undefined,665,greatness,,negative,positive,A,negative;positive
1736433178,39c9a38213a970984739bd35e81eb88e,PennController,65,0,test_val,NULL,PennController,76,_Trial_,End,1736432755347,undefined,665,greatness,,negative,positive,A,NULL
1736433178,39c9a38213a970984739bd35e81eb88e,PennController,66,0,test_val,NULL,PennController,77,_Trial_,Start,1736432755348,undefined,844,fondness,,negative,positive,A,NULL
1736433178,39c9a38213a970984739bd35e81eb88e,PennController,66,0,test_val,NULL,PennController,77,_Header_,Start,1736432755348,undefined,844,fondness,,negative,positive,A,NULL
1736433178,39c9a38213a970984739bd35e81eb88e,PennController,66,0,test_val,NULL,PennController,77,_Header_,End,1736432755599,undefined,844,fondness,,negative,positive,A,NULL
1736433178,39c9a38213a970984739bd35e81eb88e,PennController,66,0,test_val,NULL,Selector,unnamed-Selector,Selection,positive,1736432756953,undefined,844,fondness,,negative,positive,A,negative;positive
1736433178,39c9a38213a970984739bd35e81eb88e,PennController,66,0,test_val,NULL,PennController,77,_Trial_,End,1736432756953,undefined,844,fondness,,negative,positive,A,NULL
1736433178,39c9a38213a970984739bd35e81eb88e,PennController,71,0,test_val,NULL,PennController,82,_Trial_,Start,1736432756954,undefined,681,wellness,,negative,positive,A,NULL
1736433178,39c9a38213a970984739bd35e81eb88e,PennController,71,0,test_val,NULL,PennController,82,_Header_,Start,1736432756954,undefined,681,wellness,,negative,positive,A,NULL
1736433178,39c9a38213a970984739bd35e81eb88e,PennController,71,0,test_val,NULL,PennController,82,_Header_,End,1736432757207,undefined,681,wellness,,negative,positive,A,NULL
1736433178,39c9a38213a970984739bd35e81eb88e,PennController,71,0,test_val,NULL,Selector,unnamed-Selector,Selection,positive,1736432758391,undefined,681,wellness,,negative,positive,A,negative;positive
1736433178,39c9a38213a970984739bd35e81eb88e,PennController,71,0,test_val,NULL,PennController,82,_Trial_,End,1736432758391,undefined,681,wellness,,negative,positive,A,NULL
1736433178,39c9a38213a970984739bd35e81eb88e,PennController,56,0,test_val,NULL,PennController,67,_Trial_,Start,1736432758391,undefined,1005,doughnut,,negative,positive,A,NULL
1736433178,39c9a38213a970984739bd35e81eb88e,PennController,56,0,test_val,NULL,PennController,67,_Header_,Start,1736432758391,undefined,1005,doughnut,,negative,positive,A,NULL
1736433178,39c9a38213a970984739bd35e81eb88e,PennController,56,0,test_val,NULL,PennController,67,_Header_,End,1736432758642,undefined,1005,doughnut,,negative,positive,A,NULL
1736433178,39c9a38213a970984739bd35e81eb88e,PennController,56,0,test_val,NULL,Selector,unnamed-Selector,Selection,positive,1736432760147,undefined,1005,doughnut,,negative,positive,A,negative;positive
1736433178,39c9a38213a970984739bd35e81eb88e,PennController,56,0,test_val,NULL,PennController,67,_Trial_,End,1736432760147,undefined,1005,doughnut,,negative,positive,A,NULL
1736433178,39c9a38213a970984739bd35e81eb88e,PennController,53,0,test_val,NULL,PennController,64,_Trial_,Start,1736432760148,undefined,579,bummer,,negative,positive,A,NULL
1736433178,39c9a38213a970984739bd35e81eb88e,PennController,53,0,test_val,NULL,PennController,64,_Header_,Start,1736432760148,undefined,579,bummer,,negative,positive,A,NULL
1736433178,39c9a38213a970984739bd35e81eb88e,PennController,53,0,test_val,NULL,PennController,64,_Header_,End,1736432760400,undefined,579,bummer,,negative,positive,A,NULL
1736433178,39c9a38213a970984739bd35e81eb88e,PennController,53,0,test_val,NULL,Selector,unnamed-Selector,Selection,negative,1736432761482,undefined,579,bummer,,negative,positive,A,negative;positive
1736433178,39c9a38213a970984739bd35e81eb88e,PennController,53,0,test_val,NULL,PennController,64,_Trial_,End,1736432761483,undefined,579,bummer,,negative,positive,A,NULL
1736433178,39c9a38213a970984739bd35e81eb88e,PennController,80,0,test_val,NULL,PennController,91,_Trial_,Start,1736432761483,undefined,847,bedpan,,negative,positive,A,NULL
1736433178,39c9a38213a970984739bd35e81eb88e,PennController,80,0,test_val,NULL,PennController,91,_Header_,Start,1736432761483,undefined,847,bedpan,,negative,positive,A,NULL
1736433178,39c9a38213a970984739bd35e81eb88e,PennController,80,0,test_val,NULL,PennController,91,_Header_,End,1736432761737,undefined,847,bedpan,,negative,positive,A,NULL
1736433178,39c9a38213a970984739bd35e81eb88e,PennController,80,0,test_val,NULL,Selector,unnamed-Selector,Selection,negative,1736432763087,undefined,847,bedpan,,negative,positive,A,negative;positive
1736433178,39c9a38213a970984739bd35e81eb88e,PennController,80,0,test_val,NULL,PennController,91,_Trial_,End,1736432763088,undefined,847,bedpan,,negative,positive,A,NULL
1736433178,39c9a38213a970984739bd35e81eb88e,PennController,68,0,test_val,NULL,PennController,79,_Trial_,Start,1736432763088,undefined,804,goodness,,negative,positive,A,NULL
1736433178,39c9a38213a970984739bd35e81eb88e,PennController,68,0,test_val,NULL,PennController,79,_Header_,Start,1736432763088,undefined,804,goodness,,negative,positive,A,NULL
1736433178,39c9a38213a970984739bd35e81eb88e,PennController,68,0,test_val,NULL,PennController,79,_Header_,End,1736432763340,undefined,804,goodness,,negative,positive,A,NULL
1736433178,39c9a38213a970984739bd35e81eb88e,PennController,68,0,test_val,NULL,Selector,unnamed-Selector,Selection,positive,1736432764646,undefined,804,goodness,,negative,positive,A,negative;positive
1736433178,39c9a38213a970984739bd35e81eb88e,PennController,68,0,test_val,NULL,PennController,79,_Trial_,End,1736432764647,undefined,804,goodness,,negative,positive,A,NULL
1736433178,39c9a38213a970984739bd35e81eb88e,PennController,58,0,test_val,NULL,PennController,69,_Trial_,Start,1736432764648,undefined,594,bunny,,negative,positive,A,NULL
1736433178,39c9a38213a970984739bd35e81eb88e,PennController,58,0,test_val,NULL,PennController,69,_Header_,Start,1736432764648,undefined,594,bunny,,negative,positive,A,NULL
1736433178,39c9a38213a970984739bd35e81eb88e,PennController,58,0,test_val,NULL,PennController,69,_Header_,End,1736432764900,undefined,594,bunny,,negative,positive,A,NULL
1736433178,39c9a38213a970984739bd35e81eb88e,PennController,58,0,test_val,NULL,Selector,unnamed-Selector,Selection,positive,1736432765997,undefined,594,bunny,,negative,positive,A,negative;positive
1736433178,39c9a38213a970984739bd35e81eb88e,PennController,58,0,test_val,NULL,PennController,69,_Trial_,End,1736432765997,undefined,594,bunny,,negative,positive,A,NULL
1736433178,39c9a38213a970984739bd35e81eb88e,PennController,61,0,test_val,NULL,PennController,72,_Trial_,Start,1736432765998,undefined,745,chipmunk,,negative,positive,A,NULL
1736433178,39c9a38213a970984739bd35e81eb88e,PennController,61,0,test_val,NULL,PennController,72,_Header_,Start,1736432765998,undefined,745,chipmunk,,negative,positive,A,NULL
1736433178,39c9a38213a970984739bd35e81eb88e,PennController,61,0,test_val,NULL,PennController,72,_Header_,End,1736432766250,undefined,745,chipmunk,,negative,positive,A,NULL
1736433178,39c9a38213a970984739bd35e81eb88e,PennController,61,0,test_val,NULL,Selector,unnamed-Selector,Selection,positive,1736432767496,undefined,745,chipmunk,,negative,positive,A,negative;positive
1736433178,39c9a38213a970984739bd35e81eb88e,PennController,61,0,test_val,NULL,PennController,72,_Trial_,End,1736432767497,undefined,745,chipmunk,,negative,positive,A,NULL
1736433178,39c9a38213a970984739bd35e81eb88e,PennController,68,0,test_val,NULL,PennController,79,_Trial_,Start,1736432767497,undefined,808,goodness,,negative,positive,A,NULL
1736433178,39c9a38213a970984739bd35e81eb88e,PennController,68,0,test_val,NULL,PennController,79,_Header_,Start,1736432767497,undefined,808,goodness,,negative,positive,A,NULL
1736433178,39c9a38213a970984739bd35e81eb88e,PennController,68,0,test_val,NULL,PennController,79,_Header_,End,1736432767748,undefined,808,goodness,,negative,positive,A,NULL
1736433178,39c9a38213a970984739bd35e81eb88e,PennController,68,0,test_val,NULL,Selector,unnamed-Selector,Selection,positive,1736432769057,undefined,808,goodness,,negative,positive,A,negative;positive
1736433178,39c9a38213a970984739bd35e81eb88e,PennController,68,0,test_val,NULL,PennController,79,_Trial_,End,1736432769058,undefined,808,goodness,,negative,positive,A,NULL
1736433178,39c9a38213a970984739bd35e81eb88e,PennController,46,0,test_val,NULL,PennController,57,_Trial_,Start,1736432769059,undefined,713,hatred,,negative,positive,A,NULL
1736433178,39c9a38213a970984739bd35e81eb88e,PennController,46,0,test_val,NULL,PennController,57,_Header_,Start,1736432769059,undefined,713,hatred,,negative,positive,A,NULL
1736433178,39c9a38213a970984739bd35e81eb88e,PennController,46,0,test_val,NULL,PennController,57,_Header_,End,1736432769312,undefined,713,hatred,,negative,positive,A,NULL
1736433178,39c9a38213a970984739bd35e81eb88e,PennController,46,0,test_val,NULL,Selector,unnamed-Selector,Selection,negative,1736432770528,undefined,713,hatred,,negative,positive,A,negative;positive
1736433178,39c9a38213a970984739bd35e81eb88e,PennController,46,0,test_val,NULL,PennController,57,_Trial_,End,1736432770528,undefined,713,hatred,,negative,positive,A,NULL
1736433178,39c9a38213a970984739bd35e81eb88e,PennController,83,0,test_val,NULL,PennController,94,_Trial_,Start,1736432770529,undefined,832,frostbite,,negative,positive,A,NULL
1736433178,39c9a38213a970984739bd35e81eb88e,PennController,83,0,test_val,NULL,PennController,94,_Header_,Start,1736432770529,undefined,832,frostbite,,negative,positive,A,NULL
