#
# Results on Tue, 15 Apr 2025 16:36:33 GMT
# USER AGENT: Mozilla/5.0 (Macintosh; Intel Mac OS X 10_15_7) AppleWebKit/537.36 (KHTML, like Gecko) Chrome/135.0.0.0 Safari/537.36
# Design number was non-random = 0
#
# Columns below this comment are as follows:
# 1. Results reception time.
# 2. MD5 hash of participant's IP address.
# 3. Controller name.
# 4. Order number of item.
# 5. Inner element number.
# 6. Label.
# 7. Latin Square Group.
# 8. PennElementType.
# 9. PennElementName.
# 10. Parameter.
# 11. Value.
# 12. EventTime.
# 13. Comments.
1744734993,26604675bb5888b6c2d7814718ab70c8,PennController,1,0,welcome,NULL,PennController,0,_Trial_,Start,1744734293492,NULL
1744734993,26604675bb5888b6c2d7814718ab70c8,PennController,1,0,welcome,NULL,PennController,0,_Header_,Start,1744734293493,NULL
1744734993,26604675bb5888b6c2d7814718ab70c8,PennController,1,0,welcome,NULL,PennController,0,_Header_,End,1744734293743,NULL
1744734993,26604675bb5888b6c2d7814718ab70c8,PennController,1,0,welcome,NULL,PennController,0,_Trial_,End,1744734303254,NULL
# 13. ID.
# 14. Comments.
1744734993,26604675bb5888b6c2d7814718ab70c8,PennController,124,0,consent,NULL,PennController,2,_Trial_,Start,1744734303257,6525756df17f4848fa86309b,NULL
1744734993,26604675bb5888b6c2d7814718ab70c8,PennController,124,0,consent,NULL,PennController,2,_Header_,Start,1744734303257,6525756df17f4848fa86309b,NULL
1744734993,26604675bb5888b6c2d7814718ab70c8,PennController,124,0,consent,NULL,PennController,2,_Header_,End,1744734303509,6525756df17f4848fa86309b,NULL
1744734993,26604675bb5888b6c2d7814718ab70c8,PennController,124,0,consent,NULL,TextInput,ID,Final,6525756df17f4848fa86309b,1744734317307,6525756df17f4848fa86309b,NULL
1744734993,26604675bb5888b6c2d7814718ab70c8,PennController,124,0,consent,NULL,TextInput,ID,First,,1744734314914,6525756df17f4848fa86309b,Meta
1744734993,26604675bb5888b6c2d7814718ab70c8,PennController,124,0,consent,NULL,PennController,2,_Trial_,End,1744734317307,6525756df17f4848fa86309b,NULL
# 13. Comments.
1744734993,26604675bb5888b6c2d7814718ab70c8,PennController,126,0,instructions1_val,NULL,PennController,4,_Trial_,Start,1744734317307,NULL
1744734993,26604675bb5888b6c2d7814718ab70c8,PennController,126,0,instructions1_val,NULL,PennController,4,_Header_,Start,1744734317307,NULL
1744734993,26604675bb5888b6c2d7814718ab70c8,PennController,126,0,instructions1_val,NULL,PennController,4,_Header_,End,1744734317561,NULL
1744734993,26604675bb5888b6c2d7814718ab70c8,PennController,126,0,instructions1_val,NULL,PennController,4,_Trial_,End,1744734342226,NULL
1744734993,26604675bb5888b6c2d7814718ab70c8,PennController,127,0,instructions2_val,NULL,PennController,5,_Trial_,Start,1744734342227,NULL
1744734993,26604675bb5888b6c2d7814718ab70c8,PennController,127,0,instructions2_val,NULL,PennController,5,_Header_,Start,1744734342227,NULL
1744734993,26604675bb5888b6c2d7814718ab70c8,PennController,127,0,instructions2_val,NULL,PennController,5,_Header_,End,1744734342480,NULL
1744734993,26604675bb5888b6c2d7814718ab70c8,PennController,127,0,instructions2_val,NULL,PennController,5,_Trial_,End,1744734350667,NULL
1744734993,26604675bb5888b6c2d7814718ab70c8,PennController,128,0,instructions3_hands,NULL,PennController,6,_Trial_,Start,1744734350668,NULL
1744734993,26604675bb5888b6c2d7814718ab70c8,PennController,128,0,instructions3_hands,NULL,PennController,6,_Header_,Start,1744734350668,NULL
1744734993,26604675bb5888b6c2d7814718ab70c8,PennController,128,0,instructions3_hands,NULL,PennController,6,_Header_,End,1744734350918,NULL
1744734993,26604675bb5888b6c2d7814718ab70c8,PennController,128,0,instructions3_hands,NULL,PennController,6,_Trial_,End,1744734362999,NULL
1744734993,26604675bb5888b6c2d7814718ab70c8,PennController,129,0,practice_intro_val,NULL,PennController,7,_Trial_,Start,1744734363000,NULL
1744734993,26604675bb5888b6c2d7814718ab70c8,PennController,129,0,practice_intro_val,NULL,PennController,7,_Header_,Start,1744734363000,NULL
1744734993,26604675bb5888b6c2d7814718ab70c8,PennController,129,0,practice_intro_val,NULL,PennController,7,_Header_,End,1744734363252,NULL
1744734993,26604675bb5888b6c2d7814718ab70c8,PennController,129,0,practice_intro_val,NULL,PennController,7,_Trial_,End,1744734366069,NULL
# 13. ID.
# 14. ReactionTime.
# 15. Word.
# 16. selectedKey.
# 17. selectedValue.
# 18. Key_value_F.
# 19. Key_value_J.
# 20. Group.
# 21. Comments.
1744734993,26604675bb5888b6c2d7814718ab70c8,PennController,106,0,calibrator_val_feedback,NULL,PennController,117,_Trial_,Start,1744734366071,undefined,3128,hat,undefined,positive,negative,positive,B,NULL
1744734993,26604675bb5888b6c2d7814718ab70c8,PennController,106,0,calibrator_val_feedback,NULL,PennController,117,_Header_,Start,1744734366071,undefined,3128,hat,undefined,positive,negative,positive,B,NULL
1744734993,26604675bb5888b6c2d7814718ab70c8,PennController,106,0,calibrator_val_feedback,NULL,PennController,117,_Header_,End,1744734366323,undefined,3128,hat,undefined,positive,negative,positive,B,NULL
1744734993,26604675bb5888b6c2d7814718ab70c8,PennController,106,0,calibrator_val_feedback,NULL,Selector,Selection,Selection,positive,1744734369955,undefined,3128,hat,undefined,positive,negative,positive,B,negative;positive
1744734993,26604675bb5888b6c2d7814718ab70c8,PennController,106,0,calibrator_val_feedback,NULL,PennController,117,_Trial_,End,1744734371963,undefined,3128,hat,undefined,positive,negative,positive,B,NULL
1744734993,26604675bb5888b6c2d7814718ab70c8,PennController,110,0,calibrator_val_feedback,NULL,PennController,121,_Trial_,Start,1744734371965,undefined,1612,invader,undefined,positive,negative,positive,B,NULL
1744734993,26604675bb5888b6c2d7814718ab70c8,PennController,110,0,calibrator_val_feedback,NULL,PennController,121,_Header_,Start,1744734371965,undefined,1612,invader,undefined,positive,negative,positive,B,NULL
1744734993,26604675bb5888b6c2d7814718ab70c8,PennController,110,0,calibrator_val_feedback,NULL,PennController,121,_Header_,End,1744734372215,undefined,1612,invader,undefined,positive,negative,positive,B,NULL
1744734993,26604675bb5888b6c2d7814718ab70c8,PennController,110,0,calibrator_val_feedback,NULL,Selector,Selection,Selection,negative,1744734374328,undefined,1612,invader,undefined,positive,negative,positive,B,negative;positive
1744734993,26604675bb5888b6c2d7814718ab70c8,PennController,110,0,calibrator_val_feedback,NULL,PennController,121,_Trial_,End,1744734376333,undefined,1612,invader,undefined,positive,negative,positive,B,NULL
1744734993,26604675bb5888b6c2d7814718ab70c8,PennController,108,0,calibrator_val_feedback,NULL,PennController,119,_Trial_,Start,1744734376334,undefined,2142,industry,undefined,positive,negative,positive,B,NULL
1744734993,26604675bb5888b6c2d7814718ab70c8,PennController,108,0,calibrator_val_feedback,NULL,PennController,119,_Header_,Start,1744734376334,undefined,2142,industry,undefined,positive,negative,positive,B,NULL
1744734993,26604675bb5888b6c2d7814718ab70c8,PennController,108,0,calibrator_val_feedback,NULL,PennController,119,_Header_,End,1744734376584,undefined,2142,industry,undefined,positive,negative,positive,B,NULL
1744734993,26604675bb5888b6c2d7814718ab70c8,PennController,108,0,calibrator_val_feedback,NULL,Selector,Selection,Selection,negative,1744734379226,undefined,2142,industry,undefined,positive,negative,positive,B,negative;positive
1744734993,26604675bb5888b6c2d7814718ab70c8,PennController,108,0,calibrator_val_feedback,NULL,PennController,119,_Trial_,End,1744734381231,undefined,2142,industry,undefined,positive,negative,positive,B,NULL
1744734993,26604675bb5888b6c2d7814718ab70c8,PennController,109,0,calibrator_val_feedback,NULL,PennController,120,_Trial_,Start,1744734381233,undefined,1742,insecure,undefined,positive,negative,positive,B,NULL
1744734993,26604675bb5888b6c2d7814718ab70c8,PennController,109,0,calibrator_val_feedback,NULL,PennController,120,_Header_,Start,1744734381233,undefined,1742,insecure,undefined,positive,negative,positive,B,NULL
1744734993,26604675bb5888b6c2d7814718ab70c8,PennController,109,0,calibrator_val_feedback,NULL,PennController,120,_Header_,End,1744734381483,undefined,1742,insecure,undefined,positive,negative,positive,B,NULL
1744734993,26604675bb5888b6c2d7814718ab70c8,PennController,109,0,calibrator_val_feedback,NULL,Selector,Selection,Selection,negative,1744734383729,undefined,1742,insecure,undefined,positive,negative,positive,B,negative;positive
1744734993,26604675bb5888b6c2d7814718ab70c8,PennController,109,0,calibrator_val_feedback,NULL,PennController,120,_Trial_,End,1744734385731,undefined,1742,insecure,undefined,positive,negative,positive,B,NULL
1744734993,26604675bb5888b6c2d7814718ab70c8,PennController,112,0,calibrator_val_feedback,NULL,PennController,123,_Trial_,Start,1744734385732,undefined,1548,joke,undefined,positive,negative,positive,B,NULL
1744734993,26604675bb5888b6c2d7814718ab70c8,PennController,112,0,calibrator_val_feedback,NULL,PennController,123,_Header_,Start,1744734385732,undefined,1548,joke,undefined,positive,negative,positive,B,NULL
1744734993,26604675bb5888b6c2d7814718ab70c8,PennController,112,0,calibrator_val_feedback,NULL,PennController,123,_Header_,End,1744734385982,undefined,1548,joke,undefined,positive,negative,positive,B,NULL
1744734993,26604675bb5888b6c2d7814718ab70c8,PennController,112,0,calibrator_val_feedback,NULL,Selector,Selection,Selection,positive,1744734388035,undefined,1548,joke,undefined,positive,negative,positive,B,negative;positive
1744734993,26604675bb5888b6c2d7814718ab70c8,PennController,112,0,calibrator_val_feedback,NULL,PennController,123,_Trial_,End,1744734390039,undefined,1548,joke,undefined,positive,negative,positive,B,NULL
1744734993,26604675bb5888b6c2d7814718ab70c8,PennController,105,0,calibrator_val_feedback,NULL,PennController,116,_Trial_,Start,1744734390041,undefined,1031,grin,undefined,positive,negative,positive,B,NULL
1744734993,26604675bb5888b6c2d7814718ab70c8,PennController,105,0,calibrator_val_feedback,NULL,PennController,116,_Header_,Start,1744734390041,undefined,1031,grin,undefined,positive,negative,positive,B,NULL
1744734993,26604675bb5888b6c2d7814718ab70c8,PennController,105,0,calibrator_val_feedback,NULL,PennController,116,_Header_,End,1744734390295,undefined,1031,grin,undefined,positive,negative,positive,B,NULL
1744734993,26604675bb5888b6c2d7814718ab70c8,PennController,105,0,calibrator_val_feedback,NULL,Selector,Selection,Selection,positive,1744734391831,undefined,1031,grin,undefined,positive,negative,positive,B,negative;positive
1744734993,26604675bb5888b6c2d7814718ab70c8,PennController,105,0,calibrator_val_feedback,NULL,PennController,116,_Trial_,End,1744734393839,undefined,1031,grin,undefined,positive,negative,positive,B,NULL
1744734993,26604675bb5888b6c2d7814718ab70c8,PennController,113,0,calibrator_val_feedback,NULL,PennController,124,_Trial_,Start,1744734393841,undefined,1767,kitten,undefined,positive,negative,positive,B,NULL
1744734993,26604675bb5888b6c2d7814718ab70c8,PennController,113,0,calibrator_val_feedback,NULL,PennController,124,_Header_,Start,1744734393841,undefined,1767,kitten,undefined,positive,negative,positive,B,NULL
1744734993,26604675bb5888b6c2d7814718ab70c8,PennController,113,0,calibrator_val_feedback,NULL,PennController,124,_Header_,End,1744734394095,undefined,1767,kitten,undefined,positive,negative,positive,B,NULL
1744734993,26604675bb5888b6c2d7814718ab70c8,PennController,113,0,calibrator_val_feedback,NULL,Selector,Selection,Selection,positive,1744734396364,undefined,1767,kitten,undefined,positive,negative,positive,B,negative;positive
1744734993,26604675bb5888b6c2d7814718ab70c8,PennController,113,0,calibrator_val_feedback,NULL,PennController,124,_Trial_,End,1744734398370,undefined,1767,kitten,undefined,positive,negative,positive,B,NULL
1744734993,26604675bb5888b6c2d7814718ab70c8,PennController,107,0,calibrator_val_feedback,NULL,PennController,118,_Trial_,Start,1744734398372,undefined,2247,icebox,undefined,positive,negative,positive,B,NULL
1744734993,26604675bb5888b6c2d7814718ab70c8,PennController,107,0,calibrator_val_feedback,NULL,PennController,118,_Header_,Start,1744734398372,undefined,2247,icebox,undefined,positive,negative,positive,B,NULL
1744734993,26604675bb5888b6c2d7814718ab70c8,PennController,107,0,calibrator_val_feedback,NULL,PennController,118,_Header_,End,1744734398623,undefined,2247,icebox,undefined,positive,negative,positive,B,NULL
1744734993,26604675bb5888b6c2d7814718ab70c8,PennController,107,0,calibrator_val_feedback,NULL,Selector,Selection,Selection,positive,1744734401374,undefined,2247,icebox,undefined,positive,negative,positive,B,negative;positive
1744734993,26604675bb5888b6c2d7814718ab70c8,PennController,107,0,calibrator_val_feedback,NULL,PennController,118,_Trial_,End,1744734403379,undefined,2247,icebox,undefined,positive,negative,positive,B,NULL
1744734993,26604675bb5888b6c2d7814718ab70c8,PennController,111,0,calibrator_val_feedback,NULL,PennController,122,_Trial_,Start,1744734403380,undefined,1280,jail,undefined,positive,negative,positive,B,NULL
1744734993,26604675bb5888b6c2d7814718ab70c8,PennController,111,0,calibrator_val_feedback,NULL,PennController,122,_Header_,Start,1744734403381,undefined,1280,jail,undefined,positive,negative,positive,B,NULL
1744734993,26604675bb5888b6c2d7814718ab70c8,PennController,111,0,calibrator_val_feedback,NULL,PennController,122,_Header_,End,1744734403631,undefined,1280,jail,undefined,positive,negative,positive,B,NULL
1744734993,26604675bb5888b6c2d7814718ab70c8,PennController,111,0,calibrator_val_feedback,NULL,Selector,Selection,Selection,negative,1744734405415,undefined,1280,jail,undefined,positive,negative,positive,B,negative;positive
1744734993,26604675bb5888b6c2d7814718ab70c8,PennController,111,0,calibrator_val_feedback,NULL,PennController,122,_Trial_,End,1744734407420,undefined,1280,jail,undefined,positive,negative,positive,B,NULL
1744734993,26604675bb5888b6c2d7814718ab70c8,PennController,104,0,calibrator_val_feedback,NULL,PennController,115,_Trial_,Start,1744734407421,undefined,1640,free,undefined,positive,negative,positive,B,NULL
1744734993,26604675bb5888b6c2d7814718ab70c8,PennController,104,0,calibrator_val_feedback,NULL,PennController,115,_Header_,Start,1744734407421,undefined,1640,free,undefined,positive,negative,positive,B,NULL
1744734993,26604675bb5888b6c2d7814718ab70c8,PennController,104,0,calibrator_val_feedback,NULL,PennController,115,_Header_,End,1744734407672,undefined,1640,free,undefined,positive,negative,positive,B,NULL
1744734993,26604675bb5888b6c2d7814718ab70c8,PennController,104,0,calibrator_val_feedback,NULL,Selector,Selection,Selection,positive,1744734409813,undefined,1640,free,undefined,positive,negative,positive,B,negative;positive
1744734993,26604675bb5888b6c2d7814718ab70c8,PennController,104,0,calibrator_val_feedback,NULL,PennController,115,_Trial_,End,1744734411816,undefined,1640,free,undefined,positive,negative,positive,B,NULL
# 16. Key_value_F.
# 17. Key_value_J.
# 18. Group.
# 19. Comments.
1744734993,26604675bb5888b6c2d7814718ab70c8,PennController,121,0,calibrator_val_no_feedback,NULL,PennController,132,_Trial_,Start,1744734411818,undefined,1959,jail,negative,positive,B,NULL
1744734993,26604675bb5888b6c2d7814718ab70c8,PennController,121,0,calibrator_val_no_feedback,NULL,PennController,132,_Header_,Start,1744734411818,undefined,1959,jail,negative,positive,B,NULL
1744734993,26604675bb5888b6c2d7814718ab70c8,PennController,121,0,calibrator_val_no_feedback,NULL,PennController,132,_Header_,End,1744734412070,undefined,1959,jail,negative,positive,B,NULL
1744734993,26604675bb5888b6c2d7814718ab70c8,PennController,121,0,calibrator_val_no_feedback,NULL,Selector,unnamed-Selector,Selection,negative,1744734414531,undefined,1959,jail,negative,positive,B,negative;positive
1744734993,26604675bb5888b6c2d7814718ab70c8,PennController,121,0,calibrator_val_no_feedback,NULL,PennController,132,_Trial_,End,1744734414532,undefined,1959,jail,negative,positive,B,NULL
1744734993,26604675bb5888b6c2d7814718ab70c8,PennController,120,0,calibrator_val_no_feedback,NULL,PennController,131,_Trial_,Start,1744734414532,undefined,890,invader,negative,positive,B,NULL
1744734993,26604675bb5888b6c2d7814718ab70c8,PennController,120,0,calibrator_val_no_feedback,NULL,PennController,131,_Header_,Start,1744734414532,undefined,890,invader,negative,positive,B,NULL
1744734993,26604675bb5888b6c2d7814718ab70c8,PennController,120,0,calibrator_val_no_feedback,NULL,PennController,131,_Header_,End,1744734414786,undefined,890,invader,negative,positive,B,NULL
1744734993,26604675bb5888b6c2d7814718ab70c8,PennController,120,0,calibrator_val_no_feedback,NULL,Selector,unnamed-Selector,Selection,negative,1744734416179,undefined,890,invader,negative,positive,B,negative;positive
1744734993,26604675bb5888b6c2d7814718ab70c8,PennController,120,0,calibrator_val_no_feedback,NULL,PennController,131,_Trial_,End,1744734416180,undefined,890,invader,negative,positive,B,NULL
1744734993,26604675bb5888b6c2d7814718ab70c8,PennController,118,0,calibrator_val_no_feedback,NULL,PennController,129,_Trial_,Start,1744734416182,undefined,1106,industry,negative,positive,B,NULL
1744734993,26604675bb5888b6c2d7814718ab70c8,PennController,118,0,calibrator_val_no_feedback,NULL,PennController,129,_Header_,Start,1744734416182,undefined,1106,industry,negative,positive,B,NULL
1744734993,26604675bb5888b6c2d7814718ab70c8,PennController,118,0,calibrator_val_no_feedback,NULL,PennController,129,_Header_,End,1744734416434,undefined,1106,industry,negative,positive,B,NULL
1744734993,26604675bb5888b6c2d7814718ab70c8,PennController,118,0,calibrator_val_no_feedback,NULL,Selector,unnamed-Selector,Selection,negative,1744734418046,undefined,1106,industry,negative,positive,B,negative;positive
1744734993,26604675bb5888b6c2d7814718ab70c8,PennController,118,0,calibrator_val_no_feedback,NULL,PennController,129,_Trial_,End,1744734418047,undefined,1106,industry,negative,positive,B,NULL
1744734993,26604675bb5888b6c2d7814718ab70c8,PennController,119,0,calibrator_val_no_feedback,NULL,PennController,130,_Trial_,Start,1744734418049,undefined,972,insecure,negative,positive,B,NULL
1744734993,26604675bb5888b6c2d7814718ab70c8,PennController,119,0,calibrator_val_no_feedback,NULL,PennController,130,_Header_,Start,1744734418049,undefined,972,insecure,negative,positive,B,NULL
1744734993,26604675bb5888b6c2d7814718ab70c8,PennController,119,0,calibrator_val_no_feedback,NULL,PennController,130,_Header_,End,1744734418303,undefined,972,insecure,negative,positive,B,NULL
1744734993,26604675bb5888b6c2d7814718ab70c8,PennController,119,0,calibrator_val_no_feedback,NULL,Selector,unnamed-Selector,Selection,negative,1744734419777,undefined,972,insecure,negative,positive,B,negative;positive
1744734993,26604675bb5888b6c2d7814718ab70c8,PennController,119,0,calibrator_val_no_feedback,NULL,PennController,130,_Trial_,End,1744734419778,undefined,972,insecure,negative,positive,B,NULL
1744734993,26604675bb5888b6c2d7814718ab70c8,PennController,116,0,calibrator_val_no_feedback,NULL,PennController,127,_Trial_,Start,1744734419780,undefined,910,hat,negative,positive,B,NULL
1744734993,26604675bb5888b6c2d7814718ab70c8,PennController,116,0,calibrator_val_no_feedback,NULL,PennController,127,_Header_,Start,1744734419780,undefined,910,hat,negative,positive,B,NULL
1744734993,26604675bb5888b6c2d7814718ab70c8,PennController,116,0,calibrator_val_no_feedback,NULL,PennController,127,_Header_,End,1744734420030,undefined,910,hat,negative,positive,B,NULL
1744734993,26604675bb5888b6c2d7814718ab70c8,PennController,116,0,calibrator_val_no_feedback,NULL,Selector,unnamed-Selector,Selection,positive,1744734421442,undefined,910,hat,negative,positive,B,negative;positive
1744734993,26604675bb5888b6c2d7814718ab70c8,PennController,116,0,calibrator_val_no_feedback,NULL,PennController,127,_Trial_,End,1744734421444,undefined,910,hat,negative,positive,B,NULL
1744734993,26604675bb5888b6c2d7814718ab70c8,PennController,123,0,calibrator_val_no_feedback,NULL,PennController,134,_Trial_,Start,1744734421446,undefined,835,kitten,negative,positive,B,NULL
1744734993,26604675bb5888b6c2d7814718ab70c8,PennController,123,0,calibrator_val_no_feedback,NULL,PennController,134,_Header_,Start,1744734421446,undefined,835,kitten,negative,positive,B,NULL
1744734993,26604675bb5888b6c2d7814718ab70c8,PennController,123,0,calibrator_val_no_feedback,NULL,PennController,134,_Header_,End,1744734421697,undefined,835,kitten,negative,positive,B,NULL
1744734993,26604675bb5888b6c2d7814718ab70c8,PennController,123,0,calibrator_val_no_feedback,NULL,Selector,unnamed-Selector,Selection,positive,1744734423037,undefined,835,kitten,negative,positive,B,negative;positive
1744734993,26604675bb5888b6c2d7814718ab70c8,PennController,123,0,calibrator_val_no_feedback,NULL,PennController,134,_Trial_,End,1744734423039,undefined,835,kitten,negative,positive,B,NULL
1744734993,26604675bb5888b6c2d7814718ab70c8,PennController,117,0,calibrator_val_no_feedback,NULL,PennController,128,_Trial_,Start,1744734423041,undefined,806,icebox,negative,positive,B,NULL
1744734993,26604675bb5888b6c2d7814718ab70c8,PennController,117,0,calibrator_val_no_feedback,NULL,PennController,128,_Header_,Start,1744734423041,undefined,806,icebox,negative,positive,B,NULL
1744734993,26604675bb5888b6c2d7814718ab70c8,PennController,117,0,calibrator_val_no_feedback,NULL,PennController,128,_Header_,End,1744734423293,undefined,806,icebox,negative,positive,B,NULL
1744734993,26604675bb5888b6c2d7814718ab70c8,PennController,117,0,calibrator_val_no_feedback,NULL,Selector,unnamed-Selector,Selection,positive,1744734424602,undefined,806,icebox,negative,positive,B,negative;positive
1744734993,26604675bb5888b6c2d7814718ab70c8,PennController,117,0,calibrator_val_no_feedback,NULL,PennController,128,_Trial_,End,1744734424603,undefined,806,icebox,negative,positive,B,NULL
1744734993,26604675bb5888b6c2d7814718ab70c8,PennController,122,0,calibrator_val_no_feedback,NULL,PennController,133,_Trial_,Start,1744734424604,undefined,931,joke,negative,positive,B,NULL
1744734993,26604675bb5888b6c2d7814718ab70c8,PennController,122,0,calibrator_val_no_feedback,NULL,PennController,133,_Header_,Start,1744734424604,undefined,931,joke,negative,positive,B,NULL
1744734993,26604675bb5888b6c2d7814718ab70c8,PennController,122,0,calibrator_val_no_feedback,NULL,PennController,133,_Header_,End,1744734424854,undefined,931,joke,negative,positive,B,NULL
1744734993,26604675bb5888b6c2d7814718ab70c8,PennController,122,0,calibrator_val_no_feedback,NULL,Selector,unnamed-Selector,Selection,positive,1744734426288,undefined,931,joke,negative,positive,B,negative;positive
1744734993,26604675bb5888b6c2d7814718ab70c8,PennController,122,0,calibrator_val_no_feedback,NULL,PennController,133,_Trial_,End,1744734426289,undefined,931,joke,negative,positive,B,NULL
1744734993,26604675bb5888b6c2d7814718ab70c8,PennController,114,0,calibrator_val_no_feedback,NULL,PennController,125,_Trial_,Start,1744734426290,undefined,842,free,negative,positive,B,NULL
1744734993,26604675bb5888b6c2d7814718ab70c8,PennController,114,0,calibrator_val_no_feedback,NULL,PennController,125,_Header_,Start,1744734426290,undefined,842,free,negative,positive,B,NULL
1744734993,26604675bb5888b6c2d7814718ab70c8,PennController,114,0,calibrator_val_no_feedback,NULL,PennController,125,_Header_,End,1744734426542,undefined,842,free,negative,positive,B,NULL
1744734993,26604675bb5888b6c2d7814718ab70c8,PennController,114,0,calibrator_val_no_feedback,NULL,Selector,unnamed-Selector,Selection,positive,1744734427890,undefined,842,free,negative,positive,B,negative;positive
1744734993,26604675bb5888b6c2d7814718ab70c8,PennController,114,0,calibrator_val_no_feedback,NULL,PennController,125,_Trial_,End,1744734427891,undefined,842,free,negative,positive,B,NULL
1744734993,26604675bb5888b6c2d7814718ab70c8,PennController,115,0,calibrator_val_no_feedback,NULL,PennController,126,_Trial_,Start,1744734427892,undefined,1231,grin,negative,positive,B,NULL
1744734993,26604675bb5888b6c2d7814718ab70c8,PennController,115,0,calibrator_val_no_feedback,NULL,PennController,126,_Header_,Start,1744734427892,undefined,1231,grin,negative,positive,B,NULL
1744734993,26604675bb5888b6c2d7814718ab70c8,PennController,115,0,calibrator_val_no_feedback,NULL,PennController,126,_Header_,End,1744734428143,undefined,1231,grin,negative,positive,B,NULL
1744734993,26604675bb5888b6c2d7814718ab70c8,PennController,115,0,calibrator_val_no_feedback,NULL,Selector,unnamed-Selector,Selection,positive,1744734429874,undefined,1231,grin,negative,positive,B,negative;positive
1744734993,26604675bb5888b6c2d7814718ab70c8,PennController,115,0,calibrator_val_no_feedback,NULL,PennController,126,_Trial_,End,1744734429876,undefined,1231,grin,negative,positive,B,NULL
# 13. Comments.
1744734993,26604675bb5888b6c2d7814718ab70c8,PennController,130,0,endinstructions_val,NULL,PennController,8,_Trial_,Start,1744734429878,NULL
1744734993,26604675bb5888b6c2d7814718ab70c8,PennController,130,0,endinstructions_val,NULL,PennController,8,_Header_,Start,1744734429878,NULL
1744734993,26604675bb5888b6c2d7814718ab70c8,PennController,130,0,endinstructions_val,NULL,PennController,8,_Header_,End,1744734430129,NULL
1744734993,26604675bb5888b6c2d7814718ab70c8,PennController,130,0,endinstructions_val,NULL,PennController,8,_Trial_,End,1744734437564,NULL
# 13. ID.
# 14. ReactionTime.
# 15. Word.
# 16. ConcValCombo.
# 17. Key_value_F.
# 18. Key_value_J.
# 19. Group.
# 20. Comments.
1744734993,26604675bb5888b6c2d7814718ab70c8,PennController,75,0,test_val,NULL,PennController,86,_Trial_,Start,1744734437565,undefined,954,gorgeous,physical-positive,negative,positive,B,NULL
1744734993,26604675bb5888b6c2d7814718ab70c8,PennController,75,0,test_val,NULL,PennController,86,_Header_,Start,1744734437565,undefined,954,gorgeous,physical-positive,negative,positive,B,NULL
1744734993,26604675bb5888b6c2d7814718ab70c8,PennController,75,0,test_val,NULL,PennController,86,_Header_,End,1744734437817,undefined,954,gorgeous,physical-positive,negative,positive,B,NULL
1744734993,26604675bb5888b6c2d7814718ab70c8,PennController,75,0,test_val,NULL,Selector,unnamed-Selector,Selection,positive,1744734439272,undefined,954,gorgeous,physical-positive,negative,positive,B,negative;positive
1744734993,26604675bb5888b6c2d7814718ab70c8,PennController,75,0,test_val,NULL,PennController,86,_Trial_,End,1744734439274,undefined,954,gorgeous,physical-positive,negative,positive,B,NULL
1744734993,26604675bb5888b6c2d7814718ab70c8,PennController,52,0,test_val,NULL,PennController,63,_Trial_,Start,1744734439276,undefined,897,rancid,physical-negative,negative,positive,B,NULL
1744734993,26604675bb5888b6c2d7814718ab70c8,PennController,52,0,test_val,NULL,PennController,63,_Header_,Start,1744734439276,undefined,897,rancid,physical-negative,negative,positive,B,NULL
1744734993,26604675bb5888b6c2d7814718ab70c8,PennController,52,0,test_val,NULL,PennController,63,_Header_,End,1744734439529,undefined,897,rancid,physical-negative,negative,positive,B,NULL
1744734993,26604675bb5888b6c2d7814718ab70c8,PennController,52,0,test_val,NULL,Selector,unnamed-Selector,Selection,negative,1744734440932,undefined,897,rancid,physical-negative,negative,positive,B,negative;positive
1744734993,26604675bb5888b6c2d7814718ab70c8,PennController,52,0,test_val,NULL,PennController,63,_Trial_,End,1744734440933,undefined,897,rancid,physical-negative,negative,positive,B,NULL
1744734993,26604675bb5888b6c2d7814718ab70c8,PennController,47,0,test_val,NULL,PennController,58,_Trial_,Start,1744734440933,undefined,957,brittle,physical-negative,negative,positive,B,NULL
1744734993,26604675bb5888b6c2d7814718ab70c8,PennController,47,0,test_val,NULL,PennController,58,_Header_,Start,1744734440933,undefined,957,brittle,physical-negative,negative,positive,B,NULL
1744734993,26604675bb5888b6c2d7814718ab70c8,PennController,47,0,test_val,NULL,PennController,58,_Header_,End,1744734441184,undefined,957,brittle,physical-negative,negative,positive,B,NULL
1744734993,26604675bb5888b6c2d7814718ab70c8,PennController,47,0,test_val,NULL,Selector,unnamed-Selector,Selection,negative,1744734442647,undefined,957,brittle,physical-negative,negative,positive,B,negative;positive
1744734993,26604675bb5888b6c2d7814718ab70c8,PennController,47,0,test_val,NULL,PennController,58,_Trial_,End,1744734442648,undefined,957,brittle,physical-negative,negative,positive,B,NULL
1744734993,26604675bb5888b6c2d7814718ab70c8,PennController,62,0,test_val,NULL,PennController,73,_Trial_,Start,1744734442650,undefined,808,oppressive,social-negative,negative,positive,B,NULL
1744734993,26604675bb5888b6c2d7814718ab70c8,PennController,62,0,test_val,NULL,PennController,73,_Header_,Start,1744734442650,undefined,808,oppressive,social-negative,negative,positive,B,NULL
1744734993,26604675bb5888b6c2d7814718ab70c8,PennController,62,0,test_val,NULL,PennController,73,_Header_,End,1744734442902,undefined,808,oppressive,social-negative,negative,positive,B,NULL
1744734993,26604675bb5888b6c2d7814718ab70c8,PennController,62,0,test_val,NULL,Selector,unnamed-Selector,Selection,negative,1744734444212,undefined,808,oppressive,social-negative,negative,positive,B,negative;positive
1744734993,26604675bb5888b6c2d7814718ab70c8,PennController,62,0,test_val,NULL,PennController,73,_Trial_,End,1744734444214,undefined,808,oppressive,social-negative,negative,positive,B,NULL
1744734993,26604675bb5888b6c2d7814718ab70c8,PennController,59,0,test_val,NULL,PennController,70,_Trial_,Start,1744734444215,undefined,838,harmonious,social-positive,negative,positive,B,NULL
1744734993,26604675bb5888b6c2d7814718ab70c8,PennController,59,0,test_val,NULL,PennController,70,_Header_,Start,1744734444215,undefined,838,harmonious,social-positive,negative,positive,B,NULL
1744734993,26604675bb5888b6c2d7814718ab70c8,PennController,59,0,test_val,NULL,PennController,70,_Header_,End,1744734444467,undefined,838,harmonious,social-positive,negative,positive,B,NULL
1744734993,26604675bb5888b6c2d7814718ab70c8,PennController,59,0,test_val,NULL,Selector,unnamed-Selector,Selection,positive,1744734445812,undefined,838,harmonious,social-positive,negative,positive,B,negative;positive
1744734993,26604675bb5888b6c2d7814718ab70c8,PennController,59,0,test_val,NULL,PennController,70,_Trial_,End,1744734445813,undefined,838,harmonious,social-positive,negative,positive,B,NULL
1744734993,26604675bb5888b6c2d7814718ab70c8,PennController,69,0,test_val,NULL,PennController,80,_Trial_,Start,1744734445815,undefined,919,youthful,physical-positive,negative,positive,B,NULL
1744734993,26604675bb5888b6c2d7814718ab70c8,PennController,69,0,test_val,NULL,PennController,80,_Header_,Start,1744734445815,undefined,919,youthful,physical-positive,negative,positive,B,NULL
1744734993,26604675bb5888b6c2d7814718ab70c8,PennController,69,0,test_val,NULL,PennController,80,_Header_,End,1744734446067,undefined,919,youthful,physical-positive,negative,positive,B,NULL
1744734993,26604675bb5888b6c2d7814718ab70c8,PennController,69,0,test_val,NULL,Selector,unnamed-Selector,Selection,positive,1744734447488,undefined,919,youthful,physical-positive,negative,positive,B,negative;positive
1744734993,26604675bb5888b6c2d7814718ab70c8,PennController,69,0,test_val,NULL,PennController,80,_Trial_,End,1744734447490,undefined,919,youthful,physical-positive,negative,positive,B,NULL
1744734993,26604675bb5888b6c2d7814718ab70c8,PennController,76,0,test_val,NULL,PennController,87,_Trial_,Start,1744734447491,undefined,1016,manipulative,social-negative,negative,positive,B,NULL
1744734993,26604675bb5888b6c2d7814718ab70c8,PennController,76,0,test_val,NULL,PennController,87,_Header_,Start,1744734447491,undefined,1016,manipulative,social-negative,negative,positive,B,NULL
1744734993,26604675bb5888b6c2d7814718ab70c8,PennController,76,0,test_val,NULL,PennController,87,_Header_,End,1744734447741,undefined,1016,manipulative,social-negative,negative,positive,B,NULL
1744734993,26604675bb5888b6c2d7814718ab70c8,PennController,76,0,test_val,NULL,Selector,unnamed-Selector,Selection,negative,1744734449259,undefined,1016,manipulative,social-negative,negative,positive,B,negative;positive
1744734993,26604675bb5888b6c2d7814718ab70c8,PennController,76,0,test_val,NULL,PennController,87,_Trial_,End,1744734449260,undefined,1016,manipulative,social-negative,negative,positive,B,NULL
1744734993,26604675bb5888b6c2d7814718ab70c8,PennController,54,0,test_val,NULL,PennController,65,_Trial_,Start,1744734449261,undefined,1620,lush,physical-positive,negative,positive,B,NULL
1744734993,26604675bb5888b6c2d7814718ab70c8,PennController,54,0,test_val,NULL,PennController,65,_Header_,Start,1744734449261,undefined,1620,lush,physical-positive,negative,positive,B,NULL
1744734993,26604675bb5888b6c2d7814718ab70c8,PennController,54,0,test_val,NULL,PennController,65,_Header_,End,1744734449512,undefined,1620,lush,physical-positive,negative,positive,B,NULL
1744734993,26604675bb5888b6c2d7814718ab70c8,PennController,54,0,test_val,NULL,Selector,unnamed-Selector,Selection,negative,1744734451633,undefined,1620,lush,physical-positive,negative,positive,B,negative;positive
1744734993,26604675bb5888b6c2d7814718ab70c8,PennController,54,0,test_val,NULL,PennController,65,_Trial_,End,1744734451635,undefined,1620,lush,physical-positive,negative,positive,B,NULL
1744734993,26604675bb5888b6c2d7814718ab70c8,PennController,78,0,test_val,NULL,PennController,89,_Trial_,Start,1744734451636,undefined,853,arrogant,social-negative,negative,positive,B,NULL
1744734993,26604675bb5888b6c2d7814718ab70c8,PennController,78,0,test_val,NULL,PennController,89,_Header_,Start,1744734451636,undefined,853,arrogant,social-negative,negative,positive,B,NULL
1744734993,26604675bb5888b6c2d7814718ab70c8,PennController,78,0,test_val,NULL,PennController,89,_Header_,End,1744734451886,undefined,853,arrogant,social-negative,negative,positive,B,NULL
1744734993,26604675bb5888b6c2d7814718ab70c8,PennController,78,0,test_val,NULL,Selector,unnamed-Selector,Selection,negative,1744734453245,undefined,853,arrogant,social-negative,negative,positive,B,negative;positive
1744734993,26604675bb5888b6c2d7814718ab70c8,PennController,78,0,test_val,NULL,PennController,89,_Trial_,End,1744734453246,undefined,853,arrogant,social-negative,negative,positive,B,NULL
1744734993,26604675bb5888b6c2d7814718ab70c8,PennController,61,0,test_val,NULL,PennController,72,_Trial_,Start,1744734453248,undefined,862,compassionate,social-positive,negative,positive,B,NULL
1744734993,26604675bb5888b6c2d7814718ab70c8,PennController,61,0,test_val,NULL,PennController,72,_Header_,Start,1744734453248,undefined,862,compassionate,social-positive,negative,positive,B,NULL
1744734993,26604675bb5888b6c2d7814718ab70c8,PennController,61,0,test_val,NULL,PennController,72,_Header_,End,1744734453501,undefined,862,compassionate,social-positive,negative,positive,B,NULL
1744734993,26604675bb5888b6c2d7814718ab70c8,PennController,61,0,test_val,NULL,Selector,unnamed-Selector,Selection,positive,1744734454866,undefined,862,compassionate,social-positive,negative,positive,B,negative;positive
1744734993,26604675bb5888b6c2d7814718ab70c8,PennController,61,0,test_val,NULL,PennController,72,_Trial_,End,1744734454867,undefined,862,compassionate,social-positive,negative,positive,B,NULL
1744734993,26604675bb5888b6c2d7814718ab70c8,PennController,73,0,test_val,NULL,PennController,84,_Trial_,Start,1744734454868,undefined,2268,elegant,physical-positive,negative,positive,B,NULL
1744734993,26604675bb5888b6c2d7814718ab70c8,PennController,73,0,test_val,NULL,PennController,84,_Header_,Start,1744734454868,undefined,2268,elegant,physical-positive,negative,positive,B,NULL
1744734993,26604675bb5888b6c2d7814718ab70c8,PennController,73,0,test_val,NULL,PennController,84,_Header_,End,1744734455118,undefined,2268,elegant,physical-positive,negative,positive,B,NULL
1744734993,26604675bb5888b6c2d7814718ab70c8,PennController,73,0,test_val,NULL,Selector,unnamed-Selector,Selection,positive,1744734457888,undefined,2268,elegant,physical-positive,negative,positive,B,negative;positive
1744734993,26604675bb5888b6c2d7814718ab70c8,PennController,73,0,test_val,NULL,PennController,84,_Trial_,End,1744734457889,undefined,2268,elegant,physical-positive,negative,positive,B,NULL
1744734993,26604675bb5888b6c2d7814718ab70c8,PennController,70,0,test_val,NULL,PennController,81,_Trial_,Start,1744734457891,undefined,1403,hostile,social-negative,negative,positive,B,NULL
1744734993,26604675bb5888b6c2d7814718ab70c8,PennController,70,0,test_val,NULL,PennController,81,_Header_,Start,1744734457891,undefined,1403,hostile,social-negative,negative,positive,B,NULL
1744734993,26604675bb5888b6c2d7814718ab70c8,PennController,70,0,test_val,NULL,PennController,81,_Header_,End,1744734458143,undefined,1403,hostile,social-negative,negative,positive,B,NULL
1744734993,26604675bb5888b6c2d7814718ab70c8,PennController,70,0,test_val,NULL,Selector,unnamed-Selector,Selection,negative,1744734460050,undefined,1403,hostile,social-negative,negative,positive,B,negative;positive
1744734993,26604675bb5888b6c2d7814718ab70c8,PennController,70,0,test_val,NULL,PennController,81,_Trial_,End,1744734460052,undefined,1403,hostile,social-negative,negative,positive,B,NULL
1744734993,26604675bb5888b6c2d7814718ab70c8,PennController,64,0,test_val,NULL,PennController,75,_Trial_,Start,1744734460053,undefined,1390,wrinkled,physical-negative,negative,positive,B,NULL
1744734993,26604675bb5888b6c2d7814718ab70c8,PennController,64,0,test_val,NULL,PennController,75,_Header_,Start,1744734460054,undefined,1390,wrinkled,physical-negative,negative,positive,B,NULL
1744734993,26604675bb5888b6c2d7814718ab70c8,PennController,64,0,test_val,NULL,PennController,75,_Header_,End,1744734460304,undefined,1390,wrinkled,physical-negative,negative,positive,B,NULL
1744734993,26604675bb5888b6c2d7814718ab70c8,PennController,64,0,test_val,NULL,Selector,unnamed-Selector,Selection,negative,1744734462196,undefined,1390,wrinkled,physical-negative,negative,positive,B,negative;positive
1744734993,26604675bb5888b6c2d7814718ab70c8,PennController,64,0,test_val,NULL,PennController,75,_Trial_,End,1744734462197,undefined,1390,wrinkled,physical-negative,negative,positive,B,NULL
1744734993,26604675bb5888b6c2d7814718ab70c8,PennController,50,0,test_val,NULL,PennController,61,_Trial_,Start,1744734462199,undefined,713,clammy,physical-negative,negative,positive,B,NULL
1744734993,26604675bb5888b6c2d7814718ab70c8,PennController,50,0,test_val,NULL,PennController,61,_Header_,Start,1744734462199,undefined,713,clammy,physical-negative,negative,positive,B,NULL
1744734993,26604675bb5888b6c2d7814718ab70c8,PennController,50,0,test_val,NULL,PennController,61,_Header_,End,1744734462452,undefined,713,clammy,physical-negative,negative,positive,B,NULL
1744734993,26604675bb5888b6c2d7814718ab70c8,PennController,50,0,test_val,NULL,Selector,unnamed-Selector,Selection,negative,1744734463670,undefined,713,clammy,physical-negative,negative,positive,B,negative;positive
1744734993,26604675bb5888b6c2d7814718ab70c8,PennController,50,0,test_val,NULL,PennController,61,_Trial_,End,1744734463672,undefined,713,clammy,physical-negative,negative,positive,B,NULL
1744734993,26604675bb5888b6c2d7814718ab70c8,PennController,72,0,test_val,NULL,PennController,83,_Trial_,Start,1744734463673,undefined,1363,trustworthy,social-positive,negative,positive,B,NULL
1744734993,26604675bb5888b6c2d7814718ab70c8,PennController,72,0,test_val,NULL,PennController,83,_Header_,Start,1744734463673,undefined,1363,trustworthy,social-positive,negative,positive,B,NULL
1744734993,26604675bb5888b6c2d7814718ab70c8,PennController,72,0,test_val,NULL,PennController,83,_Header_,End,1744734463925,undefined,1363,trustworthy,social-positive,negative,positive,B,NULL
1744734993,26604675bb5888b6c2d7814718ab70c8,PennController,72,0,test_val,NULL,Selector,unnamed-Selector,Selection,positive,1744734465793,undefined,1363,trustworthy,social-positive,negative,positive,B,negative;positive
1744734993,26604675bb5888b6c2d7814718ab70c8,PennController,72,0,test_val,NULL,PennController,83,_Trial_,End,1744734465794,undefined,1363,trustworthy,social-positive,negative,positive,B,NULL
1744734993,26604675bb5888b6c2d7814718ab70c8,PennController,45,0,test_val,NULL,PennController,56,_Trial_,Start,1744734465795,undefined,908,soft,physical-positive,negative,positive,B,NULL
1744734993,26604675bb5888b6c2d7814718ab70c8,PennController,45,0,test_val,NULL,PennController,56,_Header_,Start,1744734465795,undefined,908,soft,physical-positive,negative,positive,B,NULL
1744734993,26604675bb5888b6c2d7814718ab70c8,PennController,45,0,test_val,NULL,PennController,56,_Header_,End,1744734466047,undefined,908,soft,physical-positive,negative,positive,B,NULL
1744734993,26604675bb5888b6c2d7814718ab70c8,PennController,45,0,test_val,NULL,Selector,unnamed-Selector,Selection,positive,1744734467456,undefined,908,soft,physical-positive,negative,positive,B,negative;positive
1744734993,26604675bb5888b6c2d7814718ab70c8,PennController,45,0,test_val,NULL,PennController,56,_Trial_,End,1744734467458,undefined,908,soft,physical-positive,negative,positive,B,NULL
1744734993,26604675bb5888b6c2d7814718ab70c8,PennController,80,0,test_val,NULL,PennController,91,_Trial_,Start,1744734467460,undefined,864,selfish,social-negative,negative,positive,B,NULL
1744734993,26604675bb5888b6c2d7814718ab70c8,PennController,80,0,test_val,NULL,PennController,91,_Header_,Start,1744734467460,undefined,864,selfish,social-negative,negative,positive,B,NULL
1744734993,26604675bb5888b6c2d7814718ab70c8,PennController,80,0,test_val,NULL,PennController,91,_Header_,End,1744734467714,undefined,864,selfish,social-negative,negative,positive,B,NULL
1744734993,26604675bb5888b6c2d7814718ab70c8,PennController,80,0,test_val,NULL,Selector,unnamed-Selector,Selection,negative,1744734469080,undefined,864,selfish,social-negative,negative,positive,B,negative;positive
1744734993,26604675bb5888b6c2d7814718ab70c8,PennController,80,0,test_val,NULL,PennController,91,_Trial_,End,1744734469082,undefined,864,selfish,social-negative,negative,positive,B,NULL
1744734993,26604675bb5888b6c2d7814718ab70c8,PennController,81,0,test_val,NULL,PennController,92,_Trial_,Start,1744734469083,undefined,1127,polite,social-positive,negative,positive,B,NULL
1744734993,26604675bb5888b6c2d7814718ab70c8,PennController,81,0,test_val,NULL,PennController,92,_Header_,Start,1744734469083,undefined,1127,polite,social-positive,negative,positive,B,NULL
1744734993,26604675bb5888b6c2d7814718ab70c8,PennController,81,0,test_val,NULL,PennController,92,_Header_,End,1744734469334,undefined,1127,polite,social-positive,negative,positive,B,NULL
1744734993,26604675bb5888b6c2d7814718ab70c8,PennController,81,0,test_val,NULL,Selector,unnamed-Selector,Selection,positive,1744734470963,undefined,1127,polite,social-positive,negative,positive,B,negative;positive
1744734993,26604675bb5888b6c2d7814718ab70c8,PennController,81,0,test_val,NULL,PennController,92,_Trial_,End,1744734470965,undefined,1127,polite,social-positive,negative,positive,B,NULL
1744734993,26604675bb5888b6c2d7814718ab70c8,PennController,83,0,test_val,NULL,PennController,94,_Trial_,Start,1744734470966,undefined,806,sympathetic,social-positive,negative,positive,B,NULL
1744734993,26604675bb5888b6c2d7814718ab70c8,PennController,83,0,test_val,NULL,PennController,94,_Header_,Start,1744734470966,undefined,806,sympathetic,social-positive,negative,positive,B,NULL
1744734993,26604675bb5888b6c2d7814718ab70c8,PennController,83,0,test_val,NULL,PennController,94,_Header_,End,1744734471219,undefined,806,sympathetic,social-positive,negative,positive,B,NULL
1744734993,26604675bb5888b6c2d7814718ab70c8,PennController,83,0,test_val,NULL,Selector,unnamed-Selector,Selection,positive,1744734472526,undefined,806,sympathetic,social-positive,negative,positive,B,negative;positive
1744734993,26604675bb5888b6c2d7814718ab70c8,PennController,83,0,test_val,NULL,PennController,94,_Trial_,End,1744734472527,undefined,806,sympathetic,social-positive,negative,positive,B,NULL
1744734993,26604675bb5888b6c2d7814718ab70c8,PennController,66,0,test_val,NULL,PennController,77,_Trial_,Start,1744734472528,undefined,786,obese,physical-negative,negative,positive,B,NULL
1744734993,26604675bb5888b6c2d7814718ab70c8,PennController,66,0,test_val,NULL,PennController,77,_Header_,Start,1744734472528,undefined,786,obese,physical-negative,negative,positive,B,NULL
1744734993,26604675bb5888b6c2d7814718ab70c8,PennController,66,0,test_val,NULL,PennController,77,_Header_,End,1744734472780,undefined,786,obese,physical-negative,negative,positive,B,NULL
1744734993,26604675bb5888b6c2d7814718ab70c8,PennController,66,0,test_val,NULL,Selector,unnamed-Selector,Selection,negative,1744734474069,undefined,786,obese,physical-negative,negative,positive,B,negative;positive
1744734993,26604675bb5888b6c2d7814718ab70c8,PennController,66,0,test_val,NULL,PennController,77,_Trial_,End,1744734474070,undefined,786,obese,physical-negative,negative,positive,B,NULL
1744734993,26604675bb5888b6c2d7814718ab70c8,PennController,44,0,test_val,NULL,PennController,55,_Trial_,Start,1744734474072,undefined,853,moldy,physical-negative,negative,positive,B,NULL
1744734993,26604675bb5888b6c2d7814718ab70c8,PennController,44,0,test_val,NULL,PennController,55,_Header_,Start,1744734474072,undefined,853,moldy,physical-negative,negative,positive,B,NULL
1744734993,26604675bb5888b6c2d7814718ab70c8,PennController,44,0,test_val,NULL,PennController,55,_Header_,End,1744734474325,undefined,853,moldy,physical-negative,negative,positive,B,NULL
1744734993,26604675bb5888b6c2d7814718ab70c8,PennController,44,0,test_val,NULL,Selector,unnamed-Selector,Selection,negative,1744734475678,undefined,853,moldy,physical-negative,negative,positive,B,negative;positive
1744734993,26604675bb5888b6c2d7814718ab70c8,PennController,44,0,test_val,NULL,PennController,55,_Trial_,End,1744734475680,undefined,853,moldy,physical-negative,negative,positive,B,NULL
1744734993,26604675bb5888b6c2d7814718ab70c8,PennController,51,0,test_val,NULL,PennController,62,_Trial_,Start,1744734475681,undefined,890,gritty,physical-negative,negative,positive,B,NULL
1744734993,26604675bb5888b6c2d7814718ab70c8,PennController,51,0,test_val,NULL,PennController,62,_Header_,Start,1744734475681,undefined,890,gritty,physical-negative,negative,positive,B,NULL
1744734993,26604675bb5888b6c2d7814718ab70c8,PennController,51,0,test_val,NULL,PennController,62,_Header_,End,1744734475933,undefined,890,gritty,physical-negative,negative,positive,B,NULL
1744734993,26604675bb5888b6c2d7814718ab70c8,PennController,51,0,test_val,NULL,Selector,unnamed-Selector,Selection,negative,1744734477325,undefined,890,gritty,physical-negative,negative,positive,B,negative;positive
1744734993,26604675bb5888b6c2d7814718ab70c8,PennController,51,0,test_val,NULL,PennController,62,_Trial_,End,1744734477326,undefined,890,gritty,physical-negative,negative,positive,B,NULL
1744734993,26604675bb5888b6c2d7814718ab70c8,PennController,74,0,test_val,NULL,PennController,85,_Trial_,Start,1744734477327,undefined,808,generous,social-positive,negative,positive,B,NULL
1744734993,26604675bb5888b6c2d7814718ab70c8,PennController,74,0,test_val,NULL,PennController,85,_Header_,Start,1744734477327,undefined,808,generous,social-positive,negative,positive,B,NULL
1744734993,26604675bb5888b6c2d7814718ab70c8,PennController,74,0,test_val,NULL,PennController,85,_Header_,End,1744734477579,undefined,808,generous,social-positive,negative,positive,B,NULL
1744734993,26604675bb5888b6c2d7814718ab70c8,PennController,74,0,test_val,NULL,Selector,unnamed-Selector,Selection,positive,1744734478890,undefined,808,generous,social-positive,negative,positive,B,negative;positive
1744734993,26604675bb5888b6c2d7814718ab70c8,PennController,74,0,test_val,NULL,PennController,85,_Trial_,End,1744734478892,undefined,808,generous,social-positive,negative,positive,B,NULL
1744734993,26604675bb5888b6c2d7814718ab70c8,PennController,65,0,test_val,NULL,PennController,76,_Trial_,Start,1744734478893,undefined,825,slim,physical-positive,negative,positive,B,NULL
1744734993,26604675bb5888b6c2d7814718ab70c8,PennController,65,0,test_val,NULL,PennController,76,_Header_,Start,1744734478893,undefined,825,slim,physical-positive,negative,positive,B,NULL
1744734993,26604675bb5888b6c2d7814718ab70c8,PennController,65,0,test_val,NULL,PennController,76,_Header_,End,1744734479146,undefined,825,slim,physical-positive,negative,positive,B,NULL
1744734993,26604675bb5888b6c2d7814718ab70c8,PennController,65,0,test_val,NULL,Selector,unnamed-Selector,Selection,positive,1744734480473,undefined,825,slim,physical-positive,negative,positive,B,negative;positive
1744734993,26604675bb5888b6c2d7814718ab70c8,PennController,65,0,test_val,NULL,PennController,76,_Trial_,End,1744734480474,undefined,825,slim,physical-positive,negative,positive,B,NULL
1744734993,26604675bb5888b6c2d7814718ab70c8,PennController,55,0,test_val,NULL,PennController,66,_Trial_,Start,1744734480475,undefined,1259,prosperous,social-positive,negative,positive,B,NULL
1744734993,26604675bb5888b6c2d7814718ab70c8,PennController,55,0,test_val,NULL,PennController,66,_Header_,Start,1744734480475,undefined,1259,prosperous,social-positive,negative,positive,B,NULL
1744734993,26604675bb5888b6c2d7814718ab70c8,PennController,55,0,test_val,NULL,PennController,66,_Header_,End,1744734480729,undefined,1259,prosperous,social-positive,negative,positive,B,NULL
1744734993,26604675bb5888b6c2d7814718ab70c8,PennController,55,0,test_val,NULL,Selector,unnamed-Selector,Selection,positive,1744734482494,undefined,1259,prosperous,social-positive,negative,positive,B,negative;positive
1744734993,26604675bb5888b6c2d7814718ab70c8,PennController,55,0,test_val,NULL,PennController,66,_Trial_,End,1744734482496,undefined,1259,prosperous,social-positive,negative,positive,B,NULL
1744734993,26604675bb5888b6c2d7814718ab70c8,PennController,58,0,test_val,NULL,PennController,69,_Trial_,Start,1744734482497,undefined,815,supportive,social-positive,negative,positive,B,NULL
1744734993,26604675bb5888b6c2d7814718ab70c8,PennController,58,0,test_val,NULL,PennController,69,_Header_,Start,1744734482497,undefined,815,supportive,social-positive,negative,positive,B,NULL
1744734993,26604675bb5888b6c2d7814718ab70c8,PennController,58,0,test_val,NULL,PennController,69,_Header_,End,1744734482747,undefined,815,supportive,social-positive,negative,positive,B,NULL
1744734993,26604675bb5888b6c2d7814718ab70c8,PennController,58,0,test_val,NULL,Selector,unnamed-Selector,Selection,positive,1744734484064,undefined,815,supportive,social-positive,negative,positive,B,negative;positive
1744734993,26604675bb5888b6c2d7814718ab70c8,PennController,58,0,test_val,NULL,PennController,69,_Trial_,End,1744734484065,undefined,815,supportive,social-positive,negative,positive,B,NULL
1744734993,26604675bb5888b6c2d7814718ab70c8,PennController,77,0,test_val,NULL,PennController,88,_Trial_,Start,1744734484066,undefined,774,cruel,social-negative,negative,positive,B,NULL
1744734993,26604675bb5888b6c2d7814718ab70c8,PennController,77,0,test_val,NULL,PennController,88,_Header_,Start,1744734484066,undefined,774,cruel,social-negative,negative,positive,B,NULL
1744734993,26604675bb5888b6c2d7814718ab70c8,PennController,77,0,test_val,NULL,PennController,88,_Header_,End,1744734484318,undefined,774,cruel,social-negative,negative,positive,B,NULL
1744734993,26604675bb5888b6c2d7814718ab70c8,PennController,77,0,test_val,NULL,Selector,unnamed-Selector,Selection,negative,1744734485598,undefined,774,cruel,social-negative,negative,positive,B,negative;positive
1744734993,26604675bb5888b6c2d7814718ab70c8,PennController,77,0,test_val,NULL,PennController,88,_Trial_,End,1744734485599,undefined,774,cruel,social-negative,negative,positive,B,NULL
1744734993,26604675bb5888b6c2d7814718ab70c8,PennController,46,0,test_val,NULL,PennController,57,_Trial_,Start,1744734485601,undefined,1444,smooth,physical-positive,negative,positive,B,NULL
1744734993,26604675bb5888b6c2d7814718ab70c8,PennController,46,0,test_val,NULL,PennController,57,_Header_,Start,1744734485601,undefined,1444,smooth,physical-positive,negative,positive,B,NULL
1744734993,26604675bb5888b6c2d7814718ab70c8,PennController,46,0,test_val,NULL,PennController,57,_Header_,End,1744734485853,undefined,1444,smooth,physical-positive,negative,positive,B,NULL
1744734993,26604675bb5888b6c2d7814718ab70c8,PennController,46,0,test_val,NULL,Selector,unnamed-Selector,Selection,positive,1744734487798,undefined,1444,smooth,physical-positive,negative,positive,B,negative;positive
1744734993,26604675bb5888b6c2d7814718ab70c8,PennController,46,0,test_val,NULL,PennController,57,_Trial_,End,1744734487800,undefined,1444,smooth,physical-positive,negative,positive,B,NULL
1744734993,26604675bb5888b6c2d7814718ab70c8,PennController,53,0,test_val,NULL,PennController,64,_Trial_,Start,1744734487801,undefined,1075,sturdy,physical-positive,negative,positive,B,NULL
1744734993,26604675bb5888b6c2d7814718ab70c8,PennController,53,0,test_val,NULL,PennController,64,_Header_,Start,1744734487801,undefined,1075,sturdy,physical-positive,negative,positive,B,NULL
1744734993,26604675bb5888b6c2d7814718ab70c8,PennController,53,0,test_val,NULL,PennController,64,_Header_,End,1744734488053,undefined,1075,sturdy,physical-positive,negative,positive,B,NULL
1744734993,26604675bb5888b6c2d7814718ab70c8,PennController,53,0,test_val,NULL,Selector,unnamed-Selector,Selection,positive,1744734489631,undefined,1075,sturdy,physical-positive,negative,positive,B,negative;positive
1744734993,26604675bb5888b6c2d7814718ab70c8,PennController,53,0,test_val,NULL,PennController,64,_Trial_,End,1744734489633,undefined,1075,sturdy,physical-positive,negative,positive,B,NULL
1744734993,26604675bb5888b6c2d7814718ab70c8,PennController,49,0,test_val,NULL,PennController,60,_Trial_,Start,1744734489634,undefined,925,sour,physical-negative,negative,positive,B,NULL
1744734993,26604675bb5888b6c2d7814718ab70c8,PennController,49,0,test_val,NULL,PennController,60,_Header_,Start,1744734489634,undefined,925,sour,physical-negative,negative,positive,B,NULL
1744734993,26604675bb5888b6c2d7814718ab70c8,PennController,49,0,test_val,NULL,PennController,60,_Header_,End,1744734489886,undefined,925,sour,physical-negative,negative,positive,B,NULL
1744734993,26604675bb5888b6c2d7814718ab70c8,PennController,49,0,test_val,NULL,Selector,unnamed-Selector,Selection,negative,1744734491313,undefined,925,sour,physical-negative,negative,positive,B,negative;positive
1744734993,26604675bb5888b6c2d7814718ab70c8,PennController,49,0,test_val,NULL,PennController,60,_Trial_,End,1744734491315,undefined,925,sour,physical-negative,negative,positive,B,NULL
1744734993,26604675bb5888b6c2d7814718ab70c8,PennController,67,0,test_val,NULL,PennController,78,_Trial_,Start,1744734491316,undefined,719,ugly,physical-negative,negative,positive,B,NULL
1744734993,26604675bb5888b6c2d7814718ab70c8,PennController,67,0,test_val,NULL,PennController,78,_Header_,Start,1744734491316,undefined,719,ugly,physical-negative,negative,positive,B,NULL
1744734993,26604675bb5888b6c2d7814718ab70c8,PennController,67,0,test_val,NULL,PennController,78,_Header_,End,1744734491570,undefined,719,ugly,physical-negative,negative,positive,B,NULL
1744734993,26604675bb5888b6c2d7814718ab70c8,PennController,67,0,test_val,NULL,Selector,unnamed-Selector,Selection,negative,1744734492791,undefined,719,ugly,physical-negative,negative,positive,B,negative;positive
1744734993,26604675bb5888b6c2d7814718ab70c8,PennController,67,0,test_val,NULL,PennController,78,_Trial_,End,1744734492792,undefined,719,ugly,physical-negative,negative,positive,B,NULL
1744734993,26604675bb5888b6c2d7814718ab70c8,PennController,60,0,test_val,NULL,PennController,71,_Trial_,Start,1744734492793,undefined,666,corrupt,social-negative,negative,positive,B,NULL
1744734993,26604675bb5888b6c2d7814718ab70c8,PennController,60,0,test_val,NULL,PennController,71,_Header_,Start,1744734492793,undefined,666,corrupt,social-negative,negative,positive,B,NULL
1744734993,26604675bb5888b6c2d7814718ab70c8,PennController,60,0,test_val,NULL,PennController,71,_Header_,End,1744734493046,undefined,666,corrupt,social-negative,negative,positive,B,NULL
1744734993,26604675bb5888b6c2d7814718ab70c8,PennController,60,0,test_val,NULL,Selector,unnamed-Selector,Selection,negative,1744734494214,undefined,666,corrupt,social-negative,negative,positive,B,negative;positive
1744734993,26604675bb5888b6c2d7814718ab70c8,PennController,60,0,test_val,NULL,PennController,71,_Trial_,End,1744734494216,undefined,666,corrupt,social-negative,negative,positive,B,NULL
1744734993,26604675bb5888b6c2d7814718ab70c8,PennController,71,0,test_val,NULL,PennController,82,_Trial_,Start,1744734494217,undefined,771,amiable,social-positive,negative,positive,B,NULL
1744734993,26604675bb5888b6c2d7814718ab70c8,PennController,71,0,test_val,NULL,PennController,82,_Header_,Start,1744734494217,undefined,771,amiable,social-positive,negative,positive,B,NULL
1744734993,26604675bb5888b6c2d7814718ab70c8,PennController,71,0,test_val,NULL,PennController,82,_Header_,End,1744734494469,undefined,771,amiable,social-positive,negative,positive,B,NULL
1744734993,26604675bb5888b6c2d7814718ab70c8,PennController,71,0,test_val,NULL,Selector,unnamed-Selector,Selection,positive,1744734495743,undefined,771,amiable,social-positive,negative,positive,B,negative;positive
1744734993,26604675bb5888b6c2d7814718ab70c8,PennController,71,0,test_val,NULL,PennController,82,_Trial_,End,1744734495743,undefined,771,amiable,social-positive,negative,positive,B,NULL
1744734993,26604675bb5888b6c2d7814718ab70c8,PennController,79,0,test_val,NULL,PennController,90,_Trial_,Start,1744734495744,undefined,1100,untrustworthy,social-negative,negative,positive,B,NULL
1744734993,26604675bb5888b6c2d7814718ab70c8,PennController,79,0,test_val,NULL,PennController,90,_Header_,Start,1744734495744,undefined,1100,untrustworthy,social-negative,negative,positive,B,NULL
1744734993,26604675bb5888b6c2d7814718ab70c8,PennController,79,0,test_val,NULL,PennController,90,_Header_,End,1744734495996,undefined,1100,untrustworthy,social-negative,negative,positive,B,NULL
1744734993,26604675bb5888b6c2d7814718ab70c8,PennController,79,0,test_val,NULL,Selector,unnamed-Selector,Selection,negative,1744734497598,undefined,1100,untrustworthy,social-negative,negative,positive,B,negative;positive
1744734993,26604675bb5888b6c2d7814718ab70c8,PennController,79,0,test_val,NULL,PennController,90,_Trial_,End,1744734497600,undefined,1100,untrustworthy,social-negative,negative,positive,B,NULL
1744734993,26604675bb5888b6c2d7814718ab70c8,PennController,63,0,test_val,NULL,PennController,74,_Trial_,Start,1744734497602,undefined,2271,unjust,social-negative,negative,positive,B,NULL
1744734993,26604675bb5888b6c2d7814718ab70c8,PennController,63,0,test_val,NULL,PennController,74,_Header_,Start,1744734497602,undefined,2271,unjust,social-negative,negative,positive,B,NULL
1744734993,26604675bb5888b6c2d7814718ab70c8,PennController,63,0,test_val,NULL,PennController,74,_Header_,End,1744734497854,undefined,2271,unjust,social-negative,negative,positive,B,NULL
1744734993,26604675bb5888b6c2d7814718ab70c8,PennController,63,0,test_val,NULL,Selector,unnamed-Selector,Selection,negative,1744734500626,undefined,2271,unjust,social-negative,negative,positive,B,negative;positive
1744734993,26604675bb5888b6c2d7814718ab70c8,PennController,63,0,test_val,NULL,PennController,74,_Trial_,End,1744734500628,undefined,2271,unjust,social-negative,negative,positive,B,NULL
1744734993,26604675bb5888b6c2d7814718ab70c8,PennController,68,0,test_val,NULL,PennController,79,_Trial_,Start,1744734500629,undefined,2145,scrawny,physical-negative,negative,positive,B,NULL
1744734993,26604675bb5888b6c2d7814718ab70c8,PennController,68,0,test_val,NULL,PennController,79,_Header_,Start,1744734500629,undefined,2145,scrawny,physical-negative,negative,positive,B,NULL
1744734993,26604675bb5888b6c2d7814718ab70c8,PennController,68,0,test_val,NULL,PennController,79,_Header_,End,1744734500879,undefined,2145,scrawny,physical-negative,negative,positive,B,NULL
1744734993,26604675bb5888b6c2d7814718ab70c8,PennController,68,0,test_val,NULL,Selector,unnamed-Selector,Selection,negative,1744734503527,undefined,2145,scrawny,physical-negative,negative,positive,B,negative;positive
1744734993,26604675bb5888b6c2d7814718ab70c8,PennController,68,0,test_val,NULL,PennController,79,_Trial_,End,1744734503527,undefined,2145,scrawny,physical-negative,negative,positive,B,NULL
1744734993,26604675bb5888b6c2d7814718ab70c8,PennController,56,0,test_val,NULL,PennController,67,_Trial_,Start,1744734503528,undefined,745,radiant,physical-positive,negative,positive,B,NULL
1744734993,26604675bb5888b6c2d7814718ab70c8,PennController,56,0,test_val,NULL,PennController,67,_Header_,Start,1744734503528,undefined,745,radiant,physical-positive,negative,positive,B,NULL
1744734993,26604675bb5888b6c2d7814718ab70c8,PennController,56,0,test_val,NULL,PennController,67,_Header_,End,1744734503778,undefined,745,radiant,physical-positive,negative,positive,B,NULL
1744734993,26604675bb5888b6c2d7814718ab70c8,PennController,56,0,test_val,NULL,Selector,unnamed-Selector,Selection,positive,1744734505029,undefined,745,radiant,physical-positive,negative,positive,B,negative;positive
1744734993,26604675bb5888b6c2d7814718ab70c8,PennController,56,0,test_val,NULL,PennController,67,_Trial_,End,1744734505031,undefined,745,radiant,physical-positive,negative,positive,B,NULL
1744734993,26604675bb5888b6c2d7814718ab70c8,PennController,48,0,test_val,NULL,PennController,59,_Trial_,Start,1744734505032,undefined,679,fragrant,physical-positive,negative,positive,B,NULL
1744734993,26604675bb5888b6c2d7814718ab70c8,PennController,48,0,test_val,NULL,PennController,59,_Header_,Start,1744734505032,undefined,679,fragrant,physical-positive,negative,positive,B,NULL
1744734993,26604675bb5888b6c2d7814718ab70c8,PennController,48,0,test_val,NULL,PennController,59,_Header_,End,1744734505285,undefined,679,fragrant,physical-positive,negative,positive,B,NULL
1744734993,26604675bb5888b6c2d7814718ab70c8,PennController,48,0,test_val,NULL,Selector,unnamed-Selector,Selection,positive,1744734506470,undefined,679,fragrant,physical-positive,negative,positive,B,negative;positive
1744734993,26604675bb5888b6c2d7814718ab70c8,PennController,48,0,test_val,NULL,PennController,59,_Trial_,End,1744734506472,undefined,679,fragrant,physical-positive,negative,positive,B,NULL
1744734993,26604675bb5888b6c2d7814718ab70c8,PennController,57,0,test_val,NULL,PennController,68,_Trial_,Start,1744734506473,undefined,1036,fair,social-positive,negative,positive,B,NULL
1744734993,26604675bb5888b6c2d7814718ab70c8,PennController,57,0,test_val,NULL,PennController,68,_Header_,Start,1744734506473,undefined,1036,fair,social-positive,negative,positive,B,NULL
1744734993,26604675bb5888b6c2d7814718ab70c8,PennController,57,0,test_val,NULL,PennController,68,_Header_,End,1744734506725,undefined,1036,fair,social-positive,negative,positive,B,NULL
1744734993,26604675bb5888b6c2d7814718ab70c8,PennController,57,0,test_val,NULL,Selector,unnamed-Selector,Selection,positive,1744734508266,undefined,1036,fair,social-positive,negative,positive,B,negative;positive
1744734993,26604675bb5888b6c2d7814718ab70c8,PennController,57,0,test_val,NULL,PennController,68,_Trial_,End,1744734508268,undefined,1036,fair,social-positive,negative,positive,B,NULL
1744734993,26604675bb5888b6c2d7814718ab70c8,PennController,82,0,test_val,NULL,PennController,93,_Trial_,Start,1744734508269,undefined,943,judgmental,social-negative,negative,positive,B,NULL
1744734993,26604675bb5888b6c2d7814718ab70c8,PennController,82,0,test_val,NULL,PennController,93,_Header_,Start,1744734508269,undefined,943,judgmental,social-negative,negative,positive,B,NULL
1744734993,26604675bb5888b6c2d7814718ab70c8,PennController,82,0,test_val,NULL,PennController,93,_Header_,End,1744734508520,undefined,943,judgmental,social-negative,negative,positive,B,NULL
1744734993,26604675bb5888b6c2d7814718ab70c8,PennController,82,0,test_val,NULL,Selector,unnamed-Selector,Selection,negative,1744734509967,undefined,943,judgmental,social-negative,negative,positive,B,negative;positive
1744734993,26604675bb5888b6c2d7814718ab70c8,PennController,82,0,test_val,NULL,PennController,93,_Trial_,End,1744734509968,undefined,943,judgmental,social-negative,negative,positive,B,NULL
1744734993,26604675bb5888b6c2d7814718ab70c8,PennController,82,0,test_val,NULL,PennController,93,_Trial_,Start,1744734509970,undefined,750,judgmental,social-negative,negative,positive,B,NULL
1744734993,26604675bb5888b6c2d7814718ab70c8,PennController,82,0,test_val,NULL,PennController,93,_Header_,Start,1744734509970,undefined,750,judgmental,social-negative,negative,positive,B,NULL
1744734993,26604675bb5888b6c2d7814718ab70c8,PennController,82,0,test_val,NULL,PennController,93,_Header_,End,1744734510221,undefined,750,judgmental,social-negative,negative,positive,B,NULL
1744734993,26604675bb5888b6c2d7814718ab70c8,PennController,82,0,test_val,NULL,Selector,unnamed-Selector,Selection,negative,1744734511473,undefined,750,judgmental,social-negative,negative,positive,B,negative;positive
1744734993,26604675bb5888b6c2d7814718ab70c8,PennController,82,0,test_val,NULL,PennController,93,_Trial_,End,1744734511474,undefined,750,judgmental,social-negative,negative,positive,B,NULL
1744734993,26604675bb5888b6c2d7814718ab70c8,PennController,78,0,test_val,NULL,PennController,89,_Trial_,Start,1744734511475,undefined,812,arrogant,social-negative,negative,positive,B,NULL
1744734993,26604675bb5888b6c2d7814718ab70c8,PennController,78,0,test_val,NULL,PennController,89,_Header_,Start,1744734511475,undefined,812,arrogant,social-negative,negative,positive,B,NULL
1744734993,26604675bb5888b6c2d7814718ab70c8,PennController,78,0,test_val,NULL,PennController,89,_Header_,End,1744734511728,undefined,812,arrogant,social-negative,negative,positive,B,NULL
1744734993,26604675bb5888b6c2d7814718ab70c8,PennController,78,0,test_val,NULL,Selector,unnamed-Selector,Selection,negative,1744734513041,undefined,812,arrogant,social-negative,negative,positive,B,negative;positive
1744734993,26604675bb5888b6c2d7814718ab70c8,PennController,78,0,test_val,NULL,PennController,89,_Trial_,End,1744734513042,undefined,812,arrogant,social-negative,negative,positive,B,NULL
1744734993,26604675bb5888b6c2d7814718ab70c8,PennController,55,0,test_val,NULL,PennController,66,_Trial_,Start,1744734513044,undefined,973,prosperous,social-positive,negative,positive,B,NULL
1744734993,26604675bb5888b6c2d7814718ab70c8,PennController,55,0,test_val,NULL,PennController,66,_Header_,Start,1744734513044,undefined,973,prosperous,social-positive,negative,positive,B,NULL
1744734993,26604675bb5888b6c2d7814718ab70c8,PennController,55,0,test_val,NULL,PennController,66,_Header_,End,1744734513295,undefined,973,prosperous,social-positive,negative,positive,B,NULL
1744734993,26604675bb5888b6c2d7814718ab70c8,PennController,55,0,test_val,NULL,Selector,unnamed-Selector,Selection,positive,1744734514769,undefined,973,prosperous,social-positive,negative,positive,B,negative;positive
1744734993,26604675bb5888b6c2d7814718ab70c8,PennController,55,0,test_val,NULL,PennController,66,_Trial_,End,1744734514771,undefined,973,prosperous,social-positive,negative,positive,B,NULL
1744734993,26604675bb5888b6c2d7814718ab70c8,PennController,56,0,test_val,NULL,PennController,67,_Trial_,Start,1744734514772,undefined,1010,radiant,physical-positive,negative,positive,B,NULL
1744734993,26604675bb5888b6c2d7814718ab70c8,PennController,56,0,test_val,NULL,PennController,67,_Header_,Start,1744734514772,undefined,1010,radiant,physical-positive,negative,positive,B,NULL
1744734993,26604675bb5888b6c2d7814718ab70c8,PennController,56,0,test_val,NULL,PennController,67,_Header_,End,1744734515023,undefined,1010,radiant,physical-positive,negative,positive,B,NULL
1744734993,26604675bb5888b6c2d7814718ab70c8,PennController,56,0,test_val,NULL,Selector,unnamed-Selector,Selection,positive,1744734516538,undefined,1010,radiant,physical-positive,negative,positive,B,negative;positive
1744734993,26604675bb5888b6c2d7814718ab70c8,PennController,56,0,test_val,NULL,PennController,67,_Trial_,End,1744734516539,undefined,1010,radiant,physical-positive,negative,positive,B,NULL
1744734993,26604675bb5888b6c2d7814718ab70c8,PennController,62,0,test_val,NULL,PennController,73,_Trial_,Start,1744734516540,undefined,856,oppressive,social-negative,negative,positive,B,NULL
1744734993,26604675bb5888b6c2d7814718ab70c8,PennController,62,0,test_val,NULL,PennController,73,_Header_,Start,1744734516540,undefined,856,oppressive,social-negative,negative,positive,B,NULL
1744734993,26604675bb5888b6c2d7814718ab70c8,PennController,62,0,test_val,NULL,PennController,73,_Header_,End,1744734516790,undefined,856,oppressive,social-negative,negative,positive,B,NULL
1744734993,26604675bb5888b6c2d7814718ab70c8,PennController,62,0,test_val,NULL,Selector,unnamed-Selector,Selection,negative,1744734518153,undefined,856,oppressive,social-negative,negative,positive,B,negative;positive
1744734993,26604675bb5888b6c2d7814718ab70c8,PennController,62,0,test_val,NULL,PennController,73,_Trial_,End,1744734518154,undefined,856,oppressive,social-negative,negative,positive,B,NULL
1744734993,26604675bb5888b6c2d7814718ab70c8,PennController,72,0,test_val,NULL,PennController,83,_Trial_,Start,1744734518155,undefined,2014,trustworthy,social-positive,negative,positive,B,NULL
1744734993,26604675bb5888b6c2d7814718ab70c8,PennController,72,0,test_val,NULL,PennController,83,_Header_,Start,1744734518155,undefined,2014,trustworthy,social-positive,negative,positive,B,NULL
1744734993,26604675bb5888b6c2d7814718ab70c8,PennController,72,0,test_val,NULL,PennController,83,_Header_,End,1744734518408,undefined,2014,trustworthy,social-positive,negative,positive,B,NULL
1744734993,26604675bb5888b6c2d7814718ab70c8,PennController,72,0,test_val,NULL,Selector,unnamed-Selector,Selection,positive,1744734520926,undefined,2014,trustworthy,social-positive,negative,positive,B,negative;positive
1744734993,26604675bb5888b6c2d7814718ab70c8,PennController,72,0,test_val,NULL,PennController,83,_Trial_,End,1744734520927,undefined,2014,trustworthy,social-positive,negative,positive,B,NULL
1744734993,26604675bb5888b6c2d7814718ab70c8,PennController,65,0,test_val,NULL,PennController,76,_Trial_,Start,1744734520928,undefined,724,slim,physical-positive,negative,positive,B,NULL
1744734993,26604675bb5888b6c2d7814718ab70c8,PennController,65,0,test_val,NULL,PennController,76,_Header_,Start,1744734520928,undefined,724,slim,physical-positive,negative,positive,B,NULL
1744734993,26604675bb5888b6c2d7814718ab70c8,PennController,65,0,test_val,NULL,PennController,76,_Header_,End,1744734521178,undefined,724,slim,physical-positive,negative,positive,B,NULL
1744734993,26604675bb5888b6c2d7814718ab70c8,PennController,65,0,test_val,NULL,Selector,unnamed-Selector,Selection,positive,1744734522408,undefined,724,slim,physical-positive,negative,positive,B,negative;positive
1744734993,26604675bb5888b6c2d7814718ab70c8,PennController,65,0,test_val,NULL,PennController,76,_Trial_,End,1744734522410,undefined,724,slim,physical-positive,negative,positive,B,NULL
1744734993,26604675bb5888b6c2d7814718ab70c8,PennController,44,0,test_val,NULL,PennController,55,_Trial_,Start,1744734522412,undefined,675,moldy,physical-negative,negative,positive,B,NULL
1744734993,26604675bb5888b6c2d7814718ab70c8,PennController,44,0,test_val,NULL,PennController,55,_Header_,Start,1744734522412,undefined,675,moldy,physical-negative,negative,positive,B,NULL
1744734993,26604675bb5888b6c2d7814718ab70c8,PennController,44,0,test_val,NULL,PennController,55,_Header_,End,1744734522662,undefined,675,moldy,physical-negative,negative,positive,B,NULL
1744734993,26604675bb5888b6c2d7814718ab70c8,PennController,44,0,test_val,NULL,Selector,unnamed-Selector,Selection,negative,1744734523839,undefined,675,moldy,physical-negative,negative,positive,B,negative;positive
1744734993,26604675bb5888b6c2d7814718ab70c8,PennController,44,0,test_val,NULL,PennController,55,_Trial_,End,1744734523841,undefined,675,moldy,physical-negative,negative,positive,B,NULL
1744734993,26604675bb5888b6c2d7814718ab70c8,PennController,59,0,test_val,NULL,PennController,70,_Trial_,Start,1744734523842,undefined,655,harmonious,social-positive,negative,positive,B,NULL
1744734993,26604675bb5888b6c2d7814718ab70c8,PennController,59,0,test_val,NULL,PennController,70,_Header_,Start,1744734523842,undefined,655,harmonious,social-positive,negative,positive,B,NULL
1744734993,26604675bb5888b6c2d7814718ab70c8,PennController,59,0,test_val,NULL,PennController,70,_Header_,End,1744734524095,undefined,655,harmonious,social-positive,negative,positive,B,NULL
1744734993,26604675bb5888b6c2d7814718ab70c8,PennController,59,0,test_val,NULL,Selector,unnamed-Selector,Selection,positive,1744734525253,undefined,655,harmonious,social-positive,negative,positive,B,negative;positive
1744734993,26604675bb5888b6c2d7814718ab70c8,PennController,59,0,test_val,NULL,PennController,70,_Trial_,End,1744734525254,undefined,655,harmonious,social-positive,negative,positive,B,NULL
1744734993,26604675bb5888b6c2d7814718ab70c8,PennController,57,0,test_val,NULL,PennController,68,_Trial_,Start,1744734525256,undefined,1277,fair,social-positive,negative,positive,B,NULL
1744734993,26604675bb5888b6c2d7814718ab70c8,PennController,57,0,test_val,NULL,PennController,68,_Header_,Start,1744734525256,undefined,1277,fair,social-positive,negative,positive,B,NULL
1744734993,26604675bb5888b6c2d7814718ab70c8,PennController,57,0,test_val,NULL,PennController,68,_Header_,End,1744734525509,undefined,1277,fair,social-positive,negative,positive,B,NULL
1744734993,26604675bb5888b6c2d7814718ab70c8,PennController,57,0,test_val,NULL,Selector,unnamed-Selector,Selection,positive,1744734527291,undefined,1277,fair,social-positive,negative,positive,B,negative;positive
1744734993,26604675bb5888b6c2d7814718ab70c8,PennController,57,0,test_val,NULL,PennController,68,_Trial_,End,1744734527293,undefined,1277,fair,social-positive,negative,positive,B,NULL
1744734993,26604675bb5888b6c2d7814718ab70c8,PennController,46,0,test_val,NULL,PennController,57,_Trial_,Start,1744734527295,undefined,760,smooth,physical-positive,negative,positive,B,NULL
1744734993,26604675bb5888b6c2d7814718ab70c8,PennController,46,0,test_val,NULL,PennController,57,_Header_,Start,1744734527295,undefined,760,smooth,physical-positive,negative,positive,B,NULL
1744734993,26604675bb5888b6c2d7814718ab70c8,PennController,46,0,test_val,NULL,PennController,57,_Header_,End,1744734527545,undefined,760,smooth,physical-positive,negative,positive,B,NULL
1744734993,26604675bb5888b6c2d7814718ab70c8,PennController,46,0,test_val,NULL,Selector,unnamed-Selector,Selection,positive,1744734528810,undefined,760,smooth,physical-positive,negative,positive,B,negative;positive
1744734993,26604675bb5888b6c2d7814718ab70c8,PennController,46,0,test_val,NULL,PennController,57,_Trial_,End,1744734528812,undefined,760,smooth,physical-positive,negative,positive,B,NULL
1744734993,26604675bb5888b6c2d7814718ab70c8,PennController,45,0,test_val,NULL,PennController,56,_Trial_,Start,1744734528813,undefined,795,soft,physical-positive,negative,positive,B,NULL
1744734993,26604675bb5888b6c2d7814718ab70c8,PennController,45,0,test_val,NULL,PennController,56,_Header_,Start,1744734528813,undefined,795,soft,physical-positive,negative,positive,B,NULL
1744734993,26604675bb5888b6c2d7814718ab70c8,PennController,45,0,test_val,NULL,PennController,56,_Header_,End,1744734529067,undefined,795,soft,physical-positive,negative,positive,B,NULL
1744734993,26604675bb5888b6c2d7814718ab70c8,PennController,45,0,test_val,NULL,Selector,unnamed-Selector,Selection,positive,1744734530368,undefined,795,soft,physical-positive,negative,positive,B,negative;positive
1744734993,26604675bb5888b6c2d7814718ab70c8,PennController,45,0,test_val,NULL,PennController,56,_Trial_,End,1744734530369,undefined,795,soft,physical-positive,negative,positive,B,NULL
1744734993,26604675bb5888b6c2d7814718ab70c8,PennController,67,0,test_val,NULL,PennController,78,_Trial_,Start,1744734530370,undefined,886,ugly,physical-negative,negative,positive,B,NULL
1744734993,26604675bb5888b6c2d7814718ab70c8,PennController,67,0,test_val,NULL,PennController,78,_Header_,Start,1744734530370,undefined,886,ugly,physical-negative,negative,positive,B,NULL
1744734993,26604675bb5888b6c2d7814718ab70c8,PennController,67,0,test_val,NULL,PennController,78,_Header_,End,1744734530624,undefined,886,ugly,physical-negative,negative,positive,B,NULL
1744734993,26604675bb5888b6c2d7814718ab70c8,PennController,67,0,test_val,NULL,Selector,unnamed-Selector,Selection,negative,1744734532011,undefined,886,ugly,physical-negative,negative,positive,B,negative;positive
1744734993,26604675bb5888b6c2d7814718ab70c8,PennController,67,0,test_val,NULL,PennController,78,_Trial_,End,1744734532013,undefined,886,ugly,physical-negative,negative,positive,B,NULL
1744734993,26604675bb5888b6c2d7814718ab70c8,PennController,58,0,test_val,NULL,PennController,69,_Trial_,Start,1744734532014,undefined,864,supportive,social-positive,negative,positive,B,NULL
1744734993,26604675bb5888b6c2d7814718ab70c8,PennController,58,0,test_val,NULL,PennController,69,_Header_,Start,1744734532014,undefined,864,supportive,social-positive,negative,positive,B,NULL
1744734993,26604675bb5888b6c2d7814718ab70c8,PennController,58,0,test_val,NULL,PennController,69,_Header_,End,1744734532266,undefined,864,supportive,social-positive,negative,positive,B,NULL
1744734993,26604675bb5888b6c2d7814718ab70c8,PennController,58,0,test_val,NULL,Selector,unnamed-Selector,Selection,positive,1744734533632,undefined,864,supportive,social-positive,negative,positive,B,negative;positive
1744734993,26604675bb5888b6c2d7814718ab70c8,PennController,58,0,test_val,NULL,PennController,69,_Trial_,End,1744734533634,undefined,864,supportive,social-positive,negative,positive,B,NULL
1744734993,26604675bb5888b6c2d7814718ab70c8,PennController,61,0,test_val,NULL,PennController,72,_Trial_,Start,1744734533635,undefined,852,compassionate,social-positive,negative,positive,B,NULL
1744734993,26604675bb5888b6c2d7814718ab70c8,PennController,61,0,test_val,NULL,PennController,72,_Header_,Start,1744734533635,undefined,852,compassionate,social-positive,negative,positive,B,NULL
1744734993,26604675bb5888b6c2d7814718ab70c8,PennController,61,0,test_val,NULL,PennController,72,_Header_,End,1744734533887,undefined,852,compassionate,social-positive,negative,positive,B,NULL
1744734993,26604675bb5888b6c2d7814718ab70c8,PennController,61,0,test_val,NULL,Selector,unnamed-Selector,Selection,positive,1744734535242,undefined,852,compassionate,social-positive,negative,positive,B,negative;positive
1744734993,26604675bb5888b6c2d7814718ab70c8,PennController,61,0,test_val,NULL,PennController,72,_Trial_,End,1744734535244,undefined,852,compassionate,social-positive,negative,positive,B,NULL
1744734993,26604675bb5888b6c2d7814718ab70c8,PennController,47,0,test_val,NULL,PennController,58,_Trial_,Start,1744734535245,undefined,863,brittle,physical-negative,negative,positive,B,NULL
1744734993,26604675bb5888b6c2d7814718ab70c8,PennController,47,0,test_val,NULL,PennController,58,_Header_,Start,1744734535245,undefined,863,brittle,physical-negative,negative,positive,B,NULL
1744734993,26604675bb5888b6c2d7814718ab70c8,PennController,47,0,test_val,NULL,PennController,58,_Header_,End,1744734535495,undefined,863,brittle,physical-negative,negative,positive,B,NULL
1744734993,26604675bb5888b6c2d7814718ab70c8,PennController,47,0,test_val,NULL,Selector,unnamed-Selector,Selection,negative,1744734536863,undefined,863,brittle,physical-negative,negative,positive,B,negative;positive
1744734993,26604675bb5888b6c2d7814718ab70c8,PennController,47,0,test_val,NULL,PennController,58,_Trial_,End,1744734536865,undefined,863,brittle,physical-negative,negative,positive,B,NULL
1744734993,26604675bb5888b6c2d7814718ab70c8,PennController,52,0,test_val,NULL,PennController,63,_Trial_,Start,1744734536866,undefined,1061,rancid,physical-negative,negative,positive,B,NULL
1744734993,26604675bb5888b6c2d7814718ab70c8,PennController,52,0,test_val,NULL,PennController,63,_Header_,Start,1744734536866,undefined,1061,rancid,physical-negative,negative,positive,B,NULL
1744734993,26604675bb5888b6c2d7814718ab70c8,PennController,52,0,test_val,NULL,PennController,63,_Header_,End,1744734537117,undefined,1061,rancid,physical-negative,negative,positive,B,NULL
1744734993,26604675bb5888b6c2d7814718ab70c8,PennController,52,0,test_val,NULL,Selector,unnamed-Selector,Selection,negative,1744734538680,undefined,1061,rancid,physical-negative,negative,positive,B,negative;positive
1744734993,26604675bb5888b6c2d7814718ab70c8,PennController,52,0,test_val,NULL,PennController,63,_Trial_,End,1744734538681,undefined,1061,rancid,physical-negative,negative,positive,B,NULL
1744734993,26604675bb5888b6c2d7814718ab70c8,PennController,70,0,test_val,NULL,PennController,81,_Trial_,Start,1744734538683,undefined,717,hostile,social-negative,negative,positive,B,NULL
1744734993,26604675bb5888b6c2d7814718ab70c8,PennController,70,0,test_val,NULL,PennController,81,_Header_,Start,1744734538683,undefined,717,hostile,social-negative,negative,positive,B,NULL
1744734993,26604675bb5888b6c2d7814718ab70c8,PennController,70,0,test_val,NULL,PennController,81,_Header_,End,1744734538936,undefined,717,hostile,social-negative,negative,positive,B,NULL
1744734993,26604675bb5888b6c2d7814718ab70c8,PennController,70,0,test_val,NULL,Selector,unnamed-Selector,Selection,negative,1744734540159,undefined,717,hostile,social-negative,negative,positive,B,negative;positive
1744734993,26604675bb5888b6c2d7814718ab70c8,PennController,70,0,test_val,NULL,PennController,81,_Trial_,End,1744734540160,undefined,717,hostile,social-negative,negative,positive,B,NULL
1744734993,26604675bb5888b6c2d7814718ab70c8,PennController,51,0,test_val,NULL,PennController,62,_Trial_,Start,1744734540161,undefined,896,gritty,physical-negative,negative,positive,B,NULL
1744734993,26604675bb5888b6c2d7814718ab70c8,PennController,51,0,test_val,NULL,PennController,62,_Header_,Start,1744734540161,undefined,896,gritty,physical-negative,negative,positive,B,NULL
1744734993,26604675bb5888b6c2d7814718ab70c8,PennController,51,0,test_val,NULL,PennController,62,_Header_,End,1744734540412,undefined,896,gritty,physical-negative,negative,positive,B,NULL
1744734993,26604675bb5888b6c2d7814718ab70c8,PennController,51,0,test_val,NULL,Selector,unnamed-Selector,Selection,negative,1744734541811,undefined,896,gritty,physical-negative,negative,positive,B,negative;positive
1744734993,26604675bb5888b6c2d7814718ab70c8,PennController,51,0,test_val,NULL,PennController,62,_Trial_,End,1744734541812,undefined,896,gritty,physical-negative,negative,positive,B,NULL
1744734993,26604675bb5888b6c2d7814718ab70c8,PennController,64,0,test_val,NULL,PennController,75,_Trial_,Start,1744734541814,undefined,1115,wrinkled,physical-negative,negative,positive,B,NULL
1744734993,26604675bb5888b6c2d7814718ab70c8,PennController,64,0,test_val,NULL,PennController,75,_Header_,Start,1744734541814,undefined,1115,wrinkled,physical-negative,negative,positive,B,NULL
1744734993,26604675bb5888b6c2d7814718ab70c8,PennController,64,0,test_val,NULL,PennController,75,_Header_,End,1744734542068,undefined,1115,wrinkled,physical-negative,negative,positive,B,NULL
1744734993,26604675bb5888b6c2d7814718ab70c8,PennController,64,0,test_val,NULL,Selector,unnamed-Selector,Selection,negative,1744734543689,undefined,1115,wrinkled,physical-negative,negative,positive,B,negative;positive
1744734993,26604675bb5888b6c2d7814718ab70c8,PennController,64,0,test_val,NULL,PennController,75,_Trial_,End,1744734543690,undefined,1115,wrinkled,physical-negative,negative,positive,B,NULL
1744734993,26604675bb5888b6c2d7814718ab70c8,PennController,80,0,test_val,NULL,PennController,91,_Trial_,Start,1744734543691,undefined,1414,selfish,social-negative,negative,positive,B,NULL
1744734993,26604675bb5888b6c2d7814718ab70c8,PennController,80,0,test_val,NULL,PennController,91,_Header_,Start,1744734543691,undefined,1414,selfish,social-negative,negative,positive,B,NULL
1744734993,26604675bb5888b6c2d7814718ab70c8,PennController,80,0,test_val,NULL,PennController,91,_Header_,End,1744734543941,undefined,1414,selfish,social-negative,negative,positive,B,NULL
1744734993,26604675bb5888b6c2d7814718ab70c8,PennController,80,0,test_val,NULL,Selector,unnamed-Selector,Selection,negative,1744734545856,undefined,1414,selfish,social-negative,negative,positive,B,negative;positive
1744734993,26604675bb5888b6c2d7814718ab70c8,PennController,80,0,test_val,NULL,PennController,91,_Trial_,End,1744734545858,undefined,1414,selfish,social-negative,negative,positive,B,NULL
1744734993,26604675bb5888b6c2d7814718ab70c8,PennController,71,0,test_val,NULL,PennController,82,_Trial_,Start,1744734545859,undefined,937,amiable,social-positive,negative,positive,B,NULL
1744734993,26604675bb5888b6c2d7814718ab70c8,PennController,71,0,test_val,NULL,PennController,82,_Header_,Start,1744734545859,undefined,937,amiable,social-positive,negative,positive,B,NULL
1744734993,26604675bb5888b6c2d7814718ab70c8,PennController,71,0,test_val,NULL,PennController,82,_Header_,End,1744734546109,undefined,937,amiable,social-positive,negative,positive,B,NULL
1744734993,26604675bb5888b6c2d7814718ab70c8,PennController,71,0,test_val,NULL,Selector,unnamed-Selector,Selection,positive,1744734547551,undefined,937,amiable,social-positive,negative,positive,B,negative;positive
1744734993,26604675bb5888b6c2d7814718ab70c8,PennController,71,0,test_val,NULL,PennController,82,_Trial_,End,1744734547552,undefined,937,amiable,social-positive,negative,positive,B,NULL
1744734993,26604675bb5888b6c2d7814718ab70c8,PennController,83,0,test_val,NULL,PennController,94,_Trial_,Start,1744734547553,undefined,620,sympathetic,social-positive,negative,positive,B,NULL
1744734993,26604675bb5888b6c2d7814718ab70c8,PennController,83,0,test_val,NULL,PennController,94,_Header_,Start,1744734547553,undefined,620,sympathetic,social-positive,negative,positive,B,NULL
1744734993,26604675bb5888b6c2d7814718ab70c8,PennController,83,0,test_val,NULL,PennController,94,_Header_,End,1744734547803,undefined,620,sympathetic,social-positive,negative,positive,B,NULL
1744734993,26604675bb5888b6c2d7814718ab70c8,PennController,83,0,test_val,NULL,Selector,unnamed-Selector,Selection,positive,1744734548929,undefined,620,sympathetic,social-positive,negative,positive,B,negative;positive
1744734993,26604675bb5888b6c2d7814718ab70c8,PennController,83,0,test_val,NULL,PennController,94,_Trial_,End,1744734548929,undefined,620,sympathetic,social-positive,negative,positive,B,NULL
1744734993,26604675bb5888b6c2d7814718ab70c8,PennController,50,0,test_val,NULL,PennController,61,_Trial_,Start,1744734548930,undefined,797,clammy,physical-negative,negative,positive,B,NULL
1744734993,26604675bb5888b6c2d7814718ab70c8,PennController,50,0,test_val,NULL,PennController,61,_Header_,Start,1744734548930,undefined,797,clammy,physical-negative,negative,positive,B,NULL
1744734993,26604675bb5888b6c2d7814718ab70c8,PennController,50,0,test_val,NULL,PennController,61,_Header_,End,1744734549181,undefined,797,clammy,physical-negative,negative,positive,B,NULL
1744734993,26604675bb5888b6c2d7814718ab70c8,PennController,50,0,test_val,NULL,Selector,unnamed-Selector,Selection,negative,1744734550480,undefined,797,clammy,physical-negative,negative,positive,B,negative;positive
1744734993,26604675bb5888b6c2d7814718ab70c8,PennController,50,0,test_val,NULL,PennController,61,_Trial_,End,1744734550481,undefined,797,clammy,physical-negative,negative,positive,B,NULL
1744734993,26604675bb5888b6c2d7814718ab70c8,PennController,53,0,test_val,NULL,PennController,64,_Trial_,Start,1744734550483,undefined,861,sturdy,physical-positive,negative,positive,B,NULL
1744734993,26604675bb5888b6c2d7814718ab70c8,PennController,53,0,test_val,NULL,PennController,64,_Header_,Start,1744734550483,undefined,861,sturdy,physical-positive,negative,positive,B,NULL
1744734993,26604675bb5888b6c2d7814718ab70c8,PennController,53,0,test_val,NULL,PennController,64,_Header_,End,1744734550734,undefined,861,sturdy,physical-positive,negative,positive,B,NULL
1744734993,26604675bb5888b6c2d7814718ab70c8,PennController,53,0,test_val,NULL,Selector,unnamed-Selector,Selection,positive,1744734552099,undefined,861,sturdy,physical-positive,negative,positive,B,negative;positive
1744734993,26604675bb5888b6c2d7814718ab70c8,PennController,53,0,test_val,NULL,PennController,64,_Trial_,End,1744734552100,undefined,861,sturdy,physical-positive,negative,positive,B,NULL
1744734993,26604675bb5888b6c2d7814718ab70c8,PennController,74,0,test_val,NULL,PennController,85,_Trial_,Start,1744734552101,undefined,774,generous,social-positive,negative,positive,B,NULL
1744734993,26604675bb5888b6c2d7814718ab70c8,PennController,74,0,test_val,NULL,PennController,85,_Header_,Start,1744734552101,undefined,774,generous,social-positive,negative,positive,B,NULL
1744734993,26604675bb5888b6c2d7814718ab70c8,PennController,74,0,test_val,NULL,PennController,85,_Header_,End,1744734552354,undefined,774,generous,social-positive,negative,positive,B,NULL
1744734993,26604675bb5888b6c2d7814718ab70c8,PennController,74,0,test_val,NULL,Selector,unnamed-Selector,Selection,positive,1744734553632,undefined,774,generous,social-positive,negative,positive,B,negative;positive
1744734993,26604675bb5888b6c2d7814718ab70c8,PennController,74,0,test_val,NULL,PennController,85,_Trial_,End,1744734553634,undefined,774,generous,social-positive,negative,positive,B,NULL
1744734993,26604675bb5888b6c2d7814718ab70c8,PennController,66,0,test_val,NULL,PennController,77,_Trial_,Start,1744734553635,undefined,1025,obese,physical-negative,negative,positive,B,NULL
1744734993,26604675bb5888b6c2d7814718ab70c8,PennController,66,0,test_val,NULL,PennController,77,_Header_,Start,1744734553635,undefined,1025,obese,physical-negative,negative,positive,B,NULL
1744734993,26604675bb5888b6c2d7814718ab70c8,PennController,66,0,test_val,NULL,PennController,77,_Header_,End,1744734553887,undefined,1025,obese,physical-negative,negative,positive,B,NULL
1744734993,26604675bb5888b6c2d7814718ab70c8,PennController,66,0,test_val,NULL,Selector,unnamed-Selector,Selection,negative,1744734555415,undefined,1025,obese,physical-negative,negative,positive,B,negative;positive
1744734993,26604675bb5888b6c2d7814718ab70c8,PennController,66,0,test_val,NULL,PennController,77,_Trial_,End,1744734555416,undefined,1025,obese,physical-negative,negative,positive,B,NULL
1744734993,26604675bb5888b6c2d7814718ab70c8,PennController,63,0,test_val,NULL,PennController,74,_Trial_,Start,1744734555418,undefined,736,unjust,social-negative,negative,positive,B,NULL
1744734993,26604675bb5888b6c2d7814718ab70c8,PennController,63,0,test_val,NULL,PennController,74,_Header_,Start,1744734555418,undefined,736,unjust,social-negative,negative,positive,B,NULL
1744734993,26604675bb5888b6c2d7814718ab70c8,PennController,63,0,test_val,NULL,PennController,74,_Header_,End,1744734555669,undefined,736,unjust,social-negative,negative,positive,B,NULL
1744734993,26604675bb5888b6c2d7814718ab70c8,PennController,63,0,test_val,NULL,Selector,unnamed-Selector,Selection,negative,1744734556908,undefined,736,unjust,social-negative,negative,positive,B,negative;positive
1744734993,26604675bb5888b6c2d7814718ab70c8,PennController,63,0,test_val,NULL,PennController,74,_Trial_,End,1744734556909,undefined,736,unjust,social-negative,negative,positive,B,NULL
1744734993,26604675bb5888b6c2d7814718ab70c8,PennController,68,0,test_val,NULL,PennController,79,_Trial_,Start,1744734556911,undefined,659,scrawny,physical-negative,negative,positive,B,NULL
1744734993,26604675bb5888b6c2d7814718ab70c8,PennController,68,0,test_val,NULL,PennController,79,_Header_,Start,1744734556911,undefined,659,scrawny,physical-negative,negative,positive,B,NULL
1744734993,26604675bb5888b6c2d7814718ab70c8,PennController,68,0,test_val,NULL,PennController,79,_Header_,End,1744734557163,undefined,659,scrawny,physical-negative,negative,positive,B,NULL
1744734993,26604675bb5888b6c2d7814718ab70c8,PennController,68,0,test_val,NULL,Selector,unnamed-Selector,Selection,negative,1744734558325,undefined,659,scrawny,physical-negative,negative,positive,B,negative;positive
1744734993,26604675bb5888b6c2d7814718ab70c8,PennController,68,0,test_val,NULL,PennController,79,_Trial_,End,1744734558326,undefined,659,scrawny,physical-negative,negative,positive,B,NULL
1744734993,26604675bb5888b6c2d7814718ab70c8,PennController,48,0,test_val,NULL,PennController,59,_Trial_,Start,1744734558326,undefined,655,fragrant,physical-positive,negative,positive,B,NULL
1744734993,26604675bb5888b6c2d7814718ab70c8,PennController,48,0,test_val,NULL,PennController,59,_Header_,Start,1744734558326,undefined,655,fragrant,physical-positive,negative,positive,B,NULL
1744734993,26604675bb5888b6c2d7814718ab70c8,PennController,48,0,test_val,NULL,PennController,59,_Header_,End,1744734558578,undefined,655,fragrant,physical-positive,negative,positive,B,NULL
1744734993,26604675bb5888b6c2d7814718ab70c8,PennController,48,0,test_val,NULL,Selector,unnamed-Selector,Selection,positive,1744734559735,undefined,655,fragrant,physical-positive,negative,positive,B,negative;positive
1744734993,26604675bb5888b6c2d7814718ab70c8,PennController,48,0,test_val,NULL,PennController,59,_Trial_,End,1744734559737,undefined,655,fragrant,physical-positive,negative,positive,B,NULL
1744734993,26604675bb5888b6c2d7814718ab70c8,PennController,69,0,test_val,NULL,PennController,80,_Trial_,Start,1744734559738,undefined,651,youthful,physical-positive,negative,positive,B,NULL
1744734993,26604675bb5888b6c2d7814718ab70c8,PennController,69,0,test_val,NULL,PennController,80,_Header_,Start,1744734559738,undefined,651,youthful,physical-positive,negative,positive,B,NULL
1744734993,26604675bb5888b6c2d7814718ab70c8,PennController,69,0,test_val,NULL,PennController,80,_Header_,End,1744734559990,undefined,651,youthful,physical-positive,negative,positive,B,NULL
1744734993,26604675bb5888b6c2d7814718ab70c8,PennController,69,0,test_val,NULL,Selector,unnamed-Selector,Selection,positive,1744734561142,undefined,651,youthful,physical-positive,negative,positive,B,negative;positive
1744734993,26604675bb5888b6c2d7814718ab70c8,PennController,69,0,test_val,NULL,PennController,80,_Trial_,End,1744734561144,undefined,651,youthful,physical-positive,negative,positive,B,NULL
1744734993,26604675bb5888b6c2d7814718ab70c8,PennController,77,0,test_val,NULL,PennController,88,_Trial_,Start,1744734561145,undefined,775,cruel,social-negative,negative,positive,B,NULL
1744734993,26604675bb5888b6c2d7814718ab70c8,PennController,77,0,test_val,NULL,PennController,88,_Header_,Start,1744734561145,undefined,775,cruel,social-negative,negative,positive,B,NULL
1744734993,26604675bb5888b6c2d7814718ab70c8,PennController,77,0,test_val,NULL,PennController,88,_Header_,End,1744734561397,undefined,775,cruel,social-negative,negative,positive,B,NULL
1744734993,26604675bb5888b6c2d7814718ab70c8,PennController,77,0,test_val,NULL,Selector,unnamed-Selector,Selection,negative,1744734562678,undefined,775,cruel,social-negative,negative,positive,B,negative;positive
1744734993,26604675bb5888b6c2d7814718ab70c8,PennController,77,0,test_val,NULL,PennController,88,_Trial_,End,1744734562680,undefined,775,cruel,social-negative,negative,positive,B,NULL
1744734993,26604675bb5888b6c2d7814718ab70c8,PennController,49,0,test_val,NULL,PennController,60,_Trial_,Start,1744734562681,undefined,1571,sour,physical-negative,negative,positive,B,NULL
1744734993,26604675bb5888b6c2d7814718ab70c8,PennController,49,0,test_val,NULL,PennController,60,_Header_,Start,1744734562681,undefined,1571,sour,physical-negative,negative,positive,B,NULL
1744734993,26604675bb5888b6c2d7814718ab70c8,PennController,49,0,test_val,NULL,PennController,60,_Header_,End,1744734562933,undefined,1571,sour,physical-negative,negative,positive,B,NULL
1744734993,26604675bb5888b6c2d7814718ab70c8,PennController,49,0,test_val,NULL,Selector,unnamed-Selector,Selection,negative,1744734565005,undefined,1571,sour,physical-negative,negative,positive,B,negative;positive
1744734993,26604675bb5888b6c2d7814718ab70c8,PennController,49,0,test_val,NULL,PennController,60,_Trial_,End,1744734565006,undefined,1571,sour,physical-negative,negative,positive,B,NULL
1744734993,26604675bb5888b6c2d7814718ab70c8,PennController,54,0,test_val,NULL,PennController,65,_Trial_,Start,1744734565008,undefined,1027,lush,physical-positive,negative,positive,B,NULL
1744734993,26604675bb5888b6c2d7814718ab70c8,PennController,54,0,test_val,NULL,PennController,65,_Header_,Start,1744734565008,undefined,1027,lush,physical-positive,negative,positive,B,NULL
1744734993,26604675bb5888b6c2d7814718ab70c8,PennController,54,0,test_val,NULL,PennController,65,_Header_,End,1744734565258,undefined,1027,lush,physical-positive,negative,positive,B,NULL
1744734993,26604675bb5888b6c2d7814718ab70c8,PennController,54,0,test_val,NULL,Selector,unnamed-Selector,Selection,negative,1744734566786,undefined,1027,lush,physical-positive,negative,positive,B,negative;positive
1744734993,26604675bb5888b6c2d7814718ab70c8,PennController,54,0,test_val,NULL,PennController,65,_Trial_,End,1744734566788,undefined,1027,lush,physical-positive,negative,positive,B,NULL
1744734993,26604675bb5888b6c2d7814718ab70c8,PennController,79,0,test_val,NULL,PennController,90,_Trial_,Start,1744734566790,undefined,880,untrustworthy,social-negative,negative,positive,B,NULL
1744734993,26604675bb5888b6c2d7814718ab70c8,PennController,79,0,test_val,NULL,PennController,90,_Header_,Start,1744734566790,undefined,880,untrustworthy,social-negative,negative,positive,B,NULL
1744734993,26604675bb5888b6c2d7814718ab70c8,PennController,79,0,test_val,NULL,PennController,90,_Header_,End,1744734567041,undefined,880,untrustworthy,social-negative,negative,positive,B,NULL
1744734993,26604675bb5888b6c2d7814718ab70c8,PennController,79,0,test_val,NULL,Selector,unnamed-Selector,Selection,negative,1744734568426,undefined,880,untrustworthy,social-negative,negative,positive,B,negative;positive
1744734993,26604675bb5888b6c2d7814718ab70c8,PennController,79,0,test_val,NULL,PennController,90,_Trial_,End,1744734568428,undefined,880,untrustworthy,social-negative,negative,positive,B,NULL
1744734993,26604675bb5888b6c2d7814718ab70c8,PennController,81,0,test_val,NULL,PennController,92,_Trial_,Start,1744734568429,undefined,843,polite,social-positive,negative,positive,B,NULL
1744734993,26604675bb5888b6c2d7814718ab70c8,PennController,81,0,test_val,NULL,PennController,92,_Header_,Start,1744734568429,undefined,843,polite,social-positive,negative,positive,B,NULL
1744734993,26604675bb5888b6c2d7814718ab70c8,PennController,81,0,test_val,NULL,PennController,92,_Header_,End,1744734568683,undefined,843,polite,social-positive,negative,positive,B,NULL
1744734993,26604675bb5888b6c2d7814718ab70c8,PennController,81,0,test_val,NULL,Selector,unnamed-Selector,Selection,positive,1744734570032,undefined,843,polite,social-positive,negative,positive,B,negative;positive
1744734993,26604675bb5888b6c2d7814718ab70c8,PennController,81,0,test_val,NULL,PennController,92,_Trial_,End,1744734570033,undefined,843,polite,social-positive,negative,positive,B,NULL
1744734993,26604675bb5888b6c2d7814718ab70c8,PennController,76,0,test_val,NULL,PennController,87,_Trial_,Start,1744734570035,undefined,790,manipulative,social-negative,negative,positive,B,NULL
1744734993,26604675bb5888b6c2d7814718ab70c8,PennController,76,0,test_val,NULL,PennController,87,_Header_,Start,1744734570035,undefined,790,manipulative,social-negative,negative,positive,B,NULL
1744734993,26604675bb5888b6c2d7814718ab70c8,PennController,76,0,test_val,NULL,PennController,87,_Header_,End,1744734570287,undefined,790,manipulative,social-negative,negative,positive,B,NULL
1744734993,26604675bb5888b6c2d7814718ab70c8,PennController,76,0,test_val,NULL,Selector,unnamed-Selector,Selection,negative,1744734571580,undefined,790,manipulative,social-negative,negative,positive,B,negative;positive
1744734993,26604675bb5888b6c2d7814718ab70c8,PennController,76,0,test_val,NULL,PennController,87,_Trial_,End,1744734571581,undefined,790,manipulative,social-negative,negative,positive,B,NULL
