"","ID.true","Word","Label","ConcValCombo","Task","BlockOrder","Group","Response","Accuracy","EventTime","Value","RT","ReactionTime","Key_value_F","Key_value_J","Comments","LogReactionTime","LogRT","TrialNumber"
"1","630663a1dc842dde6b18b557","rancid","test_val","physical-negative","Valence","VS","positive;negative","negative",1,1744729149380,"negative",1742,1010,"negative","A","",6.9177056098353,7.46278915741245,1
"2","630663a1dc842dde6b18b557","fair","test_val","social-positive","Valence","VS","positive;negative","positive",1,1744729151024,"positive",1573.33333333333,887,"negative","A","",6.78784498230958,7.36095178991149,2
"3","630663a1dc842dde6b18b557","amiable","test_val","social-positive","Valence","VS","positive;negative","positive",1,1744729152711,"positive",1600.5,934,"negative","A","",6.83947643822884,7.37807135940992,3
"4","630663a1dc842dde6b18b557","prosperous","test_val","social-positive","Valence","VS","positive;negative","positive",1,1744729154173,"positive",1575.66666666667,704,"negative","A","",6.55677835615804,7.36243374212513,4
"5","630663a1dc842dde6b18b557","soft","test_val","physical-positive","Valence","VS","positive;negative","positive",1,1744729155750,"positive",1502.83333333333,824,"negative","A","",6.71417052990947,7.31510749427185,5
"6","630663a1dc842dde6b18b557","arrogant","test_val","social-negative","Valence","VS","positive;negative","negative",1,1744729157639,"negative",1871.83333333333,1135,"negative","A","",7.0343879299155,7.53467362173498,6
"7","630663a1dc842dde6b18b557","oppressive","test_val","social-negative","Valence","VS","positive;negative","negative",1,1744729159372,"negative",1911.33333333333,979,"negative","A","",6.88653164253051,7.55555635777521,7
"8","630663a1dc842dde6b18b557","cruel","test_val","social-negative","Valence","VS","positive;negative","negative",1,1744729160822,"negative",1594.16666666667,697,"negative","A","",6.54678541076052,7.3741064126463,8
"9","630663a1dc842dde6b18b557","gritty","test_val","physical-negative","Valence","VS","positive;negative","negative",1,1744729162217,"negative",1611.5,640,"negative","A","",6.46146817635372,7.38492070125549,9
"10","630663a1dc842dde6b18b557","sour","test_val","physical-negative","Valence","VS","positive;negative","negative",1,1744729163725,"negative",1619.16666666667,753,"negative","A","",6.62406522779989,7.38966689258349,10
"11","630663a1dc842dde6b18b557","judgmental","test_val","social-negative","Valence","VS","positive;negative","negative",1,1744729165569,"negative",1654.33333333333,1091,"negative","A","",6.99484998583307,7.41115338691933,11
"12","630663a1dc842dde6b18b557","slim","test_val","physical-positive","Valence","VS","positive;negative","positive",1,1744729167212,"positive",1570.5,884,"negative","A","",6.78445706263764,7.3591493189787,12
"13","630663a1dc842dde6b18b557","brittle","test_val","physical-negative","Valence","VS","positive;negative","negative",1,1744729169462,"negative",1589.33333333333,1493,"negative","A","",7.30854279753919,7.37106992007708,13
"14","630663a1dc842dde6b18b557","hostile","test_val","social-negative","Valence","VS","positive;negative","negative",1,1744729171038,"negative",1671.33333333333,820,"negative","A","",6.7093043402583,7.42137699005013,14
"15","630663a1dc842dde6b18b557","gorgeous","test_val","physical-positive","Valence","VS","positive;negative","positive",1,1744729172545,"positive",1609.5,754,"negative","A","",6.62539236800796,7.38367885073886,15
"16","630663a1dc842dde6b18b557","generous","test_val","social-positive","Valence","VS","positive;negative","positive",1,1744729174457,"positive",1741.16666666667,1158,"negative","A","",7.05444965813294,7.46231066560945,16
"17","630663a1dc842dde6b18b557","radiant","test_val","physical-positive","Valence","VS","positive;negative","positive",1,1744729176179,"positive",1754.33333333333,966,"negative","A","",6.87316383421252,7.46984419668567,17
"18","630663a1dc842dde6b18b557","scrawny","test_val","physical-negative","Valence","VS","positive;negative","negative",1,1744729177936,"negative",1760.33333333333,1002,"negative","A","",6.90975328164481,7.47325846403882,18
"19","630663a1dc842dde6b18b557","sturdy","test_val","physical-positive","Valence","VS","positive;negative","positive",1,1744729179734,"positive",1811.66666666667,1043,"negative","A","",6.94985645500077,7.5020025108872,19
"20","630663a1dc842dde6b18b557","untrustworthy","test_val","social-negative","Valence","VS","positive;negative","negative",1,1744729181849,"negative",1700,1358,"negative","A","",7.21376830811864,7.43838353004431,20
"21","630663a1dc842dde6b18b557","selfish","test_val","social-negative","Valence","VS","positive;negative","negative",1,1744729183401,"negative",1556.83333333333,798,"negative","A","",6.68210859744981,7.35040912264479,21
"22","630663a1dc842dde6b18b557","corrupt","test_val","social-negative","Valence","VS","positive;negative","negative",1,1744729184954,"negative",1693.83333333333,793,"negative","A","",6.67582322163485,7.43474948390971,22
"23","630663a1dc842dde6b18b557","supportive","test_val","social-positive","Valence","VS","positive;negative","positive",1,1744729186697,"positive",1510,988,"negative","A","",6.89568269774787,7.31986492980897,23
"24","630663a1dc842dde6b18b557","compassionate","test_val","social-positive","Valence","VS","positive;negative","positive",1,1744729188384,"positive",1459.83333333333,928,"negative","A","",6.8330317327862,7.28607755293503,24
"25","630663a1dc842dde6b18b557","moldy","test_val","physical-negative","Valence","VS","positive;negative","negative",1,1744729190094,"negative",1495,955,"negative","A","",6.86171134048073,7.30988148582479,25
"26","630663a1dc842dde6b18b557","lush","test_val","physical-positive","Valence","VS","positive;negative","positive",1,1744729191760,"positive",1660.33333333333,909,"negative","A","",6.81234509417748,7.41477366440517,26
"27","630663a1dc842dde6b18b557","manipulative","test_val","social-negative","Valence","VS","positive;negative","negative",1,1744729193537,"negative",1706.66666666667,1024,"negative","A","",6.93147180559945,7.44229742936544,27
"28","630663a1dc842dde6b18b557","elegant","test_val","physical-positive","Valence","VS","positive;negative","positive",1,1744729194979,"positive",1619.5,690,"negative","A","",6.5366915975913,7.38987273861138,28
"29","630663a1dc842dde6b18b557","polite","test_val","social-positive","Valence","VS","positive;negative","positive",1,1744729196397,"positive",1581.83333333333,660,"negative","A","",6.49223983502047,7.36633979090244,29
"30","630663a1dc842dde6b18b557","fragrant","test_val","physical-positive","Valence","VS","positive;negative","positive",1,1744729198341,"positive",1680.5,1189,"negative","A","",7.08086789669078,7.42684664716516,30
"31","630663a1dc842dde6b18b557","ugly","test_val","physical-negative","Valence","VS","positive;negative","negative",1,1744729199781,"negative",1529.66666666667,684,"negative","A","",6.52795791762255,7.33280512572672,31
"32","630663a1dc842dde6b18b557","smooth","test_val","physical-positive","Valence","VS","positive;negative","positive",1,1744729201378,"positive",1529.16666666667,844,"negative","A","",6.73815249459596,7.33247820369472,32
"33","630663a1dc842dde6b18b557","trustworthy","test_val","social-positive","Valence","VS","positive;negative","positive",1,1744729202987,"positive",1784,850,"negative","A","",6.74523634948436,7.48661331313996,33
"34","630663a1dc842dde6b18b557","youthful","test_val","physical-positive","Valence","VS","positive;negative","positive",1,1744729204382,"positive",1554.83333333333,638,"negative","A","",6.45833828334479,7.34912363773291,34
"35","630663a1dc842dde6b18b557","sympathetic","test_val","social-positive","Valence","VS","positive;negative","positive",1,1744729206046,"positive",1577.66666666667,905,"negative","A","",6.80793494369993,7.36370224123814,35
"36","630663a1dc842dde6b18b557","unjust","test_val","social-negative","Valence","VS","positive;negative","negative",1,1744729207711,"negative",1553,910,"negative","A","",6.8134445995109,7.34794382314869,36
"37","630663a1dc842dde6b18b557","obese","test_val","physical-negative","Valence","VS","positive;negative","negative",1,1744729209130,"negative",1528.66666666667,663,"negative","A","",6.49677499018586,7.33215117474974,37
"38","630663a1dc842dde6b18b557","wrinkled","test_val","physical-negative","Valence","VS","positive;negative","negative",1,1744729211052,"negative",1665.83333333333,1169,"negative","A","",7.06390396147207,7.41808077770645,38
"39","630663a1dc842dde6b18b557","clammy","test_val","physical-negative","Valence","VS","positive;negative","negative",1,1744729212808,"negative",1743.5,1001,"negative","A","",6.90875477931522,7.46364986611571,39
"40","630663a1dc842dde6b18b557","harmonious","test_val","social-positive","Valence","VS","positive;negative","positive",1,1744729214451,"positive",1649.66666666667,887,"negative","A","",6.78784498230958,7.40832852628378,40
"41","630663a1dc842dde6b18b557","unjust","test_val","social-negative","Valence","VS","positive;negative","negative",1,1744729215902,"negative",1553,699,"negative","A","",6.54965074223381,7.34794382314869,41
"42","630663a1dc842dde6b18b557","trustworthy","test_val","social-positive","Valence","VS","positive;negative","positive",1,1744729217454,"positive",1784,792,"negative","A","",6.67456139181443,7.48661331313996,42
"43","630663a1dc842dde6b18b557","compassionate","test_val","social-positive","Valence","VS","positive;negative","positive",1,1744729218872,"positive",1459.83333333333,659,"negative","A","",6.49072353450251,7.28607755293503,43
"44","630663a1dc842dde6b18b557","arrogant","test_val","social-negative","Valence","VS","positive;negative","negative",1,1744729220514,"negative",1871.83333333333,888,"negative","A","",6.78897174299217,7.53467362173498,44
"45","630663a1dc842dde6b18b557","scrawny","test_val","physical-negative","Valence","VS","positive;negative","negative",1,1744729222044,"negative",1760.33333333333,775,"negative","A","",6.65286302935335,7.47325846403882,45
"46","630663a1dc842dde6b18b557","soft","test_val","physical-positive","Valence","VS","positive;negative","positive",1,1744729223529,"positive",1502.83333333333,729,"negative","A","",6.59167373200866,7.31510749427185,46
"47","630663a1dc842dde6b18b557","prosperous","test_val","social-positive","Valence","VS","positive;negative","positive",1,1744729224992,"positive",1575.66666666667,707,"negative","A","",6.56103066589657,7.36243374212513,47
"48","630663a1dc842dde6b18b557","slim","test_val","physical-positive","Valence","VS","positive;negative","positive",1,1744729226341,"positive",1570.5,595,"negative","A","",6.38856140554563,7.3591493189787,48
"49","630663a1dc842dde6b18b557","elegant","test_val","physical-positive","Valence","VS","positive;negative","positive",1,1744729228085,"positive",1619.5,989,"negative","A","",6.89669433162271,7.38987273861138,49
"50","630663a1dc842dde6b18b557","supportive","test_val","social-positive","Valence","VS","positive;negative","positive",1,1744729229593,"positive",1510,752,"negative","A","",6.62273632394984,7.31986492980897,50
"51","630663a1dc842dde6b18b557","hostile","test_val","social-negative","Valence","VS","positive;negative","negative",1,1744729231145,"negative",1671.33333333333,797,"negative","A","",6.68085467879022,7.42137699005013,51
"52","630663a1dc842dde6b18b557","clammy","test_val","physical-negative","Valence","VS","positive;negative","negative",1,1744729232562,"negative",1743.5,661,"negative","A","",6.49375383985169,7.46364986611571,52
"53","630663a1dc842dde6b18b557","radiant","test_val","physical-positive","Valence","VS","positive;negative","positive",1,1744729234047,"positive",1754.33333333333,732,"negative","A","",6.59578051396131,7.46984419668567,53
"54","630663a1dc842dde6b18b557","judgmental","test_val","social-negative","Valence","VS","positive;negative","negative",1,1744729235723,"negative",1654.33333333333,920,"negative","A","",6.82437367004309,7.41115338691933,54
"55","630663a1dc842dde6b18b557","moldy","test_val","physical-negative","Valence","VS","positive;negative","negative",1,1744729237276,"negative",1495,797,"negative","A","",6.68085467879022,7.30988148582479,55
"56","630663a1dc842dde6b18b557","brittle","test_val","physical-negative","Valence","VS","positive;negative","negative",1,1744729238717,"negative",1589.33333333333,686,"negative","A","",6.53087762772588,7.37106992007708,56
"57","630663a1dc842dde6b18b557","sympathetic","test_val","social-positive","Valence","VS","positive;negative","positive",1,1744729240157,"positive",1577.66666666667,682,"negative","A","",6.52502965784346,7.36370224123814,57
"58","630663a1dc842dde6b18b557","selfish","test_val","social-negative","Valence","VS","positive;negative","negative",1,1744729241731,"negative",1556.83333333333,816,"negative","A","",6.70441435496411,7.35040912264479,58
"59","630663a1dc842dde6b18b557","lush","test_val","physical-positive","Valence","VS","positive;negative","negative",0,1744729243307,"negative",1660.33333333333,823,"negative","A","",6.71295620067707,7.41477366440517,59
"60","630663a1dc842dde6b18b557","sturdy","test_val","physical-positive","Valence","VS","positive;negative","negative",0,1744729244972,"negative",1811.66666666667,908,"negative","A","",6.81124437860129,7.5020025108872,60
"61","630663a1dc842dde6b18b557","corrupt","test_val","social-negative","Valence","VS","positive;negative","negative",1,1744729247098,"negative",1693.83333333333,1373,"negative","A","",7.22475340576797,7.43474948390971,61
"62","630663a1dc842dde6b18b557","wrinkled","test_val","physical-negative","Valence","VS","positive;negative","negative",1,1744729248706,"negative",1665.83333333333,852,"negative","A","",6.74758652682932,7.41808077770645,62
"63","630663a1dc842dde6b18b557","youthful","test_val","physical-positive","Valence","VS","positive;negative","positive",1,1744729250101,"positive",1554.83333333333,638,"negative","A","",6.45833828334479,7.34912363773291,63
"64","630663a1dc842dde6b18b557","sour","test_val","physical-negative","Valence","VS","positive;negative","negative",1,1744729251699,"negative",1619.16666666667,846,"negative","A","",6.74051935960622,7.38966689258349,64
"65","630663a1dc842dde6b18b557","oppressive","test_val","social-negative","Valence","VS","positive;negative","negative",1,1744729253577,"negative",1911.33333333333,1121,"negative","A","",7.02197642307216,7.55555635777521,65
"66","630663a1dc842dde6b18b557","untrustworthy","test_val","social-negative","Valence","VS","positive;negative","negative",1,1744729255288,"negative",1700,953,"negative","A","",6.8596149036542,7.43838353004431,66
"67","630663a1dc842dde6b18b557","smooth","test_val","physical-positive","Valence","VS","positive;negative","positive",1,1744729256773,"positive",1529.16666666667,732,"negative","A","",6.59578051396131,7.33247820369472,67
"68","630663a1dc842dde6b18b557","generous","test_val","social-positive","Valence","VS","positive;negative","positive",1,1744729258291,"positive",1741.16666666667,765,"negative","A","",6.63987583382654,7.46231066560945,68
"69","630663a1dc842dde6b18b557","manipulative","test_val","social-negative","Valence","VS","positive;negative","negative",1,1744729260025,"negative",1706.66666666667,979,"negative","A","",6.88653164253051,7.44229742936544,69
"70","630663a1dc842dde6b18b557","cruel","test_val","social-negative","Valence","VS","positive;negative","negative",1,1744729261531,"negative",1594.16666666667,749,"negative","A","",6.61873898351722,7.3741064126463,70
"71","630663a1dc842dde6b18b557","amiable","test_val","social-positive","Valence","VS","positive;negative","positive",1,1744729263029,"positive",1600.5,744,"negative","A","",6.61204103483309,7.37807135940992,71
"72","630663a1dc842dde6b18b557","fair","test_val","social-positive","Valence","VS","positive;negative","negative",0,1744729264694,"negative",1573.33333333333,909,"negative","A","",6.81234509417748,7.36095178991149,72
"73","630663a1dc842dde6b18b557","polite","test_val","social-positive","Valence","VS","positive;negative","positive",1,1744729266155,"positive",1581.83333333333,708,"negative","A","",6.56244409369372,7.36633979090244,73
"74","630663a1dc842dde6b18b557","rancid","test_val","physical-negative","Valence","VS","positive;negative","negative",1,1744729267797,"negative",1742,888,"negative","A","",6.78897174299217,7.46278915741245,74
"75","630663a1dc842dde6b18b557","gorgeous","test_val","physical-positive","Valence","VS","positive;negative","positive",1,1744729269350,"positive",1609.5,800,"negative","A","",6.68461172766793,7.38367885073886,75
"76","630663a1dc842dde6b18b557","fragrant","test_val","physical-positive","Valence","VS","positive;negative","positive",1,1744729270902,"positive",1680.5,800,"negative","A","",6.68461172766793,7.42684664716516,76
"77","630663a1dc842dde6b18b557","ugly","test_val","physical-negative","Valence","VS","positive;negative","negative",1,1744729272342,"negative",1529.66666666667,682,"negative","A","",6.52502965784346,7.33280512572672,77
"78","630663a1dc842dde6b18b557","harmonious","test_val","social-positive","Valence","VS","positive;negative","positive",1,1744729273974,"positive",1649.66666666667,878,"negative","A","",6.77764659363512,7.40832852628378,78
"79","630663a1dc842dde6b18b557","obese","test_val","physical-negative","Valence","VS","positive;negative","negative",1,1744729275435,"negative",1528.66666666667,706,"negative","A","",6.55961523749324,7.33215117474974,79
"80","630663a1dc842dde6b18b557","gritty","test_val","physical-negative","Valence","VS","positive;negative","negative",1,1744729277495,"negative",1611.5,1306,"negative","A","",7.17472430983638,7.38492070125549,80
"81","630663a1dc842dde6b18b557","arrogant","test_val","social-negative","Valence","VS","positive;negative","positive",0,1744729280105,"positive",1871.83333333333,1856,"negative","A","",7.52617891334615,7.53467362173498,81
"82","630663a1dc842dde6b18b557","unjust","test_val","social-negative","Valence","VS","positive;negative","negative",1,1744729281836,"negative",1553,977,"negative","A","",6.88448665204278,7.34794382314869,82
"83","630663a1dc842dde6b18b557","generous","test_val","social-positive","Valence","VS","positive;negative","positive",1,1744729283232,"positive",1741.16666666667,640,"negative","A","",6.46146817635372,7.46231066560945,83
"84","630663a1dc842dde6b18b557","supportive","test_val","social-positive","Valence","VS","positive;negative","positive",1,1744729284717,"positive",1510,730,"negative","A","",6.59304453414244,7.31986492980897,84
"85","630663a1dc842dde6b18b557","corrupt","test_val","social-negative","Valence","VS","positive;negative","negative",1,1744729286359,"negative",1693.83333333333,890,"negative","A","",6.79122146272619,7.43474948390971,85
"86","630663a1dc842dde6b18b557","sturdy","test_val","physical-positive","Valence","VS","positive;negative","positive",1,1744729288565,"positive",1811.66666666667,1451,"negative","A","",7.28000825288419,7.5020025108872,86
"87","630663a1dc842dde6b18b557","fragrant","test_val","physical-positive","Valence","VS","positive;negative","positive",1,1744729290185,"positive",1680.5,868,"negative","A","",6.76619171466035,7.42684664716516,87
"88","630663a1dc842dde6b18b557","youthful","test_val","physical-positive","Valence","VS","positive;negative","positive",1,1744729291467,"positive",1554.83333333333,531,"negative","A","",6.27476202124194,7.34912363773291,88
"89","630663a1dc842dde6b18b557","amiable","test_val","social-positive","Valence","VS","positive;negative","positive",1,1744729292749,"positive",1600.5,527,"negative","A","",6.26720054854136,7.37807135940992,89
"90","630663a1dc842dde6b18b557","ugly","test_val","physical-negative","Valence","VS","positive;negative","negative",1,1744729294212,"negative",1529.66666666667,707,"negative","A","",6.56103066589657,7.33280512572672,90
"91","630663a1dc842dde6b18b557","smooth","test_val","physical-positive","Valence","VS","positive;negative","positive",1,1744729295776,"positive",1529.16666666667,808,"negative","A","",6.69456205852109,7.33247820369472,91
"92","630663a1dc842dde6b18b557","selfish","test_val","social-negative","Valence","VS","positive;negative","negative",1,1744729297328,"negative",1556.83333333333,800,"negative","A","",6.68461172766793,7.35040912264479,92
"93","630663a1dc842dde6b18b557","wrinkled","test_val","physical-negative","Valence","VS","positive;negative","negative",1,1744729298804,"negative",1665.83333333333,720,"negative","A","",6.5792512120101,7.41808077770645,93
"94","630663a1dc842dde6b18b557","manipulative","test_val","social-negative","Valence","VS","positive;negative","negative",1,1744729300556,"negative",1706.66666666667,1000,"negative","A","",6.90775527898214,7.44229742936544,94
"95","630663a1dc842dde6b18b557","moldy","test_val","physical-negative","Valence","VS","positive;negative","negative",1,1744729301951,"negative",1495,639,"negative","A","",6.45990445437753,7.30988148582479,95
"96","630663a1dc842dde6b18b557","scrawny","test_val","physical-negative","Valence","VS","positive;negative","negative",1,1744729303606,"negative",1760.33333333333,902,"negative","A","",6.80461452006262,7.47325846403882,96
"97","630663a1dc842dde6b18b557","slim","test_val","physical-positive","Valence","VS","positive;negative","positive",1,1744729305225,"positive",1570.5,864,"negative","A","",6.76157276880406,7.3591493189787,97
"98","630663a1dc842dde6b18b557","judgmental","test_val","social-negative","Valence","VS","positive;negative","negative",1,1744729306756,"negative",1654.33333333333,775,"negative","A","",6.65286302935335,7.41115338691933,98
"99","630663a1dc842dde6b18b557","hostile","test_val","social-negative","Valence","VS","positive;negative","negative",1,1744729308082,"negative",1671.33333333333,569,"negative","A","",6.34388043412633,7.42137699005013,99
"100","630663a1dc842dde6b18b557","radiant","test_val","physical-positive","Valence","VS","positive;negative","positive",1,1744729309613,"positive",1754.33333333333,775,"negative","A","",6.65286302935335,7.46984419668567,100
"101","630663a1dc842dde6b18b557","gorgeous","test_val","physical-positive","Valence","VS","positive;negative","positive",1,1744729310963,"positive",1609.5,598,"negative","A","",6.39359075395063,7.38367885073886,101
"102","630663a1dc842dde6b18b557","gritty","test_val","physical-negative","Valence","VS","positive;negative","negative",1,1744729312493,"negative",1611.5,775,"negative","A","",6.65286302935335,7.38492070125549,102
"103","630663a1dc842dde6b18b557","harmonious","test_val","social-positive","Valence","VS","positive;negative","positive",1,1744729314405,"positive",1649.66666666667,1158,"negative","A","",7.05444965813294,7.40832852628378,103
"104","630663a1dc842dde6b18b557","soft","test_val","physical-positive","Valence","VS","positive;negative","positive",1,1744729316026,"positive",1502.83333333333,864,"negative","A","",6.76157276880406,7.31510749427185,104
"105","630663a1dc842dde6b18b557","prosperous","test_val","social-positive","Valence","VS","positive;negative","positive",1,1744729317668,"positive",1575.66666666667,890,"negative","A","",6.79122146272619,7.36243374212513,105
"106","630663a1dc842dde6b18b557","polite","test_val","social-positive","Valence","VS","positive;negative","positive",1,1744729319089,"positive",1581.83333333333,665,"negative","A","",6.49978704065585,7.36633979090244,106
"107","630663a1dc842dde6b18b557","sour","test_val","physical-negative","Valence","VS","positive;negative","negative",1,1744729320661,"negative",1619.16666666667,816,"negative","A","",6.70441435496411,7.38966689258349,107
"108","630663a1dc842dde6b18b557","obese","test_val","physical-negative","Valence","VS","positive;negative","negative",1,1744729322281,"negative",1528.66666666667,864,"negative","A","",6.76157276880406,7.33215117474974,108
"109","630663a1dc842dde6b18b557","trustworthy","test_val","social-positive","Valence","VS","positive;negative","positive",1,1744729323788,"positive",1784,756,"negative","A","",6.62804137617953,7.48661331313996,109
"110","630663a1dc842dde6b18b557","sympathetic","test_val","social-positive","Valence","VS","positive;negative","positive",1,1744729325565,"positive",1577.66666666667,1022,"negative","A","",6.92951677076365,7.36370224123814,110
"111","630663a1dc842dde6b18b557","untrustworthy","test_val","social-negative","Valence","VS","positive;negative","negative",1,1744729327185,"negative",1700,864,"negative","A","",6.76157276880406,7.43838353004431,111
"112","630663a1dc842dde6b18b557","cruel","test_val","social-negative","Valence","VS","positive;negative","negative",1,1744729328850,"negative",1594.16666666667,910,"negative","A","",6.8134445995109,7.3741064126463,112
"113","630663a1dc842dde6b18b557","clammy","test_val","physical-negative","Valence","VS","positive;negative","negative",1,1744729330267,"negative",1743.5,663,"negative","A","",6.49677499018586,7.46364986611571,113
"114","630663a1dc842dde6b18b557","brittle","test_val","physical-negative","Valence","VS","positive;negative","negative",1,1744729331651,"negative",1589.33333333333,625,"negative","A","",6.4377516497364,7.37106992007708,114
"115","630663a1dc842dde6b18b557","lush","test_val","physical-positive","Valence","VS","positive;negative","positive",1,1744729333181,"positive",1660.33333333333,774,"negative","A","",6.65157187358973,7.41477366440517,115
"116","630663a1dc842dde6b18b557","compassionate","test_val","social-positive","Valence","VS","positive;negative","positive",1,1744729334599,"positive",1459.83333333333,662,"negative","A","",6.49526555593701,7.28607755293503,116
"117","630663a1dc842dde6b18b557","elegant","test_val","physical-positive","Valence","VS","positive;negative","positive",1,1744729335983,"positive",1619.5,630,"negative","A","",6.44571981938558,7.38987273861138,117
"118","630663a1dc842dde6b18b557","fair","test_val","social-positive","Valence","VS","positive;negative","positive",1,1744729337312,"positive",1573.33333333333,572,"negative","A","",6.3491389913798,7.36095178991149,118
"119","630663a1dc842dde6b18b557","rancid","test_val","physical-negative","Valence","VS","positive;negative","negative",1,1744729338705,"negative",1742,634,"negative","A","",6.45204895443723,7.46278915741245,119
"120","630663a1dc842dde6b18b557","oppressive","test_val","social-negative","Valence","VS","positive;negative","negative",1,1744729340663,"negative",1911.33333333333,1202,"negative","A","",7.09174211509515,7.55555635777521,120
"121","630663a1dc842dde6b18b557","selfish","test_sp","social-negative","SocPhys","VS","physical;social","social",1,1744729439774,"social",1556.83333333333,955,"social","A","",6.86171134048073,7.35040912264479,121
"122","630663a1dc842dde6b18b557","polite","test_sp","social-positive","SocPhys","VS","physical;social","social",1,1744729441203,"social",1581.83333333333,674,"social","A","",6.51323011091231,7.36633979090244,122
"123","630663a1dc842dde6b18b557","compassionate","test_sp","social-positive","SocPhys","VS","physical;social","social",1,1744729442654,"social",1459.83333333333,695,"social","A","",6.54391184556479,7.28607755293503,123
"124","630663a1dc842dde6b18b557","scrawny","test_sp","physical-negative","SocPhys","VS","physical;social","social",0,1744729445095,"social",1760.33333333333,1688,"social","A","",7.4312996751559,7.47325846403882,124
"125","630663a1dc842dde6b18b557","oppressive","test_sp","social-negative","SocPhys","VS","physical;social","social",1,1744729447772,"social",1911.33333333333,1922,"social","A","",7.56112158953024,7.55555635777521,125
"126","630663a1dc842dde6b18b557","fragrant","test_sp","physical-positive","SocPhys","VS","physical;social","physical",1,1744729449550,"physical",1680.5,1023,"social","A","",6.93049476595163,7.42684664716516,126
"127","630663a1dc842dde6b18b557","cruel","test_sp","social-negative","SocPhys","VS","physical;social","social",1,1744729451181,"social",1594.16666666667,877,"social","A","",6.77650699237218,7.3741064126463,127
"128","630663a1dc842dde6b18b557","brittle","test_sp","physical-negative","SocPhys","VS","physical;social","physical",1,1744729452734,"physical",1589.33333333333,798,"social","A","",6.68210859744981,7.37106992007708,128
"129","630663a1dc842dde6b18b557","harmonious","test_sp","social-positive","SocPhys","VS","physical;social","social",1,1744729454601,"social",1649.66666666667,1112,"social","A","",7.01391547481053,7.40832852628378,129
"130","630663a1dc842dde6b18b557","sympathetic","test_sp","social-positive","SocPhys","VS","physical;social","social",1,1744729456313,"social",1577.66666666667,956,"social","A","",6.8627579130514,7.36370224123814,130
"131","630663a1dc842dde6b18b557","ugly","test_sp","physical-negative","SocPhys","VS","physical;social","physical",1,1744729458167,"physical",1529.66666666667,1101,"social","A","",7.00397413672268,7.33280512572672,131
"132","630663a1dc842dde6b18b557","hostile","test_sp","social-negative","SocPhys","VS","physical;social","social",1,1744729459877,"social",1671.33333333333,957,"social","A","",6.86380339145295,7.42137699005013,132
"133","630663a1dc842dde6b18b557","corrupt","test_sp","social-negative","SocPhys","VS","physical;social","social",1,1744729461564,"social",1693.83333333333,934,"social","A","",6.83947643822884,7.43474948390971,133
"134","630663a1dc842dde6b18b557","gritty","test_sp","physical-negative","SocPhys","VS","physical;social","physical",1,1744729463161,"physical",1611.5,845,"social","A","",6.73933662735717,7.38492070125549,134
"135","630663a1dc842dde6b18b557","amiable","test_sp","social-positive","SocPhys","VS","physical;social","social",1,1744729465345,"social",1600.5,1430,"social","A","",7.26542972325395,7.37807135940992,135
"136","630663a1dc842dde6b18b557","arrogant","test_sp","social-negative","SocPhys","VS","physical;social","social",1,1744729467212,"social",1871.83333333333,1110,"social","A","",7.01211529430638,7.53467362173498,136
"137","630663a1dc842dde6b18b557","elegant","test_sp","physical-positive","SocPhys","VS","physical;social","social",0,1744729468584,"social",1619.5,620,"social","A","",6.42971947803914,7.38987273861138,137
"138","630663a1dc842dde6b18b557","smooth","test_sp","physical-positive","SocPhys","VS","physical;social","social",0,1744729469956,"social",1529.16666666667,613,"social","A","",6.41836493593621,7.33247820369472,138
"139","630663a1dc842dde6b18b557","moldy","test_sp","physical-negative","SocPhys","VS","physical;social","physical",1,1744729471599,"physical",1495,888,"social","A","",6.78897174299217,7.30988148582479,139
"140","630663a1dc842dde6b18b557","prosperous","test_sp","social-positive","SocPhys","VS","physical;social","social",1,1744729473028,"social",1575.66666666667,674,"social","A","",6.51323011091231,7.36243374212513,140
"141","630663a1dc842dde6b18b557","trustworthy","test_sp","social-positive","SocPhys","VS","physical;social","social",1,1744729476189,"social",1784,2404,"social","A","",7.7848892956551,7.48661331313996,141
"142","630663a1dc842dde6b18b557","lush","test_sp","physical-positive","SocPhys","VS","physical;social","physical",1,1744729477989,"physical",1660.33333333333,1044,"social","A","",6.95081476844258,7.41477366440517,142
"143","630663a1dc842dde6b18b557","supportive","test_sp","social-positive","SocPhys","VS","physical;social","social",1,1744729479485,"social",1510,741,"social","A","",6.60800062529609,7.31986492980897,143
"144","630663a1dc842dde6b18b557","sour","test_sp","physical-negative","SocPhys","VS","physical;social","physical",1,1744729481715,"physical",1619.16666666667,1474,"social","A","",7.29573507274928,7.38966689258349,144
"145","630663a1dc842dde6b18b557","judgmental","test_sp","social-negative","SocPhys","VS","physical;social","social",1,1744729483356,"social",1654.33333333333,885,"social","A","",6.78558764500793,7.41115338691933,145
"146","630663a1dc842dde6b18b557","rancid","test_sp","physical-negative","SocPhys","VS","physical;social","physical",1,1744729485178,"physical",1742,1065,"social","A","",6.97073007814353,7.46278915741245,146
"147","630663a1dc842dde6b18b557","gorgeous","test_sp","physical-positive","SocPhys","VS","physical;social","social",0,1744729486674,"social",1609.5,743,"social","A","",6.61069604471776,7.38367885073886,147
"148","630663a1dc842dde6b18b557","sturdy","test_sp","physical-positive","SocPhys","VS","physical;social","physical",1,1744729489149,"physical",1811.66666666667,1719,"social","A","",7.44949800538285,7.5020025108872,148
"149","630663a1dc842dde6b18b557","untrustworthy","test_sp","social-negative","SocPhys","VS","physical;social","social",1,1744729490646,"social",1700,744,"social","A","",6.61204103483309,7.43838353004431,149
"150","630663a1dc842dde6b18b557","radiant","test_sp","physical-positive","SocPhys","VS","physical;social","physical",1,1744729493075,"physical",1754.33333333333,1673,"social","A","",7.42237370098682,7.46984419668567,150
"151","630663a1dc842dde6b18b557","clammy","test_sp","physical-negative","SocPhys","VS","physical;social","physical",1,1744729494965,"physical",1743.5,1134,"social","A","",7.0335064842877,7.46364986611571,151
"152","630663a1dc842dde6b18b557","slim","test_sp","physical-positive","SocPhys","VS","physical;social","physical",1,1744729496496,"physical",1570.5,774,"social","A","",6.65157187358973,7.3591493189787,152
"153","630663a1dc842dde6b18b557","manipulative","test_sp","social-negative","SocPhys","VS","physical;social","social",1,1744729498160,"social",1706.66666666667,908,"social","A","",6.81124437860129,7.44229742936544,153
"154","630663a1dc842dde6b18b557","youthful","test_sp","physical-positive","SocPhys","VS","physical;social","social",0,1744729499577,"social",1554.83333333333,657,"social","A","",6.48768401848461,7.34912363773291,154
"155","630663a1dc842dde6b18b557","unjust","test_sp","social-negative","SocPhys","VS","physical;social","social",1,1744729500984,"social",1553,653,"social","A","",6.48157712927643,7.34794382314869,155
"156","630663a1dc842dde6b18b557","wrinkled","test_sp","physical-negative","SocPhys","VS","physical;social","social",0,1744729502480,"social",1665.83333333333,741,"social","A","",6.60800062529609,7.41808077770645,156
"157","630663a1dc842dde6b18b557","soft","test_sp","physical-positive","SocPhys","VS","physical;social","physical",1,1744729503964,"physical",1502.83333333333,731,"social","A","",6.59441345974978,7.31510749427185,157
"158","630663a1dc842dde6b18b557","fair","test_sp","social-positive","SocPhys","VS","physical;social","social",1,1744729505564,"social",1573.33333333333,842,"social","A","",6.73578001424233,7.36095178991149,158
"159","630663a1dc842dde6b18b557","obese","test_sp","physical-negative","SocPhys","VS","physical;social","physical",1,1744729507205,"physical",1528.66666666667,887,"social","A","",6.78784498230958,7.33215117474974,159
"160","630663a1dc842dde6b18b557","generous","test_sp","social-positive","SocPhys","VS","physical;social","social",1,1744729508938,"social",1741.16666666667,977,"social","A","",6.88448665204278,7.46231066560945,160
"161","630663a1dc842dde6b18b557","arrogant","test_sp","social-negative","SocPhys","VS","physical;social","social",1,1744729510772,"social",1871.83333333333,1079,"social","A","",6.98378996525813,7.53467362173498,161
"162","630663a1dc842dde6b18b557","sympathetic","test_sp","social-positive","SocPhys","VS","physical;social","social",1,1744729512189,"social",1577.66666666667,664,"social","A","",6.49828214947643,7.36370224123814,162
"163","630663a1dc842dde6b18b557","scrawny","test_sp","physical-negative","SocPhys","VS","physical;social","physical",1,1744729513686,"physical",1760.33333333333,744,"social","A","",6.61204103483309,7.47325846403882,163
"164","630663a1dc842dde6b18b557","soft","test_sp","physical-positive","SocPhys","VS","physical;social","physical",1,1744729515148,"physical",1502.83333333333,706,"social","A","",6.55961523749324,7.31510749427185,164
"165","630663a1dc842dde6b18b557","sturdy","test_sp","physical-positive","SocPhys","VS","physical;social","physical",1,1744729516463,"physical",1811.66666666667,557,"social","A","",6.32256523992728,7.5020025108872,165
"166","630663a1dc842dde6b18b557","elegant","test_sp","physical-positive","SocPhys","VS","physical;social","social",0,1744729518197,"social",1619.5,982,"social","A","",6.88959130835447,7.38987273861138,166
"167","630663a1dc842dde6b18b557","manipulative","test_sp","social-negative","SocPhys","VS","physical;social","social",1,1744729519681,"social",1706.66666666667,731,"social","A","",6.59441345974978,7.44229742936544,167
"168","630663a1dc842dde6b18b557","radiant","test_sp","physical-positive","SocPhys","VS","physical;social","physical",1,1744729521414,"physical",1754.33333333333,979,"social","A","",6.88653164253051,7.46984419668567,168
"169","630663a1dc842dde6b18b557","youthful","test_sp","physical-positive","SocPhys","VS","physical;social","physical",1,1744729523438,"physical",1554.83333333333,1271,"social","A","",7.14755927118945,7.34912363773291,169
"170","630663a1dc842dde6b18b557","untrustworthy","test_sp","social-negative","SocPhys","VS","physical;social","social",1,1744729525329,"social",1700,1139,"social","A","",7.03790596344718,7.43838353004431,170
"171","630663a1dc842dde6b18b557","rancid","test_sp","physical-negative","SocPhys","VS","physical;social","physical",1,1744729527320,"physical",1742,1237,"social","A","",7.12044437239249,7.46278915741245,171
"172","630663a1dc842dde6b18b557","supportive","test_sp","social-positive","SocPhys","VS","physical;social","social",1,1744729528782,"social",1510,706,"social","A","",6.55961523749324,7.31986492980897,172
"173","630663a1dc842dde6b18b557","gritty","test_sp","physical-negative","SocPhys","VS","physical;social","physical",1,1744729530390,"physical",1611.5,852,"social","A","",6.74758652682932,7.38492070125549,173
"174","630663a1dc842dde6b18b557","harmonious","test_sp","social-positive","SocPhys","VS","physical;social","social",1,1744729531843,"social",1649.66666666667,699,"social","A","",6.54965074223381,7.40832852628378,174
"175","630663a1dc842dde6b18b557","clammy","test_sp","physical-negative","SocPhys","VS","physical;social","physical",1,1744729533735,"physical",1743.5,1141,"social","A","",7.03966034986208,7.46364986611571,175
"176","630663a1dc842dde6b18b557","ugly","test_sp","physical-negative","SocPhys","VS","physical;social","physical",1,1744729535330,"physical",1529.66666666667,842,"social","A","",6.73578001424233,7.33280512572672,176
"177","630663a1dc842dde6b18b557","slim","test_sp","physical-positive","SocPhys","VS","physical;social","physical",1,1744729536680,"physical",1570.5,597,"social","A","",6.3919171133926,7.3591493189787,177
"178","630663a1dc842dde6b18b557","unjust","test_sp","social-negative","SocPhys","VS","physical;social","social",1,1744729538300,"social",1553,865,"social","A","",6.76272950693188,7.34794382314869,178
"179","630663a1dc842dde6b18b557","wrinkled","test_sp","physical-negative","SocPhys","VS","physical;social","social",0,1744729540032,"social",1665.83333333333,977,"social","A","",6.88448665204278,7.41808077770645,179
"180","630663a1dc842dde6b18b557","selfish","test_sp","social-negative","SocPhys","VS","physical;social","social",1,1744729541517,"social",1556.83333333333,726,"social","A","",6.5875500148248,7.35040912264479,180
"181","630663a1dc842dde6b18b557","corrupt","test_sp","social-negative","SocPhys","VS","physical;social","social",1,1744729543092,"social",1693.83333333333,819,"social","A","",6.70808408385307,7.43474948390971,181
"182","630663a1dc842dde6b18b557","sour","test_sp","physical-negative","SocPhys","VS","physical;social","physical",1,1744729544464,"physical",1619.16666666667,613,"social","A","",6.41836493593621,7.38966689258349,182
"183","630663a1dc842dde6b18b557","cruel","test_sp","social-negative","SocPhys","VS","physical;social","social",1,1744729546253,"social",1594.16666666667,1031,"social","A","",6.93828448401696,7.3741064126463,183
"184","630663a1dc842dde6b18b557","trustworthy","test_sp","social-positive","SocPhys","VS","physical;social","social",1,1744729547738,"social",1784,733,"social","A","",6.59714570188665,7.48661331313996,184
"185","630663a1dc842dde6b18b557","compassionate","test_sp","social-positive","SocPhys","VS","physical;social","social",1,1744729549088,"social",1459.83333333333,599,"social","A","",6.39526159811545,7.28607755293503,185
"186","630663a1dc842dde6b18b557","hostile","test_sp","social-negative","SocPhys","VS","physical;social","social",1,1744729550843,"social",1671.33333333333,1001,"social","A","",6.90875477931522,7.42137699005013,186
"187","630663a1dc842dde6b18b557","amiable","test_sp","social-positive","SocPhys","VS","physical;social","social",1,1744729552351,"social",1600.5,753,"social","A","",6.62406522779989,7.37807135940992,187
"188","630663a1dc842dde6b18b557","oppressive","test_sp","social-negative","SocPhys","VS","physical;social","social",1,1744729554173,"social",1911.33333333333,1068,"social","A","",6.97354301952014,7.55555635777521,188
"189","630663a1dc842dde6b18b557","generous","test_sp","social-positive","SocPhys","VS","physical;social","social",1,1744729555726,"social",1741.16666666667,798,"social","A","",6.68210859744981,7.46231066560945,189
"190","630663a1dc842dde6b18b557","fragrant","test_sp","physical-positive","SocPhys","VS","physical;social","social",0,1744729557323,"social",1680.5,840,"social","A","",6.73340189183736,7.42684664716516,190
"191","630663a1dc842dde6b18b557","judgmental","test_sp","social-negative","SocPhys","VS","physical;social","social",1,1744729558830,"social",1654.33333333333,751,"social","A","",6.62140565176413,7.41115338691933,191
"192","630663a1dc842dde6b18b557","lush","test_sp","physical-positive","SocPhys","VS","physical;social","physical",1,1744729560697,"physical",1660.33333333333,1112,"social","A","",7.01391547481053,7.41477366440517,192
"193","630663a1dc842dde6b18b557","fair","test_sp","social-positive","SocPhys","VS","physical;social","social",1,1744729562251,"social",1573.33333333333,798,"social","A","",6.68210859744981,7.36095178991149,193
"194","630663a1dc842dde6b18b557","moldy","test_sp","physical-negative","SocPhys","VS","physical;social","physical",1,1744729563555,"physical",1495,549,"social","A","",6.30809844150953,7.30988148582479,194
"195","630663a1dc842dde6b18b557","smooth","test_sp","physical-positive","SocPhys","VS","physical;social","physical",1,1744729565198,"physical",1529.16666666667,887,"social","A","",6.78784498230958,7.33247820369472,195
"196","630663a1dc842dde6b18b557","gorgeous","test_sp","physical-positive","SocPhys","VS","physical;social","physical",1,1744729567381,"physical",1609.5,1424,"social","A","",7.26122509197192,7.38367885073886,196
"197","630663a1dc842dde6b18b557","brittle","test_sp","physical-negative","SocPhys","VS","physical;social","physical",1,1744729568922,"physical",1589.33333333333,790,"social","A","",6.67203294546107,7.37106992007708,197
"198","630663a1dc842dde6b18b557","prosperous","test_sp","social-positive","SocPhys","VS","physical;social","social",1,1744729570812,"social",1575.66666666667,1134,"social","A","",7.0335064842877,7.36243374212513,198
"199","630663a1dc842dde6b18b557","obese","test_sp","physical-negative","SocPhys","VS","physical;social","physical",1,1744729572297,"physical",1528.66666666667,729,"social","A","",6.59167373200866,7.33215117474974,199
"200","630663a1dc842dde6b18b557","polite","test_sp","social-positive","SocPhys","VS","physical;social","social",1,1744729574220,"social",1581.83333333333,1166,"social","A","",7.06133436691044,7.36633979090244,200
"201","630663a1dc842dde6b18b557","radiant","test_sp","physical-positive","SocPhys","VS","physical;social","physical",1,1744729575852,"physical",1754.33333333333,876,"social","A","",6.77536609093639,7.46984419668567,201
"202","630663a1dc842dde6b18b557","harmonious","test_sp","social-positive","SocPhys","VS","physical;social","social",1,1744729577249,"social",1649.66666666667,641,"social","A","",6.46302945692067,7.40832852628378,202
"203","630663a1dc842dde6b18b557","ugly","test_sp","physical-negative","SocPhys","VS","physical;social","physical",1,1744729578641,"physical",1529.66666666667,636,"social","A","",6.45519856334012,7.33280512572672,203
"204","630663a1dc842dde6b18b557","supportive","test_sp","social-positive","SocPhys","VS","physical;social","social",1,1744729580014,"social",1510,618,"social","A","",6.42648845745769,7.31986492980897,204
"205","630663a1dc842dde6b18b557","compassionate","test_sp","social-positive","SocPhys","VS","physical;social","social",1,1744729581454,"social",1459.83333333333,686,"social","A","",6.53087762772588,7.28607755293503,205
"206","630663a1dc842dde6b18b557","prosperous","test_sp","social-positive","SocPhys","VS","physical;social","social",1,1744729583028,"social",1575.66666666667,820,"social","A","",6.7093043402583,7.36243374212513,206
"207","630663a1dc842dde6b18b557","manipulative","test_sp","social-negative","SocPhys","VS","physical;social","social",1,1744729584863,"social",1706.66666666667,1081,"social","A","",6.98564181763921,7.44229742936544,207
"208","630663a1dc842dde6b18b557","corrupt","test_sp","social-negative","SocPhys","VS","physical;social","social",1,1744729586449,"social",1693.83333333333,831,"social","A","",6.72262979485545,7.43474948390971,208
"209","630663a1dc842dde6b18b557","wrinkled","test_sp","physical-negative","SocPhys","VS","physical;social","physical",1,1744729588215,"physical",1665.83333333333,1013,"social","A","",6.92067150424868,7.41808077770645,209
"210","630663a1dc842dde6b18b557","fair","test_sp","social-positive","SocPhys","VS","physical;social","social",1,1744729589869,"social",1573.33333333333,901,"social","A","",6.80350525760834,7.36095178991149,210
"211","630663a1dc842dde6b18b557","sturdy","test_sp","physical-positive","SocPhys","VS","physical;social","physical",1,1744729591286,"physical",1811.66666666667,663,"social","A","",6.49677499018586,7.5020025108872,211
"212","630663a1dc842dde6b18b557","selfish","test_sp","social-negative","SocPhys","VS","physical;social","social",1,1744729592760,"social",1556.83333333333,719,"social","A","",6.57786135772105,7.35040912264479,212
"213","630663a1dc842dde6b18b557","youthful","test_sp","physical-positive","SocPhys","VS","physical;social","physical",1,1744729594582,"physical",1554.83333333333,1066,"social","A","",6.97166860472579,7.34912363773291,213
"214","630663a1dc842dde6b18b557","hostile","test_sp","social-negative","SocPhys","VS","physical;social","social",1,1744729596697,"social",1671.33333333333,1356,"social","A","",7.21229446850034,7.42137699005013,214
"215","630663a1dc842dde6b18b557","sympathetic","test_sp","social-positive","SocPhys","VS","physical;social","social",1,1744729598159,"social",1577.66666666667,706,"social","A","",6.55961523749324,7.36370224123814,215
"216","630663a1dc842dde6b18b557","generous","test_sp","social-positive","SocPhys","VS","physical;social","social",1,1744729600500,"social",1741.16666666667,1584,"social","A","",7.36770857237437,7.46231066560945,216
"217","630663a1dc842dde6b18b557","gorgeous","test_sp","physical-positive","SocPhys","VS","physical;social","social",0,1744729602074,"social",1609.5,819,"social","A","",6.70808408385307,7.38367885073886,217
"218","630663a1dc842dde6b18b557","fragrant","test_sp","physical-positive","SocPhys","VS","physical;social","physical",1,1744729603672,"physical",1680.5,844,"social","A","",6.73815249459596,7.42684664716516,218
"219","630663a1dc842dde6b18b557","oppressive","test_sp","social-negative","SocPhys","VS","physical;social","social",1,1744729605078,"social",1911.33333333333,648,"social","A","",6.47389069635227,7.55555635777521,219
"220","630663a1dc842dde6b18b557","sour","test_sp","physical-negative","SocPhys","VS","physical;social","physical",1,1744729606519,"physical",1619.16666666667,684,"social","A","",6.52795791762255,7.38966689258349,220
"221","630663a1dc842dde6b18b557","untrustworthy","test_sp","social-negative","SocPhys","VS","physical;social","social",1,1744729607891,"social",1700,613,"social","A","",6.41836493593621,7.43838353004431,221
"222","630663a1dc842dde6b18b557","judgmental","test_sp","social-negative","SocPhys","VS","physical;social","social",1,1744729609624,"social",1654.33333333333,977,"social","A","",6.88448665204278,7.41115338691933,222
"223","630663a1dc842dde6b18b557","unjust","test_sp","social-negative","SocPhys","VS","physical;social","social",1,1744729611074,"social",1553,698,"social","A","",6.54821910276237,7.34794382314869,223
"224","630663a1dc842dde6b18b557","clammy","test_sp","physical-negative","SocPhys","VS","physical;social","physical",1,1744729613168,"physical",1743.5,1337,"social","A","",7.19818357710194,7.46364986611571,224
"225","630663a1dc842dde6b18b557","elegant","test_sp","physical-positive","SocPhys","VS","physical;social","physical",1,1744729615215,"physical",1619.5,1294,"social","A","",7.16549347506085,7.38987273861138,225
"226","630663a1dc842dde6b18b557","lush","test_sp","physical-positive","SocPhys","VS","physical;social","physical",1,1744729616744,"physical",1660.33333333333,774,"social","A","",6.65157187358973,7.41477366440517,226
"227","630663a1dc842dde6b18b557","cruel","test_sp","social-negative","SocPhys","VS","physical;social","social",1,1744729618275,"social",1594.16666666667,771,"social","A","",6.64768837356333,7.3741064126463,227
"228","630663a1dc842dde6b18b557","soft","test_sp","physical-positive","SocPhys","VS","physical;social","physical",1,1744729619669,"physical",1502.83333333333,641,"social","A","",6.46302945692067,7.31510749427185,228
"229","630663a1dc842dde6b18b557","arrogant","test_sp","social-negative","SocPhys","VS","physical;social","social",1,1744729621064,"social",1871.83333333333,638,"social","A","",6.45833828334479,7.53467362173498,229
"230","630663a1dc842dde6b18b557","smooth","test_sp","physical-positive","SocPhys","VS","physical;social","physical",1,1744729622584,"physical",1529.16666666667,762,"social","A","",6.63594655568665,7.33247820369472,230
"231","630663a1dc842dde6b18b557","moldy","test_sp","physical-negative","SocPhys","VS","physical;social","physical",1,1744729623955,"physical",1495,616,"social","A","",6.42324696353352,7.30988148582479,231
"232","630663a1dc842dde6b18b557","trustworthy","test_sp","social-positive","SocPhys","VS","physical;social","social",1,1744729625351,"social",1784,640,"social","A","",6.46146817635372,7.48661331313996,232
"233","630663a1dc842dde6b18b557","rancid","test_sp","physical-negative","SocPhys","VS","physical;social","physical",1,1744729627196,"physical",1742,1088,"social","A","",6.99209642741589,7.46278915741245,233
"234","630663a1dc842dde6b18b557","gritty","test_sp","physical-negative","SocPhys","VS","physical;social","physical",1,1744729628681,"physical",1611.5,732,"social","A","",6.59578051396131,7.38492070125549,234
"235","630663a1dc842dde6b18b557","slim","test_sp","physical-positive","SocPhys","VS","physical;social","physical",1,1744729630616,"physical",1570.5,1180,"social","A","",7.07326971745971,7.3591493189787,235
"236","630663a1dc842dde6b18b557","polite","test_sp","social-positive","SocPhys","VS","physical;social","physical",0,1744729632461,"physical",1581.83333333333,1092,"social","A","",6.99576615630485,7.36633979090244,236
"237","630663a1dc842dde6b18b557","obese","test_sp","physical-negative","SocPhys","VS","physical;social","physical",1,1744729634013,"physical",1528.66666666667,801,"social","A","",6.68586094706836,7.33215117474974,237
"238","630663a1dc842dde6b18b557","brittle","test_sp","physical-negative","SocPhys","VS","physical;social","physical",1,1744729635386,"physical",1589.33333333333,621,"social","A","",6.43133108193348,7.37106992007708,238
"239","630663a1dc842dde6b18b557","amiable","test_sp","social-positive","SocPhys","VS","physical;social","social",1,1744729636836,"social",1600.5,697,"social","A","",6.54678541076052,7.37807135940992,239
"240","630663a1dc842dde6b18b557","scrawny","test_sp","physical-negative","SocPhys","VS","physical;social","physical",1,1744729638524,"physical",1760.33333333333,935,"social","A","",6.84054652928869,7.47325846403882,240
"241","66544b06d9f37cea164b6022","obese","test_sp","physical-negative","SocPhys","SV","physical;social","physical",1,1744719597776,"physical",1612.66666666667,1012,"social","A","",6.91968384984741,7.38564440250186,1
"242","66544b06d9f37cea164b6022","brittle","test_sp","physical-negative","SocPhys","SV","physical;social","physical",1,1744719599527,"physical",1593.08333333333,948,"social","A","",6.85435450225502,7.37342662074102,2
"243","66544b06d9f37cea164b6022","lush","test_sp","physical-positive","SocPhys","SV","physical;social","physical",1,1744719601435,"physical",1941.83333333333,1108,"social","A","",7.01031186730723,7.57138782299189,3
"244","66544b06d9f37cea164b6022","radiant","test_sp","physical-positive","SocPhys","SV","physical;social","social",0,1744719603097,"social",1817,863,"social","A","",6.76041469108343,7.50494206839617,4
"245","66544b06d9f37cea164b6022","smooth","test_sp","physical-positive","SocPhys","SV","physical;social","physical",1,1744719604964,"physical",1681.33333333333,1081,"social","A","",6.98564181763921,7.4273424084167,5
"246","66544b06d9f37cea164b6022","unjust","test_sp","social-negative","SocPhys","SV","physical;social","social",1,1744719606823,"social",2002.83333333333,1070,"social","A","",6.97541392745595,7.60231812368324,6
"247","66544b06d9f37cea164b6022","youthful","test_sp","physical-positive","SocPhys","SV","physical;social","physical",1,1744719608994,"physical",1986.83333333333,1384,"social","A","",7.23273313617761,7.59429736048995,7
"248","66544b06d9f37cea164b6022","sour","test_sp","physical-negative","SocPhys","SV","physical;social","physical",1,1744719610948,"physical",1755.16666666667,1160,"social","A","",7.05617528410041,7.47031909815254,8
"249","66544b06d9f37cea164b6022","arrogant","test_sp","social-negative","SocPhys","SV","physical;social","social",1,1744719612712,"social",1824.5,969,"social","A","",6.87626461189077,7.5090612558765,9
"250","66544b06d9f37cea164b6022","fair","test_sp","social-positive","SocPhys","SV","physical;social","social",1,1744719614467,"social",1684,967,"social","A","",6.87419849545329,7.42892719480227,10
"251","66544b06d9f37cea164b6022","slim","test_sp","physical-positive","SocPhys","SV","physical;social","physical",1,1744719616159,"physical",1631.08333333333,899,"social","A","",6.80128303447162,7.39699969471452,11
"252","66544b06d9f37cea164b6022","scrawny","test_sp","physical-negative","SocPhys","SV","physical;social","physical",1,1744719617821,"physical",1597.75,875,"social","A","",6.77422388635761,7.37635166853039,12
"253","66544b06d9f37cea164b6022","oppressive","test_sp","social-negative","SocPhys","SV","physical;social","social",1,1744719620105,"social",1778.16666666667,1487,"social","A","",7.30451594646016,7.48333814996341,13
"254","66544b06d9f37cea164b6022","trustworthy","test_sp","social-positive","SocPhys","SV","physical;social","social",1,1744719622507,"social",1656.83333333333,1600,"social","A","",7.37775890822787,7.41266342898409,14
"255","66544b06d9f37cea164b6022","hostile","test_sp","social-negative","SocPhys","SV","physical;social","social",1,1744719624509,"social",1931.83333333333,1206,"social","A","",7.09506437728713,7.56622474466069,15
"256","66544b06d9f37cea164b6022","elegant","test_sp","physical-positive","SocPhys","SV","physical;social","social",0,1744719626334,"social",1695.08333333333,1026,"social","A","",6.93342302573071,7.43548718281449,16
"257","66544b06d9f37cea164b6022","moldy","test_sp","physical-negative","SocPhys","SV","physical;social","physical",1,1744719628231,"physical",1705.5,1099,"social","A","",7.00215595440362,7.4416136018587,17
"258","66544b06d9f37cea164b6022","compassionate","test_sp","social-positive","SocPhys","SV","physical;social","social",1,1744719630046,"social",1510,1016,"social","A","",6.92362862813843,7.31986492980897,18
"259","66544b06d9f37cea164b6022","cruel","test_sp","social-negative","SocPhys","SV","physical;social","social",1,1744719631977,"social",1598.16666666667,1121,"social","A","",7.02197642307216,7.37661241792563,19
"260","66544b06d9f37cea164b6022","harmonious","test_sp","social-positive","SocPhys","SV","physical;social","social",1,1744719633614,"social",1920.83333333333,839,"social","A","",6.73221070646721,7.56051439863679,20
"261","66544b06d9f37cea164b6022","sturdy","test_sp","physical-positive","SocPhys","SV","physical;social","physical",1,1744719635498,"physical",1800.5,1077,"social","A","",6.98193467715639,7.49581968308893,21
"262","66544b06d9f37cea164b6022","judgmental","test_sp","social-negative","SocPhys","SV","physical;social","social",1,1744719637657,"social",1863.83333333333,1359,"social","A","",7.21450441415114,7.53039057780013,22
"263","66544b06d9f37cea164b6022","rancid","test_sp","physical-negative","SocPhys","SV","physical;social","physical",1,1744719639583,"physical",1816.16666666667,1123,"social","A","",7.02375895473844,7.50448333174883,23
"264","66544b06d9f37cea164b6022","ugly","test_sp","physical-negative","SocPhys","SV","physical;social","physical",1,1744719641483,"physical",1563.83333333333,1094,"social","A","",6.99759598298193,7.35489535106199,24
"265","66544b06d9f37cea164b6022","soft","test_sp","physical-positive","SocPhys","SV","physical;social","physical",1,1744719643273,"physical",1685,980,"social","A","",6.88755257166462,7.42952084278646,25
"266","66544b06d9f37cea164b6022","clammy","test_sp","physical-negative","SocPhys","SV","physical;social","physical",1,1744719645266,"physical",1727.66666666667,1201,"social","A","",7.09090982207998,7.4545270295216,26
"267","66544b06d9f37cea164b6022","corrupt","test_sp","social-negative","SocPhys","SV","physical;social","physical",0,1744719646986,"physical",1896.66666666667,929,"social","A","",6.83410873881384,7.54785323845227,27
"268","66544b06d9f37cea164b6022","selfish","test_sp","social-negative","SocPhys","SV","physical;social","physical",0,1744719649145,"physical",1792.5,1366,"social","A","",7.21964204013074,7.49136657247378,28
"269","66544b06d9f37cea164b6022","wrinkled","test_sp","physical-negative","SocPhys","SV","physical;social","physical",1,1744719651209,"physical",1892.33333333333,1269,"social","A","",7.14598446771439,7.54556591450262,29
"270","66544b06d9f37cea164b6022","manipulative","test_sp","social-negative","SocPhys","SV","physical;social","social",1,1744719652923,"social",1826,919,"social","A","",6.82328612235569,7.50988306115491,30
"271","66544b06d9f37cea164b6022","amiable","test_sp","social-positive","SocPhys","SV","physical;social","physical",0,1744719654777,"physical",2264,1060,"social","A","",6.96602418710611,7.72488843932307,31
"272","66544b06d9f37cea164b6022","supportive","test_sp","social-positive","SocPhys","SV","physical;social","social",1,1744719656659,"social",1774,1067,"social","A","",6.97260625130175,7.48099216286952,32
"273","66544b06d9f37cea164b6022","gorgeous","test_sp","physical-positive","SocPhys","SV","physical;social","social",0,1744719659160,"social",1925.83333333333,1698,"social","A","",7.43720636687129,7.56311405348043,33
"274","66544b06d9f37cea164b6022","polite","test_sp","social-positive","SocPhys","SV","physical;social","physical",0,1744719661825,"physical",1800.5,1862,"social","A","",7.52940645783701,7.49581968308893,34
"275","66544b06d9f37cea164b6022","prosperous","test_sp","social-positive","SocPhys","SV","physical;social","social",1,1744719663811,"social",1746.83333333333,1189,"social","A","",7.08086789669078,7.46555990394212,35
"276","66544b06d9f37cea164b6022","gritty","test_sp","physical-negative","SocPhys","SV","physical;social","physical",1,1744719666012,"physical",1982.16666666667,1402,"social","A","",7.24565506759454,7.59194580149919,36
"277","66544b06d9f37cea164b6022","sympathetic","test_sp","social-positive","SocPhys","SV","physical;social","social",1,1744719667921,"social",1978.41666666667,1116,"social","A","",7.01750614294126,7.59005214048767,37
"278","66544b06d9f37cea164b6022","generous","test_sp","social-positive","SocPhys","SV","physical;social","social",1,1744719669421,"social",1532,697,"social","A","",6.54678541076052,7.33432935030054,38
"279","66544b06d9f37cea164b6022","fragrant","test_sp","physical-positive","SocPhys","SV","physical;social","physical",1,1744719671592,"physical",2044.08333333333,1370,"social","A","",7.22256601882217,7.62270472022508,39
"280","66544b06d9f37cea164b6022","untrustworthy","test_sp","social-negative","SocPhys","SV","physical;social","social",1,1744719673317,"social",1693.08333333333,908,"social","A","",6.81124437860129,7.43430660320961,40
"281","66544b06d9f37cea164b6022","amiable","test_sp","social-positive","SocPhys","SV","physical;social","social",1,1744719675822,"social",2264,1697,"social","A","",7.43661726523423,7.72488843932307,41
"282","66544b06d9f37cea164b6022","radiant","test_sp","physical-positive","SocPhys","SV","physical;social","social",0,1744719677542,"social",1817,913,"social","A","",6.81673588059497,7.50494206839617,42
"283","66544b06d9f37cea164b6022","rancid","test_sp","physical-negative","SocPhys","SV","physical;social","physical",1,1744719679582,"physical",1816.16666666667,1232,"social","A","",7.11639414409346,7.50448333174883,43
"284","66544b06d9f37cea164b6022","oppressive","test_sp","social-negative","SocPhys","SV","physical;social","social",1,1744719681354,"social",1778.16666666667,964,"social","A","",6.87109129461055,7.48333814996341,44
"285","66544b06d9f37cea164b6022","smooth","test_sp","physical-positive","SocPhys","SV","physical;social","physical",1,1744719683391,"physical",1681.33333333333,1229,"social","A","",7.11395610956603,7.4273424084167,45
"286","66544b06d9f37cea164b6022","soft","test_sp","physical-positive","SocPhys","SV","physical;social","physical",1,1744719685265,"physical",1685,1067,"social","A","",6.97260625130175,7.42952084278646,46
"287","66544b06d9f37cea164b6022","moldy","test_sp","physical-negative","SocPhys","SV","physical;social","physical",1,1744719687028,"physical",1705.5,929,"social","A","",6.83410873881384,7.4416136018587,47
"288","66544b06d9f37cea164b6022","gritty","test_sp","physical-negative","SocPhys","SV","physical;social","social",0,1744719688864,"social",1982.16666666667,1042,"social","A","",6.94889722231331,7.59194580149919,48
"289","66544b06d9f37cea164b6022","selfish","test_sp","social-negative","SocPhys","SV","physical;social","social",1,1744719690447,"social",1792.5,790,"social","A","",6.67203294546107,7.49136657247378,49
"290","66544b06d9f37cea164b6022","generous","test_sp","social-positive","SocPhys","SV","physical;social","social",1,1744719691800,"social",1532,557,"social","A","",6.32256523992728,7.33432935030054,50
"291","66544b06d9f37cea164b6022","compassionate","test_sp","social-positive","SocPhys","SV","physical;social","social",1,1744719693211,"social",1510,619,"social","A","",6.4281052726846,7.31986492980897,51
"292","66544b06d9f37cea164b6022","ugly","test_sp","physical-negative","SocPhys","SV","physical;social","social",0,1744719694668,"social",1563.83333333333,661,"social","A","",6.49375383985169,7.35489535106199,52
"293","66544b06d9f37cea164b6022","hostile","test_sp","social-negative","SocPhys","SV","physical;social","social",1,1744719697232,"social",1931.83333333333,1765,"social","A","",7.4759059693674,7.56622474466069,53
"294","66544b06d9f37cea164b6022","gorgeous","test_sp","physical-positive","SocPhys","SV","physical;social","physical",1,1744719699934,"physical",1925.83333333333,1906,"social","A","",7.55276208421415,7.56311405348043,54
"295","66544b06d9f37cea164b6022","lush","test_sp","physical-positive","SocPhys","SV","physical;social","physical",1,1744719702709,"physical",1941.83333333333,1982,"social","A","",7.59186171488993,7.57138782299189,55
"296","66544b06d9f37cea164b6022","corrupt","test_sp","social-negative","SocPhys","SV","physical;social","social",1,1744719704813,"social",1896.66666666667,1304,"social","A","",7.1731917424866,7.54785323845227,56
"297","66544b06d9f37cea164b6022","sturdy","test_sp","physical-positive","SocPhys","SV","physical;social","physical",1,1744719707051,"physical",1800.5,1443,"social","A","",7.27447955877387,7.49581968308893,57
"298","66544b06d9f37cea164b6022","fragrant","test_sp","physical-positive","SocPhys","SV","physical;social","physical",1,1744719709489,"physical",2044.08333333333,1645,"social","A","",7.40549566319947,7.62270472022508,58
"299","66544b06d9f37cea164b6022","judgmental","test_sp","social-negative","SocPhys","SV","physical;social","social",1,1744719711278,"social",1863.83333333333,990,"social","A","",6.89770494312864,7.53039057780013,59
"300","66544b06d9f37cea164b6022","elegant","test_sp","physical-positive","SocPhys","SV","physical;social","physical",1,1744719713380,"physical",1695.08333333333,1303,"social","A","",7.17242457712485,7.43548718281449,60
"301","66544b06d9f37cea164b6022","scrawny","test_sp","physical-negative","SocPhys","SV","physical;social","physical",1,1744719715361,"physical",1597.75,1183,"social","A","",7.07580886397839,7.37635166853039,61
"302","66544b06d9f37cea164b6022","supportive","test_sp","social-positive","SocPhys","SV","physical;social","physical",0,1744719717449,"physical",1774,1288,"social","A","",7.1608459066643,7.48099216286952,62
"303","66544b06d9f37cea164b6022","arrogant","test_sp","social-negative","SocPhys","SV","physical;social","social",1,1744719719629,"social",1824.5,1373,"social","A","",7.22475340576797,7.5090612558765,63
"304","66544b06d9f37cea164b6022","prosperous","test_sp","social-positive","SocPhys","SV","physical;social","physical",0,1744719721695,"physical",1746.83333333333,1258,"social","A","",7.13727843726039,7.46555990394212,64
"305","66544b06d9f37cea164b6022","wrinkled","test_sp","physical-negative","SocPhys","SV","physical;social","social",0,1744719724132,"social",1892.33333333333,1634,"social","A","",7.39878627541995,7.54556591450262,65
"306","66544b06d9f37cea164b6022","trustworthy","test_sp","social-positive","SocPhys","SV","physical;social","social",1,1744719725767,"social",1656.83333333333,819,"social","A","",6.70808408385307,7.41266342898409,66
"307","66544b06d9f37cea164b6022","sympathetic","test_sp","social-positive","SocPhys","SV","physical;social","social",1,1744719727535,"social",1978.41666666667,958,"social","A","",6.86484777797086,7.59005214048767,67
"308","66544b06d9f37cea164b6022","fair","test_sp","social-positive","SocPhys","SV","physical;social","social",1,1744719729517,"social",1684,1161,"social","A","",7.05703698169789,7.42892719480227,68
"309","66544b06d9f37cea164b6022","clammy","test_sp","physical-negative","SocPhys","SV","physical;social","physical",1,1744719731484,"physical",1727.66666666667,1143,"social","A","",7.04141166379481,7.4545270295216,69
"310","66544b06d9f37cea164b6022","polite","test_sp","social-positive","SocPhys","SV","physical;social","social",1,1744719733156,"social",1800.5,873,"social","A","",6.7719355558396,7.49581968308893,70
"311","66544b06d9f37cea164b6022","slim","test_sp","physical-positive","SocPhys","SV","physical;social","physical",1,1744719734672,"physical",1631.08333333333,724,"social","A","",6.58479139238572,7.39699969471452,71
"312","66544b06d9f37cea164b6022","sour","test_sp","physical-negative","SocPhys","SV","physical;social","physical",1,1744719736202,"physical",1755.16666666667,737,"social","A","",6.60258789218934,7.47031909815254,72
"313","66544b06d9f37cea164b6022","obese","test_sp","physical-negative","SocPhys","SV","physical;social","physical",1,1744719737802,"physical",1612.66666666667,805,"social","A","",6.69084227741856,7.38564440250186,73
"314","66544b06d9f37cea164b6022","youthful","test_sp","physical-positive","SocPhys","SV","physical;social","social",0,1744719739981,"social",1986.83333333333,1388,"social","A","",7.23561914106675,7.59429736048995,74
"315","66544b06d9f37cea164b6022","brittle","test_sp","physical-negative","SocPhys","SV","physical;social","physical",1,1744719741750,"physical",1593.08333333333,971,"social","A","",6.87832646829133,7.37342662074102,75
"316","66544b06d9f37cea164b6022","unjust","test_sp","social-negative","SocPhys","SV","physical;social","physical",0,1744719743816,"physical",2002.83333333333,1265,"social","A","",7.14282740116162,7.60231812368324,76
"317","66544b06d9f37cea164b6022","cruel","test_sp","social-negative","SocPhys","SV","physical;social","social",1,1744719745415,"social",1598.16666666667,802,"social","A","",6.68710860786651,7.37661241792563,77
"318","66544b06d9f37cea164b6022","harmonious","test_sp","social-positive","SocPhys","SV","physical;social","physical",0,1744719747255,"physical",1920.83333333333,1041,"social","A","",6.94793706861497,7.56051439863679,78
"319","66544b06d9f37cea164b6022","manipulative","test_sp","social-negative","SocPhys","SV","physical;social","social",1,1744719748816,"social",1826,756,"social","A","",6.62804137617953,7.50988306115491,79
"320","66544b06d9f37cea164b6022","untrustworthy","test_sp","social-negative","SocPhys","SV","physical;social","social",1,1744719750574,"social",1693.08333333333,964,"social","A","",6.87109129461055,7.43430660320961,80
"321","66544b06d9f37cea164b6022","fragrant","test_sp","physical-positive","SocPhys","SV","physical;social","physical",1,1744719752124,"physical",2044.08333333333,751,"social","A","",6.62140565176413,7.62270472022508,81
"322","66544b06d9f37cea164b6022","elegant","test_sp","physical-positive","SocPhys","SV","physical;social","physical",1,1744719753935,"physical",1695.08333333333,1009,"social","A","",6.91671502035361,7.43548718281449,82
"323","66544b06d9f37cea164b6022","sympathetic","test_sp","social-positive","SocPhys","SV","physical;social","social",1,1744719755676,"social",1978.41666666667,939,"social","A","",6.84481547920826,7.59005214048767,83
"324","66544b06d9f37cea164b6022","polite","test_sp","social-positive","SocPhys","SV","physical;social","social",1,1744719757203,"social",1800.5,727,"social","A","",6.58892647753352,7.49581968308893,84
"325","66544b06d9f37cea164b6022","obese","test_sp","physical-negative","SocPhys","SV","physical;social","physical",1,1744719758787,"physical",1612.66666666667,785,"social","A","",6.66568371778241,7.38564440250186,85
"326","66544b06d9f37cea164b6022","prosperous","test_sp","social-positive","SocPhys","SV","physical;social","social",1,1744719760856,"social",1746.83333333333,1267,"social","A","",7.14440718032114,7.46555990394212,86
"327","66544b06d9f37cea164b6022","generous","test_sp","social-positive","SocPhys","SV","physical;social","social",1,1744719762456,"social",1532,796,"social","A","",6.67959918584438,7.33432935030054,87
"328","66544b06d9f37cea164b6022","clammy","test_sp","physical-negative","SocPhys","SV","physical;social","physical",1,1744719764398,"physical",1727.66666666667,1145,"social","A","",7.04315991598834,7.4545270295216,88
"329","66544b06d9f37cea164b6022","youthful","test_sp","physical-positive","SocPhys","SV","physical;social","physical",1,1744719766676,"physical",1986.83333333333,1474,"social","A","",7.29573507274928,7.59429736048995,89
"330","66544b06d9f37cea164b6022","fair","test_sp","social-positive","SocPhys","SV","physical;social","social",1,1744719768198,"social",1684,706,"social","A","",6.55961523749324,7.42892719480227,90
"331","66544b06d9f37cea164b6022","lush","test_sp","physical-positive","SocPhys","SV","physical;social","physical",1,1744719770085,"physical",1941.83333333333,1088,"social","A","",6.99209642741589,7.57138782299189,91
"332","66544b06d9f37cea164b6022","scrawny","test_sp","physical-negative","SocPhys","SV","physical;social","physical",1,1744719771535,"physical",1597.75,656,"social","A","",6.48616078894409,7.37635166853039,92
"333","66544b06d9f37cea164b6022","arrogant","test_sp","social-negative","SocPhys","SV","physical;social","social",1,1744719773066,"social",1824.5,728,"social","A","",6.59030104819669,7.5090612558765,93
"334","66544b06d9f37cea164b6022","sour","test_sp","physical-negative","SocPhys","SV","physical;social","physical",1,1744719774589,"physical",1755.16666666667,719,"social","A","",6.57786135772105,7.47031909815254,94
"335","66544b06d9f37cea164b6022","manipulative","test_sp","social-negative","SocPhys","SV","physical;social","social",1,1744719776581,"social",1826,1199,"social","A","",7.08924315502751,7.50988306115491,95
"336","66544b06d9f37cea164b6022","sturdy","test_sp","physical-positive","SocPhys","SV","physical;social","physical",1,1744719778160,"physical",1800.5,777,"social","A","",6.65544035036765,7.49581968308893,96
"337","66544b06d9f37cea164b6022","radiant","test_sp","physical-positive","SocPhys","SV","physical;social","physical",1,1744719779910,"physical",1817,960,"social","A","",6.86693328446188,7.50494206839617,97
"338","66544b06d9f37cea164b6022","trustworthy","test_sp","social-positive","SocPhys","SV","physical;social","social",1,1744719781440,"social",1656.83333333333,735,"social","A","",6.59987049921284,7.41266342898409,98
"339","66544b06d9f37cea164b6022","ugly","test_sp","physical-negative","SocPhys","SV","physical;social","physical",1,1744719783003,"physical",1563.83333333333,770,"social","A","",6.64639051484773,7.35489535106199,99
"340","66544b06d9f37cea164b6022","gorgeous","test_sp","physical-positive","SocPhys","SV","physical;social","physical",1,1744719784788,"physical",1925.83333333333,992,"social","A","",6.89972310728487,7.56311405348043,100
"341","66544b06d9f37cea164b6022","gritty","test_sp","physical-negative","SocPhys","SV","physical;social","social",0,1744719786435,"social",1982.16666666667,849,"social","A","",6.74405918631135,7.59194580149919,101
"342","66544b06d9f37cea164b6022","wrinkled","test_sp","physical-negative","SocPhys","SV","physical;social","physical",1,1744719788029,"physical",1892.33333333333,799,"social","A","",6.68336094576627,7.54556591450262,102
"343","66544b06d9f37cea164b6022","brittle","test_sp","physical-negative","SocPhys","SV","physical;social","physical",1,1744719789718,"physical",1593.08333333333,891,"social","A","",6.79234442747081,7.37342662074102,103
"344","66544b06d9f37cea164b6022","rancid","test_sp","physical-negative","SocPhys","SV","physical;social","physical",1,1744719791380,"physical",1816.16666666667,862,"social","A","",6.75925527066369,7.50448333174883,104
"345","66544b06d9f37cea164b6022","cruel","test_sp","social-negative","SocPhys","SV","physical;social","social",1,1744719792887,"social",1598.16666666667,705,"social","A","",6.55819780281227,7.37661241792563,105
"346","66544b06d9f37cea164b6022","moldy","test_sp","physical-negative","SocPhys","SV","physical;social","physical",1,1744719794450,"physical",1705.5,763,"social","A","",6.63725803128446,7.4416136018587,106
"347","66544b06d9f37cea164b6022","unjust","test_sp","social-negative","SocPhys","SV","physical;social","social",1,1744719796494,"social",2002.83333333333,1241,"social","A","",7.12367278520461,7.60231812368324,107
"348","66544b06d9f37cea164b6022","soft","test_sp","physical-positive","SocPhys","SV","physical;social","physical",1,1744719798004,"physical",1685,711,"social","A","",6.56667242980324,7.42952084278646,108
"349","66544b06d9f37cea164b6022","smooth","test_sp","physical-positive","SocPhys","SV","physical;social","physical",1,1744719799758,"physical",1681.33333333333,959,"social","A","",6.86589107488344,7.4273424084167,109
"350","66544b06d9f37cea164b6022","amiable","test_sp","social-positive","SocPhys","SV","physical;social","social",1,1744719801972,"social",2264,1414,"social","A","",7.25417784645652,7.72488843932307,110
"351","66544b06d9f37cea164b6022","corrupt","test_sp","social-negative","SocPhys","SV","physical;social","physical",0,1744719804337,"physical",1896.66666666667,1565,"social","A","",7.35564110297425,7.54785323845227,111
"352","66544b06d9f37cea164b6022","harmonious","test_sp","social-positive","SocPhys","SV","physical;social","social",1,1744719806606,"social",1920.83333333333,1462,"social","A","",7.28756064030972,7.56051439863679,112
"353","66544b06d9f37cea164b6022","judgmental","test_sp","social-negative","SocPhys","SV","physical;social","social",1,1744719808101,"social",1863.83333333333,686,"social","A","",6.53087762772588,7.53039057780013,113
"354","66544b06d9f37cea164b6022","compassionate","test_sp","social-positive","SocPhys","SV","physical;social","social",1,1744719809511,"social",1510,605,"social","A","",6.40522845803084,7.31986492980897,114
"355","66544b06d9f37cea164b6022","slim","test_sp","physical-positive","SocPhys","SV","physical;social","physical",1,1744719810979,"physical",1631.08333333333,660,"social","A","",6.49223983502047,7.39699969471452,115
"356","66544b06d9f37cea164b6022","hostile","test_sp","social-negative","SocPhys","SV","physical;social","social",1,1744719812902,"social",1931.83333333333,1109,"social","A","",7.01121398735037,7.56622474466069,116
"357","66544b06d9f37cea164b6022","supportive","test_sp","social-positive","SocPhys","SV","physical;social","social",1,1744719814371,"social",1774,666,"social","A","",6.50128967054039,7.48099216286952,117
"358","66544b06d9f37cea164b6022","untrustworthy","test_sp","social-negative","SocPhys","SV","physical;social","social",1,1744719815844,"social",1693.08333333333,660,"social","A","",6.49223983502047,7.43430660320961,118
"359","66544b06d9f37cea164b6022","selfish","test_sp","social-negative","SocPhys","SV","physical;social","social",1,1744719817296,"social",1792.5,672,"social","A","",6.51025834052315,7.49136657247378,119
"360","66544b06d9f37cea164b6022","oppressive","test_sp","social-negative","SocPhys","SV","physical;social","social",1,1744719818962,"social",1778.16666666667,876,"social","A","",6.77536609093639,7.48333814996341,120
"361","66544b06d9f37cea164b6022","lush","test_val","physical-positive","Valence","SV","positive;negative","positive",1,1744719908466,"positive",1941.83333333333,1331,"negative","A","",7.19368581839511,7.57138782299189,121
"362","66544b06d9f37cea164b6022","smooth","test_val","physical-positive","Valence","SV","positive;negative","positive",1,1744719910108,"positive",1681.33333333333,841,"negative","A","",6.73459165997295,7.4273424084167,122
"363","66544b06d9f37cea164b6022","brittle","test_val","physical-negative","Valence","SV","positive;negative","negative",1,1744719911682,"negative",1593.08333333333,766,"negative","A","",6.64118216974059,7.37342662074102,123
"364","66544b06d9f37cea164b6022","clammy","test_val","physical-negative","Valence","SV","positive;negative","negative",1,1744719913370,"negative",1727.66666666667,885,"negative","A","",6.78558764500793,7.4545270295216,124
"365","66544b06d9f37cea164b6022","sympathetic","test_val","social-positive","Valence","SV","positive;negative","positive",1,1744719914933,"positive",1978.41666666667,768,"negative","A","",6.64378973314767,7.59005214048767,125
"366","66544b06d9f37cea164b6022","supportive","test_val","social-positive","Valence","SV","positive;negative","positive",1,1744719916448,"positive",1774,732,"negative","A","",6.59578051396131,7.48099216286952,126
"367","66544b06d9f37cea164b6022","amiable","test_val","social-positive","Valence","SV","positive;negative","positive",1,1744719918422,"positive",2264,1185,"negative","A","",7.07749805356923,7.72488843932307,127
"368","66544b06d9f37cea164b6022","polite","test_val","social-positive","Valence","SV","positive;negative","positive",1,1744719919820,"positive",1800.5,609,"negative","A","",6.4118182677099,7.49581968308893,128
"369","66544b06d9f37cea164b6022","harmonious","test_val","social-positive","Valence","SV","positive;negative","positive",1,1744719921403,"positive",1920.83333333333,795,"negative","A","",6.67834211465433,7.56051439863679,129
"370","66544b06d9f37cea164b6022","gritty","test_val","physical-negative","Valence","SV","positive;negative","negative",1,1744719922878,"negative",1982.16666666667,685,"negative","A","",6.52941883826223,7.59194580149919,130
"371","66544b06d9f37cea164b6022","soft","test_val","physical-positive","Valence","SV","positive;negative","positive",1,1744719924604,"positive",1685,938,"negative","A","",6.84374994900622,7.42952084278646,131
"372","66544b06d9f37cea164b6022","gorgeous","test_val","physical-positive","Valence","SV","positive;negative","positive",1,1744719926142,"positive",1925.83333333333,744,"negative","A","",6.61204103483309,7.56311405348043,132
"373","66544b06d9f37cea164b6022","fair","test_val","social-positive","Valence","SV","positive;negative","positive",1,1744719927959,"positive",1684,1048,"negative","A","",6.95463886488099,7.42892719480227,133
"374","66544b06d9f37cea164b6022","judgmental","test_val","social-negative","Valence","SV","positive;negative","positive",0,1744719929620,"positive",1863.83333333333,898,"negative","A","",6.8001700683022,7.53039057780013,134
"375","66544b06d9f37cea164b6022","untrustworthy","test_val","social-negative","Valence","SV","positive;negative","negative",1,1744719931409,"negative",1693.08333333333,999,"negative","A","",6.90675477864855,7.43430660320961,135
"376","66544b06d9f37cea164b6022","obese","test_val","physical-negative","Valence","SV","positive;negative","negative",1,1744719933077,"negative",1612.66666666667,873,"negative","A","",6.7719355558396,7.38564440250186,136
"377","66544b06d9f37cea164b6022","rancid","test_val","physical-negative","Valence","SV","positive;negative","negative",1,1744719935100,"negative",1816.16666666667,1235,"negative","A","",7.11882624906208,7.50448333174883,137
"378","66544b06d9f37cea164b6022","hostile","test_val","social-negative","Valence","SV","positive;negative","negative",1,1744719936826,"negative",1931.83333333333,932,"negative","A","",6.83733281468559,7.56622474466069,138
"379","66544b06d9f37cea164b6022","prosperous","test_val","social-positive","Valence","SV","positive;negative","positive",1,1744719938403,"positive",1746.83333333333,783,"negative","A","",6.6631326959908,7.46555990394212,139
"380","66544b06d9f37cea164b6022","slim","test_val","physical-positive","Valence","SV","positive;negative","negative",0,1744719940375,"negative",1631.08333333333,1173,"negative","A","",7.06731984865348,7.39699969471452,140
"381","66544b06d9f37cea164b6022","arrogant","test_val","social-negative","Valence","SV","positive;negative","negative",1,1744719942623,"negative",1824.5,1456,"negative","A","",7.28344822875663,7.5090612558765,141
"382","66544b06d9f37cea164b6022","youthful","test_val","physical-positive","Valence","SV","positive;negative","positive",1,1744719945061,"positive",1986.83333333333,1644,"negative","A","",7.40488757561612,7.59429736048995,142
"383","66544b06d9f37cea164b6022","manipulative","test_val","social-negative","Valence","SV","positive;negative","negative",1,1744719946886,"negative",1826,1027,"negative","A","",6.93439720992856,7.50988306115491,143
"384","66544b06d9f37cea164b6022","fragrant","test_val","physical-positive","Valence","SV","positive;negative","negative",0,1744719949709,"negative",2044.08333333333,2016,"negative","A","",7.60887062919126,7.62270472022508,144
"385","66544b06d9f37cea164b6022","sour","test_val","physical-negative","Valence","SV","positive;negative","negative",1,1744719951948,"negative",1755.16666666667,1433,"negative","A","",7.26752542782817,7.47031909815254,145
"386","66544b06d9f37cea164b6022","unjust","test_val","social-negative","Valence","SV","positive;negative","negative",1,1744719954557,"negative",2002.83333333333,1804,"negative","A","",7.49776170062257,7.60231812368324,146
"387","66544b06d9f37cea164b6022","generous","test_val","social-positive","Valence","SV","positive;negative","positive",1,1744719956125,"positive",1532,772,"negative","A","",6.64898455002478,7.33432935030054,147
"388","66544b06d9f37cea164b6022","ugly","test_val","physical-negative","Valence","SV","positive;negative","negative",1,1744719957570,"negative",1563.83333333333,645,"negative","A","",6.46925031679577,7.35489535106199,148
"389","66544b06d9f37cea164b6022","sturdy","test_val","physical-positive","Valence","SV","positive;negative","positive",1,1744719959413,"positive",1800.5,1049,"negative","A","",6.9555926083963,7.49581968308893,149
"390","66544b06d9f37cea164b6022","cruel","test_val","social-negative","Valence","SV","positive;negative","negative",1,1744719960976,"negative",1598.16666666667,773,"negative","A","",6.65027904858742,7.37661241792563,150
"391","66544b06d9f37cea164b6022","compassionate","test_val","social-positive","Valence","SV","positive;negative","positive",1,1744719962449,"positive",1510,682,"negative","A","",6.52502965784346,7.31986492980897,151
"392","66544b06d9f37cea164b6022","wrinkled","test_val","physical-negative","Valence","SV","positive;negative","negative",1,1744719964516,"negative",1892.33333333333,1255,"negative","A","",7.13489085156588,7.54556591450262,152
"393","66544b06d9f37cea164b6022","elegant","test_val","physical-positive","Valence","SV","positive;negative","positive",1,1744719966073,"positive",1695.08333333333,770,"negative","A","",6.64639051484773,7.43548718281449,153
"394","66544b06d9f37cea164b6022","moldy","test_val","physical-negative","Valence","SV","positive;negative","negative",1,1744719967953,"negative",1705.5,1087,"negative","A","",6.99117688712121,7.4416136018587,154
"395","66544b06d9f37cea164b6022","oppressive","test_val","social-negative","Valence","SV","positive;negative","negative",1,1744719969767,"negative",1778.16666666667,1020,"negative","A","",6.92755790627832,7.48333814996341,155
"396","66544b06d9f37cea164b6022","radiant","test_val","physical-positive","Valence","SV","positive;negative","positive",1,1744719972516,"positive",1817,1957,"negative","A","",7.57916796739608,7.50494206839617,156
"397","66544b06d9f37cea164b6022","trustworthy","test_val","social-positive","Valence","SV","positive;negative","positive",1,1744719973933,"positive",1656.83333333333,626,"negative","A","",6.4393503711001,7.41266342898409,157
"398","66544b06d9f37cea164b6022","scrawny","test_val","physical-negative","Valence","SV","positive;negative","negative",1,1744719975371,"negative",1597.75,646,"negative","A","",6.4707995037826,7.37635166853039,158
"399","66544b06d9f37cea164b6022","corrupt","test_val","social-negative","Valence","SV","positive;negative","negative",1,1744719977251,"negative",1896.66666666667,1081,"negative","A","",6.98564181763921,7.54785323845227,159
"400","66544b06d9f37cea164b6022","selfish","test_val","social-negative","Valence","SV","positive;negative","negative",1,1744719979843,"negative",1792.5,1795,"negative","A","",7.49276030092238,7.49136657247378,160
"401","66544b06d9f37cea164b6022","soft","test_val","physical-positive","Valence","SV","positive;negative","positive",1,1744719981754,"positive",1685,1113,"negative","A","",7.01481435127554,7.42952084278646,161
"402","66544b06d9f37cea164b6022","sour","test_val","physical-negative","Valence","SV","positive;negative","negative",1,1744719983555,"negative",1755.16666666667,1023,"negative","A","",6.93049476595163,7.47031909815254,162
"403","66544b06d9f37cea164b6022","wrinkled","test_val","physical-negative","Valence","SV","positive;negative","negative",1,1744719985424,"negative",1892.33333333333,1068,"negative","A","",6.97354301952014,7.54556591450262,163
"404","66544b06d9f37cea164b6022","oppressive","test_val","social-negative","Valence","SV","positive;negative","negative",1,1744719987248,"negative",1778.16666666667,1025,"negative","A","",6.93244789157251,7.48333814996341,164
"405","66544b06d9f37cea164b6022","rancid","test_val","physical-negative","Valence","SV","positive;negative","negative",1,1744719989127,"negative",1816.16666666667,1070,"negative","A","",6.97541392745595,7.50448333174883,165
"406","66544b06d9f37cea164b6022","youthful","test_val","physical-positive","Valence","SV","positive;negative","positive",1,1744719990641,"positive",1986.83333333333,711,"negative","A","",6.56667242980324,7.59429736048995,166
"407","66544b06d9f37cea164b6022","ugly","test_val","physical-negative","Valence","SV","positive;negative","negative",1,1744719992433,"negative",1563.83333333333,991,"negative","A","",6.89871453432999,7.35489535106199,167
"408","66544b06d9f37cea164b6022","corrupt","test_val","social-negative","Valence","SV","positive;negative","negative",1,1744719994391,"negative",1896.66666666667,1157,"negative","A","",7.05358572719368,7.54785323845227,168
"409","66544b06d9f37cea164b6022","amiable","test_val","social-positive","Valence","SV","positive;negative","positive",1,1744719996469,"positive",2264,1283,"negative","A","",7.15695636461564,7.72488843932307,169
"410","66544b06d9f37cea164b6022","judgmental","test_val","social-negative","Valence","SV","positive;negative","negative",1,1744719998872,"negative",1863.83333333333,1609,"negative","A","",7.38336814699238,7.53039057780013,170
"411","66544b06d9f37cea164b6022","gorgeous","test_val","physical-positive","Valence","SV","positive;negative","positive",1,1744720000502,"positive",1925.83333333333,834,"negative","A","",6.72623340235875,7.56311405348043,171
"412","66544b06d9f37cea164b6022","obese","test_val","physical-negative","Valence","SV","positive;negative","negative",1,1744720002025,"negative",1612.66666666667,731,"negative","A","",6.59441345974978,7.38564440250186,172
"413","66544b06d9f37cea164b6022","lush","test_val","physical-positive","Valence","SV","positive;negative","positive",1,1744720003656,"positive",1941.83333333333,843,"negative","A","",6.73696695800186,7.57138782299189,173
"414","66544b06d9f37cea164b6022","selfish","test_val","social-negative","Valence","SV","positive;negative","negative",1,1744720005320,"negative",1792.5,871,"negative","A","",6.7696419768525,7.49136657247378,174
"415","66544b06d9f37cea164b6022","cruel","test_val","social-negative","Valence","SV","positive;negative","negative",1,1744720006814,"negative",1598.16666666667,711,"negative","A","",6.56667242980324,7.37661241792563,175
"416","66544b06d9f37cea164b6022","clammy","test_val","physical-negative","Valence","SV","positive;negative","negative",1,1744720008315,"negative",1727.66666666667,708,"negative","A","",6.56244409369372,7.4545270295216,176
"417","66544b06d9f37cea164b6022","trustworthy","test_val","social-positive","Valence","SV","positive;negative","positive",1,1744720009939,"positive",1656.83333333333,834,"negative","A","",6.72623340235875,7.41266342898409,177
"418","66544b06d9f37cea164b6022","unjust","test_val","social-negative","Valence","SV","positive;negative","negative",1,1744720011551,"negative",2002.83333333333,823,"negative","A","",6.71295620067707,7.60231812368324,178
"419","66544b06d9f37cea164b6022","brittle","test_val","physical-negative","Valence","SV","positive;negative","negative",1,1744720013032,"negative",1593.08333333333,685,"negative","A","",6.52941883826223,7.37342662074102,179
"420","66544b06d9f37cea164b6022","elegant","test_val","physical-positive","Valence","SV","positive;negative","positive",1,1744720014507,"positive",1695.08333333333,684,"negative","A","",6.52795791762255,7.43548718281449,180
"421","66544b06d9f37cea164b6022","prosperous","test_val","social-positive","Valence","SV","positive;negative","positive",1,1744720016000,"positive",1746.83333333333,701,"negative","A","",6.55250788703459,7.46555990394212,181
"422","66544b06d9f37cea164b6022","manipulative","test_val","social-negative","Valence","SV","positive;negative","negative",1,1744720017727,"negative",1826,927,"negative","A","",6.83195356556585,7.50988306115491,182
"423","66544b06d9f37cea164b6022","supportive","test_val","social-positive","Valence","SV","positive;negative","positive",1,1744720019159,"positive",1774,639,"negative","A","",6.45990445437753,7.48099216286952,183
"424","66544b06d9f37cea164b6022","sturdy","test_val","physical-positive","Valence","SV","positive;negative","positive",1,1744720021052,"positive",1800.5,1103,"negative","A","",7.0057890192535,7.49581968308893,184
"425","66544b06d9f37cea164b6022","arrogant","test_val","social-negative","Valence","SV","positive;negative","negative",1,1744720022637,"negative",1824.5,786,"negative","A","",6.66695679242921,7.5090612558765,185
"426","66544b06d9f37cea164b6022","harmonious","test_val","social-positive","Valence","SV","positive;negative","positive",1,1744720024608,"positive",1920.83333333333,1185,"negative","A","",7.07749805356923,7.56051439863679,186
"427","66544b06d9f37cea164b6022","untrustworthy","test_val","social-negative","Valence","SV","positive;negative","negative",1,1744720026183,"negative",1693.08333333333,777,"negative","A","",6.65544035036765,7.43430660320961,187
"428","66544b06d9f37cea164b6022","fair","test_val","social-positive","Valence","SV","positive;negative","positive",1,1744720027574,"positive",1684,593,"negative","A","",6.38519439899773,7.42892719480227,188
"429","66544b06d9f37cea164b6022","generous","test_val","social-positive","Valence","SV","positive;negative","positive",1,1744720029211,"positive",1532,843,"negative","A","",6.73696695800186,7.33432935030054,189
"430","66544b06d9f37cea164b6022","smooth","test_val","physical-positive","Valence","SV","positive;negative","positive",1,1744720030580,"positive",1681.33333333333,573,"negative","A","",6.35088571671474,7.4273424084167,190
"431","66544b06d9f37cea164b6022","hostile","test_val","social-negative","Valence","SV","positive;negative","negative",1,1744720032295,"negative",1931.83333333333,920,"negative","A","",6.82437367004309,7.56622474466069,191
"432","66544b06d9f37cea164b6022","fragrant","test_val","physical-positive","Valence","SV","positive;negative","positive",1,1744720034052,"positive",2044.08333333333,956,"negative","A","",6.8627579130514,7.62270472022508,192
"433","66544b06d9f37cea164b6022","slim","test_val","physical-positive","Valence","SV","positive;negative","negative",0,1744720035888,"negative",1631.08333333333,1040,"negative","A","",6.94697599213542,7.39699969471452,193
"434","66544b06d9f37cea164b6022","scrawny","test_val","physical-negative","Valence","SV","positive;negative","negative",1,1744720037705,"negative",1597.75,1020,"negative","A","",6.92755790627832,7.37635166853039,194
"435","66544b06d9f37cea164b6022","gritty","test_val","physical-negative","Valence","SV","positive;negative","negative",1,1744720039767,"negative",1982.16666666667,1260,"negative","A","",7.13886699994552,7.59194580149919,195
"436","66544b06d9f37cea164b6022","radiant","test_val","physical-positive","Valence","SV","positive;negative","positive",1,1744720041434,"positive",1817,866,"negative","A","",6.76388490856244,7.50494206839617,196
"437","66544b06d9f37cea164b6022","moldy","test_val","physical-negative","Valence","SV","positive;negative","negative",1,1744720043344,"negative",1705.5,1117,"negative","A","",7.0184017990692,7.4416136018587,197
"438","66544b06d9f37cea164b6022","polite","test_val","social-positive","Valence","SV","positive;negative","positive",1,1744720045662,"positive",1800.5,1498,"negative","A","",7.31188616407716,7.49581968308893,198
"439","66544b06d9f37cea164b6022","compassionate","test_val","social-positive","Valence","SV","positive;negative","positive",1,1744720047288,"positive",1510,840,"negative","A","",6.73340189183736,7.31986492980897,199
"440","66544b06d9f37cea164b6022","sympathetic","test_val","social-positive","Valence","SV","positive;negative","positive",1,1744720050934,"positive",1978.41666666667,2856,"negative","A","",7.95717732345947,7.59005214048767,200
"441","66544b06d9f37cea164b6022","judgmental","test_val","social-negative","Valence","SV","positive;negative","positive",0,1744720052764,"positive",1863.83333333333,1046,"negative","A","",6.95272864462487,7.53039057780013,201
"442","66544b06d9f37cea164b6022","amiable","test_val","social-positive","Valence","SV","positive;negative","positive",1,1744720055903,"positive",2264,2349,"negative","A","",7.76174498465891,7.72488843932307,202
"443","66544b06d9f37cea164b6022","gritty","test_val","physical-negative","Valence","SV","positive;negative","negative",1,1744720058740,"negative",1982.16666666667,2046,"negative","A","",7.62364194651157,7.59194580149919,203
"444","66544b06d9f37cea164b6022","generous","test_val","social-positive","Valence","SV","positive;negative","positive",1,1744720060455,"positive",1532,918,"negative","A","",6.82219739062049,7.33432935030054,204
"445","66544b06d9f37cea164b6022","unjust","test_val","social-negative","Valence","SV","positive;negative","negative",1,1744720062457,"negative",2002.83333333333,1211,"negative","A","",7.09920174355309,7.60231812368324,205
"446","66544b06d9f37cea164b6022","untrustworthy","test_val","social-negative","Valence","SV","positive;negative","negative",1,1744720064486,"negative",1693.08333333333,1233,"negative","A","",7.11720550316434,7.43430660320961,206
"447","66544b06d9f37cea164b6022","supportive","test_val","social-positive","Valence","SV","positive;negative","positive",1,1744720066919,"positive",1774,1635,"negative","A","",7.39939808333135,7.48099216286952,207
"448","66544b06d9f37cea164b6022","sour","test_val","physical-negative","Valence","SV","positive;negative","negative",1,1744720068571,"negative",1755.16666666667,850,"negative","A","",6.74523634948436,7.47031909815254,208
"449","66544b06d9f37cea164b6022","wrinkled","test_val","physical-negative","Valence","SV","positive;negative","negative",1,1744720070067,"negative",1892.33333333333,699,"negative","A","",6.54965074223381,7.54556591450262,209
"450","66544b06d9f37cea164b6022","gorgeous","test_val","physical-positive","Valence","SV","positive;negative","positive",1,1744720071639,"positive",1925.83333333333,776,"negative","A","",6.65415252018322,7.56311405348043,210
"451","66544b06d9f37cea164b6022","clammy","test_val","physical-negative","Valence","SV","positive;negative","negative",1,1744720073115,"negative",1727.66666666667,677,"negative","A","",6.51767127291227,7.4545270295216,211
"452","66544b06d9f37cea164b6022","lush","test_val","physical-positive","Valence","SV","positive;negative","positive",1,1744720074604,"positive",1941.83333333333,695,"negative","A","",6.54391184556479,7.57138782299189,212
"453","66544b06d9f37cea164b6022","corrupt","test_val","social-negative","Valence","SV","positive;negative","negative",1,1744720076131,"negative",1896.66666666667,727,"negative","A","",6.58892647753352,7.54785323845227,213
"454","66544b06d9f37cea164b6022","trustworthy","test_val","social-positive","Valence","SV","positive;negative","positive",1,1744720077638,"positive",1656.83333333333,707,"negative","A","",6.56103066589657,7.41266342898409,214
"455","66544b06d9f37cea164b6022","manipulative","test_val","social-negative","Valence","SV","positive;negative","negative",1,1744720079960,"negative",1826,1521,"negative","A","",7.32712329225929,7.50988306115491,215
"456","66544b06d9f37cea164b6022","polite","test_val","social-positive","Valence","SV","positive;negative","positive",1,1744720081390,"positive",1800.5,623,"negative","A","",6.43454651878745,7.49581968308893,216
"457","66544b06d9f37cea164b6022","moldy","test_val","physical-negative","Valence","SV","positive;negative","negative",1,1744720082808,"negative",1705.5,654,"negative","A","",6.4831073514572,7.4416136018587,217
"458","66544b06d9f37cea164b6022","sympathetic","test_val","social-positive","Valence","SV","positive;negative","positive",1,1744720084231,"positive",1978.41666666667,615,"negative","A","",6.42162226780652,7.59005214048767,218
"459","66544b06d9f37cea164b6022","prosperous","test_val","social-positive","Valence","SV","positive;negative","positive",1,1744720085693,"positive",1746.83333333333,660,"negative","A","",6.49223983502047,7.46555990394212,219
"460","66544b06d9f37cea164b6022","oppressive","test_val","social-negative","Valence","SV","positive;negative","negative",1,1744720087174,"negative",1778.16666666667,685,"negative","A","",6.52941883826223,7.48333814996341,220
"461","66544b06d9f37cea164b6022","selfish","test_val","social-negative","Valence","SV","positive;negative","positive",0,1744720088602,"positive",1792.5,657,"negative","A","",6.48768401848461,7.49136657247378,221
"462","66544b06d9f37cea164b6022","harmonious","test_val","social-positive","Valence","SV","positive;negative","positive",1,1744720090985,"positive",1920.83333333333,1597,"negative","A","",7.37588214821501,7.56051439863679,222
"463","66544b06d9f37cea164b6022","soft","test_val","physical-positive","Valence","SV","positive;negative","positive",1,1744720092463,"positive",1685,689,"negative","A","",6.53524127101366,7.42952084278646,223
