#
# Results on Mon, 27 Jan 2025 21:44:12 GMT
# USER AGENT: Mozilla/5.0 (Windows NT 10.0; Win64; x64) AppleWebKit/537.36 (KHTML, like Gecko) Chrome/131.0.0.0 Safari/537.36
# Design number was non-random = 5
#
# Columns below this comment are as follows:
# 1. Results reception time.
# 2. MD5 hash of participant's IP address.
# 3. Controller name.
# 4. Order number of item.
# 5. Inner element number.
# 6. Label.
# 7. Latin Square Group.
# 8. PennElementType.
# 9. PennElementName.
# 10. Parameter.
# 11. Value.
# 12. EventTime.
# 13. Comments.
1738014252,f6fd50e524ef9f892efa750332d160c3,PennController,1,0,welcome,NULL,PennController,0,_Trial_,Start,1738013654083,NULL
1738014252,f6fd50e524ef9f892efa750332d160c3,PennController,1,0,welcome,NULL,PennController,0,_Header_,Start,1738013654083,NULL
1738014252,f6fd50e524ef9f892efa750332d160c3,PennController,1,0,welcome,NULL,PennController,0,_Header_,End,1738013654336,NULL
1738014252,f6fd50e524ef9f892efa750332d160c3,PennController,1,0,welcome,NULL,PennController,0,_Trial_,End,1738013668607,NULL
# 13. ID.
# 14. Comments.
1738014252,f6fd50e524ef9f892efa750332d160c3,PennController,124,0,consent,NULL,PennController,2,_Trial_,Start,1738013668609,60bc011503db109b7d46851d,NULL
1738014252,f6fd50e524ef9f892efa750332d160c3,PennController,124,0,consent,NULL,PennController,2,_Header_,Start,1738013668609,60bc011503db109b7d46851d,NULL
1738014252,f6fd50e524ef9f892efa750332d160c3,PennController,124,0,consent,NULL,PennController,2,_Header_,End,1738013668859,60bc011503db109b7d46851d,NULL
1738014252,f6fd50e524ef9f892efa750332d160c3,PennController,124,0,consent,NULL,TextInput,ID,Final,60bc011503db109b7d46851d,1738013682356,60bc011503db109b7d46851d,NULL
1738014252,f6fd50e524ef9f892efa750332d160c3,PennController,124,0,consent,NULL,PennController,2,_Trial_,End,1738013682356,60bc011503db109b7d46851d,NULL
# 13. Comments.
1738014252,f6fd50e524ef9f892efa750332d160c3,PennController,126,0,instructions1_conc,NULL,PennController,4,_Trial_,Start,1738013682357,NULL
1738014252,f6fd50e524ef9f892efa750332d160c3,PennController,126,0,instructions1_conc,NULL,PennController,4,_Header_,Start,1738013682357,NULL
1738014252,f6fd50e524ef9f892efa750332d160c3,PennController,126,0,instructions1_conc,NULL,PennController,4,_Header_,End,1738013682609,NULL
1738014252,f6fd50e524ef9f892efa750332d160c3,PennController,126,0,instructions1_conc,NULL,PennController,4,_Trial_,End,1738013710989,NULL
1738014252,f6fd50e524ef9f892efa750332d160c3,PennController,127,0,instructions2_conc,NULL,PennController,5,_Trial_,Start,1738013710990,NULL
1738014252,f6fd50e524ef9f892efa750332d160c3,PennController,127,0,instructions2_conc,NULL,PennController,5,_Header_,Start,1738013710990,NULL
1738014252,f6fd50e524ef9f892efa750332d160c3,PennController,127,0,instructions2_conc,NULL,PennController,5,_Header_,End,1738013711244,NULL
1738014252,f6fd50e524ef9f892efa750332d160c3,PennController,127,0,instructions2_conc,NULL,PennController,5,_Trial_,End,1738013713886,NULL
1738014252,f6fd50e524ef9f892efa750332d160c3,PennController,134,0,instructions3_hands,NULL,PennController,12,_Trial_,Start,1738013713887,NULL
1738014252,f6fd50e524ef9f892efa750332d160c3,PennController,134,0,instructions3_hands,NULL,PennController,12,_Header_,Start,1738013713887,NULL
1738014252,f6fd50e524ef9f892efa750332d160c3,PennController,134,0,instructions3_hands,NULL,PennController,12,_Header_,End,1738013714139,NULL
1738014252,f6fd50e524ef9f892efa750332d160c3,PennController,134,0,instructions3_hands,NULL,PennController,12,_Trial_,End,1738013720189,NULL
1738014252,f6fd50e524ef9f892efa750332d160c3,PennController,129,0,practice_intro_conc,NULL,PennController,7,_Trial_,Start,1738013720190,NULL
1738014252,f6fd50e524ef9f892efa750332d160c3,PennController,129,0,practice_intro_conc,NULL,PennController,7,_Header_,Start,1738013720190,NULL
1738014252,f6fd50e524ef9f892efa750332d160c3,PennController,129,0,practice_intro_conc,NULL,PennController,7,_Header_,End,1738013720441,NULL
1738014252,f6fd50e524ef9f892efa750332d160c3,PennController,129,0,practice_intro_conc,NULL,PennController,7,_Trial_,End,1738013721996,NULL
# 13. ID.
# 14. ReactionTime.
# 15. Word.
# 16. selectedKey.
# 17. selectedValue.
# 18. Key_value_F.
# 19. Key_value_J.
# 20. Group.
# 21. Comments.
1738014252,f6fd50e524ef9f892efa750332d160c3,PennController,88,0,calibrator_conc_feedback,NULL,PennController,99,_Trial_,Start,1738013721997,undefined,1777,polite,undefined,concrete,abstract,concrete,A,NULL
1738014252,f6fd50e524ef9f892efa750332d160c3,PennController,88,0,calibrator_conc_feedback,NULL,PennController,99,_Header_,Start,1738013721997,undefined,1777,polite,undefined,concrete,abstract,concrete,A,NULL
1738014252,f6fd50e524ef9f892efa750332d160c3,PennController,88,0,calibrator_conc_feedback,NULL,PennController,99,_Header_,End,1738013722250,undefined,1777,polite,undefined,concrete,abstract,concrete,A,NULL
1738014252,f6fd50e524ef9f892efa750332d160c3,PennController,88,0,calibrator_conc_feedback,NULL,Selector,Selection,Selection,abstract,1738013724532,undefined,1777,polite,undefined,concrete,abstract,concrete,A,abstract;concrete
1738014252,f6fd50e524ef9f892efa750332d160c3,PennController,88,0,calibrator_conc_feedback,NULL,PennController,99,_Trial_,End,1738013726534,undefined,1777,polite,undefined,concrete,abstract,concrete,A,NULL
1738014252,f6fd50e524ef9f892efa750332d160c3,PennController,93,0,calibrator_conc_feedback,NULL,PennController,104,_Trial_,Start,1738013726534,undefined,1380,insecure,undefined,concrete,abstract,concrete,A,NULL
1738014252,f6fd50e524ef9f892efa750332d160c3,PennController,93,0,calibrator_conc_feedback,NULL,PennController,104,_Header_,Start,1738013726534,undefined,1380,insecure,undefined,concrete,abstract,concrete,A,NULL
1738014252,f6fd50e524ef9f892efa750332d160c3,PennController,93,0,calibrator_conc_feedback,NULL,PennController,104,_Header_,End,1738013726784,undefined,1380,insecure,undefined,concrete,abstract,concrete,A,NULL
1738014252,f6fd50e524ef9f892efa750332d160c3,PennController,93,0,calibrator_conc_feedback,NULL,Selector,Selection,Selection,abstract,1738013728667,undefined,1380,insecure,undefined,concrete,abstract,concrete,A,abstract;concrete
1738014252,f6fd50e524ef9f892efa750332d160c3,PennController,93,0,calibrator_conc_feedback,NULL,PennController,104,_Trial_,End,1738013730670,undefined,1380,insecure,undefined,concrete,abstract,concrete,A,NULL
1738014252,f6fd50e524ef9f892efa750332d160c3,PennController,85,0,calibrator_conc_feedback,NULL,PennController,96,_Trial_,Start,1738013730671,undefined,1532,grasshopper,undefined,concrete,abstract,concrete,A,NULL
1738014252,f6fd50e524ef9f892efa750332d160c3,PennController,85,0,calibrator_conc_feedback,NULL,PennController,96,_Header_,Start,1738013730671,undefined,1532,grasshopper,undefined,concrete,abstract,concrete,A,NULL
1738014252,f6fd50e524ef9f892efa750332d160c3,PennController,85,0,calibrator_conc_feedback,NULL,PennController,96,_Header_,End,1738013730922,undefined,1532,grasshopper,undefined,concrete,abstract,concrete,A,NULL
1738014252,f6fd50e524ef9f892efa750332d160c3,PennController,85,0,calibrator_conc_feedback,NULL,Selector,Selection,Selection,concrete,1738013732956,undefined,1532,grasshopper,undefined,concrete,abstract,concrete,A,abstract;concrete
1738014252,f6fd50e524ef9f892efa750332d160c3,PennController,85,0,calibrator_conc_feedback,NULL,PennController,96,_Trial_,End,1738013734958,undefined,1532,grasshopper,undefined,concrete,abstract,concrete,A,NULL
1738014252,f6fd50e524ef9f892efa750332d160c3,PennController,90,0,calibrator_conc_feedback,NULL,PennController,101,_Trial_,Start,1738013734959,undefined,1571,sugar,undefined,concrete,abstract,concrete,A,NULL
1738014252,f6fd50e524ef9f892efa750332d160c3,PennController,90,0,calibrator_conc_feedback,NULL,PennController,101,_Header_,Start,1738013734959,undefined,1571,sugar,undefined,concrete,abstract,concrete,A,NULL
1738014252,f6fd50e524ef9f892efa750332d160c3,PennController,90,0,calibrator_conc_feedback,NULL,PennController,101,_Header_,End,1738013735210,undefined,1571,sugar,undefined,concrete,abstract,concrete,A,NULL
1738014252,f6fd50e524ef9f892efa750332d160c3,PennController,90,0,calibrator_conc_feedback,NULL,Selector,Selection,Selection,concrete,1738013737283,undefined,1571,sugar,undefined,concrete,abstract,concrete,A,abstract;concrete
1738014252,f6fd50e524ef9f892efa750332d160c3,PennController,90,0,calibrator_conc_feedback,NULL,PennController,101,_Trial_,End,1738013739288,undefined,1571,sugar,undefined,concrete,abstract,concrete,A,NULL
1738014252,f6fd50e524ef9f892efa750332d160c3,PennController,89,0,calibrator_conc_feedback,NULL,PennController,100,_Trial_,Start,1738013739288,undefined,1291,shirt,undefined,concrete,abstract,concrete,A,NULL
1738014252,f6fd50e524ef9f892efa750332d160c3,PennController,89,0,calibrator_conc_feedback,NULL,PennController,100,_Header_,Start,1738013739288,undefined,1291,shirt,undefined,concrete,abstract,concrete,A,NULL
1738014252,f6fd50e524ef9f892efa750332d160c3,PennController,89,0,calibrator_conc_feedback,NULL,PennController,100,_Header_,End,1738013739540,undefined,1291,shirt,undefined,concrete,abstract,concrete,A,NULL
1738014252,f6fd50e524ef9f892efa750332d160c3,PennController,89,0,calibrator_conc_feedback,NULL,Selector,Selection,Selection,concrete,1738013741331,undefined,1291,shirt,undefined,concrete,abstract,concrete,A,abstract;concrete
1738014252,f6fd50e524ef9f892efa750332d160c3,PennController,89,0,calibrator_conc_feedback,NULL,PennController,100,_Trial_,End,1738013743334,undefined,1291,shirt,undefined,concrete,abstract,concrete,A,NULL
1738014252,f6fd50e524ef9f892efa750332d160c3,PennController,92,0,calibrator_conc_feedback,NULL,PennController,103,_Trial_,Start,1738013743334,undefined,962,whistle,undefined,concrete,abstract,concrete,A,NULL
1738014252,f6fd50e524ef9f892efa750332d160c3,PennController,92,0,calibrator_conc_feedback,NULL,PennController,103,_Header_,Start,1738013743334,undefined,962,whistle,undefined,concrete,abstract,concrete,A,NULL
1738014252,f6fd50e524ef9f892efa750332d160c3,PennController,92,0,calibrator_conc_feedback,NULL,PennController,103,_Header_,End,1738013743586,undefined,962,whistle,undefined,concrete,abstract,concrete,A,NULL
1738014252,f6fd50e524ef9f892efa750332d160c3,PennController,92,0,calibrator_conc_feedback,NULL,Selector,Selection,Selection,concrete,1738013745052,undefined,962,whistle,undefined,concrete,abstract,concrete,A,abstract;concrete
1738014252,f6fd50e524ef9f892efa750332d160c3,PennController,92,0,calibrator_conc_feedback,NULL,PennController,103,_Trial_,End,1738013747055,undefined,962,whistle,undefined,concrete,abstract,concrete,A,NULL
1738014252,f6fd50e524ef9f892efa750332d160c3,PennController,87,0,calibrator_conc_feedback,NULL,PennController,98,_Trial_,Start,1738013747057,undefined,1538,marriage,undefined,concrete,abstract,concrete,A,NULL
1738014252,f6fd50e524ef9f892efa750332d160c3,PennController,87,0,calibrator_conc_feedback,NULL,PennController,98,_Header_,Start,1738013747057,undefined,1538,marriage,undefined,concrete,abstract,concrete,A,NULL
1738014252,f6fd50e524ef9f892efa750332d160c3,PennController,87,0,calibrator_conc_feedback,NULL,PennController,98,_Header_,End,1738013747307,undefined,1538,marriage,undefined,concrete,abstract,concrete,A,NULL
1738014252,f6fd50e524ef9f892efa750332d160c3,PennController,87,0,calibrator_conc_feedback,NULL,Selector,Selection,Selection,abstract,1738013749347,undefined,1538,marriage,undefined,concrete,abstract,concrete,A,abstract;concrete
1738014252,f6fd50e524ef9f892efa750332d160c3,PennController,87,0,calibrator_conc_feedback,NULL,PennController,98,_Trial_,End,1738013751351,undefined,1538,marriage,undefined,concrete,abstract,concrete,A,NULL
1738014252,f6fd50e524ef9f892efa750332d160c3,PennController,84,0,calibrator_conc_feedback,NULL,PennController,95,_Trial_,Start,1738013751352,undefined,1994,gas,undefined,concrete,abstract,concrete,A,NULL
1738014252,f6fd50e524ef9f892efa750332d160c3,PennController,84,0,calibrator_conc_feedback,NULL,PennController,95,_Header_,Start,1738013751352,undefined,1994,gas,undefined,concrete,abstract,concrete,A,NULL
1738014252,f6fd50e524ef9f892efa750332d160c3,PennController,84,0,calibrator_conc_feedback,NULL,PennController,95,_Header_,End,1738013751604,undefined,1994,gas,undefined,concrete,abstract,concrete,A,NULL
1738014252,f6fd50e524ef9f892efa750332d160c3,PennController,84,0,calibrator_conc_feedback,NULL,Selector,Selection,Selection,abstract,1738013754099,undefined,1994,gas,undefined,concrete,abstract,concrete,A,abstract;concrete
1738014252,f6fd50e524ef9f892efa750332d160c3,PennController,84,0,calibrator_conc_feedback,NULL,PennController,95,_Trial_,End,1738013756102,undefined,1994,gas,undefined,concrete,abstract,concrete,A,NULL
1738014252,f6fd50e524ef9f892efa750332d160c3,PennController,91,0,calibrator_conc_feedback,NULL,PennController,102,_Trial_,Start,1738013756103,undefined,1545,theory,undefined,concrete,abstract,concrete,A,NULL
1738014252,f6fd50e524ef9f892efa750332d160c3,PennController,91,0,calibrator_conc_feedback,NULL,PennController,102,_Header_,Start,1738013756103,undefined,1545,theory,undefined,concrete,abstract,concrete,A,NULL
1738014252,f6fd50e524ef9f892efa750332d160c3,PennController,91,0,calibrator_conc_feedback,NULL,PennController,102,_Header_,End,1738013756356,undefined,1545,theory,undefined,concrete,abstract,concrete,A,NULL
1738014252,f6fd50e524ef9f892efa750332d160c3,PennController,91,0,calibrator_conc_feedback,NULL,Selector,Selection,Selection,abstract,1738013758403,undefined,1545,theory,undefined,concrete,abstract,concrete,A,abstract;concrete
1738014252,f6fd50e524ef9f892efa750332d160c3,PennController,91,0,calibrator_conc_feedback,NULL,PennController,102,_Trial_,End,1738013760408,undefined,1545,theory,undefined,concrete,abstract,concrete,A,NULL
1738014252,f6fd50e524ef9f892efa750332d160c3,PennController,86,0,calibrator_conc_feedback,NULL,PennController,97,_Trial_,Start,1738013760409,undefined,1682,kick,undefined,concrete,abstract,concrete,A,NULL
1738014252,f6fd50e524ef9f892efa750332d160c3,PennController,86,0,calibrator_conc_feedback,NULL,PennController,97,_Header_,Start,1738013760409,undefined,1682,kick,undefined,concrete,abstract,concrete,A,NULL
1738014252,f6fd50e524ef9f892efa750332d160c3,PennController,86,0,calibrator_conc_feedback,NULL,PennController,97,_Header_,End,1738013760660,undefined,1682,kick,undefined,concrete,abstract,concrete,A,NULL
1738014252,f6fd50e524ef9f892efa750332d160c3,PennController,86,0,calibrator_conc_feedback,NULL,Selector,Selection,Selection,abstract,1738013762843,undefined,1682,kick,undefined,concrete,abstract,concrete,A,abstract;concrete
1738014252,f6fd50e524ef9f892efa750332d160c3,PennController,86,0,calibrator_conc_feedback,NULL,PennController,97,_Trial_,End,1738013764846,undefined,1682,kick,undefined,concrete,abstract,concrete,A,NULL
# 16. Key_value_F.
# 17. Key_value_J.
# 18. Group.
# 19. Comments.
1738014252,f6fd50e524ef9f892efa750332d160c3,PennController,99,0,calibrator_conc_no_feedback,NULL,PennController,110,_Trial_,Start,1738013764847,undefined,1443,shirt,abstract,concrete,A,NULL
1738014252,f6fd50e524ef9f892efa750332d160c3,PennController,99,0,calibrator_conc_no_feedback,NULL,PennController,110,_Header_,Start,1738013764847,undefined,1443,shirt,abstract,concrete,A,NULL
1738014252,f6fd50e524ef9f892efa750332d160c3,PennController,99,0,calibrator_conc_no_feedback,NULL,PennController,110,_Header_,End,1738013765097,undefined,1443,shirt,abstract,concrete,A,NULL
1738014252,f6fd50e524ef9f892efa750332d160c3,PennController,99,0,calibrator_conc_no_feedback,NULL,Selector,unnamed-Selector,Selection,concrete,1738013767043,undefined,1443,shirt,abstract,concrete,A,abstract;concrete
1738014252,f6fd50e524ef9f892efa750332d160c3,PennController,99,0,calibrator_conc_no_feedback,NULL,PennController,110,_Trial_,End,1738013767044,undefined,1443,shirt,abstract,concrete,A,NULL
1738014252,f6fd50e524ef9f892efa750332d160c3,PennController,95,0,calibrator_conc_no_feedback,NULL,PennController,106,_Trial_,Start,1738013767045,undefined,1620,grasshopper,abstract,concrete,A,NULL
1738014252,f6fd50e524ef9f892efa750332d160c3,PennController,95,0,calibrator_conc_no_feedback,NULL,PennController,106,_Header_,Start,1738013767045,undefined,1620,grasshopper,abstract,concrete,A,NULL
1738014252,f6fd50e524ef9f892efa750332d160c3,PennController,95,0,calibrator_conc_no_feedback,NULL,PennController,106,_Header_,End,1738013767297,undefined,1620,grasshopper,abstract,concrete,A,NULL
1738014252,f6fd50e524ef9f892efa750332d160c3,PennController,95,0,calibrator_conc_no_feedback,NULL,Selector,unnamed-Selector,Selection,concrete,1738013769420,undefined,1620,grasshopper,abstract,concrete,A,abstract;concrete
1738014252,f6fd50e524ef9f892efa750332d160c3,PennController,95,0,calibrator_conc_no_feedback,NULL,PennController,106,_Trial_,End,1738013769420,undefined,1620,grasshopper,abstract,concrete,A,NULL
1738014252,f6fd50e524ef9f892efa750332d160c3,PennController,98,0,calibrator_conc_no_feedback,NULL,PennController,109,_Trial_,Start,1738013769421,undefined,935,polite,abstract,concrete,A,NULL
1738014252,f6fd50e524ef9f892efa750332d160c3,PennController,98,0,calibrator_conc_no_feedback,NULL,PennController,109,_Header_,Start,1738013769421,undefined,935,polite,abstract,concrete,A,NULL
1738014252,f6fd50e524ef9f892efa750332d160c3,PennController,98,0,calibrator_conc_no_feedback,NULL,PennController,109,_Header_,End,1738013769671,undefined,935,polite,abstract,concrete,A,NULL
1738014252,f6fd50e524ef9f892efa750332d160c3,PennController,98,0,calibrator_conc_no_feedback,NULL,Selector,unnamed-Selector,Selection,abstract,1738013771107,undefined,935,polite,abstract,concrete,A,abstract;concrete
1738014252,f6fd50e524ef9f892efa750332d160c3,PennController,98,0,calibrator_conc_no_feedback,NULL,PennController,109,_Trial_,End,1738013771108,undefined,935,polite,abstract,concrete,A,NULL
1738014252,f6fd50e524ef9f892efa750332d160c3,PennController,97,0,calibrator_conc_no_feedback,NULL,PennController,108,_Trial_,Start,1738013771109,undefined,1330,marriage,abstract,concrete,A,NULL
1738014252,f6fd50e524ef9f892efa750332d160c3,PennController,97,0,calibrator_conc_no_feedback,NULL,PennController,108,_Header_,Start,1738013771109,undefined,1330,marriage,abstract,concrete,A,NULL
1738014252,f6fd50e524ef9f892efa750332d160c3,PennController,97,0,calibrator_conc_no_feedback,NULL,PennController,108,_Header_,End,1738013771362,undefined,1330,marriage,abstract,concrete,A,NULL
1738014252,f6fd50e524ef9f892efa750332d160c3,PennController,97,0,calibrator_conc_no_feedback,NULL,Selector,unnamed-Selector,Selection,concrete,1738013773195,undefined,1330,marriage,abstract,concrete,A,abstract;concrete
1738014252,f6fd50e524ef9f892efa750332d160c3,PennController,97,0,calibrator_conc_no_feedback,NULL,PennController,108,_Trial_,End,1738013773196,undefined,1330,marriage,abstract,concrete,A,NULL
1738014252,f6fd50e524ef9f892efa750332d160c3,PennController,96,0,calibrator_conc_no_feedback,NULL,PennController,107,_Trial_,Start,1738013773197,undefined,1132,kick,abstract,concrete,A,NULL
1738014252,f6fd50e524ef9f892efa750332d160c3,PennController,96,0,calibrator_conc_no_feedback,NULL,PennController,107,_Header_,Start,1738013773197,undefined,1132,kick,abstract,concrete,A,NULL
1738014252,f6fd50e524ef9f892efa750332d160c3,PennController,96,0,calibrator_conc_no_feedback,NULL,PennController,107,_Header_,End,1738013773449,undefined,1132,kick,abstract,concrete,A,NULL
1738014252,f6fd50e524ef9f892efa750332d160c3,PennController,96,0,calibrator_conc_no_feedback,NULL,Selector,unnamed-Selector,Selection,concrete,1738013775083,undefined,1132,kick,abstract,concrete,A,abstract;concrete
1738014252,f6fd50e524ef9f892efa750332d160c3,PennController,96,0,calibrator_conc_no_feedback,NULL,PennController,107,_Trial_,End,1738013775084,undefined,1132,kick,abstract,concrete,A,NULL
1738014252,f6fd50e524ef9f892efa750332d160c3,PennController,100,0,calibrator_conc_no_feedback,NULL,PennController,111,_Trial_,Start,1738013775085,undefined,1174,sugar,abstract,concrete,A,NULL
1738014252,f6fd50e524ef9f892efa750332d160c3,PennController,100,0,calibrator_conc_no_feedback,NULL,PennController,111,_Header_,Start,1738013775085,undefined,1174,sugar,abstract,concrete,A,NULL
1738014252,f6fd50e524ef9f892efa750332d160c3,PennController,100,0,calibrator_conc_no_feedback,NULL,PennController,111,_Header_,End,1738013775335,undefined,1174,sugar,abstract,concrete,A,NULL
1738014252,f6fd50e524ef9f892efa750332d160c3,PennController,100,0,calibrator_conc_no_feedback,NULL,Selector,unnamed-Selector,Selection,concrete,1738013777011,undefined,1174,sugar,abstract,concrete,A,abstract;concrete
1738014252,f6fd50e524ef9f892efa750332d160c3,PennController,100,0,calibrator_conc_no_feedback,NULL,PennController,111,_Trial_,End,1738013777012,undefined,1174,sugar,abstract,concrete,A,NULL
1738014252,f6fd50e524ef9f892efa750332d160c3,PennController,101,0,calibrator_conc_no_feedback,NULL,PennController,112,_Trial_,Start,1738013777013,undefined,927,theory,abstract,concrete,A,NULL
1738014252,f6fd50e524ef9f892efa750332d160c3,PennController,101,0,calibrator_conc_no_feedback,NULL,PennController,112,_Header_,Start,1738013777013,undefined,927,theory,abstract,concrete,A,NULL
1738014252,f6fd50e524ef9f892efa750332d160c3,PennController,101,0,calibrator_conc_no_feedback,NULL,PennController,112,_Header_,End,1738013777267,undefined,927,theory,abstract,concrete,A,NULL
1738014252,f6fd50e524ef9f892efa750332d160c3,PennController,101,0,calibrator_conc_no_feedback,NULL,Selector,unnamed-Selector,Selection,abstract,1738013778699,undefined,927,theory,abstract,concrete,A,abstract;concrete
1738014252,f6fd50e524ef9f892efa750332d160c3,PennController,101,0,calibrator_conc_no_feedback,NULL,PennController,112,_Trial_,End,1738013778700,undefined,927,theory,abstract,concrete,A,NULL
1738014252,f6fd50e524ef9f892efa750332d160c3,PennController,103,0,calibrator_conc_no_feedback,NULL,PennController,114,_Trial_,Start,1738013778701,undefined,1482,insecure,abstract,concrete,A,NULL
1738014252,f6fd50e524ef9f892efa750332d160c3,PennController,103,0,calibrator_conc_no_feedback,NULL,PennController,114,_Header_,Start,1738013778701,undefined,1482,insecure,abstract,concrete,A,NULL
1738014252,f6fd50e524ef9f892efa750332d160c3,PennController,103,0,calibrator_conc_no_feedback,NULL,PennController,114,_Header_,End,1738013778954,undefined,1482,insecure,abstract,concrete,A,NULL
1738014252,f6fd50e524ef9f892efa750332d160c3,PennController,103,0,calibrator_conc_no_feedback,NULL,Selector,unnamed-Selector,Selection,abstract,1738013780940,undefined,1482,insecure,abstract,concrete,A,abstract;concrete
1738014252,f6fd50e524ef9f892efa750332d160c3,PennController,103,0,calibrator_conc_no_feedback,NULL,PennController,114,_Trial_,End,1738013780941,undefined,1482,insecure,abstract,concrete,A,NULL
1738014252,f6fd50e524ef9f892efa750332d160c3,PennController,94,0,calibrator_conc_no_feedback,NULL,PennController,105,_Trial_,Start,1738013780942,undefined,839,gas,abstract,concrete,A,NULL
1738014252,f6fd50e524ef9f892efa750332d160c3,PennController,94,0,calibrator_conc_no_feedback,NULL,PennController,105,_Header_,Start,1738013780942,undefined,839,gas,abstract,concrete,A,NULL
1738014252,f6fd50e524ef9f892efa750332d160c3,PennController,94,0,calibrator_conc_no_feedback,NULL,PennController,105,_Header_,End,1738013781193,undefined,839,gas,abstract,concrete,A,NULL
1738014252,f6fd50e524ef9f892efa750332d160c3,PennController,94,0,calibrator_conc_no_feedback,NULL,Selector,unnamed-Selector,Selection,concrete,1738013782531,undefined,839,gas,abstract,concrete,A,abstract;concrete
1738014252,f6fd50e524ef9f892efa750332d160c3,PennController,94,0,calibrator_conc_no_feedback,NULL,PennController,105,_Trial_,End,1738013782532,undefined,839,gas,abstract,concrete,A,NULL
1738014252,f6fd50e524ef9f892efa750332d160c3,PennController,102,0,calibrator_conc_no_feedback,NULL,PennController,113,_Trial_,Start,1738013782533,undefined,1157,whistle,abstract,concrete,A,NULL
1738014252,f6fd50e524ef9f892efa750332d160c3,PennController,102,0,calibrator_conc_no_feedback,NULL,PennController,113,_Header_,Start,1738013782533,undefined,1157,whistle,abstract,concrete,A,NULL
1738014252,f6fd50e524ef9f892efa750332d160c3,PennController,102,0,calibrator_conc_no_feedback,NULL,PennController,113,_Header_,End,1738013782784,undefined,1157,whistle,abstract,concrete,A,NULL
1738014252,f6fd50e524ef9f892efa750332d160c3,PennController,102,0,calibrator_conc_no_feedback,NULL,Selector,unnamed-Selector,Selection,concrete,1738013784443,undefined,1157,whistle,abstract,concrete,A,abstract;concrete
1738014252,f6fd50e524ef9f892efa750332d160c3,PennController,102,0,calibrator_conc_no_feedback,NULL,PennController,113,_Trial_,End,1738013784444,undefined,1157,whistle,abstract,concrete,A,NULL
# 13. Comments.
1738014252,f6fd50e524ef9f892efa750332d160c3,PennController,130,0,endinstructions_conc,NULL,PennController,8,_Trial_,Start,1738013784445,NULL
1738014252,f6fd50e524ef9f892efa750332d160c3,PennController,130,0,endinstructions_conc,NULL,PennController,8,_Header_,Start,1738013784445,NULL
1738014252,f6fd50e524ef9f892efa750332d160c3,PennController,130,0,endinstructions_conc,NULL,PennController,8,_Header_,End,1738013784695,NULL
1738014252,f6fd50e524ef9f892efa750332d160c3,PennController,130,0,endinstructions_conc,NULL,PennController,8,_Trial_,End,1738013789300,NULL
# 13. ID.
# 14. ReactionTime.
# 15. Word.
# 16. ConcValCombo.
# 17. Key_value_F.
# 18. Key_value_J.
# 19. Group.
# 20. Comments.
1738014252,f6fd50e524ef9f892efa750332d160c3,PennController,37,0,test_conc,NULL,PennController,48,_Trial_,Start,1738013789301,undefined,1413,vomit,concrete-negative,abstract,concrete,B,NULL
1738014252,f6fd50e524ef9f892efa750332d160c3,PennController,37,0,test_conc,NULL,PennController,48,_Header_,Start,1738013789301,undefined,1413,vomit,concrete-negative,abstract,concrete,B,NULL
1738014252,f6fd50e524ef9f892efa750332d160c3,PennController,37,0,test_conc,NULL,PennController,48,_Header_,End,1738013789551,undefined,1413,vomit,concrete-negative,abstract,concrete,B,NULL
1738014252,f6fd50e524ef9f892efa750332d160c3,PennController,37,0,test_conc,NULL,Selector,unnamed-Selector,Selection,concrete,1738013791468,undefined,1413,vomit,concrete-negative,abstract,concrete,B,abstract;concrete
1738014252,f6fd50e524ef9f892efa750332d160c3,PennController,37,0,test_conc,NULL,PennController,48,_Trial_,End,1738013791468,undefined,1413,vomit,concrete-negative,abstract,concrete,B,NULL
1738014252,f6fd50e524ef9f892efa750332d160c3,PennController,29,0,test_conc,NULL,PennController,40,_Trial_,Start,1738013791469,undefined,792,kindness,abstract-positive,abstract,concrete,B,NULL
1738014252,f6fd50e524ef9f892efa750332d160c3,PennController,29,0,test_conc,NULL,PennController,40,_Header_,Start,1738013791469,undefined,792,kindness,abstract-positive,abstract,concrete,B,NULL
1738014252,f6fd50e524ef9f892efa750332d160c3,PennController,29,0,test_conc,NULL,PennController,40,_Header_,End,1738013791720,undefined,792,kindness,abstract-positive,abstract,concrete,B,NULL
1738014252,f6fd50e524ef9f892efa750332d160c3,PennController,29,0,test_conc,NULL,Selector,unnamed-Selector,Selection,abstract,1738013793011,undefined,792,kindness,abstract-positive,abstract,concrete,B,abstract;concrete
1738014252,f6fd50e524ef9f892efa750332d160c3,PennController,29,0,test_conc,NULL,PennController,40,_Trial_,End,1738013793012,undefined,792,kindness,abstract-positive,abstract,concrete,B,NULL
1738014252,f6fd50e524ef9f892efa750332d160c3,PennController,26,0,test_conc,NULL,PennController,37,_Trial_,Start,1738013793013,undefined,831,joy,abstract-positive,abstract,concrete,B,NULL
1738014252,f6fd50e524ef9f892efa750332d160c3,PennController,26,0,test_conc,NULL,PennController,37,_Header_,Start,1738013793013,undefined,831,joy,abstract-positive,abstract,concrete,B,NULL
1738014252,f6fd50e524ef9f892efa750332d160c3,PennController,26,0,test_conc,NULL,PennController,37,_Header_,End,1738013793265,undefined,831,joy,abstract-positive,abstract,concrete,B,NULL
1738014252,f6fd50e524ef9f892efa750332d160c3,PennController,26,0,test_conc,NULL,Selector,unnamed-Selector,Selection,abstract,1738013794595,undefined,831,joy,abstract-positive,abstract,concrete,B,abstract;concrete
1738014252,f6fd50e524ef9f892efa750332d160c3,PennController,26,0,test_conc,NULL,PennController,37,_Trial_,End,1738013794596,undefined,831,joy,abstract-positive,abstract,concrete,B,NULL
1738014252,f6fd50e524ef9f892efa750332d160c3,PennController,34,0,test_conc,NULL,PennController,45,_Trial_,Start,1738013794597,undefined,857,smoke,concrete-negative,abstract,concrete,B,NULL
1738014252,f6fd50e524ef9f892efa750332d160c3,PennController,34,0,test_conc,NULL,PennController,45,_Header_,Start,1738013794597,undefined,857,smoke,concrete-negative,abstract,concrete,B,NULL
1738014252,f6fd50e524ef9f892efa750332d160c3,PennController,34,0,test_conc,NULL,PennController,45,_Header_,End,1738013794850,undefined,857,smoke,concrete-negative,abstract,concrete,B,NULL
1738014252,f6fd50e524ef9f892efa750332d160c3,PennController,34,0,test_conc,NULL,Selector,unnamed-Selector,Selection,abstract,1738013796211,undefined,857,smoke,concrete-negative,abstract,concrete,B,abstract;concrete
1738014252,f6fd50e524ef9f892efa750332d160c3,PennController,34,0,test_conc,NULL,PennController,45,_Trial_,End,1738013796212,undefined,857,smoke,concrete-negative,abstract,concrete,B,NULL
1738014252,f6fd50e524ef9f892efa750332d160c3,PennController,21,0,test_conc,NULL,PennController,32,_Trial_,Start,1738013796212,undefined,662,rain,concrete-positive,abstract,concrete,B,NULL
1738014252,f6fd50e524ef9f892efa750332d160c3,PennController,21,0,test_conc,NULL,PennController,32,_Header_,Start,1738013796212,undefined,662,rain,concrete-positive,abstract,concrete,B,NULL
1738014252,f6fd50e524ef9f892efa750332d160c3,PennController,21,0,test_conc,NULL,PennController,32,_Header_,End,1738013796463,undefined,662,rain,concrete-positive,abstract,concrete,B,NULL
1738014252,f6fd50e524ef9f892efa750332d160c3,PennController,21,0,test_conc,NULL,Selector,unnamed-Selector,Selection,concrete,1738013797627,undefined,662,rain,concrete-positive,abstract,concrete,B,abstract;concrete
1738014252,f6fd50e524ef9f892efa750332d160c3,PennController,21,0,test_conc,NULL,PennController,32,_Trial_,End,1738013797628,undefined,662,rain,concrete-positive,abstract,concrete,B,NULL
1738014252,f6fd50e524ef9f892efa750332d160c3,PennController,32,0,test_conc,NULL,PennController,43,_Trial_,Start,1738013797629,undefined,900,gratitude,abstract-positive,abstract,concrete,B,NULL
1738014252,f6fd50e524ef9f892efa750332d160c3,PennController,32,0,test_conc,NULL,PennController,43,_Header_,Start,1738013797629,undefined,900,gratitude,abstract-positive,abstract,concrete,B,NULL
1738014252,f6fd50e524ef9f892efa750332d160c3,PennController,32,0,test_conc,NULL,PennController,43,_Header_,End,1738013797879,undefined,900,gratitude,abstract-positive,abstract,concrete,B,NULL
1738014252,f6fd50e524ef9f892efa750332d160c3,PennController,32,0,test_conc,NULL,Selector,unnamed-Selector,Selection,abstract,1738013799283,undefined,900,gratitude,abstract-positive,abstract,concrete,B,abstract;concrete
1738014252,f6fd50e524ef9f892efa750332d160c3,PennController,32,0,test_conc,NULL,PennController,43,_Trial_,End,1738013799284,undefined,900,gratitude,abstract-positive,abstract,concrete,B,NULL
1738014252,f6fd50e524ef9f892efa750332d160c3,PennController,15,0,test_conc,NULL,PennController,26,_Trial_,Start,1738013799285,undefined,670,laughter,concrete-positive,abstract,concrete,B,NULL
1738014252,f6fd50e524ef9f892efa750332d160c3,PennController,15,0,test_conc,NULL,PennController,26,_Header_,Start,1738013799285,undefined,670,laughter,concrete-positive,abstract,concrete,B,NULL
1738014252,f6fd50e524ef9f892efa750332d160c3,PennController,15,0,test_conc,NULL,PennController,26,_Header_,End,1738013799535,undefined,670,laughter,concrete-positive,abstract,concrete,B,NULL
1738014252,f6fd50e524ef9f892efa750332d160c3,PennController,15,0,test_conc,NULL,Selector,unnamed-Selector,Selection,abstract,1738013800707,undefined,670,laughter,concrete-positive,abstract,concrete,B,abstract;concrete
1738014252,f6fd50e524ef9f892efa750332d160c3,PennController,15,0,test_conc,NULL,PennController,26,_Trial_,End,1738013800708,undefined,670,laughter,concrete-positive,abstract,concrete,B,NULL
1738014252,f6fd50e524ef9f892efa750332d160c3,PennController,31,0,test_conc,NULL,PennController,42,_Trial_,Start,1738013800709,undefined,605,compassion,abstract-positive,abstract,concrete,B,NULL
1738014252,f6fd50e524ef9f892efa750332d160c3,PennController,31,0,test_conc,NULL,PennController,42,_Header_,Start,1738013800709,undefined,605,compassion,abstract-positive,abstract,concrete,B,NULL
1738014252,f6fd50e524ef9f892efa750332d160c3,PennController,31,0,test_conc,NULL,PennController,42,_Header_,End,1738013800963,undefined,605,compassion,abstract-positive,abstract,concrete,B,NULL
1738014252,f6fd50e524ef9f892efa750332d160c3,PennController,31,0,test_conc,NULL,Selector,unnamed-Selector,Selection,abstract,1738013802067,undefined,605,compassion,abstract-positive,abstract,concrete,B,abstract;concrete
1738014252,f6fd50e524ef9f892efa750332d160c3,PennController,31,0,test_conc,NULL,PennController,42,_Trial_,End,1738013802068,undefined,605,compassion,abstract-positive,abstract,concrete,B,NULL
1738014252,f6fd50e524ef9f892efa750332d160c3,PennController,43,0,test_conc,NULL,PennController,54,_Trial_,Start,1738013802069,undefined,1009,filth,concrete-negative,abstract,concrete,B,NULL
1738014252,f6fd50e524ef9f892efa750332d160c3,PennController,43,0,test_conc,NULL,PennController,54,_Header_,Start,1738013802069,undefined,1009,filth,concrete-negative,abstract,concrete,B,NULL
1738014252,f6fd50e524ef9f892efa750332d160c3,PennController,43,0,test_conc,NULL,PennController,54,_Header_,End,1738013802322,undefined,1009,filth,concrete-negative,abstract,concrete,B,NULL
1738014252,f6fd50e524ef9f892efa750332d160c3,PennController,43,0,test_conc,NULL,Selector,unnamed-Selector,Selection,concrete,1738013803835,undefined,1009,filth,concrete-negative,abstract,concrete,B,abstract;concrete
1738014252,f6fd50e524ef9f892efa750332d160c3,PennController,43,0,test_conc,NULL,PennController,54,_Trial_,End,1738013803836,undefined,1009,filth,concrete-negative,abstract,concrete,B,NULL
1738014252,f6fd50e524ef9f892efa750332d160c3,PennController,28,0,test_conc,NULL,PennController,39,_Trial_,Start,1738013803837,undefined,948,freedom,abstract-positive,abstract,concrete,B,NULL
1738014252,f6fd50e524ef9f892efa750332d160c3,PennController,28,0,test_conc,NULL,PennController,39,_Header_,Start,1738013803837,undefined,948,freedom,abstract-positive,abstract,concrete,B,NULL
1738014252,f6fd50e524ef9f892efa750332d160c3,PennController,28,0,test_conc,NULL,PennController,39,_Header_,End,1738013804091,undefined,948,freedom,abstract-positive,abstract,concrete,B,NULL
1738014252,f6fd50e524ef9f892efa750332d160c3,PennController,28,0,test_conc,NULL,Selector,unnamed-Selector,Selection,abstract,1738013805539,undefined,948,freedom,abstract-positive,abstract,concrete,B,abstract;concrete
1738014252,f6fd50e524ef9f892efa750332d160c3,PennController,28,0,test_conc,NULL,PennController,39,_Trial_,End,1738013805540,undefined,948,freedom,abstract-positive,abstract,concrete,B,NULL
1738014252,f6fd50e524ef9f892efa750332d160c3,PennController,23,0,test_conc,NULL,PennController,34,_Trial_,Start,1738013805541,undefined,673,fireplace,concrete-positive,abstract,concrete,B,NULL
1738014252,f6fd50e524ef9f892efa750332d160c3,PennController,23,0,test_conc,NULL,PennController,34,_Header_,Start,1738013805541,undefined,673,fireplace,concrete-positive,abstract,concrete,B,NULL
1738014252,f6fd50e524ef9f892efa750332d160c3,PennController,23,0,test_conc,NULL,PennController,34,_Header_,End,1738013805795,undefined,673,fireplace,concrete-positive,abstract,concrete,B,NULL
1738014252,f6fd50e524ef9f892efa750332d160c3,PennController,23,0,test_conc,NULL,Selector,unnamed-Selector,Selection,concrete,1738013806971,undefined,673,fireplace,concrete-positive,abstract,concrete,B,abstract;concrete
1738014252,f6fd50e524ef9f892efa750332d160c3,PennController,23,0,test_conc,NULL,PennController,34,_Trial_,End,1738013806972,undefined,673,fireplace,concrete-positive,abstract,concrete,B,NULL
1738014252,f6fd50e524ef9f892efa750332d160c3,PennController,11,0,test_conc,NULL,PennController,22,_Trial_,Start,1738013806973,undefined,719,failure,abstract-negative,abstract,concrete,B,NULL
1738014252,f6fd50e524ef9f892efa750332d160c3,PennController,11,0,test_conc,NULL,PennController,22,_Header_,Start,1738013806973,undefined,719,failure,abstract-negative,abstract,concrete,B,NULL
1738014252,f6fd50e524ef9f892efa750332d160c3,PennController,11,0,test_conc,NULL,PennController,22,_Header_,End,1738013807223,undefined,719,failure,abstract-negative,abstract,concrete,B,NULL
1738014252,f6fd50e524ef9f892efa750332d160c3,PennController,11,0,test_conc,NULL,Selector,unnamed-Selector,Selection,abstract,1738013808443,undefined,719,failure,abstract-negative,abstract,concrete,B,abstract;concrete
1738014252,f6fd50e524ef9f892efa750332d160c3,PennController,11,0,test_conc,NULL,PennController,22,_Trial_,End,1738013808444,undefined,719,failure,abstract-negative,abstract,concrete,B,NULL
1738014252,f6fd50e524ef9f892efa750332d160c3,PennController,20,0,test_conc,NULL,PennController,31,_Trial_,Start,1738013808445,undefined,661,home,concrete-positive,abstract,concrete,B,NULL
1738014252,f6fd50e524ef9f892efa750332d160c3,PennController,20,0,test_conc,NULL,PennController,31,_Header_,Start,1738013808445,undefined,661,home,concrete-positive,abstract,concrete,B,NULL
1738014252,f6fd50e524ef9f892efa750332d160c3,PennController,20,0,test_conc,NULL,PennController,31,_Header_,End,1738013808695,undefined,661,home,concrete-positive,abstract,concrete,B,NULL
1738014252,f6fd50e524ef9f892efa750332d160c3,PennController,20,0,test_conc,NULL,Selector,unnamed-Selector,Selection,concrete,1738013809859,undefined,661,home,concrete-positive,abstract,concrete,B,abstract;concrete
1738014252,f6fd50e524ef9f892efa750332d160c3,PennController,20,0,test_conc,NULL,PennController,31,_Trial_,End,1738013809860,undefined,661,home,concrete-positive,abstract,concrete,B,NULL
1738014252,f6fd50e524ef9f892efa750332d160c3,PennController,22,0,test_conc,NULL,PennController,33,_Trial_,Start,1738013809861,undefined,689,chocolate,concrete-positive,abstract,concrete,B,NULL
1738014252,f6fd50e524ef9f892efa750332d160c3,PennController,22,0,test_conc,NULL,PennController,33,_Header_,Start,1738013809861,undefined,689,chocolate,concrete-positive,abstract,concrete,B,NULL
1738014252,f6fd50e524ef9f892efa750332d160c3,PennController,22,0,test_conc,NULL,PennController,33,_Header_,End,1738013810114,undefined,689,chocolate,concrete-positive,abstract,concrete,B,NULL
1738014252,f6fd50e524ef9f892efa750332d160c3,PennController,22,0,test_conc,NULL,Selector,unnamed-Selector,Selection,concrete,1738013811307,undefined,689,chocolate,concrete-positive,abstract,concrete,B,abstract;concrete
1738014252,f6fd50e524ef9f892efa750332d160c3,PennController,22,0,test_conc,NULL,PennController,33,_Trial_,End,1738013811308,undefined,689,chocolate,concrete-positive,abstract,concrete,B,NULL
1738014252,f6fd50e524ef9f892efa750332d160c3,PennController,25,0,test_conc,NULL,PennController,36,_Trial_,Start,1738013811308,undefined,678,hope,abstract-positive,abstract,concrete,B,NULL
1738014252,f6fd50e524ef9f892efa750332d160c3,PennController,25,0,test_conc,NULL,PennController,36,_Header_,Start,1738013811308,undefined,678,hope,abstract-positive,abstract,concrete,B,NULL
1738014252,f6fd50e524ef9f892efa750332d160c3,PennController,25,0,test_conc,NULL,PennController,36,_Header_,End,1738013811560,undefined,678,hope,abstract-positive,abstract,concrete,B,NULL
1738014252,f6fd50e524ef9f892efa750332d160c3,PennController,25,0,test_conc,NULL,Selector,unnamed-Selector,Selection,abstract,1738013812739,undefined,678,hope,abstract-positive,abstract,concrete,B,abstract;concrete
1738014252,f6fd50e524ef9f892efa750332d160c3,PennController,25,0,test_conc,NULL,PennController,36,_Trial_,End,1738013812740,undefined,678,hope,abstract-positive,abstract,concrete,B,NULL
1738014252,f6fd50e524ef9f892efa750332d160c3,PennController,9,0,test_conc,NULL,PennController,20,_Trial_,Start,1738013812741,undefined,1109,grief,abstract-negative,abstract,concrete,B,NULL
1738014252,f6fd50e524ef9f892efa750332d160c3,PennController,9,0,test_conc,NULL,PennController,20,_Header_,Start,1738013812741,undefined,1109,grief,abstract-negative,abstract,concrete,B,NULL
1738014252,f6fd50e524ef9f892efa750332d160c3,PennController,9,0,test_conc,NULL,PennController,20,_Header_,End,1738013812991,undefined,1109,grief,abstract-negative,abstract,concrete,B,NULL
1738014252,f6fd50e524ef9f892efa750332d160c3,PennController,9,0,test_conc,NULL,Selector,unnamed-Selector,Selection,abstract,1738013814603,undefined,1109,grief,abstract-negative,abstract,concrete,B,abstract;concrete
1738014252,f6fd50e524ef9f892efa750332d160c3,PennController,9,0,test_conc,NULL,PennController,20,_Trial_,End,1738013814604,undefined,1109,grief,abstract-negative,abstract,concrete,B,NULL
1738014252,f6fd50e524ef9f892efa750332d160c3,PennController,41,0,test_conc,NULL,PennController,52,_Trial_,Start,1738013814605,undefined,984,injury,concrete-negative,abstract,concrete,B,NULL
1738014252,f6fd50e524ef9f892efa750332d160c3,PennController,41,0,test_conc,NULL,PennController,52,_Header_,Start,1738013814605,undefined,984,injury,concrete-negative,abstract,concrete,B,NULL
1738014252,f6fd50e524ef9f892efa750332d160c3,PennController,41,0,test_conc,NULL,PennController,52,_Header_,End,1738013814855,undefined,984,injury,concrete-negative,abstract,concrete,B,NULL
1738014252,f6fd50e524ef9f892efa750332d160c3,PennController,41,0,test_conc,NULL,Selector,unnamed-Selector,Selection,concrete,1738013816339,undefined,984,injury,concrete-negative,abstract,concrete,B,abstract;concrete
1738014252,f6fd50e524ef9f892efa750332d160c3,PennController,41,0,test_conc,NULL,PennController,52,_Trial_,End,1738013816340,undefined,984,injury,concrete-negative,abstract,concrete,B,NULL
1738014252,f6fd50e524ef9f892efa750332d160c3,PennController,5,0,test_conc,NULL,PennController,16,_Trial_,Start,1738013816341,undefined,810,regret,abstract-negative,abstract,concrete,B,NULL
1738014252,f6fd50e524ef9f892efa750332d160c3,PennController,5,0,test_conc,NULL,PennController,16,_Header_,Start,1738013816341,undefined,810,regret,abstract-negative,abstract,concrete,B,NULL
1738014252,f6fd50e524ef9f892efa750332d160c3,PennController,5,0,test_conc,NULL,PennController,16,_Header_,End,1738013816594,undefined,810,regret,abstract-negative,abstract,concrete,B,NULL
1738014252,f6fd50e524ef9f892efa750332d160c3,PennController,5,0,test_conc,NULL,Selector,unnamed-Selector,Selection,abstract,1738013817907,undefined,810,regret,abstract-negative,abstract,concrete,B,abstract;concrete
1738014252,f6fd50e524ef9f892efa750332d160c3,PennController,5,0,test_conc,NULL,PennController,16,_Trial_,End,1738013817908,undefined,810,regret,abstract-negative,abstract,concrete,B,NULL
1738014252,f6fd50e524ef9f892efa750332d160c3,PennController,38,0,test_conc,NULL,PennController,49,_Trial_,Start,1738013817909,undefined,765,garbage,concrete-negative,abstract,concrete,B,NULL
1738014252,f6fd50e524ef9f892efa750332d160c3,PennController,38,0,test_conc,NULL,PennController,49,_Header_,Start,1738013817909,undefined,765,garbage,concrete-negative,abstract,concrete,B,NULL
1738014252,f6fd50e524ef9f892efa750332d160c3,PennController,38,0,test_conc,NULL,PennController,49,_Header_,End,1738013818162,undefined,765,garbage,concrete-negative,abstract,concrete,B,NULL
1738014252,f6fd50e524ef9f892efa750332d160c3,PennController,38,0,test_conc,NULL,Selector,unnamed-Selector,Selection,concrete,1738013819427,undefined,765,garbage,concrete-negative,abstract,concrete,B,abstract;concrete
1738014252,f6fd50e524ef9f892efa750332d160c3,PennController,38,0,test_conc,NULL,PennController,49,_Trial_,End,1738013819428,undefined,765,garbage,concrete-negative,abstract,concrete,B,NULL
1738014252,f6fd50e524ef9f892efa750332d160c3,PennController,10,0,test_conc,NULL,PennController,21,_Trial_,Start,1738013819429,undefined,1013,resentment,abstract-negative,abstract,concrete,B,NULL
1738014252,f6fd50e524ef9f892efa750332d160c3,PennController,10,0,test_conc,NULL,PennController,21,_Header_,Start,1738013819429,undefined,1013,resentment,abstract-negative,abstract,concrete,B,NULL
1738014252,f6fd50e524ef9f892efa750332d160c3,PennController,10,0,test_conc,NULL,PennController,21,_Header_,End,1738013819681,undefined,1013,resentment,abstract-negative,abstract,concrete,B,NULL
1738014252,f6fd50e524ef9f892efa750332d160c3,PennController,10,0,test_conc,NULL,Selector,unnamed-Selector,Selection,abstract,1738013821195,undefined,1013,resentment,abstract-negative,abstract,concrete,B,abstract;concrete
1738014252,f6fd50e524ef9f892efa750332d160c3,PennController,10,0,test_conc,NULL,PennController,21,_Trial_,End,1738013821196,undefined,1013,resentment,abstract-negative,abstract,concrete,B,NULL
1738014252,f6fd50e524ef9f892efa750332d160c3,PennController,12,0,test_conc,NULL,PennController,23,_Trial_,Start,1738013821197,undefined,894,shame,abstract-negative,abstract,concrete,B,NULL
1738014252,f6fd50e524ef9f892efa750332d160c3,PennController,12,0,test_conc,NULL,PennController,23,_Header_,Start,1738013821197,undefined,894,shame,abstract-negative,abstract,concrete,B,NULL
1738014252,f6fd50e524ef9f892efa750332d160c3,PennController,12,0,test_conc,NULL,PennController,23,_Header_,End,1738013821449,undefined,894,shame,abstract-negative,abstract,concrete,B,NULL
1738014252,f6fd50e524ef9f892efa750332d160c3,PennController,12,0,test_conc,NULL,Selector,unnamed-Selector,Selection,abstract,1738013822843,undefined,894,shame,abstract-negative,abstract,concrete,B,abstract;concrete
1738014252,f6fd50e524ef9f892efa750332d160c3,PennController,12,0,test_conc,NULL,PennController,23,_Trial_,End,1738013822844,undefined,894,shame,abstract-negative,abstract,concrete,B,NULL
1738014252,f6fd50e524ef9f892efa750332d160c3,PennController,24,0,test_conc,NULL,PennController,35,_Trial_,Start,1738013822845,undefined,733,love,abstract-positive,abstract,concrete,B,NULL
1738014252,f6fd50e524ef9f892efa750332d160c3,PennController,24,0,test_conc,NULL,PennController,35,_Header_,Start,1738013822845,undefined,733,love,abstract-positive,abstract,concrete,B,NULL
1738014252,f6fd50e524ef9f892efa750332d160c3,PennController,24,0,test_conc,NULL,PennController,35,_Header_,End,1738013823096,undefined,733,love,abstract-positive,abstract,concrete,B,NULL
1738014252,f6fd50e524ef9f892efa750332d160c3,PennController,24,0,test_conc,NULL,Selector,unnamed-Selector,Selection,abstract,1738013824331,undefined,733,love,abstract-positive,abstract,concrete,B,abstract;concrete
1738014252,f6fd50e524ef9f892efa750332d160c3,PennController,24,0,test_conc,NULL,PennController,35,_Trial_,End,1738013824332,undefined,733,love,abstract-positive,abstract,concrete,B,NULL
1738014252,f6fd50e524ef9f892efa750332d160c3,PennController,4,0,test_conc,NULL,PennController,15,_Trial_,Start,1738013824333,undefined,761,lonliness,abstract-negative,abstract,concrete,B,NULL
1738014252,f6fd50e524ef9f892efa750332d160c3,PennController,4,0,test_conc,NULL,PennController,15,_Header_,Start,1738013824333,undefined,761,lonliness,abstract-negative,abstract,concrete,B,NULL
1738014252,f6fd50e524ef9f892efa750332d160c3,PennController,4,0,test_conc,NULL,PennController,15,_Header_,End,1738013824583,undefined,761,lonliness,abstract-negative,abstract,concrete,B,NULL
1738014252,f6fd50e524ef9f892efa750332d160c3,PennController,4,0,test_conc,NULL,Selector,unnamed-Selector,Selection,abstract,1738013825843,undefined,761,lonliness,abstract-negative,abstract,concrete,B,abstract;concrete
1738014252,f6fd50e524ef9f892efa750332d160c3,PennController,4,0,test_conc,NULL,PennController,15,_Trial_,End,1738013825844,undefined,761,lonliness,abstract-negative,abstract,concrete,B,NULL
1738014252,f6fd50e524ef9f892efa750332d160c3,PennController,35,0,test_conc,NULL,PennController,46,_Trial_,Start,1738013825845,undefined,908,rot,concrete-negative,abstract,concrete,B,NULL
1738014252,f6fd50e524ef9f892efa750332d160c3,PennController,35,0,test_conc,NULL,PennController,46,_Header_,Start,1738013825845,undefined,908,rot,concrete-negative,abstract,concrete,B,NULL
1738014252,f6fd50e524ef9f892efa750332d160c3,PennController,35,0,test_conc,NULL,PennController,46,_Header_,End,1738013826096,undefined,908,rot,concrete-negative,abstract,concrete,B,NULL
1738014252,f6fd50e524ef9f892efa750332d160c3,PennController,35,0,test_conc,NULL,Selector,unnamed-Selector,Selection,abstract,1738013827507,undefined,908,rot,concrete-negative,abstract,concrete,B,abstract;concrete
1738014252,f6fd50e524ef9f892efa750332d160c3,PennController,35,0,test_conc,NULL,PennController,46,_Trial_,End,1738013827508,undefined,908,rot,concrete-negative,abstract,concrete,B,NULL
1738014252,f6fd50e524ef9f892efa750332d160c3,PennController,36,0,test_conc,NULL,PennController,47,_Trial_,Start,1738013827508,undefined,755,mud,concrete-negative,abstract,concrete,B,NULL
1738014252,f6fd50e524ef9f892efa750332d160c3,PennController,36,0,test_conc,NULL,PennController,47,_Header_,Start,1738013827508,undefined,755,mud,concrete-negative,abstract,concrete,B,NULL
1738014252,f6fd50e524ef9f892efa750332d160c3,PennController,36,0,test_conc,NULL,PennController,47,_Header_,End,1738013827760,undefined,755,mud,concrete-negative,abstract,concrete,B,NULL
1738014252,f6fd50e524ef9f892efa750332d160c3,PennController,36,0,test_conc,NULL,Selector,unnamed-Selector,Selection,concrete,1738013829019,undefined,755,mud,concrete-negative,abstract,concrete,B,abstract;concrete
1738014252,f6fd50e524ef9f892efa750332d160c3,PennController,36,0,test_conc,NULL,PennController,47,_Trial_,End,1738013829020,undefined,755,mud,concrete-negative,abstract,concrete,B,NULL
1738014252,f6fd50e524ef9f892efa750332d160c3,PennController,27,0,test_conc,NULL,PennController,38,_Trial_,Start,1738013829020,undefined,643,peace,abstract-positive,abstract,concrete,B,NULL
1738014252,f6fd50e524ef9f892efa750332d160c3,PennController,27,0,test_conc,NULL,PennController,38,_Header_,Start,1738013829020,undefined,643,peace,abstract-positive,abstract,concrete,B,NULL
1738014252,f6fd50e524ef9f892efa750332d160c3,PennController,27,0,test_conc,NULL,PennController,38,_Header_,End,1738013829272,undefined,643,peace,abstract-positive,abstract,concrete,B,NULL
1738014252,f6fd50e524ef9f892efa750332d160c3,PennController,27,0,test_conc,NULL,Selector,unnamed-Selector,Selection,abstract,1738013830419,undefined,643,peace,abstract-positive,abstract,concrete,B,abstract;concrete
1738014252,f6fd50e524ef9f892efa750332d160c3,PennController,27,0,test_conc,NULL,PennController,38,_Trial_,End,1738013830420,undefined,643,peace,abstract-positive,abstract,concrete,B,NULL
1738014252,f6fd50e524ef9f892efa750332d160c3,PennController,40,0,test_conc,NULL,PennController,51,_Trial_,Start,1738013830420,undefined,767,mold,concrete-negative,abstract,concrete,B,NULL
1738014252,f6fd50e524ef9f892efa750332d160c3,PennController,40,0,test_conc,NULL,PennController,51,_Header_,Start,1738013830420,undefined,767,mold,concrete-negative,abstract,concrete,B,NULL
1738014252,f6fd50e524ef9f892efa750332d160c3,PennController,40,0,test_conc,NULL,PennController,51,_Header_,End,1738013830673,undefined,767,mold,concrete-negative,abstract,concrete,B,NULL
1738014252,f6fd50e524ef9f892efa750332d160c3,PennController,40,0,test_conc,NULL,Selector,unnamed-Selector,Selection,concrete,1738013831939,undefined,767,mold,concrete-negative,abstract,concrete,B,abstract;concrete
1738014252,f6fd50e524ef9f892efa750332d160c3,PennController,40,0,test_conc,NULL,PennController,51,_Trial_,End,1738013831940,undefined,767,mold,concrete-negative,abstract,concrete,B,NULL
1738014252,f6fd50e524ef9f892efa750332d160c3,PennController,42,0,test_conc,NULL,PennController,53,_Trial_,Start,1738013831940,undefined,748,stench,concrete-negative,abstract,concrete,B,NULL
1738014252,f6fd50e524ef9f892efa750332d160c3,PennController,42,0,test_conc,NULL,PennController,53,_Header_,Start,1738013831940,undefined,748,stench,concrete-negative,abstract,concrete,B,NULL
1738014252,f6fd50e524ef9f892efa750332d160c3,PennController,42,0,test_conc,NULL,PennController,53,_Header_,End,1738013832194,undefined,748,stench,concrete-negative,abstract,concrete,B,NULL
1738014252,f6fd50e524ef9f892efa750332d160c3,PennController,42,0,test_conc,NULL,Selector,unnamed-Selector,Selection,abstract,1738013833444,undefined,748,stench,concrete-negative,abstract,concrete,B,abstract;concrete
1738014252,f6fd50e524ef9f892efa750332d160c3,PennController,42,0,test_conc,NULL,PennController,53,_Trial_,End,1738013833444,undefined,748,stench,concrete-negative,abstract,concrete,B,NULL
1738014252,f6fd50e524ef9f892efa750332d160c3,PennController,19,0,test_conc,NULL,PennController,30,_Trial_,Start,1738013833445,undefined,1063,hug,concrete-positive,abstract,concrete,B,NULL
1738014252,f6fd50e524ef9f892efa750332d160c3,PennController,19,0,test_conc,NULL,PennController,30,_Header_,Start,1738013833445,undefined,1063,hug,concrete-positive,abstract,concrete,B,NULL
1738014252,f6fd50e524ef9f892efa750332d160c3,PennController,19,0,test_conc,NULL,PennController,30,_Header_,End,1738013833695,undefined,1063,hug,concrete-positive,abstract,concrete,B,NULL
1738014252,f6fd50e524ef9f892efa750332d160c3,PennController,19,0,test_conc,NULL,Selector,unnamed-Selector,Selection,abstract,1738013835259,undefined,1063,hug,concrete-positive,abstract,concrete,B,abstract;concrete
1738014252,f6fd50e524ef9f892efa750332d160c3,PennController,19,0,test_conc,NULL,PennController,30,_Trial_,End,1738013835260,undefined,1063,hug,concrete-positive,abstract,concrete,B,NULL
1738014252,f6fd50e524ef9f892efa750332d160c3,PennController,14,0,test_conc,NULL,PennController,25,_Trial_,Start,1738013835261,undefined,1275,sunshine,concrete-positive,abstract,concrete,B,NULL
1738014252,f6fd50e524ef9f892efa750332d160c3,PennController,14,0,test_conc,NULL,PennController,25,_Header_,Start,1738013835261,undefined,1275,sunshine,concrete-positive,abstract,concrete,B,NULL
1738014252,f6fd50e524ef9f892efa750332d160c3,PennController,14,0,test_conc,NULL,PennController,25,_Header_,End,1738013835514,undefined,1275,sunshine,concrete-positive,abstract,concrete,B,NULL
1738014252,f6fd50e524ef9f892efa750332d160c3,PennController,14,0,test_conc,NULL,Selector,unnamed-Selector,Selection,concrete,1738013837291,undefined,1275,sunshine,concrete-positive,abstract,concrete,B,abstract;concrete
1738014252,f6fd50e524ef9f892efa750332d160c3,PennController,14,0,test_conc,NULL,PennController,25,_Trial_,End,1738013837292,undefined,1275,sunshine,concrete-positive,abstract,concrete,B,NULL
1738014252,f6fd50e524ef9f892efa750332d160c3,PennController,6,0,test_conc,NULL,PennController,17,_Trial_,Start,1738013837293,undefined,1013,anxiety,abstract-negative,abstract,concrete,B,NULL
1738014252,f6fd50e524ef9f892efa750332d160c3,PennController,6,0,test_conc,NULL,PennController,17,_Header_,Start,1738013837293,undefined,1013,anxiety,abstract-negative,abstract,concrete,B,NULL
1738014252,f6fd50e524ef9f892efa750332d160c3,PennController,6,0,test_conc,NULL,PennController,17,_Header_,End,1738013837544,undefined,1013,anxiety,abstract-negative,abstract,concrete,B,NULL
1738014252,f6fd50e524ef9f892efa750332d160c3,PennController,6,0,test_conc,NULL,Selector,unnamed-Selector,Selection,abstract,1738013839060,undefined,1013,anxiety,abstract-negative,abstract,concrete,B,abstract;concrete
1738014252,f6fd50e524ef9f892efa750332d160c3,PennController,6,0,test_conc,NULL,PennController,17,_Trial_,End,1738013839060,undefined,1013,anxiety,abstract-negative,abstract,concrete,B,NULL
1738014252,f6fd50e524ef9f892efa750332d160c3,PennController,30,0,test_conc,NULL,PennController,41,_Trial_,Start,1738013839061,undefined,740,happiness,abstract-positive,abstract,concrete,B,NULL
1738014252,f6fd50e524ef9f892efa750332d160c3,PennController,30,0,test_conc,NULL,PennController,41,_Header_,Start,1738013839061,undefined,740,happiness,abstract-positive,abstract,concrete,B,NULL
1738014252,f6fd50e524ef9f892efa750332d160c3,PennController,30,0,test_conc,NULL,PennController,41,_Header_,End,1738013839313,undefined,740,happiness,abstract-positive,abstract,concrete,B,NULL
1738014252,f6fd50e524ef9f892efa750332d160c3,PennController,30,0,test_conc,NULL,Selector,unnamed-Selector,Selection,abstract,1738013840555,undefined,740,happiness,abstract-positive,abstract,concrete,B,abstract;concrete
1738014252,f6fd50e524ef9f892efa750332d160c3,PennController,30,0,test_conc,NULL,PennController,41,_Trial_,End,1738013840556,undefined,740,happiness,abstract-positive,abstract,concrete,B,NULL
1738014252,f6fd50e524ef9f892efa750332d160c3,PennController,16,0,test_conc,NULL,PennController,27,_Trial_,Start,1738013840557,undefined,701,flowers,concrete-positive,abstract,concrete,B,NULL
1738014252,f6fd50e524ef9f892efa750332d160c3,PennController,16,0,test_conc,NULL,PennController,27,_Header_,Start,1738013840557,undefined,701,flowers,concrete-positive,abstract,concrete,B,NULL
1738014252,f6fd50e524ef9f892efa750332d160c3,PennController,16,0,test_conc,NULL,PennController,27,_Header_,End,1738013840808,undefined,701,flowers,concrete-positive,abstract,concrete,B,NULL
1738014252,f6fd50e524ef9f892efa750332d160c3,PennController,16,0,test_conc,NULL,Selector,unnamed-Selector,Selection,concrete,1738013842011,undefined,701,flowers,concrete-positive,abstract,concrete,B,abstract;concrete
1738014252,f6fd50e524ef9f892efa750332d160c3,PennController,16,0,test_conc,NULL,PennController,27,_Trial_,End,1738013842012,undefined,701,flowers,concrete-positive,abstract,concrete,B,NULL
1738014252,f6fd50e524ef9f892efa750332d160c3,PennController,39,0,test_conc,NULL,PennController,50,_Trial_,Start,1738013842013,undefined,767,rust,concrete-negative,abstract,concrete,B,NULL
1738014252,f6fd50e524ef9f892efa750332d160c3,PennController,39,0,test_conc,NULL,PennController,50,_Header_,Start,1738013842013,undefined,767,rust,concrete-negative,abstract,concrete,B,NULL
1738014252,f6fd50e524ef9f892efa750332d160c3,PennController,39,0,test_conc,NULL,PennController,50,_Header_,End,1738013842265,undefined,767,rust,concrete-negative,abstract,concrete,B,NULL
1738014252,f6fd50e524ef9f892efa750332d160c3,PennController,39,0,test_conc,NULL,Selector,unnamed-Selector,Selection,concrete,1738013843531,undefined,767,rust,concrete-negative,abstract,concrete,B,abstract;concrete
1738014252,f6fd50e524ef9f892efa750332d160c3,PennController,39,0,test_conc,NULL,PennController,50,_Trial_,End,1738013843532,undefined,767,rust,concrete-negative,abstract,concrete,B,NULL
1738014252,f6fd50e524ef9f892efa750332d160c3,PennController,8,0,test_conc,NULL,PennController,19,_Trial_,Start,1738013843533,undefined,765,guilt,abstract-negative,abstract,concrete,B,NULL
1738014252,f6fd50e524ef9f892efa750332d160c3,PennController,8,0,test_conc,NULL,PennController,19,_Header_,Start,1738013843533,undefined,765,guilt,abstract-negative,abstract,concrete,B,NULL
1738014252,f6fd50e524ef9f892efa750332d160c3,PennController,8,0,test_conc,NULL,PennController,19,_Header_,End,1738013843783,undefined,765,guilt,abstract-negative,abstract,concrete,B,NULL
1738014252,f6fd50e524ef9f892efa750332d160c3,PennController,8,0,test_conc,NULL,Selector,unnamed-Selector,Selection,abstract,1738013845051,undefined,765,guilt,abstract-negative,abstract,concrete,B,abstract;concrete
1738014252,f6fd50e524ef9f892efa750332d160c3,PennController,8,0,test_conc,NULL,PennController,19,_Trial_,End,1738013845052,undefined,765,guilt,abstract-negative,abstract,concrete,B,NULL
1738014252,f6fd50e524ef9f892efa750332d160c3,PennController,18,0,test_conc,NULL,PennController,29,_Trial_,Start,1738013845052,undefined,618,beach,concrete-positive,abstract,concrete,B,NULL
1738014252,f6fd50e524ef9f892efa750332d160c3,PennController,18,0,test_conc,NULL,PennController,29,_Header_,Start,1738013845052,undefined,618,beach,concrete-positive,abstract,concrete,B,NULL
1738014252,f6fd50e524ef9f892efa750332d160c3,PennController,18,0,test_conc,NULL,PennController,29,_Header_,End,1738013845302,undefined,618,beach,concrete-positive,abstract,concrete,B,NULL
1738014252,f6fd50e524ef9f892efa750332d160c3,PennController,18,0,test_conc,NULL,Selector,unnamed-Selector,Selection,concrete,1738013846419,undefined,618,beach,concrete-positive,abstract,concrete,B,abstract;concrete
1738014252,f6fd50e524ef9f892efa750332d160c3,PennController,18,0,test_conc,NULL,PennController,29,_Trial_,End,1738013846420,undefined,618,beach,concrete-positive,abstract,concrete,B,NULL
1738014252,f6fd50e524ef9f892efa750332d160c3,PennController,7,0,test_conc,NULL,PennController,18,_Trial_,Start,1738013846420,undefined,604,despair,abstract-negative,abstract,concrete,B,NULL
1738014252,f6fd50e524ef9f892efa750332d160c3,PennController,7,0,test_conc,NULL,PennController,18,_Header_,Start,1738013846420,undefined,604,despair,abstract-negative,abstract,concrete,B,NULL
1738014252,f6fd50e524ef9f892efa750332d160c3,PennController,7,0,test_conc,NULL,PennController,18,_Header_,End,1738013846675,undefined,604,despair,abstract-negative,abstract,concrete,B,NULL
1738014252,f6fd50e524ef9f892efa750332d160c3,PennController,7,0,test_conc,NULL,Selector,unnamed-Selector,Selection,abstract,1738013847779,undefined,604,despair,abstract-negative,abstract,concrete,B,abstract;concrete
1738014252,f6fd50e524ef9f892efa750332d160c3,PennController,7,0,test_conc,NULL,PennController,18,_Trial_,End,1738013847780,undefined,604,despair,abstract-negative,abstract,concrete,B,NULL
1738014252,f6fd50e524ef9f892efa750332d160c3,PennController,13,0,test_conc,NULL,PennController,24,_Trial_,Start,1738013847780,undefined,764,envy,abstract-negative,abstract,concrete,B,NULL
1738014252,f6fd50e524ef9f892efa750332d160c3,PennController,13,0,test_conc,NULL,PennController,24,_Header_,Start,1738013847780,undefined,764,envy,abstract-negative,abstract,concrete,B,NULL
1738014252,f6fd50e524ef9f892efa750332d160c3,PennController,13,0,test_conc,NULL,PennController,24,_Header_,End,1738013848032,undefined,764,envy,abstract-negative,abstract,concrete,B,NULL
1738014252,f6fd50e524ef9f892efa750332d160c3,PennController,13,0,test_conc,NULL,Selector,unnamed-Selector,Selection,abstract,1738013849299,undefined,764,envy,abstract-negative,abstract,concrete,B,abstract;concrete
1738014252,f6fd50e524ef9f892efa750332d160c3,PennController,13,0,test_conc,NULL,PennController,24,_Trial_,End,1738013849300,undefined,764,envy,abstract-negative,abstract,concrete,B,NULL
1738014252,f6fd50e524ef9f892efa750332d160c3,PennController,17,0,test_conc,NULL,PennController,28,_Trial_,Start,1738013849301,undefined,926,music,concrete-positive,abstract,concrete,B,NULL
1738014252,f6fd50e524ef9f892efa750332d160c3,PennController,17,0,test_conc,NULL,PennController,28,_Header_,Start,1738013849301,undefined,926,music,concrete-positive,abstract,concrete,B,NULL
1738014252,f6fd50e524ef9f892efa750332d160c3,PennController,17,0,test_conc,NULL,PennController,28,_Header_,End,1738013849553,undefined,926,music,concrete-positive,abstract,concrete,B,NULL
1738014252,f6fd50e524ef9f892efa750332d160c3,PennController,17,0,test_conc,NULL,Selector,unnamed-Selector,Selection,abstract,1738013850979,undefined,926,music,concrete-positive,abstract,concrete,B,abstract;concrete
1738014252,f6fd50e524ef9f892efa750332d160c3,PennController,17,0,test_conc,NULL,PennController,28,_Trial_,End,1738013850980,undefined,926,music,concrete-positive,abstract,concrete,B,NULL
1738014252,f6fd50e524ef9f892efa750332d160c3,PennController,33,0,test_conc,NULL,PennController,44,_Trial_,Start,1738013850980,undefined,851,inspiration,abstract-positive,abstract,concrete,B,NULL
1738014252,f6fd50e524ef9f892efa750332d160c3,PennController,33,0,test_conc,NULL,PennController,44,_Header_,Start,1738013850980,undefined,851,inspiration,abstract-positive,abstract,concrete,B,NULL
1738014252,f6fd50e524ef9f892efa750332d160c3,PennController,33,0,test_conc,NULL,PennController,44,_Header_,End,1738013851236,undefined,851,inspiration,abstract-positive,abstract,concrete,B,NULL
1738014252,f6fd50e524ef9f892efa750332d160c3,PennController,33,0,test_conc,NULL,Selector,unnamed-Selector,Selection,abstract,1738013852587,undefined,851,inspiration,abstract-positive,abstract,concrete,B,abstract;concrete
1738014252,f6fd50e524ef9f892efa750332d160c3,PennController,33,0,test_conc,NULL,PennController,44,_Trial_,End,1738013852588,undefined,851,inspiration,abstract-positive,abstract,concrete,B,NULL
1738014252,f6fd50e524ef9f892efa750332d160c3,PennController,20,0,test_conc,NULL,PennController,31,_Trial_,Start,1738013852589,undefined,619,home,concrete-positive,abstract,concrete,B,NULL
1738014252,f6fd50e524ef9f892efa750332d160c3,PennController,20,0,test_conc,NULL,PennController,31,_Header_,Start,1738013852589,undefined,619,home,concrete-positive,abstract,concrete,B,NULL
1738014252,f6fd50e524ef9f892efa750332d160c3,PennController,20,0,test_conc,NULL,PennController,31,_Header_,End,1738013852841,undefined,619,home,concrete-positive,abstract,concrete,B,NULL
1738014252,f6fd50e524ef9f892efa750332d160c3,PennController,20,0,test_conc,NULL,Selector,unnamed-Selector,Selection,concrete,1738013853964,undefined,619,home,concrete-positive,abstract,concrete,B,abstract;concrete
1738014252,f6fd50e524ef9f892efa750332d160c3,PennController,20,0,test_conc,NULL,PennController,31,_Trial_,End,1738013853964,undefined,619,home,concrete-positive,abstract,concrete,B,NULL
1738014252,f6fd50e524ef9f892efa750332d160c3,PennController,16,0,test_conc,NULL,PennController,27,_Trial_,Start,1738013853965,undefined,574,flowers,concrete-positive,abstract,concrete,B,NULL
1738014252,f6fd50e524ef9f892efa750332d160c3,PennController,16,0,test_conc,NULL,PennController,27,_Header_,Start,1738013853965,undefined,574,flowers,concrete-positive,abstract,concrete,B,NULL
1738014252,f6fd50e524ef9f892efa750332d160c3,PennController,16,0,test_conc,NULL,PennController,27,_Header_,End,1738013854217,undefined,574,flowers,concrete-positive,abstract,concrete,B,NULL
1738014252,f6fd50e524ef9f892efa750332d160c3,PennController,16,0,test_conc,NULL,Selector,unnamed-Selector,Selection,concrete,1738013855291,undefined,574,flowers,concrete-positive,abstract,concrete,B,abstract;concrete
1738014252,f6fd50e524ef9f892efa750332d160c3,PennController,16,0,test_conc,NULL,PennController,27,_Trial_,End,1738013855292,undefined,574,flowers,concrete-positive,abstract,concrete,B,NULL
1738014252,f6fd50e524ef9f892efa750332d160c3,PennController,7,0,test_conc,NULL,PennController,18,_Trial_,Start,1738013855293,undefined,644,despair,abstract-negative,abstract,concrete,B,NULL
1738014252,f6fd50e524ef9f892efa750332d160c3,PennController,7,0,test_conc,NULL,PennController,18,_Header_,Start,1738013855293,undefined,644,despair,abstract-negative,abstract,concrete,B,NULL
1738014252,f6fd50e524ef9f892efa750332d160c3,PennController,7,0,test_conc,NULL,PennController,18,_Header_,End,1738013855545,undefined,644,despair,abstract-negative,abstract,concrete,B,NULL
1738014252,f6fd50e524ef9f892efa750332d160c3,PennController,7,0,test_conc,NULL,Selector,unnamed-Selector,Selection,abstract,1738013856691,undefined,644,despair,abstract-negative,abstract,concrete,B,abstract;concrete
1738014252,f6fd50e524ef9f892efa750332d160c3,PennController,7,0,test_conc,NULL,PennController,18,_Trial_,End,1738013856692,undefined,644,despair,abstract-negative,abstract,concrete,B,NULL
1738014252,f6fd50e524ef9f892efa750332d160c3,PennController,31,0,test_conc,NULL,PennController,42,_Trial_,Start,1738013856693,undefined,700,compassion,abstract-positive,abstract,concrete,B,NULL
1738014252,f6fd50e524ef9f892efa750332d160c3,PennController,31,0,test_conc,NULL,PennController,42,_Header_,Start,1738013856693,undefined,700,compassion,abstract-positive,abstract,concrete,B,NULL
1738014252,f6fd50e524ef9f892efa750332d160c3,PennController,31,0,test_conc,NULL,PennController,42,_Header_,End,1738013856945,undefined,700,compassion,abstract-positive,abstract,concrete,B,NULL
1738014252,f6fd50e524ef9f892efa750332d160c3,PennController,31,0,test_conc,NULL,Selector,unnamed-Selector,Selection,abstract,1738013858147,undefined,700,compassion,abstract-positive,abstract,concrete,B,abstract;concrete
1738014252,f6fd50e524ef9f892efa750332d160c3,PennController,31,0,test_conc,NULL,PennController,42,_Trial_,End,1738013858148,undefined,700,compassion,abstract-positive,abstract,concrete,B,NULL
1738014252,f6fd50e524ef9f892efa750332d160c3,PennController,5,0,test_conc,NULL,PennController,16,_Trial_,Start,1738013858148,undefined,652,regret,abstract-negative,abstract,concrete,B,NULL
1738014252,f6fd50e524ef9f892efa750332d160c3,PennController,5,0,test_conc,NULL,PennController,16,_Header_,Start,1738013858148,undefined,652,regret,abstract-negative,abstract,concrete,B,NULL
1738014252,f6fd50e524ef9f892efa750332d160c3,PennController,5,0,test_conc,NULL,PennController,16,_Header_,End,1738013858400,undefined,652,regret,abstract-negative,abstract,concrete,B,NULL
1738014252,f6fd50e524ef9f892efa750332d160c3,PennController,5,0,test_conc,NULL,Selector,unnamed-Selector,Selection,abstract,1738013859555,undefined,652,regret,abstract-negative,abstract,concrete,B,abstract;concrete
1738014252,f6fd50e524ef9f892efa750332d160c3,PennController,5,0,test_conc,NULL,PennController,16,_Trial_,End,1738013859556,undefined,652,regret,abstract-negative,abstract,concrete,B,NULL
1738014252,f6fd50e524ef9f892efa750332d160c3,PennController,38,0,test_conc,NULL,PennController,49,_Trial_,Start,1738013859557,undefined,613,garbage,concrete-negative,abstract,concrete,B,NULL
1738014252,f6fd50e524ef9f892efa750332d160c3,PennController,38,0,test_conc,NULL,PennController,49,_Header_,Start,1738013859557,undefined,613,garbage,concrete-negative,abstract,concrete,B,NULL
1738014252,f6fd50e524ef9f892efa750332d160c3,PennController,38,0,test_conc,NULL,PennController,49,_Header_,End,1738013859808,undefined,613,garbage,concrete-negative,abstract,concrete,B,NULL
1738014252,f6fd50e524ef9f892efa750332d160c3,PennController,38,0,test_conc,NULL,Selector,unnamed-Selector,Selection,concrete,1738013860923,undefined,613,garbage,concrete-negative,abstract,concrete,B,abstract;concrete
1738014252,f6fd50e524ef9f892efa750332d160c3,PennController,38,0,test_conc,NULL,PennController,49,_Trial_,End,1738013860924,undefined,613,garbage,concrete-negative,abstract,concrete,B,NULL
1738014252,f6fd50e524ef9f892efa750332d160c3,PennController,42,0,test_conc,NULL,PennController,53,_Trial_,Start,1738013860924,undefined,815,stench,concrete-negative,abstract,concrete,B,NULL
1738014252,f6fd50e524ef9f892efa750332d160c3,PennController,42,0,test_conc,NULL,PennController,53,_Header_,Start,1738013860924,undefined,815,stench,concrete-negative,abstract,concrete,B,NULL
1738014252,f6fd50e524ef9f892efa750332d160c3,PennController,42,0,test_conc,NULL,PennController,53,_Header_,End,1738013861174,undefined,815,stench,concrete-negative,abstract,concrete,B,NULL
1738014252,f6fd50e524ef9f892efa750332d160c3,PennController,42,0,test_conc,NULL,Selector,unnamed-Selector,Selection,abstract,1738013862491,undefined,815,stench,concrete-negative,abstract,concrete,B,abstract;concrete
1738014252,f6fd50e524ef9f892efa750332d160c3,PennController,42,0,test_conc,NULL,PennController,53,_Trial_,End,1738013862492,undefined,815,stench,concrete-negative,abstract,concrete,B,NULL
1738014252,f6fd50e524ef9f892efa750332d160c3,PennController,30,0,test_conc,NULL,PennController,41,_Trial_,Start,1738013862492,undefined,750,happiness,abstract-positive,abstract,concrete,B,NULL
1738014252,f6fd50e524ef9f892efa750332d160c3,PennController,30,0,test_conc,NULL,PennController,41,_Header_,Start,1738013862492,undefined,750,happiness,abstract-positive,abstract,concrete,B,NULL
1738014252,f6fd50e524ef9f892efa750332d160c3,PennController,30,0,test_conc,NULL,PennController,41,_Header_,End,1738013862743,undefined,750,happiness,abstract-positive,abstract,concrete,B,NULL
1738014252,f6fd50e524ef9f892efa750332d160c3,PennController,30,0,test_conc,NULL,Selector,unnamed-Selector,Selection,abstract,1738013863995,undefined,750,happiness,abstract-positive,abstract,concrete,B,abstract;concrete
1738014252,f6fd50e524ef9f892efa750332d160c3,PennController,30,0,test_conc,NULL,PennController,41,_Trial_,End,1738013863996,undefined,750,happiness,abstract-positive,abstract,concrete,B,NULL
1738014252,f6fd50e524ef9f892efa750332d160c3,PennController,25,0,test_conc,NULL,PennController,36,_Trial_,Start,1738013863997,undefined,618,hope,abstract-positive,abstract,concrete,B,NULL
1738014252,f6fd50e524ef9f892efa750332d160c3,PennController,25,0,test_conc,NULL,PennController,36,_Header_,Start,1738013863997,undefined,618,hope,abstract-positive,abstract,concrete,B,NULL
1738014252,f6fd50e524ef9f892efa750332d160c3,PennController,25,0,test_conc,NULL,PennController,36,_Header_,End,1738013864250,undefined,618,hope,abstract-positive,abstract,concrete,B,NULL
1738014252,f6fd50e524ef9f892efa750332d160c3,PennController,25,0,test_conc,NULL,Selector,unnamed-Selector,Selection,abstract,1738013865371,undefined,618,hope,abstract-positive,abstract,concrete,B,abstract;concrete
1738014252,f6fd50e524ef9f892efa750332d160c3,PennController,25,0,test_conc,NULL,PennController,36,_Trial_,End,1738013865372,undefined,618,hope,abstract-positive,abstract,concrete,B,NULL
1738014252,f6fd50e524ef9f892efa750332d160c3,PennController,37,0,test_conc,NULL,PennController,48,_Trial_,Start,1738013865373,undefined,586,vomit,concrete-negative,abstract,concrete,B,NULL
1738014252,f6fd50e524ef9f892efa750332d160c3,PennController,37,0,test_conc,NULL,PennController,48,_Header_,Start,1738013865373,undefined,586,vomit,concrete-negative,abstract,concrete,B,NULL
1738014252,f6fd50e524ef9f892efa750332d160c3,PennController,37,0,test_conc,NULL,PennController,48,_Header_,End,1738013865628,undefined,586,vomit,concrete-negative,abstract,concrete,B,NULL
1738014252,f6fd50e524ef9f892efa750332d160c3,PennController,37,0,test_conc,NULL,Selector,unnamed-Selector,Selection,concrete,1738013866715,undefined,586,vomit,concrete-negative,abstract,concrete,B,abstract;concrete
1738014252,f6fd50e524ef9f892efa750332d160c3,PennController,37,0,test_conc,NULL,PennController,48,_Trial_,End,1738013866716,undefined,586,vomit,concrete-negative,abstract,concrete,B,NULL
1738014252,f6fd50e524ef9f892efa750332d160c3,PennController,19,0,test_conc,NULL,PennController,30,_Trial_,Start,1738013866716,undefined,873,hug,concrete-positive,abstract,concrete,B,NULL
1738014252,f6fd50e524ef9f892efa750332d160c3,PennController,19,0,test_conc,NULL,PennController,30,_Header_,Start,1738013866716,undefined,873,hug,concrete-positive,abstract,concrete,B,NULL
1738014252,f6fd50e524ef9f892efa750332d160c3,PennController,19,0,test_conc,NULL,PennController,30,_Header_,End,1738013866971,undefined,873,hug,concrete-positive,abstract,concrete,B,NULL
1738014252,f6fd50e524ef9f892efa750332d160c3,PennController,19,0,test_conc,NULL,Selector,unnamed-Selector,Selection,concrete,1738013868347,undefined,873,hug,concrete-positive,abstract,concrete,B,abstract;concrete
1738014252,f6fd50e524ef9f892efa750332d160c3,PennController,19,0,test_conc,NULL,PennController,30,_Trial_,End,1738013868348,undefined,873,hug,concrete-positive,abstract,concrete,B,NULL
1738014252,f6fd50e524ef9f892efa750332d160c3,PennController,32,0,test_conc,NULL,PennController,43,_Trial_,Start,1738013868348,undefined,806,gratitude,abstract-positive,abstract,concrete,B,NULL
1738014252,f6fd50e524ef9f892efa750332d160c3,PennController,32,0,test_conc,NULL,PennController,43,_Header_,Start,1738013868348,undefined,806,gratitude,abstract-positive,abstract,concrete,B,NULL
1738014252,f6fd50e524ef9f892efa750332d160c3,PennController,32,0,test_conc,NULL,PennController,43,_Header_,End,1738013868598,undefined,806,gratitude,abstract-positive,abstract,concrete,B,NULL
1738014252,f6fd50e524ef9f892efa750332d160c3,PennController,32,0,test_conc,NULL,Selector,unnamed-Selector,Selection,abstract,1738013869907,undefined,806,gratitude,abstract-positive,abstract,concrete,B,abstract;concrete
1738014252,f6fd50e524ef9f892efa750332d160c3,PennController,32,0,test_conc,NULL,PennController,43,_Trial_,End,1738013869908,undefined,806,gratitude,abstract-positive,abstract,concrete,B,NULL
1738014252,f6fd50e524ef9f892efa750332d160c3,PennController,15,0,test_conc,NULL,PennController,26,_Trial_,Start,1738013869908,undefined,716,laughter,concrete-positive,abstract,concrete,B,NULL
1738014252,f6fd50e524ef9f892efa750332d160c3,PennController,15,0,test_conc,NULL,PennController,26,_Header_,Start,1738013869908,undefined,716,laughter,concrete-positive,abstract,concrete,B,NULL
1738014252,f6fd50e524ef9f892efa750332d160c3,PennController,15,0,test_conc,NULL,PennController,26,_Header_,End,1738013870163,undefined,716,laughter,concrete-positive,abstract,concrete,B,NULL
1738014252,f6fd50e524ef9f892efa750332d160c3,PennController,15,0,test_conc,NULL,Selector,unnamed-Selector,Selection,abstract,1738013871380,undefined,716,laughter,concrete-positive,abstract,concrete,B,abstract;concrete
1738014252,f6fd50e524ef9f892efa750332d160c3,PennController,15,0,test_conc,NULL,PennController,26,_Trial_,End,1738013871382,undefined,716,laughter,concrete-positive,abstract,concrete,B,NULL
1738014252,f6fd50e524ef9f892efa750332d160c3,PennController,11,0,test_conc,NULL,PennController,22,_Trial_,Start,1738013871383,undefined,616,failure,abstract-negative,abstract,concrete,B,NULL
1738014252,f6fd50e524ef9f892efa750332d160c3,PennController,11,0,test_conc,NULL,PennController,22,_Header_,Start,1738013871383,undefined,616,failure,abstract-negative,abstract,concrete,B,NULL
1738014252,f6fd50e524ef9f892efa750332d160c3,PennController,11,0,test_conc,NULL,PennController,22,_Header_,End,1738013871635,undefined,616,failure,abstract-negative,abstract,concrete,B,NULL
1738014252,f6fd50e524ef9f892efa750332d160c3,PennController,11,0,test_conc,NULL,Selector,unnamed-Selector,Selection,abstract,1738013872755,undefined,616,failure,abstract-negative,abstract,concrete,B,abstract;concrete
1738014252,f6fd50e524ef9f892efa750332d160c3,PennController,11,0,test_conc,NULL,PennController,22,_Trial_,End,1738013872756,undefined,616,failure,abstract-negative,abstract,concrete,B,NULL
1738014252,f6fd50e524ef9f892efa750332d160c3,PennController,35,0,test_conc,NULL,PennController,46,_Trial_,Start,1738013872757,undefined,845,rot,concrete-negative,abstract,concrete,B,NULL
1738014252,f6fd50e524ef9f892efa750332d160c3,PennController,35,0,test_conc,NULL,PennController,46,_Header_,Start,1738013872757,undefined,845,rot,concrete-negative,abstract,concrete,B,NULL
1738014252,f6fd50e524ef9f892efa750332d160c3,PennController,35,0,test_conc,NULL,PennController,46,_Header_,End,1738013873010,undefined,845,rot,concrete-negative,abstract,concrete,B,NULL
1738014252,f6fd50e524ef9f892efa750332d160c3,PennController,35,0,test_conc,NULL,Selector,unnamed-Selector,Selection,concrete,1738013874355,undefined,845,rot,concrete-negative,abstract,concrete,B,abstract;concrete
1738014252,f6fd50e524ef9f892efa750332d160c3,PennController,35,0,test_conc,NULL,PennController,46,_Trial_,End,1738013874356,undefined,845,rot,concrete-negative,abstract,concrete,B,NULL
1738014252,f6fd50e524ef9f892efa750332d160c3,PennController,23,0,test_conc,NULL,PennController,34,_Trial_,Start,1738013874357,undefined,667,fireplace,concrete-positive,abstract,concrete,B,NULL
1738014252,f6fd50e524ef9f892efa750332d160c3,PennController,23,0,test_conc,NULL,PennController,34,_Header_,Start,1738013874357,undefined,667,fireplace,concrete-positive,abstract,concrete,B,NULL
1738014252,f6fd50e524ef9f892efa750332d160c3,PennController,23,0,test_conc,NULL,PennController,34,_Header_,End,1738013874610,undefined,667,fireplace,concrete-positive,abstract,concrete,B,NULL
1738014252,f6fd50e524ef9f892efa750332d160c3,PennController,23,0,test_conc,NULL,Selector,unnamed-Selector,Selection,concrete,1738013875779,undefined,667,fireplace,concrete-positive,abstract,concrete,B,abstract;concrete
1738014252,f6fd50e524ef9f892efa750332d160c3,PennController,23,0,test_conc,NULL,PennController,34,_Trial_,End,1738013875780,undefined,667,fireplace,concrete-positive,abstract,concrete,B,NULL
1738014252,f6fd50e524ef9f892efa750332d160c3,PennController,21,0,test_conc,NULL,PennController,32,_Trial_,Start,1738013875781,undefined,681,rain,concrete-positive,abstract,concrete,B,NULL
1738014252,f6fd50e524ef9f892efa750332d160c3,PennController,21,0,test_conc,NULL,PennController,32,_Header_,Start,1738013875781,undefined,681,rain,concrete-positive,abstract,concrete,B,NULL
1738014252,f6fd50e524ef9f892efa750332d160c3,PennController,21,0,test_conc,NULL,PennController,32,_Header_,End,1738013876034,undefined,681,rain,concrete-positive,abstract,concrete,B,NULL
1738014252,f6fd50e524ef9f892efa750332d160c3,PennController,21,0,test_conc,NULL,Selector,unnamed-Selector,Selection,concrete,1738013877219,undefined,681,rain,concrete-positive,abstract,concrete,B,abstract;concrete
1738014252,f6fd50e524ef9f892efa750332d160c3,PennController,21,0,test_conc,NULL,PennController,32,_Trial_,End,1738013877220,undefined,681,rain,concrete-positive,abstract,concrete,B,NULL
1738014252,f6fd50e524ef9f892efa750332d160c3,PennController,41,0,test_conc,NULL,PennController,52,_Trial_,Start,1738013877220,undefined,986,injury,concrete-negative,abstract,concrete,B,NULL
1738014252,f6fd50e524ef9f892efa750332d160c3,PennController,41,0,test_conc,NULL,PennController,52,_Header_,Start,1738013877220,undefined,986,injury,concrete-negative,abstract,concrete,B,NULL
1738014252,f6fd50e524ef9f892efa750332d160c3,PennController,41,0,test_conc,NULL,PennController,52,_Header_,End,1738013877471,undefined,986,injury,concrete-negative,abstract,concrete,B,NULL
1738014252,f6fd50e524ef9f892efa750332d160c3,PennController,41,0,test_conc,NULL,Selector,unnamed-Selector,Selection,concrete,1738013878963,undefined,986,injury,concrete-negative,abstract,concrete,B,abstract;concrete
1738014252,f6fd50e524ef9f892efa750332d160c3,PennController,41,0,test_conc,NULL,PennController,52,_Trial_,End,1738013878964,undefined,986,injury,concrete-negative,abstract,concrete,B,NULL
1738014252,f6fd50e524ef9f892efa750332d160c3,PennController,14,0,test_conc,NULL,PennController,25,_Trial_,Start,1738013878964,undefined,779,sunshine,concrete-positive,abstract,concrete,B,NULL
1738014252,f6fd50e524ef9f892efa750332d160c3,PennController,14,0,test_conc,NULL,PennController,25,_Header_,Start,1738013878964,undefined,779,sunshine,concrete-positive,abstract,concrete,B,NULL
1738014252,f6fd50e524ef9f892efa750332d160c3,PennController,14,0,test_conc,NULL,PennController,25,_Header_,End,1738013879216,undefined,779,sunshine,concrete-positive,abstract,concrete,B,NULL
1738014252,f6fd50e524ef9f892efa750332d160c3,PennController,14,0,test_conc,NULL,Selector,unnamed-Selector,Selection,concrete,1738013880499,undefined,779,sunshine,concrete-positive,abstract,concrete,B,abstract;concrete
1738014252,f6fd50e524ef9f892efa750332d160c3,PennController,14,0,test_conc,NULL,PennController,25,_Trial_,End,1738013880500,undefined,779,sunshine,concrete-positive,abstract,concrete,B,NULL
1738014252,f6fd50e524ef9f892efa750332d160c3,PennController,40,0,test_conc,NULL,PennController,51,_Trial_,Start,1738013880501,undefined,679,mold,concrete-negative,abstract,concrete,B,NULL
1738014252,f6fd50e524ef9f892efa750332d160c3,PennController,40,0,test_conc,NULL,PennController,51,_Header_,Start,1738013880501,undefined,679,mold,concrete-negative,abstract,concrete,B,NULL
1738014252,f6fd50e524ef9f892efa750332d160c3,PennController,40,0,test_conc,NULL,PennController,51,_Header_,End,1738013880755,undefined,679,mold,concrete-negative,abstract,concrete,B,NULL
1738014252,f6fd50e524ef9f892efa750332d160c3,PennController,40,0,test_conc,NULL,Selector,unnamed-Selector,Selection,concrete,1738013881939,undefined,679,mold,concrete-negative,abstract,concrete,B,abstract;concrete
1738014252,f6fd50e524ef9f892efa750332d160c3,PennController,40,0,test_conc,NULL,PennController,51,_Trial_,End,1738013881940,undefined,679,mold,concrete-negative,abstract,concrete,B,NULL
1738014252,f6fd50e524ef9f892efa750332d160c3,PennController,18,0,test_conc,NULL,PennController,29,_Trial_,Start,1738013881940,undefined,608,beach,concrete-positive,abstract,concrete,B,NULL
1738014252,f6fd50e524ef9f892efa750332d160c3,PennController,18,0,test_conc,NULL,PennController,29,_Header_,Start,1738013881940,undefined,608,beach,concrete-positive,abstract,concrete,B,NULL
1738014252,f6fd50e524ef9f892efa750332d160c3,PennController,18,0,test_conc,NULL,PennController,29,_Header_,End,1738013882191,undefined,608,beach,concrete-positive,abstract,concrete,B,NULL
1738014252,f6fd50e524ef9f892efa750332d160c3,PennController,18,0,test_conc,NULL,Selector,unnamed-Selector,Selection,concrete,1738013883299,undefined,608,beach,concrete-positive,abstract,concrete,B,abstract;concrete
1738014252,f6fd50e524ef9f892efa750332d160c3,PennController,18,0,test_conc,NULL,PennController,29,_Trial_,End,1738013883300,undefined,608,beach,concrete-positive,abstract,concrete,B,NULL
1738014252,f6fd50e524ef9f892efa750332d160c3,PennController,24,0,test_conc,NULL,PennController,35,_Trial_,Start,1738013883300,undefined,657,love,abstract-positive,abstract,concrete,B,NULL
1738014252,f6fd50e524ef9f892efa750332d160c3,PennController,24,0,test_conc,NULL,PennController,35,_Header_,Start,1738013883300,undefined,657,love,abstract-positive,abstract,concrete,B,NULL
1738014252,f6fd50e524ef9f892efa750332d160c3,PennController,24,0,test_conc,NULL,PennController,35,_Header_,End,1738013883550,undefined,657,love,abstract-positive,abstract,concrete,B,NULL
1738014252,f6fd50e524ef9f892efa750332d160c3,PennController,24,0,test_conc,NULL,Selector,unnamed-Selector,Selection,abstract,1738013884707,undefined,657,love,abstract-positive,abstract,concrete,B,abstract;concrete
1738014252,f6fd50e524ef9f892efa750332d160c3,PennController,24,0,test_conc,NULL,PennController,35,_Trial_,End,1738013884708,undefined,657,love,abstract-positive,abstract,concrete,B,NULL
1738014252,f6fd50e524ef9f892efa750332d160c3,PennController,36,0,test_conc,NULL,PennController,47,_Trial_,Start,1738013884709,undefined,588,mud,concrete-negative,abstract,concrete,B,NULL
1738014252,f6fd50e524ef9f892efa750332d160c3,PennController,36,0,test_conc,NULL,PennController,47,_Header_,Start,1738013884709,undefined,588,mud,concrete-negative,abstract,concrete,B,NULL
1738014252,f6fd50e524ef9f892efa750332d160c3,PennController,36,0,test_conc,NULL,PennController,47,_Header_,End,1738013884962,undefined,588,mud,concrete-negative,abstract,concrete,B,NULL
1738014252,f6fd50e524ef9f892efa750332d160c3,PennController,36,0,test_conc,NULL,Selector,unnamed-Selector,Selection,concrete,1738013886051,undefined,588,mud,concrete-negative,abstract,concrete,B,abstract;concrete
1738014252,f6fd50e524ef9f892efa750332d160c3,PennController,36,0,test_conc,NULL,PennController,47,_Trial_,End,1738013886052,undefined,588,mud,concrete-negative,abstract,concrete,B,NULL
1738014252,f6fd50e524ef9f892efa750332d160c3,PennController,43,0,test_conc,NULL,PennController,54,_Trial_,Start,1738013886052,undefined,700,filth,concrete-negative,abstract,concrete,B,NULL
1738014252,f6fd50e524ef9f892efa750332d160c3,PennController,43,0,test_conc,NULL,PennController,54,_Header_,Start,1738013886052,undefined,700,filth,concrete-negative,abstract,concrete,B,NULL
1738014252,f6fd50e524ef9f892efa750332d160c3,PennController,43,0,test_conc,NULL,PennController,54,_Header_,End,1738013886303,undefined,700,filth,concrete-negative,abstract,concrete,B,NULL
1738014252,f6fd50e524ef9f892efa750332d160c3,PennController,43,0,test_conc,NULL,Selector,unnamed-Selector,Selection,concrete,1738013887507,undefined,700,filth,concrete-negative,abstract,concrete,B,abstract;concrete
1738014252,f6fd50e524ef9f892efa750332d160c3,PennController,43,0,test_conc,NULL,PennController,54,_Trial_,End,1738013887508,undefined,700,filth,concrete-negative,abstract,concrete,B,NULL
1738014252,f6fd50e524ef9f892efa750332d160c3,PennController,10,0,test_conc,NULL,PennController,21,_Trial_,Start,1738013887508,undefined,744,resentment,abstract-negative,abstract,concrete,B,NULL
1738014252,f6fd50e524ef9f892efa750332d160c3,PennController,10,0,test_conc,NULL,PennController,21,_Header_,Start,1738013887508,undefined,744,resentment,abstract-negative,abstract,concrete,B,NULL
1738014252,f6fd50e524ef9f892efa750332d160c3,PennController,10,0,test_conc,NULL,PennController,21,_Header_,End,1738013887759,undefined,744,resentment,abstract-negative,abstract,concrete,B,NULL
1738014252,f6fd50e524ef9f892efa750332d160c3,PennController,10,0,test_conc,NULL,Selector,unnamed-Selector,Selection,abstract,1738013889003,undefined,744,resentment,abstract-negative,abstract,concrete,B,abstract;concrete
1738014252,f6fd50e524ef9f892efa750332d160c3,PennController,10,0,test_conc,NULL,PennController,21,_Trial_,End,1738013889004,undefined,744,resentment,abstract-negative,abstract,concrete,B,NULL
1738014252,f6fd50e524ef9f892efa750332d160c3,PennController,29,0,test_conc,NULL,PennController,40,_Trial_,Start,1738013889004,undefined,740,kindness,abstract-positive,abstract,concrete,B,NULL
1738014252,f6fd50e524ef9f892efa750332d160c3,PennController,29,0,test_conc,NULL,PennController,40,_Header_,Start,1738013889004,undefined,740,kindness,abstract-positive,abstract,concrete,B,NULL
1738014252,f6fd50e524ef9f892efa750332d160c3,PennController,29,0,test_conc,NULL,PennController,40,_Header_,End,1738013889257,undefined,740,kindness,abstract-positive,abstract,concrete,B,NULL
1738014252,f6fd50e524ef9f892efa750332d160c3,PennController,29,0,test_conc,NULL,Selector,unnamed-Selector,Selection,abstract,1738013890499,undefined,740,kindness,abstract-positive,abstract,concrete,B,abstract;concrete
1738014252,f6fd50e524ef9f892efa750332d160c3,PennController,29,0,test_conc,NULL,PennController,40,_Trial_,End,1738013890500,undefined,740,kindness,abstract-positive,abstract,concrete,B,NULL
1738014252,f6fd50e524ef9f892efa750332d160c3,PennController,17,0,test_conc,NULL,PennController,28,_Trial_,Start,1738013890500,undefined,558,music,concrete-positive,abstract,concrete,B,NULL
1738014252,f6fd50e524ef9f892efa750332d160c3,PennController,17,0,test_conc,NULL,PennController,28,_Header_,Start,1738013890500,undefined,558,music,concrete-positive,abstract,concrete,B,NULL
1738014252,f6fd50e524ef9f892efa750332d160c3,PennController,17,0,test_conc,NULL,PennController,28,_Header_,End,1738013890750,undefined,558,music,concrete-positive,abstract,concrete,B,NULL
1738014252,f6fd50e524ef9f892efa750332d160c3,PennController,17,0,test_conc,NULL,Selector,unnamed-Selector,Selection,abstract,1738013891811,undefined,558,music,concrete-positive,abstract,concrete,B,abstract;concrete
1738014252,f6fd50e524ef9f892efa750332d160c3,PennController,17,0,test_conc,NULL,PennController,28,_Trial_,End,1738013891812,undefined,558,music,concrete-positive,abstract,concrete,B,NULL
1738014252,f6fd50e524ef9f892efa750332d160c3,PennController,26,0,test_conc,NULL,PennController,37,_Trial_,Start,1738013891812,undefined,596,joy,abstract-positive,abstract,concrete,B,NULL
1738014252,f6fd50e524ef9f892efa750332d160c3,PennController,26,0,test_conc,NULL,PennController,37,_Header_,Start,1738013891812,undefined,596,joy,abstract-positive,abstract,concrete,B,NULL
1738014252,f6fd50e524ef9f892efa750332d160c3,PennController,26,0,test_conc,NULL,PennController,37,_Header_,End,1738013892065,undefined,596,joy,abstract-positive,abstract,concrete,B,NULL
1738014252,f6fd50e524ef9f892efa750332d160c3,PennController,26,0,test_conc,NULL,Selector,unnamed-Selector,Selection,abstract,1738013893163,undefined,596,joy,abstract-positive,abstract,concrete,B,abstract;concrete
1738014252,f6fd50e524ef9f892efa750332d160c3,PennController,26,0,test_conc,NULL,PennController,37,_Trial_,End,1738013893164,undefined,596,joy,abstract-positive,abstract,concrete,B,NULL
1738014252,f6fd50e524ef9f892efa750332d160c3,PennController,27,0,test_conc,NULL,PennController,38,_Trial_,Start,1738013893164,undefined,679,peace,abstract-positive,abstract,concrete,B,NULL
1738014252,f6fd50e524ef9f892efa750332d160c3,PennController,27,0,test_conc,NULL,PennController,38,_Header_,Start,1738013893164,undefined,679,peace,abstract-positive,abstract,concrete,B,NULL
1738014252,f6fd50e524ef9f892efa750332d160c3,PennController,27,0,test_conc,NULL,PennController,38,_Header_,End,1738013893415,undefined,679,peace,abstract-positive,abstract,concrete,B,NULL
1738014252,f6fd50e524ef9f892efa750332d160c3,PennController,27,0,test_conc,NULL,Selector,unnamed-Selector,Selection,abstract,1738013894595,undefined,679,peace,abstract-positive,abstract,concrete,B,abstract;concrete
1738014252,f6fd50e524ef9f892efa750332d160c3,PennController,27,0,test_conc,NULL,PennController,38,_Trial_,End,1738013894596,undefined,679,peace,abstract-positive,abstract,concrete,B,NULL
1738014252,f6fd50e524ef9f892efa750332d160c3,PennController,22,0,test_conc,NULL,PennController,33,_Trial_,Start,1738013894597,undefined,554,chocolate,concrete-positive,abstract,concrete,B,NULL
1738014252,f6fd50e524ef9f892efa750332d160c3,PennController,22,0,test_conc,NULL,PennController,33,_Header_,Start,1738013894597,undefined,554,chocolate,concrete-positive,abstract,concrete,B,NULL
1738014252,f6fd50e524ef9f892efa750332d160c3,PennController,22,0,test_conc,NULL,PennController,33,_Header_,End,1738013894850,undefined,554,chocolate,concrete-positive,abstract,concrete,B,NULL
1738014252,f6fd50e524ef9f892efa750332d160c3,PennController,22,0,test_conc,NULL,Selector,unnamed-Selector,Selection,concrete,1738013895908,undefined,554,chocolate,concrete-positive,abstract,concrete,B,abstract;concrete
1738014252,f6fd50e524ef9f892efa750332d160c3,PennController,22,0,test_conc,NULL,PennController,33,_Trial_,End,1738013895908,undefined,554,chocolate,concrete-positive,abstract,concrete,B,NULL
1738014252,f6fd50e524ef9f892efa750332d160c3,PennController,33,0,test_conc,NULL,PennController,44,_Trial_,Start,1738013895909,undefined,693,inspiration,abstract-positive,abstract,concrete,B,NULL
1738014252,f6fd50e524ef9f892efa750332d160c3,PennController,33,0,test_conc,NULL,PennController,44,_Header_,Start,1738013895909,undefined,693,inspiration,abstract-positive,abstract,concrete,B,NULL
1738014252,f6fd50e524ef9f892efa750332d160c3,PennController,33,0,test_conc,NULL,PennController,44,_Header_,End,1738013896160,undefined,693,inspiration,abstract-positive,abstract,concrete,B,NULL
1738014252,f6fd50e524ef9f892efa750332d160c3,PennController,33,0,test_conc,NULL,Selector,unnamed-Selector,Selection,abstract,1738013897355,undefined,693,inspiration,abstract-positive,abstract,concrete,B,abstract;concrete
1738014252,f6fd50e524ef9f892efa750332d160c3,PennController,33,0,test_conc,NULL,PennController,44,_Trial_,End,1738013897356,undefined,693,inspiration,abstract-positive,abstract,concrete,B,NULL
1738014252,f6fd50e524ef9f892efa750332d160c3,PennController,4,0,test_conc,NULL,PennController,15,_Trial_,Start,1738013897356,undefined,663,lonliness,abstract-negative,abstract,concrete,B,NULL
1738014252,f6fd50e524ef9f892efa750332d160c3,PennController,4,0,test_conc,NULL,PennController,15,_Header_,Start,1738013897356,undefined,663,lonliness,abstract-negative,abstract,concrete,B,NULL
1738014252,f6fd50e524ef9f892efa750332d160c3,PennController,4,0,test_conc,NULL,PennController,15,_Header_,End,1738013897608,undefined,663,lonliness,abstract-negative,abstract,concrete,B,NULL
1738014252,f6fd50e524ef9f892efa750332d160c3,PennController,4,0,test_conc,NULL,Selector,unnamed-Selector,Selection,abstract,1738013898771,undefined,663,lonliness,abstract-negative,abstract,concrete,B,abstract;concrete
1738014252,f6fd50e524ef9f892efa750332d160c3,PennController,4,0,test_conc,NULL,PennController,15,_Trial_,End,1738013898772,undefined,663,lonliness,abstract-negative,abstract,concrete,B,NULL
1738014252,f6fd50e524ef9f892efa750332d160c3,PennController,34,0,test_conc,NULL,PennController,45,_Trial_,Start,1738013898772,undefined,707,smoke,concrete-negative,abstract,concrete,B,NULL
1738014252,f6fd50e524ef9f892efa750332d160c3,PennController,34,0,test_conc,NULL,PennController,45,_Header_,Start,1738013898772,undefined,707,smoke,concrete-negative,abstract,concrete,B,NULL
1738014252,f6fd50e524ef9f892efa750332d160c3,PennController,34,0,test_conc,NULL,PennController,45,_Header_,End,1738013899024,undefined,707,smoke,concrete-negative,abstract,concrete,B,NULL
1738014252,f6fd50e524ef9f892efa750332d160c3,PennController,34,0,test_conc,NULL,Selector,unnamed-Selector,Selection,concrete,1738013900235,undefined,707,smoke,concrete-negative,abstract,concrete,B,abstract;concrete
1738014252,f6fd50e524ef9f892efa750332d160c3,PennController,34,0,test_conc,NULL,PennController,45,_Trial_,End,1738013900236,undefined,707,smoke,concrete-negative,abstract,concrete,B,NULL
1738014252,f6fd50e524ef9f892efa750332d160c3,PennController,13,0,test_conc,NULL,PennController,24,_Trial_,Start,1738013900236,undefined,631,envy,abstract-negative,abstract,concrete,B,NULL
1738014252,f6fd50e524ef9f892efa750332d160c3,PennController,13,0,test_conc,NULL,PennController,24,_Header_,Start,1738013900236,undefined,631,envy,abstract-negative,abstract,concrete,B,NULL
1738014252,f6fd50e524ef9f892efa750332d160c3,PennController,13,0,test_conc,NULL,PennController,24,_Header_,End,1738013900487,undefined,631,envy,abstract-negative,abstract,concrete,B,NULL
1738014252,f6fd50e524ef9f892efa750332d160c3,PennController,13,0,test_conc,NULL,Selector,unnamed-Selector,Selection,abstract,1738013901619,undefined,631,envy,abstract-negative,abstract,concrete,B,abstract;concrete
1738014252,f6fd50e524ef9f892efa750332d160c3,PennController,13,0,test_conc,NULL,PennController,24,_Trial_,End,1738013901620,undefined,631,envy,abstract-negative,abstract,concrete,B,NULL
1738014252,f6fd50e524ef9f892efa750332d160c3,PennController,28,0,test_conc,NULL,PennController,39,_Trial_,Start,1738013901620,undefined,548,freedom,abstract-positive,abstract,concrete,B,NULL
1738014252,f6fd50e524ef9f892efa750332d160c3,PennController,28,0,test_conc,NULL,PennController,39,_Header_,Start,1738013901620,undefined,548,freedom,abstract-positive,abstract,concrete,B,NULL
1738014252,f6fd50e524ef9f892efa750332d160c3,PennController,28,0,test_conc,NULL,PennController,39,_Header_,End,1738013901874,undefined,548,freedom,abstract-positive,abstract,concrete,B,NULL
1738014252,f6fd50e524ef9f892efa750332d160c3,PennController,28,0,test_conc,NULL,Selector,unnamed-Selector,Selection,abstract,1738013902923,undefined,548,freedom,abstract-positive,abstract,concrete,B,abstract;concrete
1738014252,f6fd50e524ef9f892efa750332d160c3,PennController,28,0,test_conc,NULL,PennController,39,_Trial_,End,1738013902924,undefined,548,freedom,abstract-positive,abstract,concrete,B,NULL
1738014252,f6fd50e524ef9f892efa750332d160c3,PennController,6,0,test_conc,NULL,PennController,17,_Trial_,Start,1738013902925,undefined,651,anxiety,abstract-negative,abstract,concrete,B,NULL
1738014252,f6fd50e524ef9f892efa750332d160c3,PennController,6,0,test_conc,NULL,PennController,17,_Header_,Start,1738013902925,undefined,651,anxiety,abstract-negative,abstract,concrete,B,NULL
1738014252,f6fd50e524ef9f892efa750332d160c3,PennController,6,0,test_conc,NULL,PennController,17,_Header_,End,1738013903178,undefined,651,anxiety,abstract-negative,abstract,concrete,B,NULL
1738014252,f6fd50e524ef9f892efa750332d160c3,PennController,6,0,test_conc,NULL,Selector,unnamed-Selector,Selection,abstract,1738013904331,undefined,651,anxiety,abstract-negative,abstract,concrete,B,abstract;concrete
1738014252,f6fd50e524ef9f892efa750332d160c3,PennController,6,0,test_conc,NULL,PennController,17,_Trial_,End,1738013904332,undefined,651,anxiety,abstract-negative,abstract,concrete,B,NULL
1738014252,f6fd50e524ef9f892efa750332d160c3,PennController,12,0,test_conc,NULL,PennController,23,_Trial_,Start,1738013904333,undefined,521,shame,abstract-negative,abstract,concrete,B,NULL
1738014252,f6fd50e524ef9f892efa750332d160c3,PennController,12,0,test_conc,NULL,PennController,23,_Header_,Start,1738013904333,undefined,521,shame,abstract-negative,abstract,concrete,B,NULL
1738014252,f6fd50e524ef9f892efa750332d160c3,PennController,12,0,test_conc,NULL,PennController,23,_Header_,End,1738013904587,undefined,521,shame,abstract-negative,abstract,concrete,B,NULL
1738014252,f6fd50e524ef9f892efa750332d160c3,PennController,12,0,test_conc,NULL,Selector,unnamed-Selector,Selection,abstract,1738013905611,undefined,521,shame,abstract-negative,abstract,concrete,B,abstract;concrete
1738014252,f6fd50e524ef9f892efa750332d160c3,PennController,12,0,test_conc,NULL,PennController,23,_Trial_,End,1738013905612,undefined,521,shame,abstract-negative,abstract,concrete,B,NULL
