#
# Results on Mon, 27 Jan 2025 16:07:03 GMT
# USER AGENT: Mozilla/5.0 (Windows NT 10.0; Win64; x64) AppleWebKit/537.36 (KHTML, like Gecko) Chrome/131.0.0.0 Safari/537.36
# Design number was non-random = 5
#
# Columns below this comment are as follows:
# 1. Results reception time.
# 2. MD5 hash of participant's IP address.
# 3. Controller name.
# 4. Order number of item.
# 5. Inner element number.
# 6. Label.
# 7. Latin Square Group.
# 8. PennElementType.
# 9. PennElementName.
# 10. Parameter.
# 11. Value.
# 12. EventTime.
# 13. Comments.
1737994023,28bf87dcce8e2296cc0912f3a280fe6b,PennController,1,0,welcome,NULL,PennController,0,_Trial_,Start,1737993495423,NULL
1737994023,28bf87dcce8e2296cc0912f3a280fe6b,PennController,1,0,welcome,NULL,PennController,0,_Header_,Start,1737993495423,NULL
1737994023,28bf87dcce8e2296cc0912f3a280fe6b,PennController,1,0,welcome,NULL,PennController,0,_Header_,End,1737993495675,NULL
1737994023,28bf87dcce8e2296cc0912f3a280fe6b,PennController,1,0,welcome,NULL,PennController,0,_Trial_,End,1737993497136,NULL
# 13. ID.
# 14. Comments.
1737994023,28bf87dcce8e2296cc0912f3a280fe6b,PennController,124,0,consent,NULL,PennController,2,_Trial_,Start,1737993497138,6078b85e024d1d094113c3aa,NULL
1737994023,28bf87dcce8e2296cc0912f3a280fe6b,PennController,124,0,consent,NULL,PennController,2,_Header_,Start,1737993497138,6078b85e024d1d094113c3aa,NULL
1737994023,28bf87dcce8e2296cc0912f3a280fe6b,PennController,124,0,consent,NULL,PennController,2,_Header_,End,1737993497390,6078b85e024d1d094113c3aa,NULL
1737994023,28bf87dcce8e2296cc0912f3a280fe6b,PennController,124,0,consent,NULL,TextInput,ID,First,,1737993501546,6078b85e024d1d094113c3aa,Control
1737994023,28bf87dcce8e2296cc0912f3a280fe6b,PennController,124,0,consent,NULL,TextInput,ID,Final,6078b85e024d1d094113c3aa,1737993502441,6078b85e024d1d094113c3aa,NULL
1737994023,28bf87dcce8e2296cc0912f3a280fe6b,PennController,124,0,consent,NULL,PennController,2,_Trial_,End,1737993502454,6078b85e024d1d094113c3aa,NULL
# 13. Comments.
1737994023,28bf87dcce8e2296cc0912f3a280fe6b,PennController,126,0,instructions1_val,NULL,PennController,4,_Trial_,Start,1737993502455,NULL
1737994023,28bf87dcce8e2296cc0912f3a280fe6b,PennController,126,0,instructions1_val,NULL,PennController,4,_Header_,Start,1737993502455,NULL
1737994023,28bf87dcce8e2296cc0912f3a280fe6b,PennController,126,0,instructions1_val,NULL,PennController,4,_Header_,End,1737993502707,NULL
1737994023,28bf87dcce8e2296cc0912f3a280fe6b,PennController,126,0,instructions1_val,NULL,PennController,4,_Trial_,End,1737993509605,NULL
1737994023,28bf87dcce8e2296cc0912f3a280fe6b,PennController,127,0,instructions2_val,NULL,PennController,5,_Trial_,Start,1737993509605,NULL
1737994023,28bf87dcce8e2296cc0912f3a280fe6b,PennController,127,0,instructions2_val,NULL,PennController,5,_Header_,Start,1737993509605,NULL
1737994023,28bf87dcce8e2296cc0912f3a280fe6b,PennController,127,0,instructions2_val,NULL,PennController,5,_Header_,End,1737993509855,NULL
1737994023,28bf87dcce8e2296cc0912f3a280fe6b,PennController,127,0,instructions2_val,NULL,PennController,5,_Trial_,End,1737993511160,NULL
1737994023,28bf87dcce8e2296cc0912f3a280fe6b,PennController,128,0,instructions3_hands,NULL,PennController,6,_Trial_,Start,1737993511160,NULL
1737994023,28bf87dcce8e2296cc0912f3a280fe6b,PennController,128,0,instructions3_hands,NULL,PennController,6,_Header_,Start,1737993511160,NULL
1737994023,28bf87dcce8e2296cc0912f3a280fe6b,PennController,128,0,instructions3_hands,NULL,PennController,6,_Header_,End,1737993511411,NULL
1737994023,28bf87dcce8e2296cc0912f3a280fe6b,PennController,128,0,instructions3_hands,NULL,PennController,6,_Trial_,End,1737993512987,NULL
1737994023,28bf87dcce8e2296cc0912f3a280fe6b,PennController,129,0,practice_intro_val,NULL,PennController,7,_Trial_,Start,1737993512988,NULL
1737994023,28bf87dcce8e2296cc0912f3a280fe6b,PennController,129,0,practice_intro_val,NULL,PennController,7,_Header_,Start,1737993512988,NULL
1737994023,28bf87dcce8e2296cc0912f3a280fe6b,PennController,129,0,practice_intro_val,NULL,PennController,7,_Header_,End,1737993513240,NULL
1737994023,28bf87dcce8e2296cc0912f3a280fe6b,PennController,129,0,practice_intro_val,NULL,PennController,7,_Trial_,End,1737993513865,NULL
# 13. ID.
# 14. ReactionTime.
# 15. Word.
# 16. selectedKey.
# 17. selectedValue.
# 18. Key_value_F.
# 19. Key_value_J.
# 20. Group.
# 21. Comments.
1737994023,28bf87dcce8e2296cc0912f3a280fe6b,PennController,111,0,calibrator_val_feedback,NULL,PennController,122,_Trial_,Start,1737993513866,undefined,1466,jail,undefined,negative,positive,negative,A,NULL
1737994023,28bf87dcce8e2296cc0912f3a280fe6b,PennController,111,0,calibrator_val_feedback,NULL,PennController,122,_Header_,Start,1737993513866,undefined,1466,jail,undefined,negative,positive,negative,A,NULL
1737994023,28bf87dcce8e2296cc0912f3a280fe6b,PennController,111,0,calibrator_val_feedback,NULL,PennController,122,_Header_,End,1737993514121,undefined,1466,jail,undefined,negative,positive,negative,A,NULL
1737994023,28bf87dcce8e2296cc0912f3a280fe6b,PennController,111,0,calibrator_val_feedback,NULL,Selector,Selection,Selection,negative,1737993516089,undefined,1466,jail,undefined,negative,positive,negative,A,positive;negative
1737994023,28bf87dcce8e2296cc0912f3a280fe6b,PennController,111,0,calibrator_val_feedback,NULL,PennController,122,_Trial_,End,1737993518094,undefined,1466,jail,undefined,negative,positive,negative,A,NULL
1737994023,28bf87dcce8e2296cc0912f3a280fe6b,PennController,109,0,calibrator_val_feedback,NULL,PennController,120,_Trial_,Start,1737993518095,undefined,630,insecure,undefined,negative,positive,negative,A,NULL
1737994023,28bf87dcce8e2296cc0912f3a280fe6b,PennController,109,0,calibrator_val_feedback,NULL,PennController,120,_Header_,Start,1737993518095,undefined,630,insecure,undefined,negative,positive,negative,A,NULL
1737994023,28bf87dcce8e2296cc0912f3a280fe6b,PennController,109,0,calibrator_val_feedback,NULL,PennController,120,_Header_,End,1737993518349,undefined,630,insecure,undefined,negative,positive,negative,A,NULL
1737994023,28bf87dcce8e2296cc0912f3a280fe6b,PennController,109,0,calibrator_val_feedback,NULL,Selector,Selection,Selection,negative,1737993519482,undefined,630,insecure,undefined,negative,positive,negative,A,positive;negative
1737994023,28bf87dcce8e2296cc0912f3a280fe6b,PennController,109,0,calibrator_val_feedback,NULL,PennController,120,_Trial_,End,1737993521486,undefined,630,insecure,undefined,negative,positive,negative,A,NULL
1737994023,28bf87dcce8e2296cc0912f3a280fe6b,PennController,112,0,calibrator_val_feedback,NULL,PennController,123,_Trial_,Start,1737993521487,undefined,798,joke,undefined,negative,positive,negative,A,NULL
1737994023,28bf87dcce8e2296cc0912f3a280fe6b,PennController,112,0,calibrator_val_feedback,NULL,PennController,123,_Header_,Start,1737993521487,undefined,798,joke,undefined,negative,positive,negative,A,NULL
1737994023,28bf87dcce8e2296cc0912f3a280fe6b,PennController,112,0,calibrator_val_feedback,NULL,PennController,123,_Header_,End,1737993521740,undefined,798,joke,undefined,negative,positive,negative,A,NULL
1737994023,28bf87dcce8e2296cc0912f3a280fe6b,PennController,112,0,calibrator_val_feedback,NULL,Selector,Selection,Selection,positive,1737993523041,undefined,798,joke,undefined,negative,positive,negative,A,positive;negative
1737994023,28bf87dcce8e2296cc0912f3a280fe6b,PennController,112,0,calibrator_val_feedback,NULL,PennController,123,_Trial_,End,1737993525044,undefined,798,joke,undefined,negative,positive,negative,A,NULL
1737994023,28bf87dcce8e2296cc0912f3a280fe6b,PennController,105,0,calibrator_val_feedback,NULL,PennController,116,_Trial_,Start,1737993525045,undefined,796,grin,undefined,negative,positive,negative,A,NULL
1737994023,28bf87dcce8e2296cc0912f3a280fe6b,PennController,105,0,calibrator_val_feedback,NULL,PennController,116,_Header_,Start,1737993525045,undefined,796,grin,undefined,negative,positive,negative,A,NULL
1737994023,28bf87dcce8e2296cc0912f3a280fe6b,PennController,105,0,calibrator_val_feedback,NULL,PennController,116,_Header_,End,1737993525298,undefined,796,grin,undefined,negative,positive,negative,A,NULL
1737994023,28bf87dcce8e2296cc0912f3a280fe6b,PennController,105,0,calibrator_val_feedback,NULL,Selector,Selection,Selection,positive,1737993526599,undefined,796,grin,undefined,negative,positive,negative,A,positive;negative
1737994023,28bf87dcce8e2296cc0912f3a280fe6b,PennController,105,0,calibrator_val_feedback,NULL,PennController,116,_Trial_,End,1737993528603,undefined,796,grin,undefined,negative,positive,negative,A,NULL
1737994023,28bf87dcce8e2296cc0912f3a280fe6b,PennController,113,0,calibrator_val_feedback,NULL,PennController,124,_Trial_,Start,1737993528604,undefined,761,kitten,undefined,negative,positive,negative,A,NULL
1737994023,28bf87dcce8e2296cc0912f3a280fe6b,PennController,113,0,calibrator_val_feedback,NULL,PennController,124,_Header_,Start,1737993528604,undefined,761,kitten,undefined,negative,positive,negative,A,NULL
1737994023,28bf87dcce8e2296cc0912f3a280fe6b,PennController,113,0,calibrator_val_feedback,NULL,PennController,124,_Header_,End,1737993528856,undefined,761,kitten,undefined,negative,positive,negative,A,NULL
1737994023,28bf87dcce8e2296cc0912f3a280fe6b,PennController,113,0,calibrator_val_feedback,NULL,Selector,Selection,Selection,positive,1737993530121,undefined,761,kitten,undefined,negative,positive,negative,A,positive;negative
1737994023,28bf87dcce8e2296cc0912f3a280fe6b,PennController,113,0,calibrator_val_feedback,NULL,PennController,124,_Trial_,End,1737993532126,undefined,761,kitten,undefined,negative,positive,negative,A,NULL
1737994023,28bf87dcce8e2296cc0912f3a280fe6b,PennController,108,0,calibrator_val_feedback,NULL,PennController,119,_Trial_,Start,1737993532127,undefined,510,industry,undefined,negative,positive,negative,A,NULL
1737994023,28bf87dcce8e2296cc0912f3a280fe6b,PennController,108,0,calibrator_val_feedback,NULL,PennController,119,_Header_,Start,1737993532127,undefined,510,industry,undefined,negative,positive,negative,A,NULL
1737994023,28bf87dcce8e2296cc0912f3a280fe6b,PennController,108,0,calibrator_val_feedback,NULL,PennController,119,_Header_,End,1737993532380,undefined,510,industry,undefined,negative,positive,negative,A,NULL
1737994023,28bf87dcce8e2296cc0912f3a280fe6b,PennController,108,0,calibrator_val_feedback,NULL,Selector,Selection,Selection,negative,1737993533393,undefined,510,industry,undefined,negative,positive,negative,A,positive;negative
1737994023,28bf87dcce8e2296cc0912f3a280fe6b,PennController,108,0,calibrator_val_feedback,NULL,PennController,119,_Trial_,End,1737993535395,undefined,510,industry,undefined,negative,positive,negative,A,NULL
1737994023,28bf87dcce8e2296cc0912f3a280fe6b,PennController,104,0,calibrator_val_feedback,NULL,PennController,115,_Trial_,Start,1737993535396,undefined,655,free,undefined,negative,positive,negative,A,NULL
1737994023,28bf87dcce8e2296cc0912f3a280fe6b,PennController,104,0,calibrator_val_feedback,NULL,PennController,115,_Header_,Start,1737993535396,undefined,655,free,undefined,negative,positive,negative,A,NULL
1737994023,28bf87dcce8e2296cc0912f3a280fe6b,PennController,104,0,calibrator_val_feedback,NULL,PennController,115,_Header_,End,1737993535650,undefined,655,free,undefined,negative,positive,negative,A,NULL
1737994023,28bf87dcce8e2296cc0912f3a280fe6b,PennController,104,0,calibrator_val_feedback,NULL,Selector,Selection,Selection,positive,1737993536809,undefined,655,free,undefined,negative,positive,negative,A,positive;negative
1737994023,28bf87dcce8e2296cc0912f3a280fe6b,PennController,104,0,calibrator_val_feedback,NULL,PennController,115,_Trial_,End,1737993538814,undefined,655,free,undefined,negative,positive,negative,A,NULL
1737994023,28bf87dcce8e2296cc0912f3a280fe6b,PennController,110,0,calibrator_val_feedback,NULL,PennController,121,_Trial_,Start,1737993538815,undefined,697,invader,undefined,negative,positive,negative,A,NULL
1737994023,28bf87dcce8e2296cc0912f3a280fe6b,PennController,110,0,calibrator_val_feedback,NULL,PennController,121,_Header_,Start,1737993538815,undefined,697,invader,undefined,negative,positive,negative,A,NULL
1737994023,28bf87dcce8e2296cc0912f3a280fe6b,PennController,110,0,calibrator_val_feedback,NULL,PennController,121,_Header_,End,1737993539067,undefined,697,invader,undefined,negative,positive,negative,A,NULL
1737994023,28bf87dcce8e2296cc0912f3a280fe6b,PennController,110,0,calibrator_val_feedback,NULL,Selector,Selection,Selection,negative,1737993540266,undefined,697,invader,undefined,negative,positive,negative,A,positive;negative
1737994023,28bf87dcce8e2296cc0912f3a280fe6b,PennController,110,0,calibrator_val_feedback,NULL,PennController,121,_Trial_,End,1737993542271,undefined,697,invader,undefined,negative,positive,negative,A,NULL
1737994023,28bf87dcce8e2296cc0912f3a280fe6b,PennController,107,0,calibrator_val_feedback,NULL,PennController,118,_Trial_,Start,1737993542272,undefined,931,icebox,undefined,negative,positive,negative,A,NULL
1737994023,28bf87dcce8e2296cc0912f3a280fe6b,PennController,107,0,calibrator_val_feedback,NULL,PennController,118,_Header_,Start,1737993542272,undefined,931,icebox,undefined,negative,positive,negative,A,NULL
1737994023,28bf87dcce8e2296cc0912f3a280fe6b,PennController,107,0,calibrator_val_feedback,NULL,PennController,118,_Header_,End,1737993542524,undefined,931,icebox,undefined,negative,positive,negative,A,NULL
1737994023,28bf87dcce8e2296cc0912f3a280fe6b,PennController,107,0,calibrator_val_feedback,NULL,Selector,Selection,Selection,positive,1737993543961,undefined,931,icebox,undefined,negative,positive,negative,A,positive;negative
1737994023,28bf87dcce8e2296cc0912f3a280fe6b,PennController,107,0,calibrator_val_feedback,NULL,PennController,118,_Trial_,End,1737993545963,undefined,931,icebox,undefined,negative,positive,negative,A,NULL
1737994023,28bf87dcce8e2296cc0912f3a280fe6b,PennController,106,0,calibrator_val_feedback,NULL,PennController,117,_Trial_,Start,1737993545964,undefined,2274,hat,undefined,negative,positive,negative,A,NULL
1737994023,28bf87dcce8e2296cc0912f3a280fe6b,PennController,106,0,calibrator_val_feedback,NULL,PennController,117,_Header_,Start,1737993545964,undefined,2274,hat,undefined,negative,positive,negative,A,NULL
1737994023,28bf87dcce8e2296cc0912f3a280fe6b,PennController,106,0,calibrator_val_feedback,NULL,PennController,117,_Header_,End,1737993546214,undefined,2274,hat,undefined,negative,positive,negative,A,NULL
1737994023,28bf87dcce8e2296cc0912f3a280fe6b,PennController,106,0,calibrator_val_feedback,NULL,Selector,Selection,Selection,positive,1737993548992,undefined,2274,hat,undefined,negative,positive,negative,A,positive;negative
1737994023,28bf87dcce8e2296cc0912f3a280fe6b,PennController,106,0,calibrator_val_feedback,NULL,PennController,117,_Trial_,End,1737993550994,undefined,2274,hat,undefined,negative,positive,negative,A,NULL
# 16. Key_value_F.
# 17. Key_value_J.
# 18. Group.
# 19. Comments.
1737994023,28bf87dcce8e2296cc0912f3a280fe6b,PennController,121,0,calibrator_val_no_feedback,NULL,PennController,132,_Trial_,Start,1737993550995,undefined,821,jail,positive,negative,A,NULL
1737994023,28bf87dcce8e2296cc0912f3a280fe6b,PennController,121,0,calibrator_val_no_feedback,NULL,PennController,132,_Header_,Start,1737993550995,undefined,821,jail,positive,negative,A,NULL
1737994023,28bf87dcce8e2296cc0912f3a280fe6b,PennController,121,0,calibrator_val_no_feedback,NULL,PennController,132,_Header_,End,1737993551245,undefined,821,jail,positive,negative,A,NULL
1737994023,28bf87dcce8e2296cc0912f3a280fe6b,PennController,121,0,calibrator_val_no_feedback,NULL,Selector,unnamed-Selector,Selection,negative,1737993552568,undefined,821,jail,positive,negative,A,positive;negative
1737994023,28bf87dcce8e2296cc0912f3a280fe6b,PennController,121,0,calibrator_val_no_feedback,NULL,PennController,132,_Trial_,End,1737993552569,undefined,821,jail,positive,negative,A,NULL
1737994023,28bf87dcce8e2296cc0912f3a280fe6b,PennController,119,0,calibrator_val_no_feedback,NULL,PennController,130,_Trial_,Start,1737993552570,undefined,613,insecure,positive,negative,A,NULL
1737994023,28bf87dcce8e2296cc0912f3a280fe6b,PennController,119,0,calibrator_val_no_feedback,NULL,PennController,130,_Header_,Start,1737993552570,undefined,613,insecure,positive,negative,A,NULL
1737994023,28bf87dcce8e2296cc0912f3a280fe6b,PennController,119,0,calibrator_val_no_feedback,NULL,PennController,130,_Header_,End,1737993552820,undefined,613,insecure,positive,negative,A,NULL
1737994023,28bf87dcce8e2296cc0912f3a280fe6b,PennController,119,0,calibrator_val_no_feedback,NULL,Selector,unnamed-Selector,Selection,negative,1737993553935,undefined,613,insecure,positive,negative,A,positive;negative
1737994023,28bf87dcce8e2296cc0912f3a280fe6b,PennController,119,0,calibrator_val_no_feedback,NULL,PennController,130,_Trial_,End,1737993553936,undefined,613,insecure,positive,negative,A,NULL
1737994023,28bf87dcce8e2296cc0912f3a280fe6b,PennController,122,0,calibrator_val_no_feedback,NULL,PennController,133,_Trial_,Start,1737993553937,undefined,590,joke,positive,negative,A,NULL
1737994023,28bf87dcce8e2296cc0912f3a280fe6b,PennController,122,0,calibrator_val_no_feedback,NULL,PennController,133,_Header_,Start,1737993553937,undefined,590,joke,positive,negative,A,NULL
1737994023,28bf87dcce8e2296cc0912f3a280fe6b,PennController,122,0,calibrator_val_no_feedback,NULL,PennController,133,_Header_,End,1737993554189,undefined,590,joke,positive,negative,A,NULL
1737994023,28bf87dcce8e2296cc0912f3a280fe6b,PennController,122,0,calibrator_val_no_feedback,NULL,Selector,unnamed-Selector,Selection,positive,1737993555281,undefined,590,joke,positive,negative,A,positive;negative
1737994023,28bf87dcce8e2296cc0912f3a280fe6b,PennController,122,0,calibrator_val_no_feedback,NULL,PennController,133,_Trial_,End,1737993555282,undefined,590,joke,positive,negative,A,NULL
1737994023,28bf87dcce8e2296cc0912f3a280fe6b,PennController,115,0,calibrator_val_no_feedback,NULL,PennController,126,_Trial_,Start,1737993555283,undefined,530,grin,positive,negative,A,NULL
1737994023,28bf87dcce8e2296cc0912f3a280fe6b,PennController,115,0,calibrator_val_no_feedback,NULL,PennController,126,_Header_,Start,1737993555283,undefined,530,grin,positive,negative,A,NULL
1737994023,28bf87dcce8e2296cc0912f3a280fe6b,PennController,115,0,calibrator_val_no_feedback,NULL,PennController,126,_Header_,End,1737993555536,undefined,530,grin,positive,negative,A,NULL
1737994023,28bf87dcce8e2296cc0912f3a280fe6b,PennController,115,0,calibrator_val_no_feedback,NULL,Selector,unnamed-Selector,Selection,positive,1737993556569,undefined,530,grin,positive,negative,A,positive;negative
1737994023,28bf87dcce8e2296cc0912f3a280fe6b,PennController,115,0,calibrator_val_no_feedback,NULL,PennController,126,_Trial_,End,1737993556570,undefined,530,grin,positive,negative,A,NULL
1737994023,28bf87dcce8e2296cc0912f3a280fe6b,PennController,116,0,calibrator_val_no_feedback,NULL,PennController,127,_Trial_,Start,1737993556571,undefined,1112,hat,positive,negative,A,NULL
1737994023,28bf87dcce8e2296cc0912f3a280fe6b,PennController,116,0,calibrator_val_no_feedback,NULL,PennController,127,_Header_,Start,1737993556571,undefined,1112,hat,positive,negative,A,NULL
1737994023,28bf87dcce8e2296cc0912f3a280fe6b,PennController,116,0,calibrator_val_no_feedback,NULL,PennController,127,_Header_,End,1737993556821,undefined,1112,hat,positive,negative,A,NULL
1737994023,28bf87dcce8e2296cc0912f3a280fe6b,PennController,116,0,calibrator_val_no_feedback,NULL,Selector,unnamed-Selector,Selection,positive,1737993558433,undefined,1112,hat,positive,negative,A,positive;negative
1737994023,28bf87dcce8e2296cc0912f3a280fe6b,PennController,116,0,calibrator_val_no_feedback,NULL,PennController,127,_Trial_,End,1737993558435,undefined,1112,hat,positive,negative,A,NULL
1737994023,28bf87dcce8e2296cc0912f3a280fe6b,PennController,120,0,calibrator_val_no_feedback,NULL,PennController,131,_Trial_,Start,1737993558436,undefined,513,invader,positive,negative,A,NULL
1737994023,28bf87dcce8e2296cc0912f3a280fe6b,PennController,120,0,calibrator_val_no_feedback,NULL,PennController,131,_Header_,Start,1737993558436,undefined,513,invader,positive,negative,A,NULL
1737994023,28bf87dcce8e2296cc0912f3a280fe6b,PennController,120,0,calibrator_val_no_feedback,NULL,PennController,131,_Header_,End,1737993558690,undefined,513,invader,positive,negative,A,NULL
1737994023,28bf87dcce8e2296cc0912f3a280fe6b,PennController,120,0,calibrator_val_no_feedback,NULL,Selector,unnamed-Selector,Selection,negative,1737993559708,undefined,513,invader,positive,negative,A,positive;negative
1737994023,28bf87dcce8e2296cc0912f3a280fe6b,PennController,120,0,calibrator_val_no_feedback,NULL,PennController,131,_Trial_,End,1737993559708,undefined,513,invader,positive,negative,A,NULL
1737994023,28bf87dcce8e2296cc0912f3a280fe6b,PennController,117,0,calibrator_val_no_feedback,NULL,PennController,128,_Trial_,Start,1737993559709,undefined,601,icebox,positive,negative,A,NULL
1737994023,28bf87dcce8e2296cc0912f3a280fe6b,PennController,117,0,calibrator_val_no_feedback,NULL,PennController,128,_Header_,Start,1737993559709,undefined,601,icebox,positive,negative,A,NULL
1737994023,28bf87dcce8e2296cc0912f3a280fe6b,PennController,117,0,calibrator_val_no_feedback,NULL,PennController,128,_Header_,End,1737993559962,undefined,601,icebox,positive,negative,A,NULL
1737994023,28bf87dcce8e2296cc0912f3a280fe6b,PennController,117,0,calibrator_val_no_feedback,NULL,Selector,unnamed-Selector,Selection,positive,1737993561065,undefined,601,icebox,positive,negative,A,positive;negative
1737994023,28bf87dcce8e2296cc0912f3a280fe6b,PennController,117,0,calibrator_val_no_feedback,NULL,PennController,128,_Trial_,End,1737993561066,undefined,601,icebox,positive,negative,A,NULL
1737994023,28bf87dcce8e2296cc0912f3a280fe6b,PennController,114,0,calibrator_val_no_feedback,NULL,PennController,125,_Trial_,Start,1737993561067,undefined,522,free,positive,negative,A,NULL
1737994023,28bf87dcce8e2296cc0912f3a280fe6b,PennController,114,0,calibrator_val_no_feedback,NULL,PennController,125,_Header_,Start,1737993561067,undefined,522,free,positive,negative,A,NULL
1737994023,28bf87dcce8e2296cc0912f3a280fe6b,PennController,114,0,calibrator_val_no_feedback,NULL,PennController,125,_Header_,End,1737993561318,undefined,522,free,positive,negative,A,NULL
1737994023,28bf87dcce8e2296cc0912f3a280fe6b,PennController,114,0,calibrator_val_no_feedback,NULL,Selector,unnamed-Selector,Selection,positive,1737993562345,undefined,522,free,positive,negative,A,positive;negative
1737994023,28bf87dcce8e2296cc0912f3a280fe6b,PennController,114,0,calibrator_val_no_feedback,NULL,PennController,125,_Trial_,End,1737993562346,undefined,522,free,positive,negative,A,NULL
1737994023,28bf87dcce8e2296cc0912f3a280fe6b,PennController,123,0,calibrator_val_no_feedback,NULL,PennController,134,_Trial_,Start,1737993562347,undefined,629,kitten,positive,negative,A,NULL
1737994023,28bf87dcce8e2296cc0912f3a280fe6b,PennController,123,0,calibrator_val_no_feedback,NULL,PennController,134,_Header_,Start,1737993562347,undefined,629,kitten,positive,negative,A,NULL
1737994023,28bf87dcce8e2296cc0912f3a280fe6b,PennController,123,0,calibrator_val_no_feedback,NULL,PennController,134,_Header_,End,1737993562598,undefined,629,kitten,positive,negative,A,NULL
1737994023,28bf87dcce8e2296cc0912f3a280fe6b,PennController,123,0,calibrator_val_no_feedback,NULL,Selector,unnamed-Selector,Selection,positive,1737993563730,undefined,629,kitten,positive,negative,A,positive;negative
1737994023,28bf87dcce8e2296cc0912f3a280fe6b,PennController,123,0,calibrator_val_no_feedback,NULL,PennController,134,_Trial_,End,1737993563731,undefined,629,kitten,positive,negative,A,NULL
1737994023,28bf87dcce8e2296cc0912f3a280fe6b,PennController,118,0,calibrator_val_no_feedback,NULL,PennController,129,_Trial_,Start,1737993563732,undefined,612,industry,positive,negative,A,NULL
1737994023,28bf87dcce8e2296cc0912f3a280fe6b,PennController,118,0,calibrator_val_no_feedback,NULL,PennController,129,_Header_,Start,1737993563732,undefined,612,industry,positive,negative,A,NULL
1737994023,28bf87dcce8e2296cc0912f3a280fe6b,PennController,118,0,calibrator_val_no_feedback,NULL,PennController,129,_Header_,End,1737993563984,undefined,612,industry,positive,negative,A,NULL
1737994023,28bf87dcce8e2296cc0912f3a280fe6b,PennController,118,0,calibrator_val_no_feedback,NULL,Selector,unnamed-Selector,Selection,positive,1737993565098,undefined,612,industry,positive,negative,A,positive;negative
1737994023,28bf87dcce8e2296cc0912f3a280fe6b,PennController,118,0,calibrator_val_no_feedback,NULL,PennController,129,_Trial_,End,1737993565099,undefined,612,industry,positive,negative,A,NULL
# 13. Comments.
1737994023,28bf87dcce8e2296cc0912f3a280fe6b,PennController,130,0,endinstructions_val,NULL,PennController,8,_Trial_,Start,1737993565099,NULL
1737994023,28bf87dcce8e2296cc0912f3a280fe6b,PennController,130,0,endinstructions_val,NULL,PennController,8,_Header_,Start,1737993565099,NULL
1737994023,28bf87dcce8e2296cc0912f3a280fe6b,PennController,130,0,endinstructions_val,NULL,PennController,8,_Header_,End,1737993565353,NULL
1737994023,28bf87dcce8e2296cc0912f3a280fe6b,PennController,130,0,endinstructions_val,NULL,PennController,8,_Trial_,End,1737993566866,NULL
# 13. ID.
# 14. ReactionTime.
# 15. Word.
# 16. ConcValCombo.
# 17. Key_value_F.
# 18. Key_value_J.
# 19. Group.
# 20. Comments.
1737994023,28bf87dcce8e2296cc0912f3a280fe6b,PennController,62,0,test_val,NULL,PennController,73,_Trial_,Start,1737993566867,undefined,810,chocolate,concrete-positive,positive,negative,A,NULL
1737994023,28bf87dcce8e2296cc0912f3a280fe6b,PennController,62,0,test_val,NULL,PennController,73,_Header_,Start,1737993566867,undefined,810,chocolate,concrete-positive,positive,negative,A,NULL
1737994023,28bf87dcce8e2296cc0912f3a280fe6b,PennController,62,0,test_val,NULL,PennController,73,_Header_,End,1737993567119,undefined,810,chocolate,concrete-positive,positive,negative,A,NULL
1737994023,28bf87dcce8e2296cc0912f3a280fe6b,PennController,62,0,test_val,NULL,Selector,unnamed-Selector,Selection,positive,1737993568434,undefined,810,chocolate,concrete-positive,positive,negative,A,positive;negative
1737994023,28bf87dcce8e2296cc0912f3a280fe6b,PennController,62,0,test_val,NULL,PennController,73,_Trial_,End,1737993568435,undefined,810,chocolate,concrete-positive,positive,negative,A,NULL
1737994023,28bf87dcce8e2296cc0912f3a280fe6b,PennController,82,0,test_val,NULL,PennController,93,_Trial_,Start,1737993568436,undefined,651,stench,concrete-negative,positive,negative,A,NULL
1737994023,28bf87dcce8e2296cc0912f3a280fe6b,PennController,82,0,test_val,NULL,PennController,93,_Header_,Start,1737993568436,undefined,651,stench,concrete-negative,positive,negative,A,NULL
1737994023,28bf87dcce8e2296cc0912f3a280fe6b,PennController,82,0,test_val,NULL,PennController,93,_Header_,End,1737993568689,undefined,651,stench,concrete-negative,positive,negative,A,NULL
1737994023,28bf87dcce8e2296cc0912f3a280fe6b,PennController,82,0,test_val,NULL,Selector,unnamed-Selector,Selection,negative,1737993569841,undefined,651,stench,concrete-negative,positive,negative,A,positive;negative
1737994023,28bf87dcce8e2296cc0912f3a280fe6b,PennController,82,0,test_val,NULL,PennController,93,_Trial_,End,1737993569842,undefined,651,stench,concrete-negative,positive,negative,A,NULL
1737994023,28bf87dcce8e2296cc0912f3a280fe6b,PennController,60,0,test_val,NULL,PennController,71,_Trial_,Start,1737993569843,undefined,608,home,concrete-positive,positive,negative,A,NULL
1737994023,28bf87dcce8e2296cc0912f3a280fe6b,PennController,60,0,test_val,NULL,PennController,71,_Header_,Start,1737993569843,undefined,608,home,concrete-positive,positive,negative,A,NULL
1737994023,28bf87dcce8e2296cc0912f3a280fe6b,PennController,60,0,test_val,NULL,PennController,71,_Header_,End,1737993570096,undefined,608,home,concrete-positive,positive,negative,A,NULL
1737994023,28bf87dcce8e2296cc0912f3a280fe6b,PennController,60,0,test_val,NULL,Selector,unnamed-Selector,Selection,positive,1737993571209,undefined,608,home,concrete-positive,positive,negative,A,positive;negative
1737994023,28bf87dcce8e2296cc0912f3a280fe6b,PennController,60,0,test_val,NULL,PennController,71,_Trial_,End,1737993571210,undefined,608,home,concrete-positive,positive,negative,A,NULL
1737994023,28bf87dcce8e2296cc0912f3a280fe6b,PennController,81,0,test_val,NULL,PennController,92,_Trial_,Start,1737993571211,undefined,693,injury,concrete-negative,positive,negative,A,NULL
1737994023,28bf87dcce8e2296cc0912f3a280fe6b,PennController,81,0,test_val,NULL,PennController,92,_Header_,Start,1737993571211,undefined,693,injury,concrete-negative,positive,negative,A,NULL
1737994023,28bf87dcce8e2296cc0912f3a280fe6b,PennController,81,0,test_val,NULL,PennController,92,_Header_,End,1737993571462,undefined,693,injury,concrete-negative,positive,negative,A,NULL
1737994023,28bf87dcce8e2296cc0912f3a280fe6b,PennController,81,0,test_val,NULL,Selector,unnamed-Selector,Selection,negative,1737993572657,undefined,693,injury,concrete-negative,positive,negative,A,positive;negative
1737994023,28bf87dcce8e2296cc0912f3a280fe6b,PennController,81,0,test_val,NULL,PennController,92,_Trial_,End,1737993572658,undefined,693,injury,concrete-negative,positive,negative,A,NULL
1737994023,28bf87dcce8e2296cc0912f3a280fe6b,PennController,65,0,test_val,NULL,PennController,76,_Trial_,Start,1737993572658,undefined,775,hope,abstract-positive,positive,negative,A,NULL
1737994023,28bf87dcce8e2296cc0912f3a280fe6b,PennController,65,0,test_val,NULL,PennController,76,_Header_,Start,1737993572658,undefined,775,hope,abstract-positive,positive,negative,A,NULL
1737994023,28bf87dcce8e2296cc0912f3a280fe6b,PennController,65,0,test_val,NULL,PennController,76,_Header_,End,1737993572909,undefined,775,hope,abstract-positive,positive,negative,A,NULL
1737994023,28bf87dcce8e2296cc0912f3a280fe6b,PennController,65,0,test_val,NULL,Selector,unnamed-Selector,Selection,positive,1737993574185,undefined,775,hope,abstract-positive,positive,negative,A,positive;negative
1737994023,28bf87dcce8e2296cc0912f3a280fe6b,PennController,65,0,test_val,NULL,PennController,76,_Trial_,End,1737993574187,undefined,775,hope,abstract-positive,positive,negative,A,NULL
1737994023,28bf87dcce8e2296cc0912f3a280fe6b,PennController,76,0,test_val,NULL,PennController,87,_Trial_,Start,1737993574187,undefined,948,mud,concrete-negative,positive,negative,A,NULL
1737994023,28bf87dcce8e2296cc0912f3a280fe6b,PennController,76,0,test_val,NULL,PennController,87,_Header_,Start,1737993574187,undefined,948,mud,concrete-negative,positive,negative,A,NULL
1737994023,28bf87dcce8e2296cc0912f3a280fe6b,PennController,76,0,test_val,NULL,PennController,87,_Header_,End,1737993574438,undefined,948,mud,concrete-negative,positive,negative,A,NULL
1737994023,28bf87dcce8e2296cc0912f3a280fe6b,PennController,76,0,test_val,NULL,Selector,unnamed-Selector,Selection,positive,1737993575887,undefined,948,mud,concrete-negative,positive,negative,A,positive;negative
1737994023,28bf87dcce8e2296cc0912f3a280fe6b,PennController,76,0,test_val,NULL,PennController,87,_Trial_,End,1737993575888,undefined,948,mud,concrete-negative,positive,negative,A,NULL
1737994023,28bf87dcce8e2296cc0912f3a280fe6b,PennController,47,0,test_val,NULL,PennController,58,_Trial_,Start,1737993575889,undefined,813,despair,abstract-negative,positive,negative,A,NULL
1737994023,28bf87dcce8e2296cc0912f3a280fe6b,PennController,47,0,test_val,NULL,PennController,58,_Header_,Start,1737993575889,undefined,813,despair,abstract-negative,positive,negative,A,NULL
1737994023,28bf87dcce8e2296cc0912f3a280fe6b,PennController,47,0,test_val,NULL,PennController,58,_Header_,End,1737993576142,undefined,813,despair,abstract-negative,positive,negative,A,NULL
1737994023,28bf87dcce8e2296cc0912f3a280fe6b,PennController,47,0,test_val,NULL,Selector,unnamed-Selector,Selection,negative,1737993577457,undefined,813,despair,abstract-negative,positive,negative,A,positive;negative
1737994023,28bf87dcce8e2296cc0912f3a280fe6b,PennController,47,0,test_val,NULL,PennController,58,_Trial_,End,1737993577458,undefined,813,despair,abstract-negative,positive,negative,A,NULL
1737994023,28bf87dcce8e2296cc0912f3a280fe6b,PennController,54,0,test_val,NULL,PennController,65,_Trial_,Start,1737993577459,undefined,675,sunshine,concrete-positive,positive,negative,A,NULL
1737994023,28bf87dcce8e2296cc0912f3a280fe6b,PennController,54,0,test_val,NULL,PennController,65,_Header_,Start,1737993577459,undefined,675,sunshine,concrete-positive,positive,negative,A,NULL
1737994023,28bf87dcce8e2296cc0912f3a280fe6b,PennController,54,0,test_val,NULL,PennController,65,_Header_,End,1737993577711,undefined,675,sunshine,concrete-positive,positive,negative,A,NULL
1737994023,28bf87dcce8e2296cc0912f3a280fe6b,PennController,54,0,test_val,NULL,Selector,unnamed-Selector,Selection,positive,1737993578887,undefined,675,sunshine,concrete-positive,positive,negative,A,positive;negative
1737994023,28bf87dcce8e2296cc0912f3a280fe6b,PennController,54,0,test_val,NULL,PennController,65,_Trial_,End,1737993578888,undefined,675,sunshine,concrete-positive,positive,negative,A,NULL
1737994023,28bf87dcce8e2296cc0912f3a280fe6b,PennController,69,0,test_val,NULL,PennController,80,_Trial_,Start,1737993578889,undefined,473,kindness,abstract-positive,positive,negative,A,NULL
1737994023,28bf87dcce8e2296cc0912f3a280fe6b,PennController,69,0,test_val,NULL,PennController,80,_Header_,Start,1737993578889,undefined,473,kindness,abstract-positive,positive,negative,A,NULL
1737994023,28bf87dcce8e2296cc0912f3a280fe6b,PennController,69,0,test_val,NULL,PennController,80,_Header_,End,1737993579143,undefined,473,kindness,abstract-positive,positive,negative,A,NULL
1737994023,28bf87dcce8e2296cc0912f3a280fe6b,PennController,69,0,test_val,NULL,Selector,unnamed-Selector,Selection,positive,1737993580119,undefined,473,kindness,abstract-positive,positive,negative,A,positive;negative
1737994023,28bf87dcce8e2296cc0912f3a280fe6b,PennController,69,0,test_val,NULL,PennController,80,_Trial_,End,1737993580121,undefined,473,kindness,abstract-positive,positive,negative,A,NULL
1737994023,28bf87dcce8e2296cc0912f3a280fe6b,PennController,44,0,test_val,NULL,PennController,55,_Trial_,Start,1737993580122,undefined,723,lonliness,abstract-negative,positive,negative,A,NULL
1737994023,28bf87dcce8e2296cc0912f3a280fe6b,PennController,44,0,test_val,NULL,PennController,55,_Header_,Start,1737993580122,undefined,723,lonliness,abstract-negative,positive,negative,A,NULL
1737994023,28bf87dcce8e2296cc0912f3a280fe6b,PennController,44,0,test_val,NULL,PennController,55,_Header_,End,1737993580374,undefined,723,lonliness,abstract-negative,positive,negative,A,NULL
1737994023,28bf87dcce8e2296cc0912f3a280fe6b,PennController,44,0,test_val,NULL,Selector,unnamed-Selector,Selection,negative,1737993581601,undefined,723,lonliness,abstract-negative,positive,negative,A,positive;negative
1737994023,28bf87dcce8e2296cc0912f3a280fe6b,PennController,44,0,test_val,NULL,PennController,55,_Trial_,End,1737993581602,undefined,723,lonliness,abstract-negative,positive,negative,A,NULL
1737994023,28bf87dcce8e2296cc0912f3a280fe6b,PennController,46,0,test_val,NULL,PennController,57,_Trial_,Start,1737993581602,undefined,975,anxiety,abstract-negative,positive,negative,A,NULL
1737994023,28bf87dcce8e2296cc0912f3a280fe6b,PennController,46,0,test_val,NULL,PennController,57,_Header_,Start,1737993581602,undefined,975,anxiety,abstract-negative,positive,negative,A,NULL
1737994023,28bf87dcce8e2296cc0912f3a280fe6b,PennController,46,0,test_val,NULL,PennController,57,_Header_,End,1737993581852,undefined,975,anxiety,abstract-negative,positive,negative,A,NULL
1737994023,28bf87dcce8e2296cc0912f3a280fe6b,PennController,46,0,test_val,NULL,Selector,unnamed-Selector,Selection,negative,1737993583332,undefined,975,anxiety,abstract-negative,positive,negative,A,positive;negative
1737994023,28bf87dcce8e2296cc0912f3a280fe6b,PennController,46,0,test_val,NULL,PennController,57,_Trial_,End,1737993583333,undefined,975,anxiety,abstract-negative,positive,negative,A,NULL
1737994023,28bf87dcce8e2296cc0912f3a280fe6b,PennController,49,0,test_val,NULL,PennController,60,_Trial_,Start,1737993583334,undefined,669,grief,abstract-negative,positive,negative,A,NULL
1737994023,28bf87dcce8e2296cc0912f3a280fe6b,PennController,49,0,test_val,NULL,PennController,60,_Header_,Start,1737993583334,undefined,669,grief,abstract-negative,positive,negative,A,NULL
1737994023,28bf87dcce8e2296cc0912f3a280fe6b,PennController,49,0,test_val,NULL,PennController,60,_Header_,End,1737993583586,undefined,669,grief,abstract-negative,positive,negative,A,NULL
1737994023,28bf87dcce8e2296cc0912f3a280fe6b,PennController,49,0,test_val,NULL,Selector,unnamed-Selector,Selection,negative,1737993584761,undefined,669,grief,abstract-negative,positive,negative,A,positive;negative
1737994023,28bf87dcce8e2296cc0912f3a280fe6b,PennController,49,0,test_val,NULL,PennController,60,_Trial_,End,1737993584762,undefined,669,grief,abstract-negative,positive,negative,A,NULL
1737994023,28bf87dcce8e2296cc0912f3a280fe6b,PennController,57,0,test_val,NULL,PennController,68,_Trial_,Start,1737993584763,undefined,1059,music,concrete-positive,positive,negative,A,NULL
1737994023,28bf87dcce8e2296cc0912f3a280fe6b,PennController,57,0,test_val,NULL,PennController,68,_Header_,Start,1737993584763,undefined,1059,music,concrete-positive,positive,negative,A,NULL
1737994023,28bf87dcce8e2296cc0912f3a280fe6b,PennController,57,0,test_val,NULL,PennController,68,_Header_,End,1737993585015,undefined,1059,music,concrete-positive,positive,negative,A,NULL
1737994023,28bf87dcce8e2296cc0912f3a280fe6b,PennController,57,0,test_val,NULL,Selector,unnamed-Selector,Selection,positive,1737993586577,undefined,1059,music,concrete-positive,positive,negative,A,positive;negative
1737994023,28bf87dcce8e2296cc0912f3a280fe6b,PennController,57,0,test_val,NULL,PennController,68,_Trial_,End,1737993586578,undefined,1059,music,concrete-positive,positive,negative,A,NULL
1737994023,28bf87dcce8e2296cc0912f3a280fe6b,PennController,56,0,test_val,NULL,PennController,67,_Trial_,Start,1737993586579,undefined,559,flowers,concrete-positive,positive,negative,A,NULL
1737994023,28bf87dcce8e2296cc0912f3a280fe6b,PennController,56,0,test_val,NULL,PennController,67,_Header_,Start,1737993586579,undefined,559,flowers,concrete-positive,positive,negative,A,NULL
1737994023,28bf87dcce8e2296cc0912f3a280fe6b,PennController,56,0,test_val,NULL,PennController,67,_Header_,End,1737993586832,undefined,559,flowers,concrete-positive,positive,negative,A,NULL
1737994023,28bf87dcce8e2296cc0912f3a280fe6b,PennController,56,0,test_val,NULL,Selector,unnamed-Selector,Selection,positive,1737993587895,undefined,559,flowers,concrete-positive,positive,negative,A,positive;negative
1737994023,28bf87dcce8e2296cc0912f3a280fe6b,PennController,56,0,test_val,NULL,PennController,67,_Trial_,End,1737993587897,undefined,559,flowers,concrete-positive,positive,negative,A,NULL
1737994023,28bf87dcce8e2296cc0912f3a280fe6b,PennController,45,0,test_val,NULL,PennController,56,_Trial_,Start,1737993587897,undefined,667,regret,abstract-negative,positive,negative,A,NULL
1737994023,28bf87dcce8e2296cc0912f3a280fe6b,PennController,45,0,test_val,NULL,PennController,56,_Header_,Start,1737993587897,undefined,667,regret,abstract-negative,positive,negative,A,NULL
1737994023,28bf87dcce8e2296cc0912f3a280fe6b,PennController,45,0,test_val,NULL,PennController,56,_Header_,End,1737993588147,undefined,667,regret,abstract-negative,positive,negative,A,NULL
1737994023,28bf87dcce8e2296cc0912f3a280fe6b,PennController,45,0,test_val,NULL,Selector,unnamed-Selector,Selection,negative,1737993589321,undefined,667,regret,abstract-negative,positive,negative,A,positive;negative
1737994023,28bf87dcce8e2296cc0912f3a280fe6b,PennController,45,0,test_val,NULL,PennController,56,_Trial_,End,1737993589322,undefined,667,regret,abstract-negative,positive,negative,A,NULL
1737994023,28bf87dcce8e2296cc0912f3a280fe6b,PennController,78,0,test_val,NULL,PennController,89,_Trial_,Start,1737993589324,undefined,806,garbage,concrete-negative,positive,negative,A,NULL
1737994023,28bf87dcce8e2296cc0912f3a280fe6b,PennController,78,0,test_val,NULL,PennController,89,_Header_,Start,1737993589324,undefined,806,garbage,concrete-negative,positive,negative,A,NULL
1737994023,28bf87dcce8e2296cc0912f3a280fe6b,PennController,78,0,test_val,NULL,PennController,89,_Header_,End,1737993589574,undefined,806,garbage,concrete-negative,positive,negative,A,NULL
1737994023,28bf87dcce8e2296cc0912f3a280fe6b,PennController,78,0,test_val,NULL,Selector,unnamed-Selector,Selection,negative,1737993590881,undefined,806,garbage,concrete-negative,positive,negative,A,positive;negative
1737994023,28bf87dcce8e2296cc0912f3a280fe6b,PennController,78,0,test_val,NULL,PennController,89,_Trial_,End,1737993590882,undefined,806,garbage,concrete-negative,positive,negative,A,NULL
1737994023,28bf87dcce8e2296cc0912f3a280fe6b,PennController,73,0,test_val,NULL,PennController,84,_Trial_,Start,1737993590883,undefined,677,inspiration,abstract-positive,positive,negative,A,NULL
1737994023,28bf87dcce8e2296cc0912f3a280fe6b,PennController,73,0,test_val,NULL,PennController,84,_Header_,Start,1737993590883,undefined,677,inspiration,abstract-positive,positive,negative,A,NULL
1737994023,28bf87dcce8e2296cc0912f3a280fe6b,PennController,73,0,test_val,NULL,PennController,84,_Header_,End,1737993591136,undefined,677,inspiration,abstract-positive,positive,negative,A,NULL
1737994023,28bf87dcce8e2296cc0912f3a280fe6b,PennController,73,0,test_val,NULL,Selector,unnamed-Selector,Selection,positive,1737993592313,undefined,677,inspiration,abstract-positive,positive,negative,A,positive;negative
1737994023,28bf87dcce8e2296cc0912f3a280fe6b,PennController,73,0,test_val,NULL,PennController,84,_Trial_,End,1737993592314,undefined,677,inspiration,abstract-positive,positive,negative,A,NULL
1737994023,28bf87dcce8e2296cc0912f3a280fe6b,PennController,59,0,test_val,NULL,PennController,70,_Trial_,Start,1737993592315,undefined,866,hug,concrete-positive,positive,negative,A,NULL
1737994023,28bf87dcce8e2296cc0912f3a280fe6b,PennController,59,0,test_val,NULL,PennController,70,_Header_,Start,1737993592315,undefined,866,hug,concrete-positive,positive,negative,A,NULL
1737994023,28bf87dcce8e2296cc0912f3a280fe6b,PennController,59,0,test_val,NULL,PennController,70,_Header_,End,1737993592567,undefined,866,hug,concrete-positive,positive,negative,A,NULL
1737994023,28bf87dcce8e2296cc0912f3a280fe6b,PennController,59,0,test_val,NULL,Selector,unnamed-Selector,Selection,positive,1737993593935,undefined,866,hug,concrete-positive,positive,negative,A,positive;negative
1737994023,28bf87dcce8e2296cc0912f3a280fe6b,PennController,59,0,test_val,NULL,PennController,70,_Trial_,End,1737993593936,undefined,866,hug,concrete-positive,positive,negative,A,NULL
1737994023,28bf87dcce8e2296cc0912f3a280fe6b,PennController,80,0,test_val,NULL,PennController,91,_Trial_,Start,1737993593937,undefined,645,mold,concrete-negative,positive,negative,A,NULL
1737994023,28bf87dcce8e2296cc0912f3a280fe6b,PennController,80,0,test_val,NULL,PennController,91,_Header_,Start,1737993593937,undefined,645,mold,concrete-negative,positive,negative,A,NULL
1737994023,28bf87dcce8e2296cc0912f3a280fe6b,PennController,80,0,test_val,NULL,PennController,91,_Header_,End,1737993594189,undefined,645,mold,concrete-negative,positive,negative,A,NULL
1737994023,28bf87dcce8e2296cc0912f3a280fe6b,PennController,80,0,test_val,NULL,Selector,unnamed-Selector,Selection,negative,1737993595338,undefined,645,mold,concrete-negative,positive,negative,A,positive;negative
1737994023,28bf87dcce8e2296cc0912f3a280fe6b,PennController,80,0,test_val,NULL,PennController,91,_Trial_,End,1737993595339,undefined,645,mold,concrete-negative,positive,negative,A,NULL
1737994023,28bf87dcce8e2296cc0912f3a280fe6b,PennController,63,0,test_val,NULL,PennController,74,_Trial_,Start,1737993595340,undefined,1618,fireplace,concrete-positive,positive,negative,A,NULL
1737994023,28bf87dcce8e2296cc0912f3a280fe6b,PennController,63,0,test_val,NULL,PennController,74,_Header_,Start,1737993595340,undefined,1618,fireplace,concrete-positive,positive,negative,A,NULL
1737994023,28bf87dcce8e2296cc0912f3a280fe6b,PennController,63,0,test_val,NULL,PennController,74,_Header_,End,1737993595594,undefined,1618,fireplace,concrete-positive,positive,negative,A,NULL
1737994023,28bf87dcce8e2296cc0912f3a280fe6b,PennController,63,0,test_val,NULL,Selector,unnamed-Selector,Selection,positive,1737993597714,undefined,1618,fireplace,concrete-positive,positive,negative,A,positive;negative
1737994023,28bf87dcce8e2296cc0912f3a280fe6b,PennController,63,0,test_val,NULL,PennController,74,_Trial_,End,1737993597715,undefined,1618,fireplace,concrete-positive,positive,negative,A,NULL
1737994023,28bf87dcce8e2296cc0912f3a280fe6b,PennController,75,0,test_val,NULL,PennController,86,_Trial_,Start,1737993597715,undefined,576,rot,concrete-negative,positive,negative,A,NULL
1737994023,28bf87dcce8e2296cc0912f3a280fe6b,PennController,75,0,test_val,NULL,PennController,86,_Header_,Start,1737993597715,undefined,576,rot,concrete-negative,positive,negative,A,NULL
1737994023,28bf87dcce8e2296cc0912f3a280fe6b,PennController,75,0,test_val,NULL,PennController,86,_Header_,End,1737993597970,undefined,576,rot,concrete-negative,positive,negative,A,NULL
1737994023,28bf87dcce8e2296cc0912f3a280fe6b,PennController,75,0,test_val,NULL,Selector,unnamed-Selector,Selection,negative,1737993599047,undefined,576,rot,concrete-negative,positive,negative,A,positive;negative
1737994023,28bf87dcce8e2296cc0912f3a280fe6b,PennController,75,0,test_val,NULL,PennController,86,_Trial_,End,1737993599048,undefined,576,rot,concrete-negative,positive,negative,A,NULL
1737994023,28bf87dcce8e2296cc0912f3a280fe6b,PennController,55,0,test_val,NULL,PennController,66,_Trial_,Start,1737993599049,undefined,506,laughter,concrete-positive,positive,negative,A,NULL
1737994023,28bf87dcce8e2296cc0912f3a280fe6b,PennController,55,0,test_val,NULL,PennController,66,_Header_,Start,1737993599049,undefined,506,laughter,concrete-positive,positive,negative,A,NULL
1737994023,28bf87dcce8e2296cc0912f3a280fe6b,PennController,55,0,test_val,NULL,PennController,66,_Header_,End,1737993599299,undefined,506,laughter,concrete-positive,positive,negative,A,NULL
1737994023,28bf87dcce8e2296cc0912f3a280fe6b,PennController,55,0,test_val,NULL,Selector,unnamed-Selector,Selection,positive,1737993600311,undefined,506,laughter,concrete-positive,positive,negative,A,positive;negative
1737994023,28bf87dcce8e2296cc0912f3a280fe6b,PennController,55,0,test_val,NULL,PennController,66,_Trial_,End,1737993600312,undefined,506,laughter,concrete-positive,positive,negative,A,NULL
1737994023,28bf87dcce8e2296cc0912f3a280fe6b,PennController,74,0,test_val,NULL,PennController,85,_Trial_,Start,1737993600312,undefined,2722,smoke,concrete-negative,positive,negative,A,NULL
1737994023,28bf87dcce8e2296cc0912f3a280fe6b,PennController,74,0,test_val,NULL,PennController,85,_Header_,Start,1737993600313,undefined,2722,smoke,concrete-negative,positive,negative,A,NULL
1737994023,28bf87dcce8e2296cc0912f3a280fe6b,PennController,74,0,test_val,NULL,PennController,85,_Header_,End,1737993600567,undefined,2722,smoke,concrete-negative,positive,negative,A,NULL
1737994023,28bf87dcce8e2296cc0912f3a280fe6b,PennController,74,0,test_val,NULL,Selector,unnamed-Selector,Selection,negative,1737993603791,undefined,2722,smoke,concrete-negative,positive,negative,A,positive;negative
1737994023,28bf87dcce8e2296cc0912f3a280fe6b,PennController,74,0,test_val,NULL,PennController,85,_Trial_,End,1737993603792,undefined,2722,smoke,concrete-negative,positive,negative,A,NULL
1737994023,28bf87dcce8e2296cc0912f3a280fe6b,PennController,66,0,test_val,NULL,PennController,77,_Trial_,Start,1737993603793,undefined,618,joy,abstract-positive,positive,negative,A,NULL
1737994023,28bf87dcce8e2296cc0912f3a280fe6b,PennController,66,0,test_val,NULL,PennController,77,_Header_,Start,1737993603793,undefined,618,joy,abstract-positive,positive,negative,A,NULL
1737994023,28bf87dcce8e2296cc0912f3a280fe6b,PennController,66,0,test_val,NULL,PennController,77,_Header_,End,1737993604044,undefined,618,joy,abstract-positive,positive,negative,A,NULL
1737994023,28bf87dcce8e2296cc0912f3a280fe6b,PennController,66,0,test_val,NULL,Selector,unnamed-Selector,Selection,positive,1737993605164,undefined,618,joy,abstract-positive,positive,negative,A,positive;negative
1737994023,28bf87dcce8e2296cc0912f3a280fe6b,PennController,66,0,test_val,NULL,PennController,77,_Trial_,End,1737993605164,undefined,618,joy,abstract-positive,positive,negative,A,NULL
1737994023,28bf87dcce8e2296cc0912f3a280fe6b,PennController,79,0,test_val,NULL,PennController,90,_Trial_,Start,1737993605165,undefined,1403,rust,concrete-negative,positive,negative,A,NULL
1737994023,28bf87dcce8e2296cc0912f3a280fe6b,PennController,79,0,test_val,NULL,PennController,90,_Header_,Start,1737993605165,undefined,1403,rust,concrete-negative,positive,negative,A,NULL
1737994023,28bf87dcce8e2296cc0912f3a280fe6b,PennController,79,0,test_val,NULL,PennController,90,_Header_,End,1737993605419,undefined,1403,rust,concrete-negative,positive,negative,A,NULL
1737994023,28bf87dcce8e2296cc0912f3a280fe6b,PennController,79,0,test_val,NULL,Selector,unnamed-Selector,Selection,negative,1737993607322,undefined,1403,rust,concrete-negative,positive,negative,A,positive;negative
1737994023,28bf87dcce8e2296cc0912f3a280fe6b,PennController,79,0,test_val,NULL,PennController,90,_Trial_,End,1737993607323,undefined,1403,rust,concrete-negative,positive,negative,A,NULL
1737994023,28bf87dcce8e2296cc0912f3a280fe6b,PennController,50,0,test_val,NULL,PennController,61,_Trial_,Start,1737993607324,undefined,777,resentment,abstract-negative,positive,negative,A,NULL
1737994023,28bf87dcce8e2296cc0912f3a280fe6b,PennController,50,0,test_val,NULL,PennController,61,_Header_,Start,1737993607324,undefined,777,resentment,abstract-negative,positive,negative,A,NULL
1737994023,28bf87dcce8e2296cc0912f3a280fe6b,PennController,50,0,test_val,NULL,PennController,61,_Header_,End,1737993607574,undefined,777,resentment,abstract-negative,positive,negative,A,NULL
1737994023,28bf87dcce8e2296cc0912f3a280fe6b,PennController,50,0,test_val,NULL,Selector,unnamed-Selector,Selection,negative,1737993608856,undefined,777,resentment,abstract-negative,positive,negative,A,positive;negative
1737994023,28bf87dcce8e2296cc0912f3a280fe6b,PennController,50,0,test_val,NULL,PennController,61,_Trial_,End,1737993608857,undefined,777,resentment,abstract-negative,positive,negative,A,NULL
1737994023,28bf87dcce8e2296cc0912f3a280fe6b,PennController,53,0,test_val,NULL,PennController,64,_Trial_,Start,1737993608858,undefined,511,envy,abstract-negative,positive,negative,A,NULL
1737994023,28bf87dcce8e2296cc0912f3a280fe6b,PennController,53,0,test_val,NULL,PennController,64,_Header_,Start,1737993608858,undefined,511,envy,abstract-negative,positive,negative,A,NULL
1737994023,28bf87dcce8e2296cc0912f3a280fe6b,PennController,53,0,test_val,NULL,PennController,64,_Header_,End,1737993609111,undefined,511,envy,abstract-negative,positive,negative,A,NULL
1737994023,28bf87dcce8e2296cc0912f3a280fe6b,PennController,53,0,test_val,NULL,Selector,unnamed-Selector,Selection,negative,1737993610123,undefined,511,envy,abstract-negative,positive,negative,A,positive;negative
1737994023,28bf87dcce8e2296cc0912f3a280fe6b,PennController,53,0,test_val,NULL,PennController,64,_Trial_,End,1737993610124,undefined,511,envy,abstract-negative,positive,negative,A,NULL
1737994023,28bf87dcce8e2296cc0912f3a280fe6b,PennController,52,0,test_val,NULL,PennController,63,_Trial_,Start,1737993610125,undefined,738,shame,abstract-negative,positive,negative,A,NULL
1737994023,28bf87dcce8e2296cc0912f3a280fe6b,PennController,52,0,test_val,NULL,PennController,63,_Header_,Start,1737993610125,undefined,738,shame,abstract-negative,positive,negative,A,NULL
1737994023,28bf87dcce8e2296cc0912f3a280fe6b,PennController,52,0,test_val,NULL,PennController,63,_Header_,End,1737993610375,undefined,738,shame,abstract-negative,positive,negative,A,NULL
1737994023,28bf87dcce8e2296cc0912f3a280fe6b,PennController,52,0,test_val,NULL,Selector,unnamed-Selector,Selection,negative,1737993611618,undefined,738,shame,abstract-negative,positive,negative,A,positive;negative
1737994023,28bf87dcce8e2296cc0912f3a280fe6b,PennController,52,0,test_val,NULL,PennController,63,_Trial_,End,1737993611619,undefined,738,shame,abstract-negative,positive,negative,A,NULL
1737994023,28bf87dcce8e2296cc0912f3a280fe6b,PennController,71,0,test_val,NULL,PennController,82,_Trial_,Start,1737993611619,undefined,529,compassion,abstract-positive,positive,negative,A,NULL
1737994023,28bf87dcce8e2296cc0912f3a280fe6b,PennController,71,0,test_val,NULL,PennController,82,_Header_,Start,1737993611619,undefined,529,compassion,abstract-positive,positive,negative,A,NULL
1737994023,28bf87dcce8e2296cc0912f3a280fe6b,PennController,71,0,test_val,NULL,PennController,82,_Header_,End,1737993611872,undefined,529,compassion,abstract-positive,positive,negative,A,NULL
1737994023,28bf87dcce8e2296cc0912f3a280fe6b,PennController,71,0,test_val,NULL,Selector,unnamed-Selector,Selection,positive,1737993612905,undefined,529,compassion,abstract-positive,positive,negative,A,positive;negative
1737994023,28bf87dcce8e2296cc0912f3a280fe6b,PennController,71,0,test_val,NULL,PennController,82,_Trial_,End,1737993612906,undefined,529,compassion,abstract-positive,positive,negative,A,NULL
1737994023,28bf87dcce8e2296cc0912f3a280fe6b,PennController,58,0,test_val,NULL,PennController,69,_Trial_,Start,1737993612907,undefined,602,beach,concrete-positive,positive,negative,A,NULL
1737994023,28bf87dcce8e2296cc0912f3a280fe6b,PennController,58,0,test_val,NULL,PennController,69,_Header_,Start,1737993612907,undefined,602,beach,concrete-positive,positive,negative,A,NULL
1737994023,28bf87dcce8e2296cc0912f3a280fe6b,PennController,58,0,test_val,NULL,PennController,69,_Header_,End,1737993613159,undefined,602,beach,concrete-positive,positive,negative,A,NULL
1737994023,28bf87dcce8e2296cc0912f3a280fe6b,PennController,58,0,test_val,NULL,Selector,unnamed-Selector,Selection,positive,1737993614265,undefined,602,beach,concrete-positive,positive,negative,A,positive;negative
1737994023,28bf87dcce8e2296cc0912f3a280fe6b,PennController,58,0,test_val,NULL,PennController,69,_Trial_,End,1737993614266,undefined,602,beach,concrete-positive,positive,negative,A,NULL
1737994023,28bf87dcce8e2296cc0912f3a280fe6b,PennController,77,0,test_val,NULL,PennController,88,_Trial_,Start,1737993614267,undefined,652,vomit,concrete-negative,positive,negative,A,NULL
1737994023,28bf87dcce8e2296cc0912f3a280fe6b,PennController,77,0,test_val,NULL,PennController,88,_Header_,Start,1737993614267,undefined,652,vomit,concrete-negative,positive,negative,A,NULL
1737994023,28bf87dcce8e2296cc0912f3a280fe6b,PennController,77,0,test_val,NULL,PennController,88,_Header_,End,1737993614519,undefined,652,vomit,concrete-negative,positive,negative,A,NULL
1737994023,28bf87dcce8e2296cc0912f3a280fe6b,PennController,77,0,test_val,NULL,Selector,unnamed-Selector,Selection,negative,1737993615674,undefined,652,vomit,concrete-negative,positive,negative,A,positive;negative
1737994023,28bf87dcce8e2296cc0912f3a280fe6b,PennController,77,0,test_val,NULL,PennController,88,_Trial_,End,1737993615675,undefined,652,vomit,concrete-negative,positive,negative,A,NULL
1737994023,28bf87dcce8e2296cc0912f3a280fe6b,PennController,51,0,test_val,NULL,PennController,62,_Trial_,Start,1737993615676,undefined,642,failure,abstract-negative,positive,negative,A,NULL
1737994023,28bf87dcce8e2296cc0912f3a280fe6b,PennController,51,0,test_val,NULL,PennController,62,_Header_,Start,1737993615676,undefined,642,failure,abstract-negative,positive,negative,A,NULL
1737994023,28bf87dcce8e2296cc0912f3a280fe6b,PennController,51,0,test_val,NULL,PennController,62,_Header_,End,1737993615930,undefined,642,failure,abstract-negative,positive,negative,A,NULL
1737994023,28bf87dcce8e2296cc0912f3a280fe6b,PennController,51,0,test_val,NULL,Selector,unnamed-Selector,Selection,negative,1737993617074,undefined,642,failure,abstract-negative,positive,negative,A,positive;negative
1737994023,28bf87dcce8e2296cc0912f3a280fe6b,PennController,51,0,test_val,NULL,PennController,62,_Trial_,End,1737993617075,undefined,642,failure,abstract-negative,positive,negative,A,NULL
1737994023,28bf87dcce8e2296cc0912f3a280fe6b,PennController,70,0,test_val,NULL,PennController,81,_Trial_,Start,1737993617075,undefined,493,happiness,abstract-positive,positive,negative,A,NULL
1737994023,28bf87dcce8e2296cc0912f3a280fe6b,PennController,70,0,test_val,NULL,PennController,81,_Header_,Start,1737993617075,undefined,493,happiness,abstract-positive,positive,negative,A,NULL
1737994023,28bf87dcce8e2296cc0912f3a280fe6b,PennController,70,0,test_val,NULL,PennController,81,_Header_,End,1737993617326,undefined,493,happiness,abstract-positive,positive,negative,A,NULL
1737994023,28bf87dcce8e2296cc0912f3a280fe6b,PennController,70,0,test_val,NULL,Selector,unnamed-Selector,Selection,positive,1737993618321,undefined,493,happiness,abstract-positive,positive,negative,A,positive;negative
1737994023,28bf87dcce8e2296cc0912f3a280fe6b,PennController,70,0,test_val,NULL,PennController,81,_Trial_,End,1737993618322,undefined,493,happiness,abstract-positive,positive,negative,A,NULL
1737994023,28bf87dcce8e2296cc0912f3a280fe6b,PennController,64,0,test_val,NULL,PennController,75,_Trial_,Start,1737993618323,undefined,1010,love,abstract-positive,positive,negative,A,NULL
1737994023,28bf87dcce8e2296cc0912f3a280fe6b,PennController,64,0,test_val,NULL,PennController,75,_Header_,Start,1737993618323,undefined,1010,love,abstract-positive,positive,negative,A,NULL
1737994023,28bf87dcce8e2296cc0912f3a280fe6b,PennController,64,0,test_val,NULL,PennController,75,_Header_,End,1737993618576,undefined,1010,love,abstract-positive,positive,negative,A,NULL
1737994023,28bf87dcce8e2296cc0912f3a280fe6b,PennController,64,0,test_val,NULL,Selector,unnamed-Selector,Selection,positive,1737993620090,undefined,1010,love,abstract-positive,positive,negative,A,positive;negative
1737994023,28bf87dcce8e2296cc0912f3a280fe6b,PennController,64,0,test_val,NULL,PennController,75,_Trial_,End,1737993620091,undefined,1010,love,abstract-positive,positive,negative,A,NULL
1737994023,28bf87dcce8e2296cc0912f3a280fe6b,PennController,48,0,test_val,NULL,PennController,59,_Trial_,Start,1737993620092,undefined,867,guilt,abstract-negative,positive,negative,A,NULL
1737994023,28bf87dcce8e2296cc0912f3a280fe6b,PennController,48,0,test_val,NULL,PennController,59,_Header_,Start,1737993620092,undefined,867,guilt,abstract-negative,positive,negative,A,NULL
1737994023,28bf87dcce8e2296cc0912f3a280fe6b,PennController,48,0,test_val,NULL,PennController,59,_Header_,End,1737993620344,undefined,867,guilt,abstract-negative,positive,negative,A,NULL
1737994023,28bf87dcce8e2296cc0912f3a280fe6b,PennController,48,0,test_val,NULL,Selector,unnamed-Selector,Selection,negative,1737993621714,undefined,867,guilt,abstract-negative,positive,negative,A,positive;negative
1737994023,28bf87dcce8e2296cc0912f3a280fe6b,PennController,48,0,test_val,NULL,PennController,59,_Trial_,End,1737993621715,undefined,867,guilt,abstract-negative,positive,negative,A,NULL
1737994023,28bf87dcce8e2296cc0912f3a280fe6b,PennController,72,0,test_val,NULL,PennController,83,_Trial_,Start,1737993621715,undefined,970,gratitude,abstract-positive,positive,negative,A,NULL
1737994023,28bf87dcce8e2296cc0912f3a280fe6b,PennController,72,0,test_val,NULL,PennController,83,_Header_,Start,1737993621715,undefined,970,gratitude,abstract-positive,positive,negative,A,NULL
1737994023,28bf87dcce8e2296cc0912f3a280fe6b,PennController,72,0,test_val,NULL,PennController,83,_Header_,End,1737993621966,undefined,970,gratitude,abstract-positive,positive,negative,A,NULL
1737994023,28bf87dcce8e2296cc0912f3a280fe6b,PennController,72,0,test_val,NULL,Selector,unnamed-Selector,Selection,positive,1737993623441,undefined,970,gratitude,abstract-positive,positive,negative,A,positive;negative
1737994023,28bf87dcce8e2296cc0912f3a280fe6b,PennController,72,0,test_val,NULL,PennController,83,_Trial_,End,1737993623442,undefined,970,gratitude,abstract-positive,positive,negative,A,NULL
1737994023,28bf87dcce8e2296cc0912f3a280fe6b,PennController,68,0,test_val,NULL,PennController,79,_Trial_,Start,1737993623443,undefined,608,freedom,abstract-positive,positive,negative,A,NULL
1737994023,28bf87dcce8e2296cc0912f3a280fe6b,PennController,68,0,test_val,NULL,PennController,79,_Header_,Start,1737993623443,undefined,608,freedom,abstract-positive,positive,negative,A,NULL
1737994023,28bf87dcce8e2296cc0912f3a280fe6b,PennController,68,0,test_val,NULL,PennController,79,_Header_,End,1737993623695,undefined,608,freedom,abstract-positive,positive,negative,A,NULL
1737994023,28bf87dcce8e2296cc0912f3a280fe6b,PennController,68,0,test_val,NULL,Selector,unnamed-Selector,Selection,positive,1737993624808,undefined,608,freedom,abstract-positive,positive,negative,A,positive;negative
1737994023,28bf87dcce8e2296cc0912f3a280fe6b,PennController,68,0,test_val,NULL,PennController,79,_Trial_,End,1737993624809,undefined,608,freedom,abstract-positive,positive,negative,A,NULL
1737994023,28bf87dcce8e2296cc0912f3a280fe6b,PennController,61,0,test_val,NULL,PennController,72,_Trial_,Start,1737993624810,undefined,576,rain,concrete-positive,positive,negative,A,NULL
1737994023,28bf87dcce8e2296cc0912f3a280fe6b,PennController,61,0,test_val,NULL,PennController,72,_Header_,Start,1737993624810,undefined,576,rain,concrete-positive,positive,negative,A,NULL
1737994023,28bf87dcce8e2296cc0912f3a280fe6b,PennController,61,0,test_val,NULL,PennController,72,_Header_,End,1737993625060,undefined,576,rain,concrete-positive,positive,negative,A,NULL
1737994023,28bf87dcce8e2296cc0912f3a280fe6b,PennController,61,0,test_val,NULL,Selector,unnamed-Selector,Selection,negative,1737993626137,undefined,576,rain,concrete-positive,positive,negative,A,positive;negative
1737994023,28bf87dcce8e2296cc0912f3a280fe6b,PennController,61,0,test_val,NULL,PennController,72,_Trial_,End,1737993626138,undefined,576,rain,concrete-positive,positive,negative,A,NULL
1737994023,28bf87dcce8e2296cc0912f3a280fe6b,PennController,83,0,test_val,NULL,PennController,94,_Trial_,Start,1737993626139,undefined,709,filth,concrete-negative,positive,negative,A,NULL
1737994023,28bf87dcce8e2296cc0912f3a280fe6b,PennController,83,0,test_val,NULL,PennController,94,_Header_,Start,1737993626139,undefined,709,filth,concrete-negative,positive,negative,A,NULL
1737994023,28bf87dcce8e2296cc0912f3a280fe6b,PennController,83,0,test_val,NULL,PennController,94,_Header_,End,1737993626390,undefined,709,filth,concrete-negative,positive,negative,A,NULL
1737994023,28bf87dcce8e2296cc0912f3a280fe6b,PennController,83,0,test_val,NULL,Selector,unnamed-Selector,Selection,negative,1737993627601,undefined,709,filth,concrete-negative,positive,negative,A,positive;negative
1737994023,28bf87dcce8e2296cc0912f3a280fe6b,PennController,83,0,test_val,NULL,PennController,94,_Trial_,End,1737993627602,undefined,709,filth,concrete-negative,positive,negative,A,NULL
1737994023,28bf87dcce8e2296cc0912f3a280fe6b,PennController,67,0,test_val,NULL,PennController,78,_Trial_,Start,1737993627603,undefined,628,peace,abstract-positive,positive,negative,A,NULL
1737994023,28bf87dcce8e2296cc0912f3a280fe6b,PennController,67,0,test_val,NULL,PennController,78,_Header_,Start,1737993627603,undefined,628,peace,abstract-positive,positive,negative,A,NULL
1737994023,28bf87dcce8e2296cc0912f3a280fe6b,PennController,67,0,test_val,NULL,PennController,78,_Header_,End,1737993627853,undefined,628,peace,abstract-positive,positive,negative,A,NULL
1737994023,28bf87dcce8e2296cc0912f3a280fe6b,PennController,67,0,test_val,NULL,Selector,unnamed-Selector,Selection,positive,1737993628986,undefined,628,peace,abstract-positive,positive,negative,A,positive;negative
1737994023,28bf87dcce8e2296cc0912f3a280fe6b,PennController,67,0,test_val,NULL,PennController,78,_Trial_,End,1737993628986,undefined,628,peace,abstract-positive,positive,negative,A,NULL
1737994023,28bf87dcce8e2296cc0912f3a280fe6b,PennController,61,0,test_val,NULL,PennController,72,_Trial_,Start,1737993628987,undefined,859,rain,concrete-positive,positive,negative,A,NULL
1737994023,28bf87dcce8e2296cc0912f3a280fe6b,PennController,61,0,test_val,NULL,PennController,72,_Header_,Start,1737993628987,undefined,859,rain,concrete-positive,positive,negative,A,NULL
1737994023,28bf87dcce8e2296cc0912f3a280fe6b,PennController,61,0,test_val,NULL,PennController,72,_Header_,End,1737993629239,undefined,859,rain,concrete-positive,positive,negative,A,NULL
1737994023,28bf87dcce8e2296cc0912f3a280fe6b,PennController,61,0,test_val,NULL,Selector,unnamed-Selector,Selection,positive,1737993630604,undefined,859,rain,concrete-positive,positive,negative,A,positive;negative
1737994023,28bf87dcce8e2296cc0912f3a280fe6b,PennController,61,0,test_val,NULL,PennController,72,_Trial_,End,1737993630605,undefined,859,rain,concrete-positive,positive,negative,A,NULL
1737994023,28bf87dcce8e2296cc0912f3a280fe6b,PennController,83,0,test_val,NULL,PennController,94,_Trial_,Start,1737993630605,undefined,782,filth,concrete-negative,positive,negative,A,NULL
1737994023,28bf87dcce8e2296cc0912f3a280fe6b,PennController,83,0,test_val,NULL,PennController,94,_Header_,Start,1737993630606,undefined,782,filth,concrete-negative,positive,negative,A,NULL
1737994023,28bf87dcce8e2296cc0912f3a280fe6b,PennController,83,0,test_val,NULL,PennController,94,_Header_,End,1737993630858,undefined,782,filth,concrete-negative,positive,negative,A,NULL
1737994023,28bf87dcce8e2296cc0912f3a280fe6b,PennController,83,0,test_val,NULL,Selector,unnamed-Selector,Selection,negative,1737993632144,undefined,782,filth,concrete-negative,positive,negative,A,positive;negative
1737994023,28bf87dcce8e2296cc0912f3a280fe6b,PennController,83,0,test_val,NULL,PennController,94,_Trial_,End,1737993632145,undefined,782,filth,concrete-negative,positive,negative,A,NULL
1737994023,28bf87dcce8e2296cc0912f3a280fe6b,PennController,73,0,test_val,NULL,PennController,84,_Trial_,Start,1737993632145,undefined,552,inspiration,abstract-positive,positive,negative,A,NULL
1737994023,28bf87dcce8e2296cc0912f3a280fe6b,PennController,73,0,test_val,NULL,PennController,84,_Header_,Start,1737993632145,undefined,552,inspiration,abstract-positive,positive,negative,A,NULL
1737994023,28bf87dcce8e2296cc0912f3a280fe6b,PennController,73,0,test_val,NULL,PennController,84,_Header_,End,1737993632396,undefined,552,inspiration,abstract-positive,positive,negative,A,NULL
1737994023,28bf87dcce8e2296cc0912f3a280fe6b,PennController,73,0,test_val,NULL,Selector,unnamed-Selector,Selection,positive,1737993633449,undefined,552,inspiration,abstract-positive,positive,negative,A,positive;negative
1737994023,28bf87dcce8e2296cc0912f3a280fe6b,PennController,73,0,test_val,NULL,PennController,84,_Trial_,End,1737993633450,undefined,552,inspiration,abstract-positive,positive,negative,A,NULL
1737994023,28bf87dcce8e2296cc0912f3a280fe6b,PennController,68,0,test_val,NULL,PennController,79,_Trial_,Start,1737993633451,undefined,504,freedom,abstract-positive,positive,negative,A,NULL
1737994023,28bf87dcce8e2296cc0912f3a280fe6b,PennController,68,0,test_val,NULL,PennController,79,_Header_,Start,1737993633451,undefined,504,freedom,abstract-positive,positive,negative,A,NULL
1737994023,28bf87dcce8e2296cc0912f3a280fe6b,PennController,68,0,test_val,NULL,PennController,79,_Header_,End,1737993633704,undefined,504,freedom,abstract-positive,positive,negative,A,NULL
1737994023,28bf87dcce8e2296cc0912f3a280fe6b,PennController,68,0,test_val,NULL,Selector,unnamed-Selector,Selection,positive,1737993634712,undefined,504,freedom,abstract-positive,positive,negative,A,positive;negative
1737994023,28bf87dcce8e2296cc0912f3a280fe6b,PennController,68,0,test_val,NULL,PennController,79,_Trial_,End,1737993634713,undefined,504,freedom,abstract-positive,positive,negative,A,NULL
1737994023,28bf87dcce8e2296cc0912f3a280fe6b,PennController,81,0,test_val,NULL,PennController,92,_Trial_,Start,1737993634713,undefined,531,injury,concrete-negative,positive,negative,A,NULL
1737994023,28bf87dcce8e2296cc0912f3a280fe6b,PennController,81,0,test_val,NULL,PennController,92,_Header_,Start,1737993634713,undefined,531,injury,concrete-negative,positive,negative,A,NULL
1737994023,28bf87dcce8e2296cc0912f3a280fe6b,PennController,81,0,test_val,NULL,PennController,92,_Header_,End,1737993634966,undefined,531,injury,concrete-negative,positive,negative,A,NULL
1737994023,28bf87dcce8e2296cc0912f3a280fe6b,PennController,81,0,test_val,NULL,Selector,unnamed-Selector,Selection,negative,1737993636002,undefined,531,injury,concrete-negative,positive,negative,A,positive;negative
1737994023,28bf87dcce8e2296cc0912f3a280fe6b,PennController,81,0,test_val,NULL,PennController,92,_Trial_,End,1737993636002,undefined,531,injury,concrete-negative,positive,negative,A,NULL
1737994023,28bf87dcce8e2296cc0912f3a280fe6b,PennController,76,0,test_val,NULL,PennController,87,_Trial_,Start,1737993636003,undefined,977,mud,concrete-negative,positive,negative,A,NULL
1737994023,28bf87dcce8e2296cc0912f3a280fe6b,PennController,76,0,test_val,NULL,PennController,87,_Header_,Start,1737993636003,undefined,977,mud,concrete-negative,positive,negative,A,NULL
1737994023,28bf87dcce8e2296cc0912f3a280fe6b,PennController,76,0,test_val,NULL,PennController,87,_Header_,End,1737993636254,undefined,977,mud,concrete-negative,positive,negative,A,NULL
1737994023,28bf87dcce8e2296cc0912f3a280fe6b,PennController,76,0,test_val,NULL,Selector,unnamed-Selector,Selection,positive,1737993637731,undefined,977,mud,concrete-negative,positive,negative,A,positive;negative
1737994023,28bf87dcce8e2296cc0912f3a280fe6b,PennController,76,0,test_val,NULL,PennController,87,_Trial_,End,1737993637732,undefined,977,mud,concrete-negative,positive,negative,A,NULL
1737994023,28bf87dcce8e2296cc0912f3a280fe6b,PennController,60,0,test_val,NULL,PennController,71,_Trial_,Start,1737993637733,undefined,898,home,concrete-positive,positive,negative,A,NULL
1737994023,28bf87dcce8e2296cc0912f3a280fe6b,PennController,60,0,test_val,NULL,PennController,71,_Header_,Start,1737993637733,undefined,898,home,concrete-positive,positive,negative,A,NULL
1737994023,28bf87dcce8e2296cc0912f3a280fe6b,PennController,60,0,test_val,NULL,PennController,71,_Header_,End,1737993637986,undefined,898,home,concrete-positive,positive,negative,A,NULL
1737994023,28bf87dcce8e2296cc0912f3a280fe6b,PennController,60,0,test_val,NULL,Selector,unnamed-Selector,Selection,positive,1737993639386,undefined,898,home,concrete-positive,positive,negative,A,positive;negative
1737994023,28bf87dcce8e2296cc0912f3a280fe6b,PennController,60,0,test_val,NULL,PennController,71,_Trial_,End,1737993639387,undefined,898,home,concrete-positive,positive,negative,A,NULL
1737994023,28bf87dcce8e2296cc0912f3a280fe6b,PennController,50,0,test_val,NULL,PennController,61,_Trial_,Start,1737993639388,undefined,590,resentment,abstract-negative,positive,negative,A,NULL
1737994023,28bf87dcce8e2296cc0912f3a280fe6b,PennController,50,0,test_val,NULL,PennController,61,_Header_,Start,1737993639388,undefined,590,resentment,abstract-negative,positive,negative,A,NULL
1737994023,28bf87dcce8e2296cc0912f3a280fe6b,PennController,50,0,test_val,NULL,PennController,61,_Header_,End,1737993639642,undefined,590,resentment,abstract-negative,positive,negative,A,NULL
1737994023,28bf87dcce8e2296cc0912f3a280fe6b,PennController,50,0,test_val,NULL,Selector,unnamed-Selector,Selection,negative,1737993640737,undefined,590,resentment,abstract-negative,positive,negative,A,positive;negative
1737994023,28bf87dcce8e2296cc0912f3a280fe6b,PennController,50,0,test_val,NULL,PennController,61,_Trial_,End,1737993640738,undefined,590,resentment,abstract-negative,positive,negative,A,NULL
1737994023,28bf87dcce8e2296cc0912f3a280fe6b,PennController,59,0,test_val,NULL,PennController,70,_Trial_,Start,1737993640739,undefined,705,hug,concrete-positive,positive,negative,A,NULL
1737994023,28bf87dcce8e2296cc0912f3a280fe6b,PennController,59,0,test_val,NULL,PennController,70,_Header_,Start,1737993640739,undefined,705,hug,concrete-positive,positive,negative,A,NULL
1737994023,28bf87dcce8e2296cc0912f3a280fe6b,PennController,59,0,test_val,NULL,PennController,70,_Header_,End,1737993640992,undefined,705,hug,concrete-positive,positive,negative,A,NULL
1737994023,28bf87dcce8e2296cc0912f3a280fe6b,PennController,59,0,test_val,NULL,Selector,unnamed-Selector,Selection,positive,1737993642201,undefined,705,hug,concrete-positive,positive,negative,A,positive;negative
1737994023,28bf87dcce8e2296cc0912f3a280fe6b,PennController,59,0,test_val,NULL,PennController,70,_Trial_,End,1737993642202,undefined,705,hug,concrete-positive,positive,negative,A,NULL
1737994023,28bf87dcce8e2296cc0912f3a280fe6b,PennController,77,0,test_val,NULL,PennController,88,_Trial_,Start,1737993642202,undefined,628,vomit,concrete-negative,positive,negative,A,NULL
1737994023,28bf87dcce8e2296cc0912f3a280fe6b,PennController,77,0,test_val,NULL,PennController,88,_Header_,Start,1737993642202,undefined,628,vomit,concrete-negative,positive,negative,A,NULL
1737994023,28bf87dcce8e2296cc0912f3a280fe6b,PennController,77,0,test_val,NULL,PennController,88,_Header_,End,1737993642455,undefined,628,vomit,concrete-negative,positive,negative,A,NULL
1737994023,28bf87dcce8e2296cc0912f3a280fe6b,PennController,77,0,test_val,NULL,Selector,unnamed-Selector,Selection,negative,1737993643585,undefined,628,vomit,concrete-negative,positive,negative,A,positive;negative
1737994023,28bf87dcce8e2296cc0912f3a280fe6b,PennController,77,0,test_val,NULL,PennController,88,_Trial_,End,1737993643586,undefined,628,vomit,concrete-negative,positive,negative,A,NULL
1737994023,28bf87dcce8e2296cc0912f3a280fe6b,PennController,57,0,test_val,NULL,PennController,68,_Trial_,Start,1737993643587,undefined,588,music,concrete-positive,positive,negative,A,NULL
1737994023,28bf87dcce8e2296cc0912f3a280fe6b,PennController,57,0,test_val,NULL,PennController,68,_Header_,Start,1737993643587,undefined,588,music,concrete-positive,positive,negative,A,NULL
1737994023,28bf87dcce8e2296cc0912f3a280fe6b,PennController,57,0,test_val,NULL,PennController,68,_Header_,End,1737993643838,undefined,588,music,concrete-positive,positive,negative,A,NULL
1737994023,28bf87dcce8e2296cc0912f3a280fe6b,PennController,57,0,test_val,NULL,Selector,unnamed-Selector,Selection,positive,1737993644930,undefined,588,music,concrete-positive,positive,negative,A,positive;negative
1737994023,28bf87dcce8e2296cc0912f3a280fe6b,PennController,57,0,test_val,NULL,PennController,68,_Trial_,End,1737993644931,undefined,588,music,concrete-positive,positive,negative,A,NULL
1737994023,28bf87dcce8e2296cc0912f3a280fe6b,PennController,78,0,test_val,NULL,PennController,89,_Trial_,Start,1737993644931,undefined,619,garbage,concrete-negative,positive,negative,A,NULL
1737994023,28bf87dcce8e2296cc0912f3a280fe6b,PennController,78,0,test_val,NULL,PennController,89,_Header_,Start,1737993644931,undefined,619,garbage,concrete-negative,positive,negative,A,NULL
1737994023,28bf87dcce8e2296cc0912f3a280fe6b,PennController,78,0,test_val,NULL,PennController,89,_Header_,End,1737993645184,undefined,619,garbage,concrete-negative,positive,negative,A,NULL
1737994023,28bf87dcce8e2296cc0912f3a280fe6b,PennController,78,0,test_val,NULL,Selector,unnamed-Selector,Selection,negative,1737993646306,undefined,619,garbage,concrete-negative,positive,negative,A,positive;negative
1737994023,28bf87dcce8e2296cc0912f3a280fe6b,PennController,78,0,test_val,NULL,PennController,89,_Trial_,End,1737993646307,undefined,619,garbage,concrete-negative,positive,negative,A,NULL
1737994023,28bf87dcce8e2296cc0912f3a280fe6b,PennController,71,0,test_val,NULL,PennController,82,_Trial_,Start,1737993646307,undefined,761,compassion,abstract-positive,positive,negative,A,NULL
1737994023,28bf87dcce8e2296cc0912f3a280fe6b,PennController,71,0,test_val,NULL,PennController,82,_Header_,Start,1737993646307,undefined,761,compassion,abstract-positive,positive,negative,A,NULL
1737994023,28bf87dcce8e2296cc0912f3a280fe6b,PennController,71,0,test_val,NULL,PennController,82,_Header_,End,1737993646559,undefined,761,compassion,abstract-positive,positive,negative,A,NULL
1737994023,28bf87dcce8e2296cc0912f3a280fe6b,PennController,71,0,test_val,NULL,Selector,unnamed-Selector,Selection,positive,1737993647825,undefined,761,compassion,abstract-positive,positive,negative,A,positive;negative
1737994023,28bf87dcce8e2296cc0912f3a280fe6b,PennController,71,0,test_val,NULL,PennController,82,_Trial_,End,1737993647827,undefined,761,compassion,abstract-positive,positive,negative,A,NULL
1737994023,28bf87dcce8e2296cc0912f3a280fe6b,PennController,80,0,test_val,NULL,PennController,91,_Trial_,Start,1737993647827,undefined,633,mold,concrete-negative,positive,negative,A,NULL
1737994023,28bf87dcce8e2296cc0912f3a280fe6b,PennController,80,0,test_val,NULL,PennController,91,_Header_,Start,1737993647827,undefined,633,mold,concrete-negative,positive,negative,A,NULL
1737994023,28bf87dcce8e2296cc0912f3a280fe6b,PennController,80,0,test_val,NULL,PennController,91,_Header_,End,1737993648080,undefined,633,mold,concrete-negative,positive,negative,A,NULL
1737994023,28bf87dcce8e2296cc0912f3a280fe6b,PennController,80,0,test_val,NULL,Selector,unnamed-Selector,Selection,negative,1737993649217,undefined,633,mold,concrete-negative,positive,negative,A,positive;negative
1737994023,28bf87dcce8e2296cc0912f3a280fe6b,PennController,80,0,test_val,NULL,PennController,91,_Trial_,End,1737993649218,undefined,633,mold,concrete-negative,positive,negative,A,NULL
1737994023,28bf87dcce8e2296cc0912f3a280fe6b,PennController,49,0,test_val,NULL,PennController,60,_Trial_,Start,1737993649219,undefined,719,grief,abstract-negative,positive,negative,A,NULL
1737994023,28bf87dcce8e2296cc0912f3a280fe6b,PennController,49,0,test_val,NULL,PennController,60,_Header_,Start,1737993649219,undefined,719,grief,abstract-negative,positive,negative,A,NULL
1737994023,28bf87dcce8e2296cc0912f3a280fe6b,PennController,49,0,test_val,NULL,PennController,60,_Header_,End,1737993649469,undefined,719,grief,abstract-negative,positive,negative,A,NULL
1737994023,28bf87dcce8e2296cc0912f3a280fe6b,PennController,49,0,test_val,NULL,Selector,unnamed-Selector,Selection,negative,1737993650691,undefined,719,grief,abstract-negative,positive,negative,A,positive;negative
1737994023,28bf87dcce8e2296cc0912f3a280fe6b,PennController,49,0,test_val,NULL,PennController,60,_Trial_,End,1737993650691,undefined,719,grief,abstract-negative,positive,negative,A,NULL
1737994023,28bf87dcce8e2296cc0912f3a280fe6b,PennController,62,0,test_val,NULL,PennController,73,_Trial_,Start,1737993650692,undefined,1213,chocolate,concrete-positive,positive,negative,A,NULL
1737994023,28bf87dcce8e2296cc0912f3a280fe6b,PennController,62,0,test_val,NULL,PennController,73,_Header_,Start,1737993650692,undefined,1213,chocolate,concrete-positive,positive,negative,A,NULL
1737994023,28bf87dcce8e2296cc0912f3a280fe6b,PennController,62,0,test_val,NULL,PennController,73,_Header_,End,1737993650947,undefined,1213,chocolate,concrete-positive,positive,negative,A,NULL
1737994023,28bf87dcce8e2296cc0912f3a280fe6b,PennController,62,0,test_val,NULL,Selector,unnamed-Selector,Selection,positive,1737993652666,undefined,1213,chocolate,concrete-positive,positive,negative,A,positive;negative
1737994023,28bf87dcce8e2296cc0912f3a280fe6b,PennController,62,0,test_val,NULL,PennController,73,_Trial_,End,1737993652666,undefined,1213,chocolate,concrete-positive,positive,negative,A,NULL
1737994023,28bf87dcce8e2296cc0912f3a280fe6b,PennController,79,0,test_val,NULL,PennController,90,_Trial_,Start,1737993652667,undefined,1403,rust,concrete-negative,positive,negative,A,NULL
1737994023,28bf87dcce8e2296cc0912f3a280fe6b,PennController,79,0,test_val,NULL,PennController,90,_Header_,Start,1737993652667,undefined,1403,rust,concrete-negative,positive,negative,A,NULL
1737994023,28bf87dcce8e2296cc0912f3a280fe6b,PennController,79,0,test_val,NULL,PennController,90,_Header_,End,1737993652922,undefined,1403,rust,concrete-negative,positive,negative,A,NULL
1737994023,28bf87dcce8e2296cc0912f3a280fe6b,PennController,79,0,test_val,NULL,Selector,unnamed-Selector,Selection,negative,1737993654827,undefined,1403,rust,concrete-negative,positive,negative,A,positive;negative
1737994023,28bf87dcce8e2296cc0912f3a280fe6b,PennController,79,0,test_val,NULL,PennController,90,_Trial_,End,1737993654828,undefined,1403,rust,concrete-negative,positive,negative,A,NULL
1737994023,28bf87dcce8e2296cc0912f3a280fe6b,PennController,64,0,test_val,NULL,PennController,75,_Trial_,Start,1737993654829,undefined,585,love,abstract-positive,positive,negative,A,NULL
1737994023,28bf87dcce8e2296cc0912f3a280fe6b,PennController,64,0,test_val,NULL,PennController,75,_Header_,Start,1737993654829,undefined,585,love,abstract-positive,positive,negative,A,NULL
1737994023,28bf87dcce8e2296cc0912f3a280fe6b,PennController,64,0,test_val,NULL,PennController,75,_Header_,End,1737993655082,undefined,585,love,abstract-positive,positive,negative,A,NULL
1737994023,28bf87dcce8e2296cc0912f3a280fe6b,PennController,64,0,test_val,NULL,Selector,unnamed-Selector,Selection,positive,1737993656169,undefined,585,love,abstract-positive,positive,negative,A,positive;negative
1737994023,28bf87dcce8e2296cc0912f3a280fe6b,PennController,64,0,test_val,NULL,PennController,75,_Trial_,End,1737993656170,undefined,585,love,abstract-positive,positive,negative,A,NULL
1737994023,28bf87dcce8e2296cc0912f3a280fe6b,PennController,55,0,test_val,NULL,PennController,66,_Trial_,Start,1737993656171,undefined,732,laughter,concrete-positive,positive,negative,A,NULL
1737994023,28bf87dcce8e2296cc0912f3a280fe6b,PennController,55,0,test_val,NULL,PennController,66,_Header_,Start,1737993656171,undefined,732,laughter,concrete-positive,positive,negative,A,NULL
1737994023,28bf87dcce8e2296cc0912f3a280fe6b,PennController,55,0,test_val,NULL,PennController,66,_Header_,End,1737993656424,undefined,732,laughter,concrete-positive,positive,negative,A,NULL
1737994023,28bf87dcce8e2296cc0912f3a280fe6b,PennController,55,0,test_val,NULL,Selector,unnamed-Selector,Selection,positive,1737993657660,undefined,732,laughter,concrete-positive,positive,negative,A,positive;negative
1737994023,28bf87dcce8e2296cc0912f3a280fe6b,PennController,55,0,test_val,NULL,PennController,66,_Trial_,End,1737993657661,undefined,732,laughter,concrete-positive,positive,negative,A,NULL
1737994023,28bf87dcce8e2296cc0912f3a280fe6b,PennController,66,0,test_val,NULL,PennController,77,_Trial_,Start,1737993657662,undefined,479,joy,abstract-positive,positive,negative,A,NULL
1737994023,28bf87dcce8e2296cc0912f3a280fe6b,PennController,66,0,test_val,NULL,PennController,77,_Header_,Start,1737993657662,undefined,479,joy,abstract-positive,positive,negative,A,NULL
1737994023,28bf87dcce8e2296cc0912f3a280fe6b,PennController,66,0,test_val,NULL,PennController,77,_Header_,End,1737993657913,undefined,479,joy,abstract-positive,positive,negative,A,NULL
1737994023,28bf87dcce8e2296cc0912f3a280fe6b,PennController,66,0,test_val,NULL,Selector,unnamed-Selector,Selection,positive,1737993658896,undefined,479,joy,abstract-positive,positive,negative,A,positive;negative
1737994023,28bf87dcce8e2296cc0912f3a280fe6b,PennController,66,0,test_val,NULL,PennController,77,_Trial_,End,1737993658897,undefined,479,joy,abstract-positive,positive,negative,A,NULL
1737994023,28bf87dcce8e2296cc0912f3a280fe6b,PennController,45,0,test_val,NULL,PennController,56,_Trial_,Start,1737993658898,undefined,612,regret,abstract-negative,positive,negative,A,NULL
1737994023,28bf87dcce8e2296cc0912f3a280fe6b,PennController,45,0,test_val,NULL,PennController,56,_Header_,Start,1737993658898,undefined,612,regret,abstract-negative,positive,negative,A,NULL
1737994023,28bf87dcce8e2296cc0912f3a280fe6b,PennController,45,0,test_val,NULL,PennController,56,_Header_,End,1737993659149,undefined,612,regret,abstract-negative,positive,negative,A,NULL
1737994023,28bf87dcce8e2296cc0912f3a280fe6b,PennController,45,0,test_val,NULL,Selector,unnamed-Selector,Selection,negative,1737993660264,undefined,612,regret,abstract-negative,positive,negative,A,positive;negative
1737994023,28bf87dcce8e2296cc0912f3a280fe6b,PennController,45,0,test_val,NULL,PennController,56,_Trial_,End,1737993660265,undefined,612,regret,abstract-negative,positive,negative,A,NULL
1737994023,28bf87dcce8e2296cc0912f3a280fe6b,PennController,54,0,test_val,NULL,PennController,65,_Trial_,Start,1737993660265,undefined,753,sunshine,concrete-positive,positive,negative,A,NULL
1737994023,28bf87dcce8e2296cc0912f3a280fe6b,PennController,54,0,test_val,NULL,PennController,65,_Header_,Start,1737993660265,undefined,753,sunshine,concrete-positive,positive,negative,A,NULL
1737994023,28bf87dcce8e2296cc0912f3a280fe6b,PennController,54,0,test_val,NULL,PennController,65,_Header_,End,1737993660516,undefined,753,sunshine,concrete-positive,positive,negative,A,NULL
1737994023,28bf87dcce8e2296cc0912f3a280fe6b,PennController,54,0,test_val,NULL,Selector,unnamed-Selector,Selection,positive,1737993661772,undefined,753,sunshine,concrete-positive,positive,negative,A,positive;negative
1737994023,28bf87dcce8e2296cc0912f3a280fe6b,PennController,54,0,test_val,NULL,PennController,65,_Trial_,End,1737993661773,undefined,753,sunshine,concrete-positive,positive,negative,A,NULL
1737994023,28bf87dcce8e2296cc0912f3a280fe6b,PennController,82,0,test_val,NULL,PennController,93,_Trial_,Start,1737993661774,undefined,520,stench,concrete-negative,positive,negative,A,NULL
1737994023,28bf87dcce8e2296cc0912f3a280fe6b,PennController,82,0,test_val,NULL,PennController,93,_Header_,Start,1737993661774,undefined,520,stench,concrete-negative,positive,negative,A,NULL
1737994023,28bf87dcce8e2296cc0912f3a280fe6b,PennController,82,0,test_val,NULL,PennController,93,_Header_,End,1737993662026,undefined,520,stench,concrete-negative,positive,negative,A,NULL
1737994023,28bf87dcce8e2296cc0912f3a280fe6b,PennController,82,0,test_val,NULL,Selector,unnamed-Selector,Selection,negative,1737993663050,undefined,520,stench,concrete-negative,positive,negative,A,positive;negative
1737994023,28bf87dcce8e2296cc0912f3a280fe6b,PennController,82,0,test_val,NULL,PennController,93,_Trial_,End,1737993663050,undefined,520,stench,concrete-negative,positive,negative,A,NULL
1737994023,28bf87dcce8e2296cc0912f3a280fe6b,PennController,56,0,test_val,NULL,PennController,67,_Trial_,Start,1737993663051,undefined,610,flowers,concrete-positive,positive,negative,A,NULL
1737994023,28bf87dcce8e2296cc0912f3a280fe6b,PennController,56,0,test_val,NULL,PennController,67,_Header_,Start,1737993663051,undefined,610,flowers,concrete-positive,positive,negative,A,NULL
1737994023,28bf87dcce8e2296cc0912f3a280fe6b,PennController,56,0,test_val,NULL,PennController,67,_Header_,End,1737993663301,undefined,610,flowers,concrete-positive,positive,negative,A,NULL
1737994023,28bf87dcce8e2296cc0912f3a280fe6b,PennController,56,0,test_val,NULL,Selector,unnamed-Selector,Selection,positive,1737993664416,undefined,610,flowers,concrete-positive,positive,negative,A,positive;negative
1737994023,28bf87dcce8e2296cc0912f3a280fe6b,PennController,56,0,test_val,NULL,PennController,67,_Trial_,End,1737993664417,undefined,610,flowers,concrete-positive,positive,negative,A,NULL
1737994023,28bf87dcce8e2296cc0912f3a280fe6b,PennController,47,0,test_val,NULL,PennController,58,_Trial_,Start,1737993664418,undefined,603,despair,abstract-negative,positive,negative,A,NULL
1737994023,28bf87dcce8e2296cc0912f3a280fe6b,PennController,47,0,test_val,NULL,PennController,58,_Header_,Start,1737993664418,undefined,603,despair,abstract-negative,positive,negative,A,NULL
1737994023,28bf87dcce8e2296cc0912f3a280fe6b,PennController,47,0,test_val,NULL,PennController,58,_Header_,End,1737993664670,undefined,603,despair,abstract-negative,positive,negative,A,NULL
1737994023,28bf87dcce8e2296cc0912f3a280fe6b,PennController,47,0,test_val,NULL,Selector,unnamed-Selector,Selection,negative,1737993665777,undefined,603,despair,abstract-negative,positive,negative,A,positive;negative
1737994023,28bf87dcce8e2296cc0912f3a280fe6b,PennController,47,0,test_val,NULL,PennController,58,_Trial_,End,1737993665779,undefined,603,despair,abstract-negative,positive,negative,A,NULL
1737994023,28bf87dcce8e2296cc0912f3a280fe6b,PennController,67,0,test_val,NULL,PennController,78,_Trial_,Start,1737993665779,undefined,559,peace,abstract-positive,positive,negative,A,NULL
1737994023,28bf87dcce8e2296cc0912f3a280fe6b,PennController,67,0,test_val,NULL,PennController,78,_Header_,Start,1737993665779,undefined,559,peace,abstract-positive,positive,negative,A,NULL
1737994023,28bf87dcce8e2296cc0912f3a280fe6b,PennController,67,0,test_val,NULL,PennController,78,_Header_,End,1737993666032,undefined,559,peace,abstract-positive,positive,negative,A,NULL
1737994023,28bf87dcce8e2296cc0912f3a280fe6b,PennController,67,0,test_val,NULL,Selector,unnamed-Selector,Selection,positive,1737993667095,undefined,559,peace,abstract-positive,positive,negative,A,positive;negative
1737994023,28bf87dcce8e2296cc0912f3a280fe6b,PennController,67,0,test_val,NULL,PennController,78,_Trial_,End,1737993667096,undefined,559,peace,abstract-positive,positive,negative,A,NULL
1737994023,28bf87dcce8e2296cc0912f3a280fe6b,PennController,44,0,test_val,NULL,PennController,55,_Trial_,Start,1737993667097,undefined,778,lonliness,abstract-negative,positive,negative,A,NULL
1737994023,28bf87dcce8e2296cc0912f3a280fe6b,PennController,44,0,test_val,NULL,PennController,55,_Header_,Start,1737993667097,undefined,778,lonliness,abstract-negative,positive,negative,A,NULL
1737994023,28bf87dcce8e2296cc0912f3a280fe6b,PennController,44,0,test_val,NULL,PennController,55,_Header_,End,1737993667347,undefined,778,lonliness,abstract-negative,positive,negative,A,NULL
1737994023,28bf87dcce8e2296cc0912f3a280fe6b,PennController,44,0,test_val,NULL,Selector,unnamed-Selector,Selection,negative,1737993668627,undefined,778,lonliness,abstract-negative,positive,negative,A,positive;negative
1737994023,28bf87dcce8e2296cc0912f3a280fe6b,PennController,44,0,test_val,NULL,PennController,55,_Trial_,End,1737993668627,undefined,778,lonliness,abstract-negative,positive,negative,A,NULL
1737994023,28bf87dcce8e2296cc0912f3a280fe6b,PennController,53,0,test_val,NULL,PennController,64,_Trial_,Start,1737993668629,undefined,926,envy,abstract-negative,positive,negative,A,NULL
1737994023,28bf87dcce8e2296cc0912f3a280fe6b,PennController,53,0,test_val,NULL,PennController,64,_Header_,Start,1737993668629,undefined,926,envy,abstract-negative,positive,negative,A,NULL
1737994023,28bf87dcce8e2296cc0912f3a280fe6b,PennController,53,0,test_val,NULL,PennController,64,_Header_,End,1737993668883,undefined,926,envy,abstract-negative,positive,negative,A,NULL
1737994023,28bf87dcce8e2296cc0912f3a280fe6b,PennController,53,0,test_val,NULL,Selector,unnamed-Selector,Selection,negative,1737993670312,undefined,926,envy,abstract-negative,positive,negative,A,positive;negative
1737994023,28bf87dcce8e2296cc0912f3a280fe6b,PennController,53,0,test_val,NULL,PennController,64,_Trial_,End,1737993670314,undefined,926,envy,abstract-negative,positive,negative,A,NULL
1737994023,28bf87dcce8e2296cc0912f3a280fe6b,PennController,46,0,test_val,NULL,PennController,57,_Trial_,Start,1737993670314,undefined,788,anxiety,abstract-negative,positive,negative,A,NULL
1737994023,28bf87dcce8e2296cc0912f3a280fe6b,PennController,46,0,test_val,NULL,PennController,57,_Header_,Start,1737993670314,undefined,788,anxiety,abstract-negative,positive,negative,A,NULL
1737994023,28bf87dcce8e2296cc0912f3a280fe6b,PennController,46,0,test_val,NULL,PennController,57,_Header_,End,1737993670565,undefined,788,anxiety,abstract-negative,positive,negative,A,NULL
1737994023,28bf87dcce8e2296cc0912f3a280fe6b,PennController,46,0,test_val,NULL,Selector,unnamed-Selector,Selection,negative,1737993671855,undefined,788,anxiety,abstract-negative,positive,negative,A,positive;negative
1737994023,28bf87dcce8e2296cc0912f3a280fe6b,PennController,46,0,test_val,NULL,PennController,57,_Trial_,End,1737993671856,undefined,788,anxiety,abstract-negative,positive,negative,A,NULL
1737994023,28bf87dcce8e2296cc0912f3a280fe6b,PennController,74,0,test_val,NULL,PennController,85,_Trial_,Start,1737993671856,undefined,1114,smoke,concrete-negative,positive,negative,A,NULL
1737994023,28bf87dcce8e2296cc0912f3a280fe6b,PennController,74,0,test_val,NULL,PennController,85,_Header_,Start,1737993671856,undefined,1114,smoke,concrete-negative,positive,negative,A,NULL
1737994023,28bf87dcce8e2296cc0912f3a280fe6b,PennController,74,0,test_val,NULL,PennController,85,_Header_,End,1737993672107,undefined,1114,smoke,concrete-negative,positive,negative,A,NULL
1737994023,28bf87dcce8e2296cc0912f3a280fe6b,PennController,74,0,test_val,NULL,Selector,unnamed-Selector,Selection,negative,1737993673724,undefined,1114,smoke,concrete-negative,positive,negative,A,positive;negative
1737994023,28bf87dcce8e2296cc0912f3a280fe6b,PennController,74,0,test_val,NULL,PennController,85,_Trial_,End,1737993673724,undefined,1114,smoke,concrete-negative,positive,negative,A,NULL
1737994023,28bf87dcce8e2296cc0912f3a280fe6b,PennController,51,0,test_val,NULL,PennController,62,_Trial_,Start,1737993673725,undefined,430,failure,abstract-negative,positive,negative,A,NULL
1737994023,28bf87dcce8e2296cc0912f3a280fe6b,PennController,51,0,test_val,NULL,PennController,62,_Header_,Start,1737993673725,undefined,430,failure,abstract-negative,positive,negative,A,NULL
1737994023,28bf87dcce8e2296cc0912f3a280fe6b,PennController,51,0,test_val,NULL,PennController,62,_Header_,End,1737993673977,undefined,430,failure,abstract-negative,positive,negative,A,NULL
1737994023,28bf87dcce8e2296cc0912f3a280fe6b,PennController,51,0,test_val,NULL,Selector,unnamed-Selector,Selection,negative,1737993674913,undefined,430,failure,abstract-negative,positive,negative,A,positive;negative
1737994023,28bf87dcce8e2296cc0912f3a280fe6b,PennController,51,0,test_val,NULL,PennController,62,_Trial_,End,1737993674914,undefined,430,failure,abstract-negative,positive,negative,A,NULL
1737994023,28bf87dcce8e2296cc0912f3a280fe6b,PennController,69,0,test_val,NULL,PennController,80,_Trial_,Start,1737993674915,undefined,500,kindness,abstract-positive,positive,negative,A,NULL
1737994023,28bf87dcce8e2296cc0912f3a280fe6b,PennController,69,0,test_val,NULL,PennController,80,_Header_,Start,1737993674915,undefined,500,kindness,abstract-positive,positive,negative,A,NULL
1737994023,28bf87dcce8e2296cc0912f3a280fe6b,PennController,69,0,test_val,NULL,PennController,80,_Header_,End,1737993675168,undefined,500,kindness,abstract-positive,positive,negative,A,NULL
1737994023,28bf87dcce8e2296cc0912f3a280fe6b,PennController,69,0,test_val,NULL,Selector,unnamed-Selector,Selection,positive,1737993676168,undefined,500,kindness,abstract-positive,positive,negative,A,positive;negative
1737994023,28bf87dcce8e2296cc0912f3a280fe6b,PennController,69,0,test_val,NULL,PennController,80,_Trial_,End,1737993676169,undefined,500,kindness,abstract-positive,positive,negative,A,NULL
1737994023,28bf87dcce8e2296cc0912f3a280fe6b,PennController,52,0,test_val,NULL,PennController,63,_Trial_,Start,1737993676170,undefined,633,shame,abstract-negative,positive,negative,A,NULL
1737994023,28bf87dcce8e2296cc0912f3a280fe6b,PennController,52,0,test_val,NULL,PennController,63,_Header_,Start,1737993676170,undefined,633,shame,abstract-negative,positive,negative,A,NULL
1737994023,28bf87dcce8e2296cc0912f3a280fe6b,PennController,52,0,test_val,NULL,PennController,63,_Header_,End,1737993676424,undefined,633,shame,abstract-negative,positive,negative,A,NULL
1737994023,28bf87dcce8e2296cc0912f3a280fe6b,PennController,52,0,test_val,NULL,Selector,unnamed-Selector,Selection,negative,1737993677561,undefined,633,shame,abstract-negative,positive,negative,A,positive;negative
1737994023,28bf87dcce8e2296cc0912f3a280fe6b,PennController,52,0,test_val,NULL,PennController,63,_Trial_,End,1737993677563,undefined,633,shame,abstract-negative,positive,negative,A,NULL
1737994023,28bf87dcce8e2296cc0912f3a280fe6b,PennController,58,0,test_val,NULL,PennController,69,_Trial_,Start,1737993677564,undefined,626,beach,concrete-positive,positive,negative,A,NULL
1737994023,28bf87dcce8e2296cc0912f3a280fe6b,PennController,58,0,test_val,NULL,PennController,69,_Header_,Start,1737993677564,undefined,626,beach,concrete-positive,positive,negative,A,NULL
1737994023,28bf87dcce8e2296cc0912f3a280fe6b,PennController,58,0,test_val,NULL,PennController,69,_Header_,End,1737993677815,undefined,626,beach,concrete-positive,positive,negative,A,NULL
1737994023,28bf87dcce8e2296cc0912f3a280fe6b,PennController,58,0,test_val,NULL,Selector,unnamed-Selector,Selection,positive,1737993678945,undefined,626,beach,concrete-positive,positive,negative,A,positive;negative
1737994023,28bf87dcce8e2296cc0912f3a280fe6b,PennController,58,0,test_val,NULL,PennController,69,_Trial_,End,1737993678947,undefined,626,beach,concrete-positive,positive,negative,A,NULL
1737994023,28bf87dcce8e2296cc0912f3a280fe6b,PennController,75,0,test_val,NULL,PennController,86,_Trial_,Start,1737993678947,undefined,515,rot,concrete-negative,positive,negative,A,NULL
1737994023,28bf87dcce8e2296cc0912f3a280fe6b,PennController,75,0,test_val,NULL,PennController,86,_Header_,Start,1737993678947,undefined,515,rot,concrete-negative,positive,negative,A,NULL
1737994023,28bf87dcce8e2296cc0912f3a280fe6b,PennController,75,0,test_val,NULL,PennController,86,_Header_,End,1737993679200,undefined,515,rot,concrete-negative,positive,negative,A,NULL
1737994023,28bf87dcce8e2296cc0912f3a280fe6b,PennController,75,0,test_val,NULL,Selector,unnamed-Selector,Selection,negative,1737993680216,undefined,515,rot,concrete-negative,positive,negative,A,positive;negative
1737994023,28bf87dcce8e2296cc0912f3a280fe6b,PennController,75,0,test_val,NULL,PennController,86,_Trial_,End,1737993680217,undefined,515,rot,concrete-negative,positive,negative,A,NULL
1737994023,28bf87dcce8e2296cc0912f3a280fe6b,PennController,70,0,test_val,NULL,PennController,81,_Trial_,Start,1737993680218,undefined,529,happiness,abstract-positive,positive,negative,A,NULL
1737994023,28bf87dcce8e2296cc0912f3a280fe6b,PennController,70,0,test_val,NULL,PennController,81,_Header_,Start,1737993680218,undefined,529,happiness,abstract-positive,positive,negative,A,NULL
1737994023,28bf87dcce8e2296cc0912f3a280fe6b,PennController,70,0,test_val,NULL,PennController,81,_Header_,End,1737993680468,undefined,529,happiness,abstract-positive,positive,negative,A,NULL
1737994023,28bf87dcce8e2296cc0912f3a280fe6b,PennController,70,0,test_val,NULL,Selector,unnamed-Selector,Selection,positive,1737993681497,undefined,529,happiness,abstract-positive,positive,negative,A,positive;negative
1737994023,28bf87dcce8e2296cc0912f3a280fe6b,PennController,70,0,test_val,NULL,PennController,81,_Trial_,End,1737993681498,undefined,529,happiness,abstract-positive,positive,negative,A,NULL
1737994023,28bf87dcce8e2296cc0912f3a280fe6b,PennController,65,0,test_val,NULL,PennController,76,_Trial_,Start,1737993681499,undefined,559,hope,abstract-positive,positive,negative,A,NULL
1737994023,28bf87dcce8e2296cc0912f3a280fe6b,PennController,65,0,test_val,NULL,PennController,76,_Header_,Start,1737993681499,undefined,559,hope,abstract-positive,positive,negative,A,NULL
1737994023,28bf87dcce8e2296cc0912f3a280fe6b,PennController,65,0,test_val,NULL,PennController,76,_Header_,End,1737993681752,undefined,559,hope,abstract-positive,positive,negative,A,NULL
1737994023,28bf87dcce8e2296cc0912f3a280fe6b,PennController,65,0,test_val,NULL,Selector,unnamed-Selector,Selection,positive,1737993682817,undefined,559,hope,abstract-positive,positive,negative,A,positive;negative
1737994023,28bf87dcce8e2296cc0912f3a280fe6b,PennController,65,0,test_val,NULL,PennController,76,_Trial_,End,1737993682818,undefined,559,hope,abstract-positive,positive,negative,A,NULL
1737994023,28bf87dcce8e2296cc0912f3a280fe6b,PennController,63,0,test_val,NULL,PennController,74,_Trial_,Start,1737993682819,undefined,599,fireplace,concrete-positive,positive,negative,A,NULL
1737994023,28bf87dcce8e2296cc0912f3a280fe6b,PennController,63,0,test_val,NULL,PennController,74,_Header_,Start,1737993682819,undefined,599,fireplace,concrete-positive,positive,negative,A,NULL
