"","ID.true","Word","Label","ConcValCombo","Task","BlockOrder","Group","Response","Accuracy","EventTime","Value","RT","ReactionTime","Key_value_F","Key_value_J","Comments","LogReactionTime","LogRT","TrialNumber"
"1","5a51ba7676d1c60001aaa660","resentment","test_val","abstract-negative","Valence","VC","A","positive",0,1737994385330,"positive",1432,939,"negative","A","",6.84481547920826,7.26682734752059,1
"2","5a51ba7676d1c60001aaa660","chocolate","test_val","concrete-positive","Valence","VC","A","positive",1,1737994386929,"positive",1398.66666666667,839,"negative","A","",6.73221070646721,7.24327468084808,2
"3","5a51ba7676d1c60001aaa660","sunshine","test_val","concrete-positive","Valence","VC","A","positive",1,1737994388238,"positive",1475.16666666667,551,"negative","A","",6.31173480915291,7.29652625674082,3
"4","5a51ba7676d1c60001aaa660","grief","test_val","abstract-negative","Valence","VC","A","negative",1,1737994389506,"negative",1358.66666666667,512,"negative","A","",6.23832462503951,7.21425910567451,4
"5","5a51ba7676d1c60001aaa660","garbage","test_val","concrete-negative","Valence","VC","A","negative",1,1737994390766,"negative",1375.91666666667,499,"negative","A","",6.21260609575152,7.22687545464383,5
"6","5a51ba7676d1c60001aaa660","failure","test_val","abstract-negative","Valence","VC","A","negative",1,1737994392077,"negative",1329.33333333333,550,"negative","A","",6.30991827822652,7.19243284241362,6
"7","5a51ba7676d1c60001aaa660","gratitude","test_val","abstract-positive","Valence","VC","A","positive",1,1737994393463,"positive",1446.33333333333,630,"negative","A","",6.44571981938558,7.27678689713024,7
"8","5a51ba7676d1c60001aaa660","hug","test_val","concrete-positive","Valence","VC","A","positive",1,1737994394825,"positive",1346.83333333333,604,"negative","A","",6.40357419793482,7.20551143700539,8
"9","5a51ba7676d1c60001aaa660","lonliness","test_val","abstract-negative","Valence","VC","A","negative",1,1737994396335,"negative",1490.83333333333,749,"negative","A","",6.61873898351722,7.30709052671476,9
"10","5a51ba7676d1c60001aaa660","fireplace","test_val","concrete-positive","Valence","VC","A","positive",1,1737994397869,"positive",1396.58333333333,774,"negative","A","",6.65157187358973,7.24178405659687,10
"11","5a51ba7676d1c60001aaa660","envy","test_val","abstract-negative","Valence","VC","A","negative",1,1737994399246,"negative",1380,622,"negative","A","",6.43294009273918,7.22983877815125,11
"12","5a51ba7676d1c60001aaa660","love","test_val","abstract-positive","Valence","VC","A","positive",1,1737994400474,"positive",1345.83333333333,470,"negative","A","",6.1527326947041,7.2047686788628,12
"13","5a51ba7676d1c60001aaa660","rust","test_val","concrete-negative","Valence","VC","A","negative",1,1737994402159,"negative",1500,927,"negative","A","",6.83195356556585,7.3132203870903,13
"14","5a51ba7676d1c60001aaa660","smoke","test_val","concrete-negative","Valence","VC","A","negative",1,1737994403547,"negative",1471.33333333333,631,"negative","A","",6.44730586254121,7.29392429814857,14
"15","5a51ba7676d1c60001aaa660","vomit","test_val","concrete-negative","Valence","VC","A","negative",1,1737994404876,"negative",1385.83333333333,569,"negative","A","",6.34388043412633,7.23405692239897,15
"16","5a51ba7676d1c60001aaa660","mold","test_val","concrete-negative","Valence","VC","A","negative",1,1737994406343,"negative",1458.41666666667,706,"negative","A","",6.55961523749324,7.28510665134816,16
"17","5a51ba7676d1c60001aaa660","freedom","test_val","abstract-positive","Valence","VC","A","positive",1,1737994407603,"positive",1359.5,503,"negative","A","",6.22059017009974,7.21487226407253,17
"18","5a51ba7676d1c60001aaa660","filth","test_val","concrete-negative","Valence","VC","A","negative",1,1737994408985,"negative",1492.83333333333,622,"negative","A","",6.43294009273918,7.30843115924714,18
"19","5a51ba7676d1c60001aaa660","rot","test_val","concrete-negative","Valence","VC","A","negative",1,1737994410338,"negative",1588.16666666667,594,"negative","A","",6.38687931936265,7.37033559012013,19
"20","5a51ba7676d1c60001aaa660","kindness","test_val","abstract-positive","Valence","VC","A","positive",1,1737994411715,"positive",1378.33333333333,616,"negative","A","",6.42324696353352,7.22863031878968,20
"21","5a51ba7676d1c60001aaa660","rain","test_val","concrete-positive","Valence","VC","A","positive",1,1737994413055,"positive",1498.5,582,"negative","A","",6.36647044773144,7.31221988675672,21
"22","5a51ba7676d1c60001aaa660","laughter","test_val","concrete-positive","Valence","VC","A","positive",1,1737994414471,"positive",1649.33333333333,655,"negative","A","",6.48463523563525,7.40812644484427,22
"23","5a51ba7676d1c60001aaa660","home","test_val","concrete-positive","Valence","VC","A","positive",1,1737994415893,"positive",1370.66666666667,666,"negative","A","",6.50128967054039,7.22305251846689,23
"24","5a51ba7676d1c60001aaa660","peace","test_val","abstract-positive","Valence","VC","A","positive",1,1737994417453,"positive",1403.5,799,"negative","A","",6.68336094576627,7.24672439580194,24
"25","5a51ba7676d1c60001aaa660","flowers","test_val","concrete-positive","Valence","VC","A","positive",1,1737994418751,"positive",1319.16666666667,534,"negative","A","",6.2803958389602,7.18475550308706,25
"26","5a51ba7676d1c60001aaa660","mud","test_val","concrete-negative","Valence","VC","A","negative",1,1737994420185,"negative",1411.83333333333,671,"negative","A","",6.50876913697168,7.2526443752035,26
"27","5a51ba7676d1c60001aaa660","guilt","test_val","abstract-negative","Valence","VC","A","negative",1,1737994421481,"negative",1385.83333333333,538,"negative","A","",6.28785856016178,7.23405692239897,27
"28","5a51ba7676d1c60001aaa660","injury","test_val","concrete-negative","Valence","VC","A","negative",1,1737994422886,"negative",1456.33333333333,647,"negative","A","",6.4723462945009,7.28367714028333,28
"29","5a51ba7676d1c60001aaa660","regret","test_val","abstract-negative","Valence","VC","A","negative",1,1737994424278,"negative",1390.16666666667,630,"negative","A","",6.44571981938558,7.23717892301356,29
"30","5a51ba7676d1c60001aaa660","beach","test_val","concrete-positive","Valence","VC","A","positive",1,1737994425664,"positive",1336.33333333333,626,"negative","A","",6.4393503711001,7.1976848239744,30
"31","5a51ba7676d1c60001aaa660","stench","test_val","concrete-negative","Valence","VC","A","negative",1,1737994427170,"negative",1453.5,749,"negative","A","",6.61873898351722,7.28172971999893,31
"32","5a51ba7676d1c60001aaa660","shame","test_val","abstract-negative","Valence","VC","A","negative",1,1737994428521,"negative",1386.5,590,"negative","A","",6.38012253689976,7.23453786505583,32
"33","5a51ba7676d1c60001aaa660","compassion","test_val","abstract-positive","Valence","VC","A","positive",1,1737994429930,"positive",1513.16666666667,652,"negative","A","",6.48004456192665,7.3219598641437,33
"34","5a51ba7676d1c60001aaa660","despair","test_val","abstract-negative","Valence","VC","A","negative",1,1737994431423,"negative",1437.5,736,"negative","A","",6.60123011872888,7.27066077267151,34
"35","5a51ba7676d1c60001aaa660","hope","test_val","abstract-positive","Valence","VC","A","positive",1,1737994432779,"positive",1405.16666666667,594,"negative","A","",6.38687931936265,7.24791119869462,35
"36","5a51ba7676d1c60001aaa660","joy","test_val","abstract-positive","Valence","VC","A","positive",1,1737994434166,"positive",1495.33333333333,628,"negative","A","",6.4425401664682,7.31010442641204,36
"37","5a51ba7676d1c60001aaa660","inspiration","test_val","abstract-positive","Valence","VC","A","negative",0,1737994435494,"negative",1421.33333333333,569,"negative","A","",6.34388043412633,7.25935067717757,37
"38","5a51ba7676d1c60001aaa660","happiness","test_val","abstract-positive","Valence","VC","A","positive",1,1737994436948,"positive",1353.5,696,"negative","A","",6.54534966033442,7.21044910905436,38
"39","5a51ba7676d1c60001aaa660","anxiety","test_val","abstract-negative","Valence","VC","A","negative",1,1737994438410,"negative",1439.16666666667,704,"negative","A","",6.55677835615804,7.27181952135272,39
"40","5a51ba7676d1c60001aaa660","music","test_val","concrete-positive","Valence","VC","A","positive",1,1737994439744,"positive",1627.66666666667,580,"negative","A","",6.36302810354046,7.39490277539355,40
"41","5a51ba7676d1c60001aaa660","envy","test_val","abstract-negative","Valence","VC","A","negative",1,1737994441292,"negative",1380,788,"negative","A","",6.66949808985788,7.22983877815125,41
"42","5a51ba7676d1c60001aaa660","chocolate","test_val","concrete-positive","Valence","VC","A","positive",1,1737994442627,"positive",1398.66666666667,576,"negative","A","",6.35610766069589,7.24327468084808,42
"43","5a51ba7676d1c60001aaa660","injury","test_val","concrete-negative","Valence","VC","A","negative",1,1737994443978,"negative",1456.33333333333,597,"negative","A","",6.3919171133926,7.28367714028333,43
"44","5a51ba7676d1c60001aaa660","freedom","test_val","abstract-positive","Valence","VC","A","positive",1,1737994445398,"positive",1359.5,663,"negative","A","",6.49677499018586,7.21487226407253,44
"45","5a51ba7676d1c60001aaa660","beach","test_val","concrete-positive","Valence","VC","A","positive",1,1737994446748,"positive",1336.33333333333,592,"negative","A","",6.38350663488401,7.1976848239744,45
"46","5a51ba7676d1c60001aaa660","gratitude","test_val","abstract-positive","Valence","VC","A","positive",1,1737994448123,"positive",1446.33333333333,617,"negative","A","",6.42486902390539,7.27678689713024,46
"47","5a51ba7676d1c60001aaa660","kindness","test_val","abstract-positive","Valence","VC","A","positive",1,1737994449408,"positive",1378.33333333333,530,"negative","A","",6.27287700654617,7.22863031878968,47
"48","5a51ba7676d1c60001aaa660","despair","test_val","abstract-negative","Valence","VC","A","negative",1,1737994450861,"negative",1437.5,692,"negative","A","",6.53958595561767,7.27066077267151,48
"49","5a51ba7676d1c60001aaa660","resentment","test_val","abstract-negative","Valence","VC","A","negative",1,1737994452127,"negative",1432,509,"negative","A","",6.23244801655052,7.26682734752059,49
"50","5a51ba7676d1c60001aaa660","shame","test_val","abstract-negative","Valence","VC","A","negative",1,1737994453441,"negative",1386.5,554,"negative","A","",6.31716468674728,7.23453786505583,50
"51","5a51ba7676d1c60001aaa660","happiness","test_val","abstract-positive","Valence","VC","A","positive",1,1737994454782,"positive",1353.5,584,"negative","A","",6.36990098282823,7.21044910905436,51
"52","5a51ba7676d1c60001aaa660","hope","test_val","abstract-positive","Valence","VC","A","positive",1,1737994456172,"positive",1405.16666666667,632,"negative","A","",6.44888939414686,7.24791119869462,52
"53","5a51ba7676d1c60001aaa660","regret","test_val","abstract-negative","Valence","VC","A","negative",1,1737994457574,"negative",1390.16666666667,645,"negative","A","",6.46925031679577,7.23717892301356,53
"54","5a51ba7676d1c60001aaa660","stench","test_val","concrete-negative","Valence","VC","A","negative",1,1737994458952,"negative",1453.5,622,"negative","A","",6.43294009273918,7.28172971999893,54
"55","5a51ba7676d1c60001aaa660","rot","test_val","concrete-negative","Valence","VC","A","negative",1,1737994460284,"negative",1588.16666666667,576,"negative","A","",6.35610766069589,7.37033559012013,55
"56","5a51ba7676d1c60001aaa660","guilt","test_val","abstract-negative","Valence","VC","A","negative",1,1737994461615,"negative",1385.83333333333,572,"negative","A","",6.3491389913798,7.23405692239897,56
"57","5a51ba7676d1c60001aaa660","rust","test_val","concrete-negative","Valence","VC","A","negative",1,1737994462939,"negative",1500,567,"negative","A","",6.34035930372775,7.3132203870903,57
"58","5a51ba7676d1c60001aaa660","music","test_val","concrete-positive","Valence","VC","A","positive",1,1737994464579,"positive",1627.66666666667,884,"negative","A","",6.78445706263764,7.39490277539355,58
"59","5a51ba7676d1c60001aaa660","peace","test_val","abstract-positive","Valence","VC","A","positive",1,1737994466040,"positive",1403.5,690,"negative","A","",6.5366915975913,7.24672439580194,59
"60","5a51ba7676d1c60001aaa660","failure","test_val","abstract-negative","Valence","VC","A","positive",0,1737994467329,"positive",1329.33333333333,530,"negative","A","",6.27287700654617,7.19243284241362,60
"61","5a51ba7676d1c60001aaa660","grief","test_val","abstract-negative","Valence","VC","A","negative",1,1737994468762,"negative",1358.66666666667,672,"negative","A","",6.51025834052315,7.21425910567451,61
"62","5a51ba7676d1c60001aaa660","rain","test_val","concrete-positive","Valence","VC","A","positive",1,1737994470262,"positive",1498.5,738,"negative","A","",6.60394382460047,7.31221988675672,62
"63","5a51ba7676d1c60001aaa660","lonliness","test_val","abstract-negative","Valence","VC","A","negative",1,1737994471873,"negative",1490.83333333333,849,"negative","A","",6.74405918631135,7.30709052671476,63
"64","5a51ba7676d1c60001aaa660","flowers","test_val","concrete-positive","Valence","VC","A","positive",1,1737994473158,"positive",1319.16666666667,523,"negative","A","",6.25958146406492,7.18475550308706,64
"65","5a51ba7676d1c60001aaa660","compassion","test_val","abstract-positive","Valence","VC","A","positive",1,1737994474484,"positive",1513.16666666667,566,"negative","A","",6.33859407820318,7.3219598641437,65
"66","5a51ba7676d1c60001aaa660","love","test_val","abstract-positive","Valence","VC","A","positive",1,1737994475685,"positive",1345.83333333333,443,"negative","A","",6.09356977004514,7.2047686788628,66
"67","5a51ba7676d1c60001aaa660","home","test_val","concrete-positive","Valence","VC","A","positive",1,1737994476858,"positive",1370.66666666667,413,"negative","A","",6.02344759296103,7.22305251846689,67
"68","5a51ba7676d1c60001aaa660","inspiration","test_val","abstract-positive","Valence","VC","A","positive",1,1737994478245,"positive",1421.33333333333,627,"negative","A","",6.44094654063292,7.25935067717757,68
"69","5a51ba7676d1c60001aaa660","vomit","test_val","concrete-negative","Valence","VC","A","negative",1,1737994479590,"negative",1385.83333333333,584,"negative","A","",6.36990098282823,7.23405692239897,69
"70","5a51ba7676d1c60001aaa660","anxiety","test_val","abstract-negative","Valence","VC","A","negative",1,1737994480826,"negative",1439.16666666667,477,"negative","A","",6.16751649088834,7.27181952135272,70
"71","5a51ba7676d1c60001aaa660","fireplace","test_val","concrete-positive","Valence","VC","A","positive",1,1737994482123,"positive",1396.58333333333,537,"negative","A","",6.28599809450886,7.24178405659687,71
"72","5a51ba7676d1c60001aaa660","laughter","test_val","concrete-positive","Valence","VC","A","positive",1,1737994483428,"positive",1649.33333333333,545,"negative","A","",6.30078579466324,7.40812644484427,72
"73","5a51ba7676d1c60001aaa660","mud","test_val","concrete-negative","Valence","VC","A","negative",1,1737994484713,"negative",1411.83333333333,525,"negative","A","",6.26339826259162,7.2526443752035,73
"74","5a51ba7676d1c60001aaa660","mold","test_val","concrete-negative","Valence","VC","A","negative",1,1737994486086,"negative",1458.41666666667,619,"negative","A","",6.4281052726846,7.28510665134816,74
"75","5a51ba7676d1c60001aaa660","garbage","test_val","concrete-negative","Valence","VC","A","negative",1,1737994487474,"negative",1375.91666666667,628,"negative","A","",6.4425401664682,7.22687545464383,75
"76","5a51ba7676d1c60001aaa660","smoke","test_val","concrete-negative","Valence","VC","A","negative",1,1737994488763,"negative",1471.33333333333,532,"negative","A","",6.27664348934164,7.29392429814857,76
"77","5a51ba7676d1c60001aaa660","joy","test_val","abstract-positive","Valence","VC","A","positive",1,1737994490123,"positive",1495.33333333333,604,"negative","A","",6.40357419793482,7.31010442641204,77
"78","5a51ba7676d1c60001aaa660","filth","test_val","concrete-negative","Valence","VC","A","negative",1,1737994491469,"negative",1492.83333333333,590,"negative","A","",6.38012253689976,7.30843115924714,78
"79","5a51ba7676d1c60001aaa660","sunshine","test_val","concrete-positive","Valence","VC","A","positive",1,1737994492740,"positive",1475.16666666667,509,"negative","A","",6.23244801655052,7.29652625674082,79
"80","5a51ba7676d1c60001aaa660","hug","test_val","concrete-positive","Valence","VC","A","positive",1,1737994494020,"positive",1346.83333333333,520,"negative","A","",6.25382881157547,7.20551143700539,80
"81","5a51ba7676d1c60001aaa660","resentment","test_val","abstract-negative","Valence","VC","A","negative",1,1737994495368,"negative",1432,591,"negative","A","",6.3818160174061,7.26682734752059,81
"82","5a51ba7676d1c60001aaa660","rot","test_val","concrete-negative","Valence","VC","A","negative",1,1737994496731,"negative",1588.16666666667,605,"negative","A","",6.40522845803084,7.37033559012013,82
"83","5a51ba7676d1c60001aaa660","flowers","test_val","concrete-positive","Valence","VC","A","positive",1,1737994498016,"positive",1319.16666666667,526,"negative","A","",6.26530121273771,7.18475550308706,83
"84","5a51ba7676d1c60001aaa660","happiness","test_val","abstract-positive","Valence","VC","A","positive",1,1737994499238,"positive",1353.5,465,"negative","A","",6.14203740558736,7.21044910905436,84
"85","5a51ba7676d1c60001aaa660","despair","test_val","abstract-negative","Valence","VC","A","negative",1,1737994500535,"negative",1437.5,535,"negative","A","",6.28226674689601,7.27066077267151,85
"86","5a51ba7676d1c60001aaa660","grief","test_val","abstract-negative","Valence","VC","A","negative",1,1737994501754,"negative",1358.66666666667,463,"negative","A","",6.13772705408623,7.21425910567451,86
"87","5a51ba7676d1c60001aaa660","vomit","test_val","concrete-negative","Valence","VC","A","negative",1,1737994503072,"negative",1385.83333333333,557,"negative","A","",6.32256523992728,7.23405692239897,87
"88","5a51ba7676d1c60001aaa660","freedom","test_val","abstract-positive","Valence","VC","A","positive",1,1737994504284,"positive",1359.5,452,"negative","A","",6.11368217983223,7.21487226407253,88
"89","5a51ba7676d1c60001aaa660","compassion","test_val","abstract-positive","Valence","VC","A","positive",1,1737994505521,"positive",1513.16666666667,478,"negative","A","",6.16961073249146,7.3219598641437,89
"90","5a51ba7676d1c60001aaa660","hope","test_val","abstract-positive","Valence","VC","A","positive",1,1737994506742,"positive",1405.16666666667,463,"negative","A","",6.13772705408623,7.24791119869462,90
"91","5a51ba7676d1c60001aaa660","hug","test_val","concrete-positive","Valence","VC","A","positive",1,1737994507967,"positive",1346.83333333333,468,"negative","A","",6.14846829591765,7.20551143700539,91
"92","5a51ba7676d1c60001aaa660","injury","test_val","concrete-negative","Valence","VC","A","negative",1,1737994509218,"negative",1456.33333333333,494,"negative","A","",6.20253551718792,7.28367714028333,92
"93","5a51ba7676d1c60001aaa660","sunshine","test_val","concrete-positive","Valence","VC","A","positive",1,1737994510518,"positive",1475.16666666667,544,"negative","A","",6.29894924685594,7.29652625674082,93
"94","5a51ba7676d1c60001aaa660","beach","test_val","concrete-positive","Valence","VC","A","positive",1,1737994511761,"positive",1336.33333333333,486,"negative","A","",6.18620862390049,7.1976848239744,94
"95","5a51ba7676d1c60001aaa660","inspiration","test_val","abstract-positive","Valence","VC","A","positive",1,1737994513305,"positive",1421.33333333333,786,"negative","A","",6.66695679242921,7.25935067717757,95
"96","5a51ba7676d1c60001aaa660","stench","test_val","concrete-negative","Valence","VC","A","negative",1,1737994514682,"negative",1453.5,620,"negative","A","",6.42971947803914,7.28172971999893,96
"97","5a51ba7676d1c60001aaa660","fireplace","test_val","concrete-positive","Valence","VC","A","positive",1,1737994516130,"positive",1396.58333333333,687,"negative","A","",6.53233429222235,7.24178405659687,97
"98","5a51ba7676d1c60001aaa660","mold","test_val","concrete-negative","Valence","VC","A","negative",1,1737994517461,"negative",1458.41666666667,573,"negative","A","",6.35088571671474,7.28510665134816,98
"99","5a51ba7676d1c60001aaa660","regret","test_val","abstract-negative","Valence","VC","A","negative",1,1737994518725,"negative",1390.16666666667,502,"negative","A","",6.21860011969173,7.23717892301356,99
"100","5a51ba7676d1c60001aaa660","filth","test_val","concrete-negative","Valence","VC","A","negative",1,1737994520051,"negative",1492.83333333333,568,"negative","A","",6.34212141872115,7.30843115924714,100
"101","5a51ba7676d1c60001aaa660","kindness","test_val","abstract-positive","Valence","VC","A","positive",1,1737994521269,"positive",1378.33333333333,457,"negative","A","",6.12468339089421,7.22863031878968,101
"102","5a51ba7676d1c60001aaa660","lonliness","test_val","abstract-negative","Valence","VC","A","negative",1,1737994522650,"negative",1490.83333333333,621,"negative","A","",6.43133108193348,7.30709052671476,102
"103","5a51ba7676d1c60001aaa660","anxiety","test_val","abstract-negative","Valence","VC","A","negative",1,1737994524011,"negative",1439.16666666667,604,"negative","A","",6.40357419793482,7.27181952135272,103
"104","5a51ba7676d1c60001aaa660","shame","test_val","abstract-negative","Valence","VC","A","negative",1,1737994525590,"negative",1386.5,819,"negative","A","",6.70808408385307,7.23453786505583,104
"105","5a51ba7676d1c60001aaa660","laughter","test_val","concrete-positive","Valence","VC","A","positive",1,1737994526875,"positive",1649.33333333333,525,"negative","A","",6.26339826259162,7.40812644484427,105
"106","5a51ba7676d1c60001aaa660","rain","test_val","concrete-positive","Valence","VC","A","negative",0,1737994528287,"negative",1498.5,658,"negative","A","",6.48920493132532,7.31221988675672,106
"107","5a51ba7676d1c60001aaa660","chocolate","test_val","concrete-positive","Valence","VC","A","positive",1,1737994529649,"positive",1398.66666666667,601,"negative","A","",6.39859493453521,7.24327468084808,107
"108","5a51ba7676d1c60001aaa660","garbage","test_val","concrete-negative","Valence","VC","A","negative",1,1737994531050,"negative",1375.91666666667,643,"negative","A","",6.46614472423762,7.22687545464383,108
"109","5a51ba7676d1c60001aaa660","love","test_val","abstract-positive","Valence","VC","A","positive",1,1737994532597,"positive",1345.83333333333,788,"negative","A","",6.66949808985788,7.2047686788628,109
"110","5a51ba7676d1c60001aaa660","peace","test_val","abstract-positive","Valence","VC","A","positive",1,1737994533912,"positive",1403.5,558,"negative","A","",6.32435896238131,7.24672439580194,110
"111","5a51ba7676d1c60001aaa660","guilt","test_val","abstract-negative","Valence","VC","A","negative",1,1737994535387,"negative",1385.83333333333,719,"negative","A","",6.57786135772105,7.23405692239897,111
"112","5a51ba7676d1c60001aaa660","rust","test_val","concrete-negative","Valence","VC","A","negative",1,1737994536651,"negative",1500,506,"negative","A","",6.22653666928747,7.3132203870903,112
"113","5a51ba7676d1c60001aaa660","home","test_val","concrete-positive","Valence","VC","A","positive",1,1737994537919,"positive",1370.66666666667,513,"negative","A","",6.24027584517077,7.22305251846689,113
"114","5a51ba7676d1c60001aaa660","smoke","test_val","concrete-negative","Valence","VC","A","negative",1,1737994539283,"negative",1471.33333333333,606,"negative","A","",6.40687998606931,7.29392429814857,114
"115","5a51ba7676d1c60001aaa660","failure","test_val","abstract-negative","Valence","VC","A","negative",1,1737994540619,"negative",1329.33333333333,576,"negative","A","",6.35610766069589,7.19243284241362,115
"116","5a51ba7676d1c60001aaa660","music","test_val","concrete-positive","Valence","VC","A","positive",1,1737994542007,"positive",1627.66666666667,626,"negative","A","",6.4393503711001,7.39490277539355,116
"117","5a51ba7676d1c60001aaa660","joy","test_val","abstract-positive","Valence","VC","A","positive",1,1737994543439,"positive",1495.33333333333,677,"negative","A","",6.51767127291227,7.31010442641204,117
"118","5a51ba7676d1c60001aaa660","mud","test_val","concrete-negative","Valence","VC","A","negative",1,1737994544796,"negative",1411.83333333333,598,"negative","A","",6.39359075395063,7.2526443752035,118
"119","5a51ba7676d1c60001aaa660","gratitude","test_val","abstract-positive","Valence","VC","A","positive",1,1737994546139,"positive",1446.33333333333,585,"negative","A","",6.37161184723186,7.27678689713024,119
"120","5a51ba7676d1c60001aaa660","envy","test_val","abstract-negative","Valence","VC","A","negative",1,1737994547510,"negative",1380,611,"negative","A","",6.4150969591716,7.22983877815125,120
"121","5a51ba7676d1c60001aaa660","envy","test_conc","abstract-negative","Concrete","VC","A","concrete",0,1737994657813,"concrete",1380,570,"abstract","A","",6.3456363608286,7.22983877815125,121
"122","5a51ba7676d1c60001aaa660","peace","test_conc","abstract-positive","Concrete","VC","A","abstract",1,1737994659211,"abstract",1403.5,641,"abstract","A","",6.46302945692067,7.24672439580194,122
"123","5a51ba7676d1c60001aaa660","beach","test_conc","concrete-positive","Concrete","VC","A","concrete",1,1737994660606,"concrete",1336.33333333333,637,"abstract","A","",6.45676965557216,7.1976848239744,123
"124","5a51ba7676d1c60001aaa660","garbage","test_conc","concrete-negative","Concrete","VC","A","abstract",0,1737994662012,"abstract",1375.91666666667,650,"abstract","A","",6.47697236288968,7.22687545464383,124
"125","5a51ba7676d1c60001aaa660","joy","test_conc","abstract-positive","Concrete","VC","A","abstract",1,1737994663636,"abstract",1495.33333333333,865,"abstract","A","",6.76272950693188,7.31010442641204,125
"126","5a51ba7676d1c60001aaa660","stench","test_conc","concrete-negative","Concrete","VC","A","abstract",0,1737994665035,"abstract",1453.5,637,"abstract","A","",6.45676965557216,7.28172971999893,126
"127","5a51ba7676d1c60001aaa660","music","test_conc","concrete-positive","Concrete","VC","A","concrete",1,1737994667099,"concrete",1627.66666666667,1306,"abstract","A","",7.17472430983638,7.39490277539355,127
"128","5a51ba7676d1c60001aaa660","guilt","test_conc","abstract-negative","Concrete","VC","A","abstract",1,1737994668687,"abstract",1385.83333333333,829,"abstract","A","",6.7202201551353,7.23405692239897,128
"129","5a51ba7676d1c60001aaa660","filth","test_conc","concrete-negative","Concrete","VC","A","concrete",1,1737994670448,"concrete",1492.83333333333,999,"abstract","A","",6.90675477864855,7.30843115924714,129
"130","5a51ba7676d1c60001aaa660","hope","test_conc","abstract-positive","Concrete","VC","A","abstract",1,1737994672104,"abstract",1405.16666666667,899,"abstract","A","",6.80128303447162,7.24791119869462,130
"131","5a51ba7676d1c60001aaa660","lonliness","test_conc","abstract-negative","Concrete","VC","A","abstract",1,1737994673874,"abstract",1490.83333333333,1008,"abstract","A","",6.91572344863131,7.30709052671476,131
"132","5a51ba7676d1c60001aaa660","vomit","test_conc","concrete-negative","Concrete","VC","A","concrete",1,1737994675519,"concrete",1385.83333333333,888,"abstract","A","",6.78897174299217,7.23405692239897,132
"133","5a51ba7676d1c60001aaa660","fireplace","test_conc","concrete-positive","Concrete","VC","A","concrete",1,1737994676845,"concrete",1396.58333333333,567,"abstract","A","",6.34035930372775,7.24178405659687,133
"134","5a51ba7676d1c60001aaa660","happiness","test_conc","abstract-positive","Concrete","VC","A","concrete",0,1737994678166,"concrete",1353.5,565,"abstract","A","",6.33682573114644,7.21044910905436,134
"135","5a51ba7676d1c60001aaa660","grief","test_conc","abstract-negative","Concrete","VC","A","abstract",1,1737994679730,"abstract",1358.66666666667,807,"abstract","A","",6.69332366826995,7.21425910567451,135
"136","5a51ba7676d1c60001aaa660","freedom","test_conc","abstract-positive","Concrete","VC","A","abstract",1,1737994681115,"abstract",1359.5,625,"abstract","A","",6.4377516497364,7.21487226407253,136
"137","5a51ba7676d1c60001aaa660","shame","test_conc","abstract-negative","Concrete","VC","A","abstract",1,1737994682414,"abstract",1386.5,543,"abstract","A","",6.29710931993394,7.23453786505583,137
"138","5a51ba7676d1c60001aaa660","failure","test_conc","abstract-negative","Concrete","VC","A","abstract",1,1737994683666,"abstract",1329.33333333333,496,"abstract","A","",6.20657592672493,7.19243284241362,138
"139","5a51ba7676d1c60001aaa660","injury","test_conc","concrete-negative","Concrete","VC","A","abstract",0,1737994685384,"abstract",1456.33333333333,963,"abstract","A","",6.87005341179813,7.28367714028333,139
"140","5a51ba7676d1c60001aaa660","rust","test_conc","concrete-negative","Concrete","VC","A","abstract",0,1737994686857,"abstract",1500,715,"abstract","A","",6.57228254269401,7.3132203870903,140
"141","5a51ba7676d1c60001aaa660","gratitude","test_conc","abstract-positive","Concrete","VC","A","abstract",1,1737994688483,"abstract",1446.33333333333,870,"abstract","A","",6.76849321164863,7.27678689713024,141
"142","5a51ba7676d1c60001aaa660","hug","test_conc","concrete-positive","Concrete","VC","A","concrete",1,1737994689908,"concrete",1346.83333333333,669,"abstract","A","",6.50578406012823,7.20551143700539,142
"143","5a51ba7676d1c60001aaa660","kindness","test_conc","abstract-positive","Concrete","VC","A","abstract",1,1737994691562,"abstract",1378.33333333333,897,"abstract","A","",6.7990558620588,7.22863031878968,143
"144","5a51ba7676d1c60001aaa660","chocolate","test_conc","concrete-positive","Concrete","VC","A","concrete",1,1737994692907,"concrete",1398.66666666667,588,"abstract","A","",6.37672694789863,7.24327468084808,144
"145","5a51ba7676d1c60001aaa660","compassion","test_conc","abstract-positive","Concrete","VC","A","abstract",1,1737994694315,"abstract",1513.16666666667,648,"abstract","A","",6.47389069635227,7.3219598641437,145
"146","5a51ba7676d1c60001aaa660","rain","test_conc","concrete-positive","Concrete","VC","A","concrete",1,1737994695797,"concrete",1498.5,724,"abstract","A","",6.58479139238572,7.31221988675672,146
"147","5a51ba7676d1c60001aaa660","flowers","test_conc","concrete-positive","Concrete","VC","A","concrete",1,1737994697204,"concrete",1319.16666666667,647,"abstract","A","",6.4723462945009,7.18475550308706,147
"148","5a51ba7676d1c60001aaa660","anxiety","test_conc","abstract-negative","Concrete","VC","A","abstract",1,1737994698711,"abstract",1439.16666666667,751,"abstract","A","",6.62140565176413,7.27181952135272,148
"149","5a51ba7676d1c60001aaa660","rot","test_conc","concrete-negative","Concrete","VC","A","abstract",0,1737994700911,"abstract",1588.16666666667,1444,"abstract","A","",7.27517231945277,7.37033559012013,149
"150","5a51ba7676d1c60001aaa660","resentment","test_conc","abstract-negative","Concrete","VC","A","abstract",1,1737994702450,"abstract",1432,782,"abstract","A","",6.66185474054531,7.26682734752059,150
"151","5a51ba7676d1c60001aaa660","despair","test_conc","abstract-negative","Concrete","VC","A","abstract",1,1737994704124,"abstract",1437.5,914,"abstract","A","",6.81783057145415,7.27066077267151,151
"152","5a51ba7676d1c60001aaa660","laughter","test_conc","concrete-positive","Concrete","VC","A","concrete",1,1737994707184,"concrete",1649.33333333333,2298,"abstract","A","",7.7397944584087,7.40812644484427,152
"153","5a51ba7676d1c60001aaa660","sunshine","test_conc","concrete-positive","Concrete","VC","A","concrete",1,1737994709415,"concrete",1475.16666666667,1475,"abstract","A","",7.29641326877392,7.29652625674082,153
"154","5a51ba7676d1c60001aaa660","inspiration","test_conc","abstract-positive","Concrete","VC","A","abstract",1,1737994710935,"abstract",1421.33333333333,761,"abstract","A","",6.63463335786169,7.25935067717757,154
"155","5a51ba7676d1c60001aaa660","regret","test_conc","abstract-negative","Concrete","VC","A","abstract",1,1737994712454,"abstract",1390.16666666667,761,"abstract","A","",6.63463335786169,7.23717892301356,155
"156","5a51ba7676d1c60001aaa660","smoke","test_conc","concrete-negative","Concrete","VC","A","concrete",1,1737994714376,"concrete",1471.33333333333,1165,"abstract","A","",7.0604763659998,7.29392429814857,156
"157","5a51ba7676d1c60001aaa660","love","test_conc","abstract-positive","Concrete","VC","A","abstract",1,1737994715914,"abstract",1345.83333333333,782,"abstract","A","",6.66185474054531,7.2047686788628,157
"158","5a51ba7676d1c60001aaa660","mold","test_conc","concrete-negative","Concrete","VC","A","concrete",1,1737994717718,"concrete",1458.41666666667,1046,"abstract","A","",6.95272864462487,7.28510665134816,158
"159","5a51ba7676d1c60001aaa660","mud","test_conc","concrete-negative","Concrete","VC","A","concrete",1,1737994719317,"concrete",1411.83333333333,843,"abstract","A","",6.73696695800186,7.2526443752035,159
"160","5a51ba7676d1c60001aaa660","home","test_conc","concrete-positive","Concrete","VC","A","concrete",1,1737994720766,"concrete",1370.66666666667,691,"abstract","A","",6.53813982376767,7.22305251846689,160
"161","5a51ba7676d1c60001aaa660","rot","test_conc","concrete-negative","Concrete","VC","A","abstract",0,1737994722238,"abstract",1588.16666666667,710,"abstract","A","",6.56526497003536,7.37033559012013,161
"162","5a51ba7676d1c60001aaa660","rust","test_conc","concrete-negative","Concrete","VC","A","concrete",1,1737994723941,"concrete",1500,946,"abstract","A","",6.85224256905188,7.3132203870903,162
"163","5a51ba7676d1c60001aaa660","rain","test_conc","concrete-positive","Concrete","VC","A","concrete",1,1737994725683,"concrete",1498.5,986,"abstract","A","",6.89365635460264,7.31221988675672,163
"164","5a51ba7676d1c60001aaa660","failure","test_conc","abstract-negative","Concrete","VC","A","abstract",1,1737994727109,"abstract",1329.33333333333,670,"abstract","A","",6.50727771238501,7.19243284241362,164
"165","5a51ba7676d1c60001aaa660","kindness","test_conc","abstract-positive","Concrete","VC","A","abstract",1,1737994728534,"abstract",1378.33333333333,663,"abstract","A","",6.49677499018586,7.22863031878968,165
"166","5a51ba7676d1c60001aaa660","regret","test_conc","abstract-negative","Concrete","VC","A","abstract",1,1737994729968,"abstract",1390.16666666667,675,"abstract","A","",6.51471269087253,7.23717892301356,166
"167","5a51ba7676d1c60001aaa660","mud","test_conc","concrete-negative","Concrete","VC","A","concrete",1,1737994731344,"concrete",1411.83333333333,621,"abstract","A","",6.43133108193348,7.2526443752035,167
"168","5a51ba7676d1c60001aaa660","happiness","test_conc","abstract-positive","Concrete","VC","A","abstract",1,1737994732770,"abstract",1353.5,671,"abstract","A","",6.50876913697168,7.21044910905436,168
"169","5a51ba7676d1c60001aaa660","fireplace","test_conc","concrete-positive","Concrete","VC","A","concrete",1,1737994734142,"concrete",1396.58333333333,617,"abstract","A","",6.42486902390539,7.24178405659687,169
"170","5a51ba7676d1c60001aaa660","gratitude","test_conc","abstract-positive","Concrete","VC","A","abstract",1,1737994735561,"abstract",1446.33333333333,659,"abstract","A","",6.49072353450251,7.27678689713024,170
"171","5a51ba7676d1c60001aaa660","injury","test_conc","concrete-negative","Concrete","VC","A","concrete",1,1737994737100,"concrete",1456.33333333333,778,"abstract","A","",6.65672652417839,7.28367714028333,171
"172","5a51ba7676d1c60001aaa660","peace","test_conc","abstract-positive","Concrete","VC","A","abstract",1,1737994738481,"abstract",1403.5,625,"abstract","A","",6.4377516497364,7.24672439580194,172
"173","5a51ba7676d1c60001aaa660","chocolate","test_conc","concrete-positive","Concrete","VC","A","concrete",1,1737994739821,"concrete",1398.66666666667,579,"abstract","A","",6.361302477573,7.24327468084808,173
"174","5a51ba7676d1c60001aaa660","filth","test_conc","concrete-negative","Concrete","VC","A","concrete",1,1737994741437,"concrete",1492.83333333333,857,"abstract","A","",6.75343791859778,7.30843115924714,174
"175","5a51ba7676d1c60001aaa660","shame","test_conc","abstract-negative","Concrete","VC","A","abstract",1,1737994742850,"abstract",1386.5,656,"abstract","A","",6.48616078894409,7.23453786505583,175
"176","5a51ba7676d1c60001aaa660","music","test_conc","concrete-positive","Concrete","VC","A","abstract",0,1737994744644,"abstract",1627.66666666667,1036,"abstract","A","",6.94312242281943,7.39490277539355,176
"177","5a51ba7676d1c60001aaa660","freedom","test_conc","abstract-positive","Concrete","VC","A","abstract",1,1737994746180,"abstract",1359.5,779,"abstract","A","",6.65801104587075,7.21487226407253,177
"178","5a51ba7676d1c60001aaa660","compassion","test_conc","abstract-positive","Concrete","VC","A","abstract",1,1737994748464,"abstract",1513.16666666667,1528,"abstract","A","",7.33171496972647,7.3219598641437,178
"179","5a51ba7676d1c60001aaa660","mold","test_conc","concrete-negative","Concrete","VC","A","concrete",1,1737994749857,"concrete",1458.41666666667,635,"abstract","A","",6.45362499889269,7.28510665134816,179
"180","5a51ba7676d1c60001aaa660","despair","test_conc","abstract-negative","Concrete","VC","A","abstract",1,1737994751236,"abstract",1437.5,623,"abstract","A","",6.43454651878745,7.27066077267151,180
"181","5a51ba7676d1c60001aaa660","hug","test_conc","concrete-positive","Concrete","VC","A","concrete",1,1737994752545,"concrete",1346.83333333333,552,"abstract","A","",6.31354804627709,7.20551143700539,181
"182","5a51ba7676d1c60001aaa660","home","test_conc","concrete-positive","Concrete","VC","A","concrete",1,1737994753996,"concrete",1370.66666666667,695,"abstract","A","",6.54391184556479,7.22305251846689,182
"183","5a51ba7676d1c60001aaa660","vomit","test_conc","concrete-negative","Concrete","VC","A","concrete",1,1737994755389,"concrete",1385.83333333333,633,"abstract","A","",6.45047042214418,7.23405692239897,183
"184","5a51ba7676d1c60001aaa660","flowers","test_conc","concrete-positive","Concrete","VC","A","concrete",1,1737994756731,"concrete",1319.16666666667,583,"abstract","A","",6.36818718635049,7.18475550308706,184
"185","5a51ba7676d1c60001aaa660","resentment","test_conc","abstract-negative","Concrete","VC","A","abstract",1,1737994758048,"abstract",1432,559,"abstract","A","",6.3261494731551,7.26682734752059,185
"186","5a51ba7676d1c60001aaa660","anxiety","test_conc","abstract-negative","Concrete","VC","A","concrete",0,1737994759673,"concrete",1439.16666666667,870,"abstract","A","",6.76849321164863,7.27181952135272,186
"187","5a51ba7676d1c60001aaa660","sunshine","test_conc","concrete-positive","Concrete","VC","A","concrete",1,1737994760939,"concrete",1475.16666666667,504,"abstract","A","",6.22257626807137,7.29652625674082,187
"188","5a51ba7676d1c60001aaa660","inspiration","test_conc","abstract-positive","Concrete","VC","A","abstract",1,1737994762374,"abstract",1421.33333333333,674,"abstract","A","",6.51323011091231,7.25935067717757,188
"189","5a51ba7676d1c60001aaa660","smoke","test_conc","concrete-negative","Concrete","VC","A","concrete",1,1737994763829,"concrete",1471.33333333333,693,"abstract","A","",6.5410299991899,7.29392429814857,189
"190","5a51ba7676d1c60001aaa660","laughter","test_conc","concrete-positive","Concrete","VC","A","abstract",0,1737994765235,"abstract",1649.33333333333,649,"abstract","A","",6.47543271670409,7.40812644484427,190
"191","5a51ba7676d1c60001aaa660","hope","test_conc","abstract-positive","Concrete","VC","A","abstract",1,1737994766694,"abstract",1405.16666666667,703,"abstract","A","",6.55535689181067,7.24791119869462,191
"192","5a51ba7676d1c60001aaa660","garbage","test_conc","concrete-negative","Concrete","VC","A","concrete",1,1737994768121,"concrete",1375.91666666667,666,"abstract","A","",6.50128967054039,7.22687545464383,192
"193","5a51ba7676d1c60001aaa660","beach","test_conc","concrete-positive","Concrete","VC","A","concrete",1,1737994769440,"concrete",1336.33333333333,558,"abstract","A","",6.32435896238131,7.1976848239744,193
"194","5a51ba7676d1c60001aaa660","grief","test_conc","abstract-negative","Concrete","VC","A","abstract",1,1737994770798,"abstract",1358.66666666667,600,"abstract","A","",6.39692965521615,7.21425910567451,194
"195","5a51ba7676d1c60001aaa660","love","test_conc","abstract-positive","Concrete","VC","A","abstract",1,1737994772070,"abstract",1345.83333333333,514,"abstract","A","",6.24222326545517,7.2047686788628,195
"196","5a51ba7676d1c60001aaa660","guilt","test_conc","abstract-negative","Concrete","VC","A","abstract",1,1737994773355,"abstract",1385.83333333333,525,"abstract","A","",6.26339826259162,7.23405692239897,196
"197","5a51ba7676d1c60001aaa660","stench","test_conc","concrete-negative","Concrete","VC","A","concrete",1,1737994774906,"concrete",1453.5,790,"abstract","A","",6.67203294546107,7.28172971999893,197
"198","5a51ba7676d1c60001aaa660","joy","test_conc","abstract-positive","Concrete","VC","A","abstract",1,1737994776631,"abstract",1495.33333333333,967,"abstract","A","",6.87419849545329,7.31010442641204,198
"199","5a51ba7676d1c60001aaa660","lonliness","test_conc","abstract-negative","Concrete","VC","A","abstract",1,1737994778069,"abstract",1490.83333333333,679,"abstract","A","",6.5206211275587,7.30709052671476,199
"200","5a51ba7676d1c60001aaa660","envy","test_conc","abstract-negative","Concrete","VC","A","abstract",1,1737994779407,"abstract",1380,581,"abstract","A","",6.36475075685191,7.22983877815125,200
"201","5a51ba7676d1c60001aaa660","mold","test_conc","concrete-negative","Concrete","VC","A","concrete",1,1737994780807,"concrete",1458.41666666667,643,"abstract","A","",6.46614472423762,7.28510665134816,201
"202","5a51ba7676d1c60001aaa660","peace","test_conc","abstract-positive","Concrete","VC","A","abstract",1,1737994782132,"abstract",1403.5,565,"abstract","A","",6.33682573114644,7.24672439580194,202
"203","5a51ba7676d1c60001aaa660","freedom","test_conc","abstract-positive","Concrete","VC","A","abstract",1,1737994783499,"abstract",1359.5,610,"abstract","A","",6.41345895716736,7.21487226407253,203
"204","5a51ba7676d1c60001aaa660","injury","test_conc","concrete-negative","Concrete","VC","A","concrete",1,1737994784989,"concrete",1456.33333333333,732,"abstract","A","",6.59578051396131,7.28367714028333,204
"205","5a51ba7676d1c60001aaa660","gratitude","test_conc","abstract-positive","Concrete","VC","A","abstract",1,1737994786535,"abstract",1446.33333333333,786,"abstract","A","",6.66695679242921,7.27678689713024,205
"206","5a51ba7676d1c60001aaa660","kindness","test_conc","abstract-positive","Concrete","VC","A","abstract",1,1737994787862,"abstract",1378.33333333333,568,"abstract","A","",6.34212141872115,7.22863031878968,206
"207","5a51ba7676d1c60001aaa660","fireplace","test_conc","concrete-positive","Concrete","VC","A","concrete",1,1737994789285,"concrete",1396.58333333333,662,"abstract","A","",6.49526555593701,7.24178405659687,207
"208","5a51ba7676d1c60001aaa660","grief","test_conc","abstract-negative","Concrete","VC","A","abstract",1,1737994790614,"abstract",1358.66666666667,573,"abstract","A","",6.35088571671474,7.21425910567451,208
"209","5a51ba7676d1c60001aaa660","failure","test_conc","abstract-negative","Concrete","VC","A","abstract",1,1737994791997,"abstract",1329.33333333333,628,"abstract","A","",6.4425401664682,7.19243284241362,209
"210","5a51ba7676d1c60001aaa660","rot","test_conc","concrete-negative","Concrete","VC","A","abstract",0,1737994793825,"abstract",1588.16666666667,1071,"abstract","A","",6.97634807044775,7.37033559012013,210
"211","5a51ba7676d1c60001aaa660","rain","test_conc","concrete-positive","Concrete","VC","A","concrete",1,1737994795360,"concrete",1498.5,777,"abstract","A","",6.65544035036765,7.31221988675672,211
"212","5a51ba7676d1c60001aaa660","mud","test_conc","concrete-negative","Concrete","VC","A","concrete",1,1737994796799,"concrete",1411.83333333333,682,"abstract","A","",6.52502965784346,7.2526443752035,212
"213","5a51ba7676d1c60001aaa660","hug","test_conc","concrete-positive","Concrete","VC","A","concrete",1,1737994798300,"concrete",1346.83333333333,744,"abstract","A","",6.61204103483309,7.20551143700539,213
"214","5a51ba7676d1c60001aaa660","guilt","test_conc","abstract-negative","Concrete","VC","A","abstract",1,1737994799660,"abstract",1385.83333333333,601,"abstract","A","",6.39859493453521,7.23405692239897,214
"215","5a51ba7676d1c60001aaa660","stench","test_conc","concrete-negative","Concrete","VC","A","abstract",0,1737994801188,"abstract",1453.5,769,"abstract","A","",6.64509096950564,7.28172971999893,215
"216","5a51ba7676d1c60001aaa660","resentment","test_conc","abstract-negative","Concrete","VC","A","abstract",1,1737994802632,"abstract",1432,685,"abstract","A","",6.52941883826223,7.26682734752059,216
"217","5a51ba7676d1c60001aaa660","vomit","test_conc","concrete-negative","Concrete","VC","A","concrete",1,1737994803937,"concrete",1385.83333333333,548,"abstract","A","",6.30627528694802,7.23405692239897,217
"218","5a51ba7676d1c60001aaa660","love","test_conc","abstract-positive","Concrete","VC","A","abstract",1,1737994805246,"abstract",1345.83333333333,548,"abstract","A","",6.30627528694802,7.2047686788628,218
"219","5a51ba7676d1c60001aaa660","music","test_conc","concrete-positive","Concrete","VC","A","concrete",1,1737994806808,"concrete",1627.66666666667,804,"abstract","A","",6.68959926917897,7.39490277539355,219
"220","5a51ba7676d1c60001aaa660","compassion","test_conc","abstract-positive","Concrete","VC","A","abstract",1,1737994808244,"abstract",1513.16666666667,680,"abstract","A","",6.52209279817015,7.3219598641437,220
"221","5a51ba7676d1c60001aaa660","beach","test_conc","concrete-positive","Concrete","VC","A","concrete",1,1737994809588,"concrete",1336.33333333333,583,"abstract","A","",6.36818718635049,7.1976848239744,221
"222","5a51ba7676d1c60001aaa660","laughter","test_conc","concrete-positive","Concrete","VC","A","abstract",0,1737994811029,"abstract",1649.33333333333,683,"abstract","A","",6.52649485957079,7.40812644484427,222
"223","5a51ba7676d1c60001aaa660","happiness","test_conc","abstract-positive","Concrete","VC","A","abstract",1,1737994812404,"abstract",1353.5,615,"abstract","A","",6.42162226780652,7.21044910905436,223
"224","5a51ba7676d1c60001aaa660","hope","test_conc","abstract-positive","Concrete","VC","A","abstract",1,1737994813770,"abstract",1405.16666666667,610,"abstract","A","",6.41345895716736,7.24791119869462,224
"225","5a51ba7676d1c60001aaa660","lonliness","test_conc","abstract-negative","Concrete","VC","A","abstract",1,1737994815024,"abstract",1490.83333333333,493,"abstract","A","",6.20050917404269,7.30709052671476,225
"226","5a51ba7676d1c60001aaa660","filth","test_conc","concrete-negative","Concrete","VC","A","concrete",1,1737994816565,"concrete",1492.83333333333,780,"abstract","A","",6.65929391968364,7.30843115924714,226
"227","5a51ba7676d1c60001aaa660","smoke","test_conc","concrete-negative","Concrete","VC","A","concrete",1,1737994817991,"concrete",1471.33333333333,668,"abstract","A","",6.50428817353665,7.29392429814857,227
"228","5a51ba7676d1c60001aaa660","inspiration","test_conc","abstract-positive","Concrete","VC","A","abstract",1,1737994819325,"abstract",1421.33333333333,577,"abstract","A","",6.3578422665081,7.25935067717757,228
"229","5a51ba7676d1c60001aaa660","chocolate","test_conc","concrete-positive","Concrete","VC","A","concrete",1,1737994820758,"concrete",1398.66666666667,677,"abstract","A","",6.51767127291227,7.24327468084808,229
"230","5a51ba7676d1c60001aaa660","despair","test_conc","abstract-negative","Concrete","VC","A","abstract",1,1737994822108,"abstract",1437.5,594,"abstract","A","",6.38687931936265,7.27066077267151,230
"231","5a51ba7676d1c60001aaa660","anxiety","test_conc","abstract-negative","Concrete","VC","A","concrete",0,1737994823568,"concrete",1439.16666666667,700,"abstract","A","",6.5510803350434,7.27181952135272,231
"232","5a51ba7676d1c60001aaa660","joy","test_conc","abstract-positive","Concrete","VC","A","abstract",1,1737994825030,"abstract",1495.33333333333,702,"abstract","A","",6.55393340402581,7.31010442641204,232
"233","5a51ba7676d1c60001aaa660","garbage","test_conc","concrete-negative","Concrete","VC","A","concrete",1,1737994826423,"concrete",1375.91666666667,635,"abstract","A","",6.45362499889269,7.22687545464383,233
"234","5a51ba7676d1c60001aaa660","flowers","test_conc","concrete-positive","Concrete","VC","A","concrete",1,1737994827742,"concrete",1319.16666666667,559,"abstract","A","",6.3261494731551,7.18475550308706,234
"235","5a51ba7676d1c60001aaa660","shame","test_conc","abstract-negative","Concrete","VC","A","abstract",1,1737994829122,"abstract",1386.5,620,"abstract","A","",6.42971947803914,7.23453786505583,235
"236","5a51ba7676d1c60001aaa660","envy","test_conc","abstract-negative","Concrete","VC","A","abstract",1,1737994830454,"abstract",1380,577,"abstract","A","",6.3578422665081,7.22983877815125,236
"237","5a51ba7676d1c60001aaa660","regret","test_conc","abstract-negative","Concrete","VC","A","abstract",1,1737994831801,"abstract",1390.16666666667,587,"abstract","A","",6.3750248198281,7.23717892301356,237
"238","5a51ba7676d1c60001aaa660","rust","test_conc","concrete-negative","Concrete","VC","A","concrete",1,1737994833372,"concrete",1500,814,"abstract","A","",6.70196036600254,7.3132203870903,238
"239","5a51ba7676d1c60001aaa660","home","test_conc","concrete-positive","Concrete","VC","A","concrete",1,1737994834851,"concrete",1370.66666666667,719,"abstract","A","",6.57786135772105,7.22305251846689,239
"240","5a51ba7676d1c60001aaa660","sunshine","test_conc","concrete-positive","Concrete","VC","A","concrete",1,1737994836345,"concrete",1475.16666666667,737,"abstract","A","",6.60258789218934,7.29652625674082,240
"241","5dcd91a0b7ebf606d16c971e","inspiration","test_conc","abstract-positive","Concrete","CV","A","abstract",1,1742906530570,"abstract",1623.16666666667,675,"abstract","A","",6.51471269087253,7.39213425273314,1
"242","5dcd91a0b7ebf606d16c971e","home","test_conc","concrete-positive","Concrete","CV","A","concrete",1,1742906532114,"concrete",1433.66666666667,786,"abstract","A","",6.66695679242921,7.26799054411563,2
"243","5dcd91a0b7ebf606d16c971e","regret","test_conc","abstract-negative","Concrete","CV","A","abstract",1,1742906533618,"abstract",1372.16666666667,748,"abstract","A","",6.61740297797448,7.22414627807037,3
"244","5dcd91a0b7ebf606d16c971e","lonliness","test_conc","abstract-negative","Concrete","CV","A","abstract",1,1742906535250,"abstract",1470.83333333333,876,"abstract","A","",6.77536609093639,7.29358441257344,4
"245","5dcd91a0b7ebf606d16c971e","mud","test_conc","concrete-negative","Concrete","CV","A","concrete",1,1742906537145,"concrete",1533.66666666667,1142,"abstract","A","",7.04053639021596,7.33541666148736,5
"246","5dcd91a0b7ebf606d16c971e","resentment","test_conc","abstract-negative","Concrete","CV","A","abstract",1,1742906538602,"abstract",1656.33333333333,701,"abstract","A","",6.55250788703459,7.41236160293421,6
"247","5dcd91a0b7ebf606d16c971e","anxiety","test_conc","abstract-negative","Concrete","CV","A","abstract",1,1742906539954,"abstract",1419.16666666667,595,"abstract","A","",6.38856140554563,7.25782512386873,7
"248","5dcd91a0b7ebf606d16c971e","injury","test_conc","concrete-negative","Concrete","CV","A","abstract",0,1742906541298,"abstract",1522.33333333333,589,"abstract","A","",6.37842618365159,7.32799952451689,8
"249","5dcd91a0b7ebf606d16c971e","chocolate","test_conc","concrete-positive","Concrete","CV","A","concrete",1,1742906542730,"concrete",1433.5,677,"abstract","A","",6.51767127291227,7.26787428532342,9
"250","5dcd91a0b7ebf606d16c971e","garbage","test_conc","concrete-negative","Concrete","CV","A","concrete",1,1742906544058,"concrete",1399.16666666667,569,"abstract","A","",6.34388043412633,7.24363210028359,10
"251","5dcd91a0b7ebf606d16c971e","hug","test_conc","concrete-positive","Concrete","CV","A","concrete",1,1742906545834,"concrete",1427,1021,"abstract","A","",6.92853781816467,7.26332961747684,11
"252","5dcd91a0b7ebf606d16c971e","happiness","test_conc","abstract-positive","Concrete","CV","A","abstract",1,1742906547345,"abstract",1552,757,"abstract","A","",6.62936325343745,7.34729970074316,12
"253","5dcd91a0b7ebf606d16c971e","kindness","test_conc","abstract-positive","Concrete","CV","A","abstract",1,1742906548754,"abstract",1412.83333333333,655,"abstract","A","",6.48463523563525,7.25335242338035,13
"254","5dcd91a0b7ebf606d16c971e","rot","test_conc","concrete-negative","Concrete","CV","A","abstract",0,1742906551666,"abstract",1928,2159,"abstract","A","",7.67740043051481,7.56423847517049,14
"255","5dcd91a0b7ebf606d16c971e","rust","test_conc","concrete-negative","Concrete","CV","A","concrete",1,1742906553297,"concrete",1597.5,878,"abstract","A","",6.77764659363512,7.37619518625169,15
"256","5dcd91a0b7ebf606d16c971e","laughter","test_conc","concrete-positive","Concrete","CV","A","concrete",1,1742906554538,"concrete",1412.33333333333,485,"abstract","A","",6.18414889093748,7.25299846195845,16
"257","5dcd91a0b7ebf606d16c971e","gratitude","test_conc","abstract-positive","Concrete","CV","A","abstract",1,1742906556665,"abstract",1489.16666666667,1371,"abstract","A","",7.22329567956231,7.30597195836547,17
"258","5dcd91a0b7ebf606d16c971e","music","test_conc","concrete-positive","Concrete","CV","A","concrete",1,1742906558210,"concrete",1510.83333333333,789,"abstract","A","",6.67076632084587,7.3204166539609,18
"259","5dcd91a0b7ebf606d16c971e","shame","test_conc","abstract-negative","Concrete","CV","A","abstract",1,1742906559874,"abstract",1468.16666666667,910,"abstract","A","",6.8134445995109,7.29176973588174,19
"260","5dcd91a0b7ebf606d16c971e","failure","test_conc","abstract-negative","Concrete","CV","A","abstract",1,1742906561890,"abstract",1569.83333333333,1262,"abstract","A","",7.14045304310116,7.35872473559476,20
"261","5dcd91a0b7ebf606d16c971e","hope","test_conc","abstract-positive","Concrete","CV","A","abstract",1,1742906563866,"abstract",1510.83333333333,1221,"abstract","A","",7.1074254741107,7.3204166539609,21
"262","5dcd91a0b7ebf606d16c971e","grief","test_conc","abstract-negative","Concrete","CV","A","abstract",1,1742906565170,"abstract",1364,547,"abstract","A","",6.30444880242198,7.21817683840341,22
"263","5dcd91a0b7ebf606d16c971e","flowers","test_conc","concrete-positive","Concrete","CV","A","concrete",1,1742906566562,"concrete",1329.5,639,"abstract","A","",6.45990445437753,7.19255821068307,23
"264","5dcd91a0b7ebf606d16c971e","despair","test_conc","abstract-negative","Concrete","CV","A","abstract",1,1742906567938,"abstract",1380.16666666667,622,"abstract","A","",6.43294009273918,7.22995954380564,24
"265","5dcd91a0b7ebf606d16c971e","sunshine","test_conc","concrete-positive","Concrete","CV","A","concrete",1,1742906569834,"concrete",1630.33333333333,1139,"abstract","A","",7.03790596344718,7.39653977187125,25
"266","5dcd91a0b7ebf606d16c971e","joy","test_conc","abstract-positive","Concrete","CV","A","abstract",1,1742906571514,"abstract",1424.16666666667,925,"abstract","A","",6.82979373751242,7.26134212632164,26
"267","5dcd91a0b7ebf606d16c971e","compassion","test_conc","abstract-positive","Concrete","CV","A","abstract",1,1742906573242,"abstract",1445.66666666667,972,"abstract","A","",6.87935580446044,7.27632585516726,27
"268","5dcd91a0b7ebf606d16c971e","envy","test_conc","abstract-negative","Concrete","CV","A","abstract",1,1742906574626,"abstract",1765.66666666667,628,"abstract","A","",6.4425401664682,7.47628361287642,28
"269","5dcd91a0b7ebf606d16c971e","mold","test_conc","concrete-negative","Concrete","CV","A","concrete",1,1742906575994,"concrete",1415,615,"abstract","A","",6.42162226780652,7.25488481007734,29
"270","5dcd91a0b7ebf606d16c971e","smoke","test_conc","concrete-negative","Concrete","CV","A","concrete",1,1742906577322,"concrete",1481.33333333333,572,"abstract","A","",6.3491389913798,7.30069786209141,30
"271","5dcd91a0b7ebf606d16c971e","rain","test_conc","concrete-positive","Concrete","CV","A","concrete",1,1742906578610,"concrete",1546.66666666667,534,"abstract","A","",6.2803958389602,7.34385735655219,31
"272","5dcd91a0b7ebf606d16c971e","vomit","test_conc","concrete-negative","Concrete","CV","A","concrete",1,1742906579962,"concrete",1381.16666666667,591,"abstract","A","",6.3818160174061,7.23068383162099,32
"273","5dcd91a0b7ebf606d16c971e","fireplace","test_conc","concrete-positive","Concrete","CV","A","concrete",1,1742906581234,"concrete",1391.33333333333,518,"abstract","A","",6.24997524225948,7.23801779896904,33
"274","5dcd91a0b7ebf606d16c971e","filth","test_conc","concrete-negative","Concrete","CV","A","concrete",1,1742906582818,"concrete",1625.66666666667,831,"abstract","A","",6.72262979485545,7.39367326704194,34
"275","5dcd91a0b7ebf606d16c971e","guilt","test_conc","abstract-negative","Concrete","CV","A","abstract",1,1742906584346,"abstract",1406.66666666667,773,"abstract","A","",6.65027904858742,7.24897811836195,35
"276","5dcd91a0b7ebf606d16c971e","beach","test_conc","concrete-positive","Concrete","CV","A","concrete",1,1742906585738,"concrete",1399,636,"abstract","A","",6.45519856334012,7.24351297466548,36
"277","5dcd91a0b7ebf606d16c971e","freedom","test_conc","abstract-positive","Concrete","CV","A","abstract",1,1742906587226,"abstract",1600.5,733,"abstract","A","",6.59714570188665,7.37807135940992,37
"278","5dcd91a0b7ebf606d16c971e","love","test_conc","abstract-positive","Concrete","CV","A","abstract",1,1742906588802,"abstract",1482.66666666667,821,"abstract","A","",6.71052310945243,7.30159754726231,38
"279","5dcd91a0b7ebf606d16c971e","peace","test_conc","abstract-positive","Concrete","CV","A","abstract",1,1742906590138,"abstract",1375.66666666667,582,"abstract","A","",6.36647044773144,7.22669374108447,39
"280","5dcd91a0b7ebf606d16c971e","stench","test_conc","concrete-negative","Concrete","CV","A","abstract",0,1742906591706,"abstract",1614.66666666667,811,"abstract","A","",6.69826805411541,7.38688381600487,40
"281","5dcd91a0b7ebf606d16c971e","guilt","test_conc","abstract-negative","Concrete","CV","A","abstract",1,1742906593066,"abstract",1406.66666666667,605,"abstract","A","",6.40522845803084,7.24897811836195,41
"282","5dcd91a0b7ebf606d16c971e","lonliness","test_conc","abstract-negative","Concrete","CV","A","abstract",1,1742906594570,"abstract",1470.83333333333,748,"abstract","A","",6.61740297797448,7.29358441257344,42
"283","5dcd91a0b7ebf606d16c971e","joy","test_conc","abstract-positive","Concrete","CV","A","abstract",1,1742906595970,"abstract",1424.16666666667,644,"abstract","A","",6.46769872610435,7.26134212632164,43
"284","5dcd91a0b7ebf606d16c971e","stench","test_conc","concrete-negative","Concrete","CV","A","abstract",0,1742906597346,"abstract",1614.66666666667,619,"abstract","A","",6.4281052726846,7.38688381600487,44
"285","5dcd91a0b7ebf606d16c971e","injury","test_conc","concrete-negative","Concrete","CV","A","concrete",1,1742906599042,"concrete",1522.33333333333,939,"abstract","A","",6.84481547920826,7.32799952451689,45
"286","5dcd91a0b7ebf606d16c971e","despair","test_conc","abstract-negative","Concrete","CV","A","abstract",1,1742906600506,"abstract",1380.16666666667,711,"abstract","A","",6.56667242980324,7.22995954380564,46
"287","5dcd91a0b7ebf606d16c971e","sunshine","test_conc","concrete-positive","Concrete","CV","A","concrete",1,1742906602802,"concrete",1630.33333333333,1537,"abstract","A","",7.3375877435386,7.39653977187125,47
"288","5dcd91a0b7ebf606d16c971e","fireplace","test_conc","concrete-positive","Concrete","CV","A","concrete",1,1742906604082,"concrete",1391.33333333333,522,"abstract","A","",6.25766758788264,7.23801779896904,48
"289","5dcd91a0b7ebf606d16c971e","envy","test_conc","abstract-negative","Concrete","CV","A","abstract",1,1742906605554,"abstract",1765.66666666667,715,"abstract","A","",6.57228254269401,7.47628361287642,49
"290","5dcd91a0b7ebf606d16c971e","compassion","test_conc","abstract-positive","Concrete","CV","A","abstract",1,1742906607154,"abstract",1445.66666666667,844,"abstract","A","",6.73815249459596,7.27632585516726,50
"291","5dcd91a0b7ebf606d16c971e","music","test_conc","concrete-positive","Concrete","CV","A","concrete",1,1742906608666,"concrete",1510.83333333333,754,"abstract","A","",6.62539236800796,7.3204166539609,51
"292","5dcd91a0b7ebf606d16c971e","freedom","test_conc","abstract-positive","Concrete","CV","A","abstract",1,1742906610666,"abstract",1600.5,1245,"abstract","A","",7.12689080889881,7.37807135940992,52
"293","5dcd91a0b7ebf606d16c971e","mud","test_conc","concrete-negative","Concrete","CV","A","concrete",1,1742906612242,"concrete",1533.66666666667,822,"abstract","A","",6.71174039505618,7.33541666148736,53
"294","5dcd91a0b7ebf606d16c971e","shame","test_conc","abstract-negative","Concrete","CV","A","abstract",1,1742906613706,"abstract",1468.16666666667,710,"abstract","A","",6.56526497003536,7.29176973588174,54
"295","5dcd91a0b7ebf606d16c971e","rain","test_conc","concrete-positive","Concrete","CV","A","concrete",1,1742906615018,"concrete",1546.66666666667,556,"abstract","A","",6.32076829425058,7.34385735655219,55
"296","5dcd91a0b7ebf606d16c971e","rot","test_conc","concrete-negative","Concrete","CV","A","abstract",0,1742906616978,"abstract",1928,1204,"abstract","A","",7.09340462586877,7.56423847517049,56
"297","5dcd91a0b7ebf606d16c971e","inspiration","test_conc","abstract-positive","Concrete","CV","A","abstract",1,1742906619914,"abstract",1623.16666666667,2180,"abstract","A","",7.68708015578313,7.39213425273314,57
"298","5dcd91a0b7ebf606d16c971e","garbage","test_conc","concrete-negative","Concrete","CV","A","concrete",1,1742906621602,"concrete",1399.16666666667,930,"abstract","A","",6.8351845861473,7.24363210028359,58
"299","5dcd91a0b7ebf606d16c971e","resentment","test_conc","abstract-negative","Concrete","CV","A","abstract",1,1742906623082,"abstract",1656.33333333333,725,"abstract","A","",6.58617165485467,7.41236160293421,59
"300","5dcd91a0b7ebf606d16c971e","regret","test_conc","abstract-negative","Concrete","CV","A","abstract",1,1742906624610,"abstract",1372.16666666667,774,"abstract","A","",6.65157187358973,7.22414627807037,60
"301","5dcd91a0b7ebf606d16c971e","smoke","test_conc","concrete-negative","Concrete","CV","A","concrete",1,1742906625962,"concrete",1481.33333333333,595,"abstract","A","",6.38856140554563,7.30069786209141,61
"302","5dcd91a0b7ebf606d16c971e","home","test_conc","concrete-positive","Concrete","CV","A","concrete",1,1742906627386,"concrete",1433.66666666667,664,"abstract","A","",6.49828214947643,7.26799054411563,62
"303","5dcd91a0b7ebf606d16c971e","failure","test_conc","abstract-negative","Concrete","CV","A","abstract",1,1742906628770,"abstract",1569.83333333333,629,"abstract","A","",6.44413125670044,7.35872473559476,63
"304","5dcd91a0b7ebf606d16c971e","rust","test_conc","concrete-negative","Concrete","CV","A","concrete",1,1742906630418,"concrete",1597.5,891,"abstract","A","",6.79234442747081,7.37619518625169,64
"305","5dcd91a0b7ebf606d16c971e","mold","test_conc","concrete-negative","Concrete","CV","A","concrete",1,1742906631826,"concrete",1415,651,"abstract","A","",6.47850964220857,7.25488481007734,65
"306","5dcd91a0b7ebf606d16c971e","gratitude","test_conc","abstract-positive","Concrete","CV","A","abstract",1,1742906633386,"abstract",1489.16666666667,804,"abstract","A","",6.68959926917897,7.30597195836547,66
"307","5dcd91a0b7ebf606d16c971e","beach","test_conc","concrete-positive","Concrete","CV","A","concrete",1,1742906634786,"concrete",1399,644,"abstract","A","",6.46769872610435,7.24351297466548,67
"308","5dcd91a0b7ebf606d16c971e","hope","test_conc","abstract-positive","Concrete","CV","A","abstract",1,1742906636402,"abstract",1510.83333333333,862,"abstract","A","",6.75925527066369,7.3204166539609,68
"309","5dcd91a0b7ebf606d16c971e","filth","test_conc","concrete-negative","Concrete","CV","A","concrete",1,1742906638874,"concrete",1625.66666666667,1714,"abstract","A","",7.44658509915773,7.39367326704194,69
"310","5dcd91a0b7ebf606d16c971e","love","test_conc","abstract-positive","Concrete","CV","A","abstract",1,1742906640834,"abstract",1482.66666666667,1201,"abstract","A","",7.09090982207998,7.30159754726231,70
"311","5dcd91a0b7ebf606d16c971e","happiness","test_conc","abstract-positive","Concrete","CV","A","abstract",1,1742906642778,"abstract",1552,1188,"abstract","A","",7.08002649992259,7.34729970074316,71
"312","5dcd91a0b7ebf606d16c971e","chocolate","test_conc","concrete-positive","Concrete","CV","A","concrete",1,1742906644162,"concrete",1433.5,617,"abstract","A","",6.42486902390539,7.26787428532342,72
"313","5dcd91a0b7ebf606d16c971e","anxiety","test_conc","abstract-negative","Concrete","CV","A","abstract",1,1742906645498,"abstract",1419.16666666667,577,"abstract","A","",6.3578422665081,7.25782512386873,73
"314","5dcd91a0b7ebf606d16c971e","flowers","test_conc","concrete-positive","Concrete","CV","A","concrete",1,1742906646874,"concrete",1329.5,620,"abstract","A","",6.42971947803914,7.19255821068307,74
"315","5dcd91a0b7ebf606d16c971e","peace","test_conc","abstract-positive","Concrete","CV","A","abstract",1,1742906648410,"abstract",1375.66666666667,778,"abstract","A","",6.65672652417839,7.22669374108447,75
"316","5dcd91a0b7ebf606d16c971e","laughter","test_conc","concrete-positive","Concrete","CV","A","concrete",1,1742906650114,"concrete",1412.33333333333,947,"abstract","A","",6.85329909318608,7.25299846195845,76
"317","5dcd91a0b7ebf606d16c971e","kindness","test_conc","abstract-positive","Concrete","CV","A","abstract",1,1742906651659,"abstract",1412.83333333333,786,"abstract","A","",6.66695679242921,7.25335242338035,77
"318","5dcd91a0b7ebf606d16c971e","hug","test_conc","concrete-positive","Concrete","CV","A","concrete",1,1742906653234,"concrete",1427,819,"abstract","A","",6.70808408385307,7.26332961747684,78
"319","5dcd91a0b7ebf606d16c971e","vomit","test_conc","concrete-negative","Concrete","CV","A","concrete",1,1742906654658,"concrete",1381.16666666667,672,"abstract","A","",6.51025834052315,7.23068383162099,79
"320","5dcd91a0b7ebf606d16c971e","grief","test_conc","abstract-negative","Concrete","CV","A","abstract",1,1742906656202,"abstract",1364,792,"abstract","A","",6.67456139181443,7.21817683840341,80
"321","5dcd91a0b7ebf606d16c971e","happiness","test_conc","abstract-positive","Concrete","CV","A","abstract",1,1742906657546,"abstract",1552,588,"abstract","A","",6.37672694789863,7.34729970074316,81
"322","5dcd91a0b7ebf606d16c971e","love","test_conc","abstract-positive","Concrete","CV","A","abstract",1,1742906658930,"abstract",1482.66666666667,629,"abstract","A","",6.44413125670044,7.30159754726231,82
"323","5dcd91a0b7ebf606d16c971e","anxiety","test_conc","abstract-negative","Concrete","CV","A","abstract",1,1742906660266,"abstract",1419.16666666667,579,"abstract","A","",6.361302477573,7.25782512386873,83
"324","5dcd91a0b7ebf606d16c971e","peace","test_conc","abstract-positive","Concrete","CV","A","abstract",1,1742906661602,"abstract",1375.66666666667,579,"abstract","A","",6.361302477573,7.22669374108447,84
"325","5dcd91a0b7ebf606d16c971e","vomit","test_conc","concrete-negative","Concrete","CV","A","concrete",1,1742906663002,"concrete",1381.16666666667,643,"abstract","A","",6.46614472423762,7.23068383162099,85
"326","5dcd91a0b7ebf606d16c971e","chocolate","test_conc","concrete-positive","Concrete","CV","A","concrete",1,1742906664250,"concrete",1433.5,495,"abstract","A","",6.20455776256869,7.26787428532342,86
"327","5dcd91a0b7ebf606d16c971e","joy","test_conc","abstract-positive","Concrete","CV","A","abstract",1,1742906665930,"abstract",1424.16666666667,922,"abstract","A","",6.82654522355659,7.26134212632164,87
"328","5dcd91a0b7ebf606d16c971e","gratitude","test_conc","abstract-positive","Concrete","CV","A","abstract",1,1742906667506,"abstract",1489.16666666667,822,"abstract","A","",6.71174039505618,7.30597195836547,88
"329","5dcd91a0b7ebf606d16c971e","rot","test_conc","concrete-negative","Concrete","CV","A","abstract",0,1742906670226,"abstract",1928,1961,"abstract","A","",7.58120982619635,7.56423847517049,89
"330","5dcd91a0b7ebf606d16c971e","resentment","test_conc","abstract-negative","Concrete","CV","A","abstract",1,1742906673178,"abstract",1656.33333333333,2197,"abstract","A","",7.69484807238461,7.41236160293421,90
"331","5dcd91a0b7ebf606d16c971e","mud","test_conc","concrete-negative","Concrete","CV","A","concrete",1,1742906674650,"concrete",1533.66666666667,715,"abstract","A","",6.57228254269401,7.33541666148736,91
"332","5dcd91a0b7ebf606d16c971e","music","test_conc","concrete-positive","Concrete","CV","A","concrete",1,1742906676746,"concrete",1510.83333333333,1341,"abstract","A","",7.20117088328168,7.3204166539609,92
"333","5dcd91a0b7ebf606d16c971e","freedom","test_conc","abstract-positive","Concrete","CV","A","abstract",1,1742906678418,"abstract",1600.5,914,"abstract","A","",6.81783057145415,7.37807135940992,93
"334","5dcd91a0b7ebf606d16c971e","guilt","test_conc","abstract-negative","Concrete","CV","A","abstract",1,1742906680018,"abstract",1406.66666666667,845,"abstract","A","",6.73933662735717,7.24897811836195,94
"335","5dcd91a0b7ebf606d16c971e","stench","test_conc","concrete-negative","Concrete","CV","A","concrete",1,1742906682858,"concrete",1614.66666666667,2086,"abstract","A","",7.64300363556072,7.38688381600487,95
"336","5dcd91a0b7ebf606d16c971e","envy","test_conc","abstract-negative","Concrete","CV","A","abstract",1,1742906684994,"abstract",1765.66666666667,1377,"abstract","A","",7.22766249872865,7.47628361287642,96
"337","5dcd91a0b7ebf606d16c971e","rain","test_conc","concrete-positive","Concrete","CV","A","concrete",1,1742906686538,"concrete",1546.66666666667,791,"abstract","A","",6.67329796776765,7.34385735655219,97
"338","5dcd91a0b7ebf606d16c971e","inspiration","test_conc","abstract-positive","Concrete","CV","A","abstract",1,1742906687986,"abstract",1623.16666666667,694,"abstract","A","",6.5424719605068,7.39213425273314,98
"339","5dcd91a0b7ebf606d16c971e","compassion","test_conc","abstract-positive","Concrete","CV","A","abstract",1,1742906689354,"abstract",1445.66666666667,614,"abstract","A","",6.41999492814714,7.27632585516726,99
"340","5dcd91a0b7ebf606d16c971e","mold","test_conc","concrete-negative","Concrete","CV","A","concrete",1,1742906690962,"concrete",1415,850,"abstract","A","",6.74523634948436,7.25488481007734,100
"341","5dcd91a0b7ebf606d16c971e","grief","test_conc","abstract-negative","Concrete","CV","A","abstract",1,1742906692259,"abstract",1364,543,"abstract","A","",6.29710931993394,7.21817683840341,101
"342","5dcd91a0b7ebf606d16c971e","beach","test_conc","concrete-positive","Concrete","CV","A","concrete",1,1742906693602,"concrete",1399,590,"abstract","A","",6.38012253689976,7.24351297466548,102
"343","5dcd91a0b7ebf606d16c971e","regret","test_conc","abstract-negative","Concrete","CV","A","abstract",1,1742906695018,"abstract",1372.16666666667,664,"abstract","A","",6.49828214947643,7.22414627807037,103
"344","5dcd91a0b7ebf606d16c971e","flowers","test_conc","concrete-positive","Concrete","CV","A","concrete",1,1742906696346,"concrete",1329.5,569,"abstract","A","",6.34388043412633,7.19255821068307,104
"345","5dcd91a0b7ebf606d16c971e","hug","test_conc","concrete-positive","Concrete","CV","A","concrete",1,1742906697811,"concrete",1427,712,"abstract","A","",6.56807791141198,7.26332961747684,105
"346","5dcd91a0b7ebf606d16c971e","lonliness","test_conc","abstract-negative","Concrete","CV","A","abstract",1,1742906699322,"abstract",1470.83333333333,756,"abstract","A","",6.62804137617953,7.29358441257344,106
"347","5dcd91a0b7ebf606d16c971e","filth","test_conc","concrete-negative","Concrete","CV","A","concrete",1,1742906700986,"concrete",1625.66666666667,910,"abstract","A","",6.8134445995109,7.39367326704194,107
"348","5dcd91a0b7ebf606d16c971e","fireplace","test_conc","concrete-positive","Concrete","CV","A","concrete",1,1742906702876,"concrete",1391.33333333333,1132,"abstract","A","",7.03174125876313,7.23801779896904,108
"349","5dcd91a0b7ebf606d16c971e","injury","test_conc","concrete-negative","Concrete","CV","A","concrete",1,1742906704522,"concrete",1522.33333333333,893,"abstract","A","",6.7945865808765,7.32799952451689,109
"350","5dcd91a0b7ebf606d16c971e","sunshine","test_conc","concrete-positive","Concrete","CV","A","concrete",1,1742906706122,"concrete",1630.33333333333,842,"abstract","A","",6.73578001424233,7.39653977187125,110
"351","5dcd91a0b7ebf606d16c971e","smoke","test_conc","concrete-negative","Concrete","CV","A","concrete",1,1742906707698,"concrete",1481.33333333333,819,"abstract","A","",6.70808408385307,7.30069786209141,111
"352","5dcd91a0b7ebf606d16c971e","hope","test_conc","abstract-positive","Concrete","CV","A","abstract",1,1742906709410,"abstract",1510.83333333333,953,"abstract","A","",6.8596149036542,7.3204166539609,112
"353","5dcd91a0b7ebf606d16c971e","rust","test_conc","concrete-negative","Concrete","CV","A","concrete",1,1742906710842,"concrete",1597.5,674,"abstract","A","",6.51323011091231,7.37619518625169,113
"354","5dcd91a0b7ebf606d16c971e","despair","test_conc","abstract-negative","Concrete","CV","A","abstract",1,1742906712266,"abstract",1380.16666666667,671,"abstract","A","",6.50876913697168,7.22995954380564,114
"355","5dcd91a0b7ebf606d16c971e","failure","test_conc","abstract-negative","Concrete","CV","A","abstract",1,1742906714154,"abstract",1569.83333333333,1127,"abstract","A","",7.02731451403978,7.35872473559476,115
"356","5dcd91a0b7ebf606d16c971e","home","test_conc","concrete-positive","Concrete","CV","A","concrete",1,1742906715546,"concrete",1433.66666666667,638,"abstract","A","",6.45833828334479,7.26799054411563,116
"357","5dcd91a0b7ebf606d16c971e","laughter","test_conc","concrete-positive","Concrete","CV","A","concrete",1,1742906717002,"concrete",1412.33333333333,701,"abstract","A","",6.55250788703459,7.25299846195845,117
"358","5dcd91a0b7ebf606d16c971e","garbage","test_conc","concrete-negative","Concrete","CV","A","concrete",1,1742906718362,"concrete",1399.16666666667,607,"abstract","A","",6.4085287910595,7.24363210028359,118
"359","5dcd91a0b7ebf606d16c971e","shame","test_conc","abstract-negative","Concrete","CV","A","abstract",1,1742906719914,"abstract",1468.16666666667,795,"abstract","A","",6.67834211465433,7.29176973588174,119
"360","5dcd91a0b7ebf606d16c971e","kindness","test_conc","abstract-positive","Concrete","CV","A","abstract",1,1742906721250,"abstract",1412.83333333333,579,"abstract","A","",6.361302477573,7.25335242338035,120
"361","5dcd91a0b7ebf606d16c971e","sunshine","test_val","concrete-positive","Valence","CV","A","positive",1,1742906970346,"positive",1630.33333333333,761,"negative","A","",6.63463335786169,7.39653977187125,121
"362","5dcd91a0b7ebf606d16c971e","filth","test_val","concrete-negative","Valence","CV","A","negative",1,1742906971858,"negative",1625.66666666667,755,"negative","A","",6.62671774924902,7.39367326704194,122
"363","5dcd91a0b7ebf606d16c971e","injury","test_val","concrete-negative","Valence","CV","A","negative",1,1742906973602,"negative",1522.33333333333,990,"negative","A","",6.89770494312864,7.32799952451689,123
"364","5dcd91a0b7ebf606d16c971e","shame","test_val","abstract-negative","Valence","CV","A","negative",1,1742906975042,"negative",1468.16666666667,688,"negative","A","",6.53378883793334,7.29176973588174,124
"365","5dcd91a0b7ebf606d16c971e","happiness","test_val","abstract-positive","Valence","CV","A","positive",1,1742906976410,"positive",1552,613,"negative","A","",6.41836493593621,7.34729970074316,125
"366","5dcd91a0b7ebf606d16c971e","anxiety","test_val","abstract-negative","Valence","CV","A","negative",1,1742906977778,"negative",1419.16666666667,615,"negative","A","",6.42162226780652,7.25782512386873,126
"367","5dcd91a0b7ebf606d16c971e","joy","test_val","abstract-positive","Valence","CV","A","positive",1,1742906979042,"positive",1424.16666666667,509,"negative","A","",6.23244801655052,7.26134212632164,127
"368","5dcd91a0b7ebf606d16c971e","kindness","test_val","abstract-positive","Valence","CV","A","positive",1,1742906980258,"positive",1412.83333333333,462,"negative","A","",6.13556489108174,7.25335242338035,128
"369","5dcd91a0b7ebf606d16c971e","stench","test_val","concrete-negative","Valence","CV","A","negative",1,1742906981530,"negative",1614.66666666667,515,"negative","A","",6.24416690066374,7.38688381600487,129
"370","5dcd91a0b7ebf606d16c971e","mud","test_val","concrete-negative","Valence","CV","A","negative",1,1742906982866,"negative",1533.66666666667,578,"negative","A","",6.35957386867238,7.33541666148736,130
"371","5dcd91a0b7ebf606d16c971e","beach","test_val","concrete-positive","Valence","CV","A","positive",1,1742906984466,"positive",1399,846,"negative","A","",6.74051935960622,7.24351297466548,131
"372","5dcd91a0b7ebf606d16c971e","vomit","test_val","concrete-negative","Valence","CV","A","negative",1,1742906985962,"negative",1381.16666666667,740,"negative","A","",6.60665018619822,7.23068383162099,132
"373","5dcd91a0b7ebf606d16c971e","grief","test_val","abstract-negative","Valence","CV","A","negative",1,1742906987243,"negative",1364,525,"negative","A","",6.26339826259162,7.21817683840341,133
"374","5dcd91a0b7ebf606d16c971e","rot","test_val","concrete-negative","Valence","CV","A","negative",1,1742906988706,"negative",1928,704,"negative","A","",6.55677835615804,7.56423847517049,134
"375","5dcd91a0b7ebf606d16c971e","peace","test_val","abstract-positive","Valence","CV","A","positive",1,1742906990098,"positive",1375.66666666667,634,"negative","A","",6.45204895443723,7.22669374108447,135
"376","5dcd91a0b7ebf606d16c971e","garbage","test_val","concrete-negative","Valence","CV","A","negative",1,1742906991579,"negative",1399.16666666667,727,"negative","A","",6.58892647753352,7.24363210028359,136
"377","5dcd91a0b7ebf606d16c971e","inspiration","test_val","abstract-positive","Valence","CV","A","positive",1,1742906992923,"positive",1623.16666666667,590,"negative","A","",6.38012253689976,7.39213425273314,137
"378","5dcd91a0b7ebf606d16c971e","resentment","test_val","abstract-negative","Valence","CV","A","negative",1,1742906994298,"negative",1656.33333333333,622,"negative","A","",6.43294009273918,7.41236160293421,138
"379","5dcd91a0b7ebf606d16c971e","laughter","test_val","concrete-positive","Valence","CV","A","positive",1,1742906995738,"positive",1412.33333333333,684,"negative","A","",6.52795791762255,7.25299846195845,139
"380","5dcd91a0b7ebf606d16c971e","lonliness","test_val","abstract-negative","Valence","CV","A","negative",1,1742906997114,"negative",1470.83333333333,619,"negative","A","",6.4281052726846,7.29358441257344,140
"381","5dcd91a0b7ebf606d16c971e","love","test_val","abstract-positive","Valence","CV","A","positive",1,1742906998482,"positive",1482.66666666667,613,"negative","A","",6.41836493593621,7.30159754726231,141
"382","5dcd91a0b7ebf606d16c971e","home","test_val","concrete-positive","Valence","CV","A","positive",1,1742906999714,"positive",1433.66666666667,478,"negative","A","",6.16961073249146,7.26799054411563,142
"383","5dcd91a0b7ebf606d16c971e","hug","test_val","concrete-positive","Valence","CV","A","positive",1,1742907000962,"positive",1427,493,"negative","A","",6.20050917404269,7.26332961747684,143
"384","5dcd91a0b7ebf606d16c971e","fireplace","test_val","concrete-positive","Valence","CV","A","positive",1,1742907002274,"positive",1391.33333333333,558,"negative","A","",6.32435896238131,7.23801779896904,144
"385","5dcd91a0b7ebf606d16c971e","regret","test_val","abstract-negative","Valence","CV","A","negative",1,1742907003603,"negative",1372.16666666667,572,"negative","A","",6.3491389913798,7.22414627807037,145
"386","5dcd91a0b7ebf606d16c971e","rust","test_val","concrete-negative","Valence","CV","A","negative",1,1742907004826,"negative",1597.5,469,"negative","A","",6.15060276844628,7.37619518625169,146
"387","5dcd91a0b7ebf606d16c971e","music","test_val","concrete-positive","Valence","CV","A","positive",1,1742907006210,"positive",1510.83333333333,628,"negative","A","",6.4425401664682,7.3204166539609,147
"388","5dcd91a0b7ebf606d16c971e","despair","test_val","abstract-negative","Valence","CV","A","negative",1,1742907007570,"negative",1380.16666666667,605,"negative","A","",6.40522845803084,7.22995954380564,148
"389","5dcd91a0b7ebf606d16c971e","chocolate","test_val","concrete-positive","Valence","CV","A","positive",1,1742907009282,"positive",1433.5,954,"negative","A","",6.86066367144829,7.26787428532342,149
"390","5dcd91a0b7ebf606d16c971e","rain","test_val","concrete-positive","Valence","CV","A","positive",1,1742907011426,"positive",1546.66666666667,1393,"negative","A","",7.23921497377981,7.34385735655219,150
"391","5dcd91a0b7ebf606d16c971e","flowers","test_val","concrete-positive","Valence","CV","A","positive",1,1742907012730,"positive",1329.5,549,"negative","A","",6.30809844150953,7.19255821068307,151
"392","5dcd91a0b7ebf606d16c971e","mold","test_val","concrete-negative","Valence","CV","A","negative",1,1742907014066,"negative",1415,581,"negative","A","",6.36475075685191,7.25488481007734,152
"393","5dcd91a0b7ebf606d16c971e","failure","test_val","abstract-negative","Valence","CV","A","negative",1,1742907015498,"negative",1569.83333333333,677,"negative","A","",6.51767127291227,7.35872473559476,153
"394","5dcd91a0b7ebf606d16c971e","compassion","test_val","abstract-positive","Valence","CV","A","positive",1,1742907016890,"positive",1445.66666666667,637,"negative","A","",6.45676965557216,7.27632585516726,154
"395","5dcd91a0b7ebf606d16c971e","hope","test_val","abstract-positive","Valence","CV","A","positive",1,1742907018154,"positive",1510.83333333333,509,"negative","A","",6.23244801655052,7.3204166539609,155
"396","5dcd91a0b7ebf606d16c971e","guilt","test_val","abstract-negative","Valence","CV","A","negative",1,1742907019498,"negative",1406.66666666667,587,"negative","A","",6.3750248198281,7.24897811836195,156
"397","5dcd91a0b7ebf606d16c971e","smoke","test_val","concrete-negative","Valence","CV","A","negative",1,1742907021482,"negative",1481.33333333333,1226,"negative","A","",7.11151211649616,7.30069786209141,157
"398","5dcd91a0b7ebf606d16c971e","envy","test_val","abstract-negative","Valence","CV","A","negative",1,1742907022866,"negative",1765.66666666667,625,"negative","A","",6.4377516497364,7.47628361287642,158
"399","5dcd91a0b7ebf606d16c971e","freedom","test_val","abstract-positive","Valence","CV","A","positive",1,1742907024227,"positive",1600.5,606,"negative","A","",6.40687998606931,7.37807135940992,159
"400","5dcd91a0b7ebf606d16c971e","gratitude","test_val","abstract-positive","Valence","CV","A","positive",1,1742907025490,"positive",1489.16666666667,509,"negative","A","",6.23244801655052,7.30597195836547,160
"401","5dcd91a0b7ebf606d16c971e","grief","test_val","abstract-negative","Valence","CV","A","negative",1,1742907026954,"negative",1364,707,"negative","A","",6.56103066589657,7.21817683840341,161
"402","5dcd91a0b7ebf606d16c971e","beach","test_val","concrete-positive","Valence","CV","A","positive",1,1742907028266,"positive",1399,557,"negative","A","",6.32256523992728,7.24351297466548,162
"403","5dcd91a0b7ebf606d16c971e","mud","test_val","concrete-negative","Valence","CV","A","negative",1,1742907029739,"negative",1533.66666666667,715,"negative","A","",6.57228254269401,7.33541666148736,163
"404","5dcd91a0b7ebf606d16c971e","vomit","test_val","concrete-negative","Valence","CV","A","negative",1,1742907031034,"negative",1381.16666666667,540,"negative","A","",6.29156913955832,7.23068383162099,164
"405","5dcd91a0b7ebf606d16c971e","garbage","test_val","concrete-negative","Valence","CV","A","negative",1,1742907032331,"negative",1399.16666666667,541,"negative","A","",6.29341927884648,7.24363210028359,165
"406","5dcd91a0b7ebf606d16c971e","injury","test_val","concrete-negative","Valence","CV","A","negative",1,1742907033554,"negative",1522.33333333333,465,"negative","A","",6.14203740558736,7.32799952451689,166
"407","5dcd91a0b7ebf606d16c971e","sunshine","test_val","concrete-positive","Valence","CV","A","positive",1,1742907034770,"positive",1630.33333333333,460,"negative","A","",6.13122648948314,7.39653977187125,167
"408","5dcd91a0b7ebf606d16c971e","anxiety","test_val","abstract-negative","Valence","CV","A","negative",1,1742907036186,"negative",1419.16666666667,656,"negative","A","",6.48616078894409,7.25782512386873,168
"409","5dcd91a0b7ebf606d16c971e","stench","test_val","concrete-negative","Valence","CV","A","negative",1,1742907037466,"negative",1614.66666666667,527,"negative","A","",6.26720054854136,7.38688381600487,169
"410","5dcd91a0b7ebf606d16c971e","happiness","test_val","abstract-positive","Valence","CV","A","positive",1,1742907038779,"positive",1552,559,"negative","A","",6.3261494731551,7.34729970074316,170
"411","5dcd91a0b7ebf606d16c971e","joy","test_val","abstract-positive","Valence","CV","A","positive",1,1742907039994,"positive",1424.16666666667,461,"negative","A","",6.13339804299665,7.26134212632164,171
"412","5dcd91a0b7ebf606d16c971e","failure","test_val","abstract-negative","Valence","CV","A","negative",1,1742907041275,"negative",1569.83333333333,524,"negative","A","",6.26149168432104,7.35872473559476,172
"413","5dcd91a0b7ebf606d16c971e","peace","test_val","abstract-positive","Valence","CV","A","positive",1,1742907042586,"positive",1375.66666666667,561,"negative","A","",6.3297209055227,7.22669374108447,173
"414","5dcd91a0b7ebf606d16c971e","filth","test_val","concrete-negative","Valence","CV","A","negative",1,1742907043842,"negative",1625.66666666667,497,"negative","A","",6.20859002609663,7.39367326704194,174
"415","5dcd91a0b7ebf606d16c971e","compassion","test_val","abstract-positive","Valence","CV","A","positive",1,1742907045083,"positive",1445.66666666667,483,"negative","A","",6.18001665365257,7.27632585516726,175
"416","5dcd91a0b7ebf606d16c971e","hope","test_val","abstract-positive","Valence","CV","A","positive",1,1742907046314,"positive",1510.83333333333,480,"negative","A","",6.17378610390194,7.3204166539609,176
"417","5dcd91a0b7ebf606d16c971e","inspiration","test_val","abstract-positive","Valence","CV","A","positive",1,1742907047579,"positive",1623.16666666667,507,"negative","A","",6.22851100359118,7.39213425273314,177
"418","5dcd91a0b7ebf606d16c971e","smoke","test_val","concrete-negative","Valence","CV","A","negative",1,1742907048851,"negative",1481.33333333333,518,"negative","A","",6.24997524225948,7.30069786209141,178
"419","5dcd91a0b7ebf606d16c971e","laughter","test_val","concrete-positive","Valence","CV","A","positive",1,1742907050171,"positive",1412.33333333333,564,"negative","A","",6.33505425149806,7.25299846195845,179
"420","5dcd91a0b7ebf606d16c971e","despair","test_val","abstract-negative","Valence","CV","A","negative",1,1742907051522,"negative",1380.16666666667,594,"negative","A","",6.38687931936265,7.22995954380564,180
"421","5dcd91a0b7ebf606d16c971e","resentment","test_val","abstract-negative","Valence","CV","A","negative",1,1742907052754,"negative",1656.33333333333,479,"negative","A","",6.17170059741091,7.41236160293421,181
"422","5dcd91a0b7ebf606d16c971e","flowers","test_val","concrete-positive","Valence","CV","A","positive",1,1742907054042,"positive",1329.5,533,"negative","A","",6.27852142416584,7.19255821068307,182
"423","5dcd91a0b7ebf606d16c971e","lonliness","test_val","abstract-negative","Valence","CV","A","negative",1,1742907055435,"negative",1470.83333333333,639,"negative","A","",6.45990445437753,7.29358441257344,183
"424","5dcd91a0b7ebf606d16c971e","rot","test_val","concrete-negative","Valence","CV","A","negative",1,1742907056746,"negative",1928,559,"negative","A","",6.3261494731551,7.56423847517049,184
"425","5dcd91a0b7ebf606d16c971e","mold","test_val","concrete-negative","Valence","CV","A","negative",1,1742907058162,"negative",1415,660,"negative","A","",6.49223983502047,7.25488481007734,185
"426","5dcd91a0b7ebf606d16c971e","music","test_val","concrete-positive","Valence","CV","A","positive",1,1742907059410,"positive",1510.83333333333,492,"negative","A","",6.19847871649231,7.3204166539609,186
"427","5dcd91a0b7ebf606d16c971e","hug","test_val","concrete-positive","Valence","CV","A","positive",1,1742907060666,"positive",1427,498,"negative","A","",6.21060007702465,7.26332961747684,187
"428","5dcd91a0b7ebf606d16c971e","gratitude","test_val","abstract-positive","Valence","CV","A","positive",1,1742907061842,"positive",1489.16666666667,420,"negative","A","",6.04025471127741,7.30597195836547,188
"429","5dcd91a0b7ebf606d16c971e","rust","test_val","concrete-negative","Valence","CV","A","negative",1,1742907063155,"negative",1597.5,561,"negative","A","",6.3297209055227,7.37619518625169,189
"430","5dcd91a0b7ebf606d16c971e","kindness","test_val","abstract-positive","Valence","CV","A","positive",1,1742907064475,"positive",1412.83333333333,566,"negative","A","",6.33859407820318,7.25335242338035,190
"431","5dcd91a0b7ebf606d16c971e","chocolate","test_val","concrete-positive","Valence","CV","A","positive",1,1742907066002,"positive",1433.5,771,"negative","A","",6.64768837356333,7.26787428532342,191
"432","5dcd91a0b7ebf606d16c971e","home","test_val","concrete-positive","Valence","CV","A","positive",1,1742907067730,"positive",1433.66666666667,973,"negative","A","",6.880384082186,7.26799054411563,192
"433","5dcd91a0b7ebf606d16c971e","fireplace","test_val","concrete-positive","Valence","CV","A","positive",1,1742907069026,"positive",1391.33333333333,541,"negative","A","",6.29341927884648,7.23801779896904,193
"434","5dcd91a0b7ebf606d16c971e","envy","test_val","abstract-negative","Valence","CV","A","negative",1,1742907070419,"negative",1765.66666666667,639,"negative","A","",6.45990445437753,7.47628361287642,194
"435","5dcd91a0b7ebf606d16c971e","guilt","test_val","abstract-negative","Valence","CV","A","negative",1,1742907071731,"negative",1406.66666666667,559,"negative","A","",6.3261494731551,7.24897811836195,195
"436","5dcd91a0b7ebf606d16c971e","love","test_val","abstract-positive","Valence","CV","A","positive",1,1742907072994,"positive",1482.66666666667,508,"negative","A","",6.23048144757848,7.30159754726231,196
"437","5dcd91a0b7ebf606d16c971e","rain","test_val","concrete-positive","Valence","CV","A","positive",1,1742907074338,"positive",1546.66666666667,591,"negative","A","",6.3818160174061,7.34385735655219,197
"438","5dcd91a0b7ebf606d16c971e","shame","test_val","abstract-negative","Valence","CV","A","negative",1,1742907075802,"negative",1468.16666666667,709,"negative","A","",6.56385552653213,7.29176973588174,198
"439","5dcd91a0b7ebf606d16c971e","freedom","test_val","abstract-positive","Valence","CV","A","positive",1,1742907077658,"positive",1600.5,1099,"negative","A","",7.00215595440362,7.37807135940992,199
"440","5dcd91a0b7ebf606d16c971e","regret","test_val","abstract-negative","Valence","CV","A","negative",1,1742907078882,"negative",1372.16666666667,466,"negative","A","",6.14418563412565,7.22414627807037,200
"441","5dcd91a0b7ebf606d16c971e","stench","test_val","concrete-negative","Valence","CV","A","negative",1,1742907080242,"negative",1614.66666666667,603,"negative","A","",6.40191719672719,7.38688381600487,201
"442","5dcd91a0b7ebf606d16c971e","rot","test_val","concrete-negative","Valence","CV","A","negative",1,1742907081450,"negative",1928,456,"negative","A","",6.12249280951439,7.56423847517049,202
"443","5dcd91a0b7ebf606d16c971e","freedom","test_val","abstract-positive","Valence","CV","A","positive",1,1742907082682,"positive",1600.5,478,"negative","A","",6.16961073249146,7.37807135940992,203
"444","5dcd91a0b7ebf606d16c971e","regret","test_val","abstract-negative","Valence","CV","A","negative",1,1742907083922,"negative",1372.16666666667,487,"negative","A","",6.18826412308259,7.22414627807037,204
"445","5dcd91a0b7ebf606d16c971e","filth","test_val","concrete-negative","Valence","CV","A","negative",1,1742907085195,"negative",1625.66666666667,518,"negative","A","",6.24997524225948,7.39367326704194,205
"446","5dcd91a0b7ebf606d16c971e","home","test_val","concrete-positive","Valence","CV","A","positive",1,1742907086483,"positive",1433.66666666667,533,"negative","A","",6.27852142416584,7.26799054411563,206
"447","5dcd91a0b7ebf606d16c971e","lonliness","test_val","abstract-negative","Valence","CV","A","negative",1,1742907087898,"negative",1470.83333333333,660,"negative","A","",6.49223983502047,7.29358441257344,207
"448","5dcd91a0b7ebf606d16c971e","shame","test_val","abstract-negative","Valence","CV","A","negative",1,1742907089130,"negative",1468.16666666667,478,"negative","A","",6.16961073249146,7.29176973588174,208
"449","5dcd91a0b7ebf606d16c971e","flowers","test_val","concrete-positive","Valence","CV","A","positive",1,1742907090427,"positive",1329.5,540,"negative","A","",6.29156913955832,7.19255821068307,209
"450","5dcd91a0b7ebf606d16c971e","grief","test_val","abstract-negative","Valence","CV","A","negative",1,1742907091730,"negative",1364,547,"negative","A","",6.30444880242198,7.21817683840341,210
"451","5dcd91a0b7ebf606d16c971e","kindness","test_val","abstract-positive","Valence","CV","A","positive",1,1742907093387,"positive",1412.83333333333,902,"negative","A","",6.80461452006262,7.25335242338035,211
"452","5dcd91a0b7ebf606d16c971e","rain","test_val","concrete-positive","Valence","CV","A","positive",1,1742907095043,"positive",1546.66666666667,899,"negative","A","",6.80128303447162,7.34385735655219,212
"453","5dcd91a0b7ebf606d16c971e","happiness","test_val","abstract-positive","Valence","CV","A","positive",1,1742907096883,"positive",1552,1083,"negative","A","",6.98749024700099,7.34729970074316,213
"454","5dcd91a0b7ebf606d16c971e","music","test_val","concrete-positive","Valence","CV","A","negative",0,1742907098171,"negative",1510.83333333333,529,"negative","A","",6.2709884318583,7.3204166539609,214
"455","5dcd91a0b7ebf606d16c971e","joy","test_val","abstract-positive","Valence","CV","A","positive",1,1742907099482,"positive",1424.16666666667,555,"negative","A","",6.31896811374643,7.26134212632164,215
"456","5dcd91a0b7ebf606d16c971e","sunshine","test_val","concrete-positive","Valence","CV","A","positive",1,1742907100746,"positive",1630.33333333333,506,"negative","A","",6.22653666928747,7.39653977187125,216
"457","5dcd91a0b7ebf606d16c971e","resentment","test_val","abstract-negative","Valence","CV","A","negative",1,1742907102194,"negative",1656.33333333333,689,"negative","A","",6.53524127101366,7.41236160293421,217
"458","5dcd91a0b7ebf606d16c971e","laughter","test_val","concrete-positive","Valence","CV","A","positive",1,1742907103515,"positive",1412.33333333333,565,"negative","A","",6.33682573114644,7.25299846195845,218
"459","5dcd91a0b7ebf606d16c971e","failure","test_val","abstract-negative","Valence","CV","A","negative",1,1742907104939,"negative",1569.83333333333,668,"negative","A","",6.50428817353665,7.35872473559476,219
"460","5dcd91a0b7ebf606d16c971e","rust","test_val","concrete-negative","Valence","CV","A","negative",1,1742907107283,"negative",1597.5,1591,"negative","A","",7.37211802833779,7.37619518625169,220
"461","5dcd91a0b7ebf606d16c971e","mud","test_val","concrete-negative","Valence","CV","A","negative",1,1742907108739,"negative",1533.66666666667,701,"negative","A","",6.55250788703459,7.33541666148736,221
"462","5dcd91a0b7ebf606d16c971e","envy","test_val","abstract-negative","Valence","CV","A","negative",1,1742907111571,"negative",1765.66666666667,2079,"negative","A","",7.63964228785801,7.47628361287642,222
"463","5dcd91a0b7ebf606d16c971e","inspiration","test_val","abstract-positive","Valence","CV","A","positive",1,1742907112891,"positive",1623.16666666667,564,"negative","A","",6.33505425149806,7.39213425273314,223
"464","5dcd91a0b7ebf606d16c971e","anxiety","test_val","abstract-negative","Valence","CV","A","negative",1,1742907114604,"negative",1419.16666666667,955,"negative","A","",6.86171134048073,7.25782512386873,224
"465","5dcd91a0b7ebf606d16c971e","vomit","test_val","concrete-negative","Valence","CV","A","negative",1,1742907115931,"negative",1381.16666666667,571,"negative","A","",6.34738920965601,7.23068383162099,225
"466","5dcd91a0b7ebf606d16c971e","compassion","test_val","abstract-positive","Valence","CV","A","positive",1,1742907117282,"positive",1445.66666666667,592,"negative","A","",6.38350663488401,7.27632585516726,226
"467","5dcd91a0b7ebf606d16c971e","mold","test_val","concrete-negative","Valence","CV","A","negative",1,1742907118643,"negative",1415,601,"negative","A","",6.39859493453521,7.25488481007734,227
"468","5dcd91a0b7ebf606d16c971e","guilt","test_val","abstract-negative","Valence","CV","A","positive",0,1742907119946,"positive",1406.66666666667,548,"negative","A","",6.30627528694802,7.24897811836195,228
"469","5dcd91a0b7ebf606d16c971e","fireplace","test_val","concrete-positive","Valence","CV","A","positive",1,1742907121251,"positive",1391.33333333333,549,"negative","A","",6.30809844150953,7.23801779896904,229
"470","5dcd91a0b7ebf606d16c971e","chocolate","test_val","concrete-positive","Valence","CV","A","positive",1,1742907122555,"positive",1433.5,546,"negative","A","",6.30261897574491,7.26787428532342,230
"471","5dcd91a0b7ebf606d16c971e","gratitude","test_val","abstract-positive","Valence","CV","A","positive",1,1742907123795,"positive",1489.16666666667,482,"negative","A","",6.1779441140506,7.30597195836547,231
"472","5dcd91a0b7ebf606d16c971e","hope","test_val","abstract-positive","Valence","CV","A","positive",1,1742907125067,"positive",1510.83333333333,520,"negative","A","",6.25382881157547,7.3204166539609,232
"473","5dcd91a0b7ebf606d16c971e","hug","test_val","concrete-positive","Valence","CV","A","positive",1,1742907126315,"positive",1427,490,"negative","A","",6.19440539110467,7.26332961747684,233
"474","5dcd91a0b7ebf606d16c971e","garbage","test_val","concrete-negative","Valence","CV","A","negative",1,1742907127563,"negative",1399.16666666667,492,"negative","A","",6.19847871649231,7.24363210028359,234
"475","5dcd91a0b7ebf606d16c971e","love","test_val","abstract-positive","Valence","CV","A","positive",1,1742907128915,"positive",1482.66666666667,598,"negative","A","",6.39359075395063,7.30159754726231,235
"476","5dcd91a0b7ebf606d16c971e","smoke","test_val","concrete-negative","Valence","CV","A","negative",1,1742907130299,"negative",1481.33333333333,628,"negative","A","",6.4425401664682,7.30069786209141,236
"477","5dcd91a0b7ebf606d16c971e","despair","test_val","abstract-negative","Valence","CV","A","negative",1,1742907131611,"negative",1380.16666666667,557,"negative","A","",6.32256523992728,7.22995954380564,237
"478","5dcd91a0b7ebf606d16c971e","beach","test_val","concrete-positive","Valence","CV","A","positive",1,1742907132963,"positive",1399,595,"negative","A","",6.38856140554563,7.24351297466548,238
"479","5dcd91a0b7ebf606d16c971e","peace","test_val","abstract-positive","Valence","CV","A","positive",1,1742907134315,"positive",1375.66666666667,595,"negative","A","",6.38856140554563,7.22669374108447,239
"480","5dcd91a0b7ebf606d16c971e","injury","test_val","concrete-negative","Valence","CV","A","negative",1,1742907135803,"negative",1522.33333333333,731,"negative","A","",6.59441345974978,7.32799952451689,240
"481","63b9d3abc3ddc61c8c08fd84","beach","test_val","concrete-positive","Valence","VC","B","positive",1,1738004917741,"positive",1401.83333333333,761,"positive","B","",6.63463335786169,7.24553618273438,1
"482","63b9d3abc3ddc61c8c08fd84","anxiety","test_val","abstract-negative","Valence","VC","B","negative",1,1738004919225,"negative",1454.66666666667,714,"positive","B","",6.57088296233958,7.28253205828485,2
"483","63b9d3abc3ddc61c8c08fd84","failure","test_val","abstract-negative","Valence","VC","B","negative",1,1738004920737,"negative",1718.16666666667,747,"positive","B","",6.61606518513282,7.44901310986833,3
"484","63b9d3abc3ddc61c8c08fd84","garbage","test_val","concrete-negative","Valence","VC","B","negative",1,1738004922367,"negative",1414,870,"positive","B","",6.76849321164863,7.25417784645652,4
"485","63b9d3abc3ddc61c8c08fd84","mud","test_val","concrete-negative","Valence","VC","B","negative",1,1738004923873,"negative",1705.5,751,"positive","B","",6.62140565176413,7.4416136018587,5
"486","63b9d3abc3ddc61c8c08fd84","joy","test_val","abstract-positive","Valence","VC","B","positive",1,1738004925322,"positive",1599.33333333333,691,"positive","B","",6.53813982376767,7.37734215473153,6
"487","63b9d3abc3ddc61c8c08fd84","rain","test_val","concrete-positive","Valence","VC","B","positive",1,1738004927581,"positive",1675.16666666667,1478,"positive","B","",7.29844510150815,7.42366794179669,7
