#
# Results on Mon, 10 Feb 2025 17:05:44 GMT
# USER AGENT: Mozilla/5.0 (Windows NT 10.0; Win64; x64) AppleWebKit/537.36 (KHTML, like Gecko) Chrome/133.0.0.0 Safari/537.36
# Design number was non-random = 0
#
# Columns below this comment are as follows:
# 1. Results reception time.
# 2. MD5 hash of participant's IP address.
# 3. Controller name.
# 4. Order number of item.
# 5. Inner element number.
# 6. Label.
# 7. Latin Square Group.
# 8. PennElementType.
# 9. PennElementName.
# 10. Parameter.
# 11. Value.
# 12. EventTime.
# 13. Comments.
1739207144,4b5495ee7409e05c203af639df39d143,PennController,1,0,welcome,NULL,PennController,0,_Trial_,Start,1739206624417,NULL
1739207144,4b5495ee7409e05c203af639df39d143,PennController,1,0,welcome,NULL,PennController,0,_Header_,Start,1739206624417,NULL
1739207144,4b5495ee7409e05c203af639df39d143,PennController,1,0,welcome,NULL,PennController,0,_Header_,End,1739206624669,NULL
1739207144,4b5495ee7409e05c203af639df39d143,PennController,1,0,welcome,NULL,PennController,0,_Trial_,End,1739206629293,NULL
# 13. ID.
# 14. Comments.
1739207144,4b5495ee7409e05c203af639df39d143,PennController,124,0,consent,NULL,PennController,2,_Trial_,Start,1739206629296,5ef98087540ce971a8fb4280,NULL
1739207144,4b5495ee7409e05c203af639df39d143,PennController,124,0,consent,NULL,PennController,2,_Header_,Start,1739206629296,5ef98087540ce971a8fb4280,NULL
1739207144,4b5495ee7409e05c203af639df39d143,PennController,124,0,consent,NULL,PennController,2,_Header_,End,1739206629547,5ef98087540ce971a8fb4280,NULL
1739207144,4b5495ee7409e05c203af639df39d143,PennController,124,0,consent,NULL,TextInput,ID,First,,1739206630800,5ef98087540ce971a8fb4280,Control
1739207144,4b5495ee7409e05c203af639df39d143,PennController,124,0,consent,NULL,TextInput,ID,Final,5ef98087540ce971a8fb4280,1739206633485,5ef98087540ce971a8fb4280,NULL
1739207144,4b5495ee7409e05c203af639df39d143,PennController,124,0,consent,NULL,PennController,2,_Trial_,End,1739206633485,5ef98087540ce971a8fb4280,NULL
# 13. Comments.
1739207144,4b5495ee7409e05c203af639df39d143,PennController,126,0,instructions1_val,NULL,PennController,4,_Trial_,Start,1739206633487,NULL
1739207144,4b5495ee7409e05c203af639df39d143,PennController,126,0,instructions1_val,NULL,PennController,4,_Header_,Start,1739206633487,NULL
1739207144,4b5495ee7409e05c203af639df39d143,PennController,126,0,instructions1_val,NULL,PennController,4,_Header_,End,1739206633739,NULL
1739207144,4b5495ee7409e05c203af639df39d143,PennController,126,0,instructions1_val,NULL,PennController,4,_Trial_,End,1739206638742,NULL
1739207144,4b5495ee7409e05c203af639df39d143,PennController,127,0,instructions2_val,NULL,PennController,5,_Trial_,Start,1739206638744,NULL
1739207144,4b5495ee7409e05c203af639df39d143,PennController,127,0,instructions2_val,NULL,PennController,5,_Header_,Start,1739206638744,NULL
1739207144,4b5495ee7409e05c203af639df39d143,PennController,127,0,instructions2_val,NULL,PennController,5,_Header_,End,1739206638997,NULL
1739207144,4b5495ee7409e05c203af639df39d143,PennController,127,0,instructions2_val,NULL,PennController,5,_Trial_,End,1739206641025,NULL
1739207144,4b5495ee7409e05c203af639df39d143,PennController,128,0,instructions3_hands,NULL,PennController,6,_Trial_,Start,1739206641026,NULL
1739207144,4b5495ee7409e05c203af639df39d143,PennController,128,0,instructions3_hands,NULL,PennController,6,_Header_,Start,1739206641026,NULL
1739207144,4b5495ee7409e05c203af639df39d143,PennController,128,0,instructions3_hands,NULL,PennController,6,_Header_,End,1739206641279,NULL
1739207144,4b5495ee7409e05c203af639df39d143,PennController,128,0,instructions3_hands,NULL,PennController,6,_Trial_,End,1739206642980,NULL
1739207144,4b5495ee7409e05c203af639df39d143,PennController,129,0,practice_intro_val,NULL,PennController,7,_Trial_,Start,1739206642982,NULL
1739207144,4b5495ee7409e05c203af639df39d143,PennController,129,0,practice_intro_val,NULL,PennController,7,_Header_,Start,1739206642982,NULL
1739207144,4b5495ee7409e05c203af639df39d143,PennController,129,0,practice_intro_val,NULL,PennController,7,_Header_,End,1739206643232,NULL
1739207144,4b5495ee7409e05c203af639df39d143,PennController,129,0,practice_intro_val,NULL,PennController,7,_Trial_,End,1739206644073,NULL
# 13. ID.
# 14. ReactionTime.
# 15. Word.
# 16. selectedKey.
# 17. selectedValue.
# 18. Key_value_F.
# 19. Key_value_J.
# 20. Group.
# 21. Comments.
1739207144,4b5495ee7409e05c203af639df39d143,PennController,110,0,calibrator_val_feedback,NULL,PennController,121,_Trial_,Start,1739206644075,undefined,1290,invader,undefined,negative,positive,negative,A,NULL
1739207144,4b5495ee7409e05c203af639df39d143,PennController,110,0,calibrator_val_feedback,NULL,PennController,121,_Header_,Start,1739206644075,undefined,1290,invader,undefined,negative,positive,negative,A,NULL
1739207144,4b5495ee7409e05c203af639df39d143,PennController,110,0,calibrator_val_feedback,NULL,PennController,121,_Header_,End,1739206644326,undefined,1290,invader,undefined,negative,positive,negative,A,NULL
1739207144,4b5495ee7409e05c203af639df39d143,PennController,110,0,calibrator_val_feedback,NULL,Selector,Selection,Selection,negative,1739206646119,undefined,1290,invader,undefined,negative,positive,negative,A,positive;negative
1739207144,4b5495ee7409e05c203af639df39d143,PennController,110,0,calibrator_val_feedback,NULL,PennController,121,_Trial_,End,1739206648125,undefined,1290,invader,undefined,negative,positive,negative,A,NULL
1739207144,4b5495ee7409e05c203af639df39d143,PennController,109,0,calibrator_val_feedback,NULL,PennController,120,_Trial_,Start,1739206648126,undefined,1159,insecure,undefined,negative,positive,negative,A,NULL
1739207144,4b5495ee7409e05c203af639df39d143,PennController,109,0,calibrator_val_feedback,NULL,PennController,120,_Header_,Start,1739206648126,undefined,1159,insecure,undefined,negative,positive,negative,A,NULL
1739207144,4b5495ee7409e05c203af639df39d143,PennController,109,0,calibrator_val_feedback,NULL,PennController,120,_Header_,End,1739206648377,undefined,1159,insecure,undefined,negative,positive,negative,A,NULL
1739207144,4b5495ee7409e05c203af639df39d143,PennController,109,0,calibrator_val_feedback,NULL,Selector,Selection,Selection,negative,1739206650036,undefined,1159,insecure,undefined,negative,positive,negative,A,positive;negative
1739207144,4b5495ee7409e05c203af639df39d143,PennController,109,0,calibrator_val_feedback,NULL,PennController,120,_Trial_,End,1739206652038,undefined,1159,insecure,undefined,negative,positive,negative,A,NULL
1739207144,4b5495ee7409e05c203af639df39d143,PennController,113,0,calibrator_val_feedback,NULL,PennController,124,_Trial_,Start,1739206652039,undefined,680,kitten,undefined,negative,positive,negative,A,NULL
1739207144,4b5495ee7409e05c203af639df39d143,PennController,113,0,calibrator_val_feedback,NULL,PennController,124,_Header_,Start,1739206652039,undefined,680,kitten,undefined,negative,positive,negative,A,NULL
1739207144,4b5495ee7409e05c203af639df39d143,PennController,113,0,calibrator_val_feedback,NULL,PennController,124,_Header_,End,1739206652289,undefined,680,kitten,undefined,negative,positive,negative,A,NULL
1739207144,4b5495ee7409e05c203af639df39d143,PennController,113,0,calibrator_val_feedback,NULL,Selector,Selection,Selection,positive,1739206653472,undefined,680,kitten,undefined,negative,positive,negative,A,positive;negative
1739207144,4b5495ee7409e05c203af639df39d143,PennController,113,0,calibrator_val_feedback,NULL,PennController,124,_Trial_,End,1739206655479,undefined,680,kitten,undefined,negative,positive,negative,A,NULL
1739207144,4b5495ee7409e05c203af639df39d143,PennController,106,0,calibrator_val_feedback,NULL,PennController,117,_Trial_,Start,1739206655481,undefined,1137,hat,undefined,negative,positive,negative,A,NULL
1739207144,4b5495ee7409e05c203af639df39d143,PennController,106,0,calibrator_val_feedback,NULL,PennController,117,_Header_,Start,1739206655481,undefined,1137,hat,undefined,negative,positive,negative,A,NULL
1739207144,4b5495ee7409e05c203af639df39d143,PennController,106,0,calibrator_val_feedback,NULL,PennController,117,_Header_,End,1739206655731,undefined,1137,hat,undefined,negative,positive,negative,A,NULL
1739207144,4b5495ee7409e05c203af639df39d143,PennController,106,0,calibrator_val_feedback,NULL,Selector,Selection,Selection,positive,1739206657372,undefined,1137,hat,undefined,negative,positive,negative,A,positive;negative
1739207144,4b5495ee7409e05c203af639df39d143,PennController,106,0,calibrator_val_feedback,NULL,PennController,117,_Trial_,End,1739206659374,undefined,1137,hat,undefined,negative,positive,negative,A,NULL
1739207144,4b5495ee7409e05c203af639df39d143,PennController,104,0,calibrator_val_feedback,NULL,PennController,115,_Trial_,Start,1739206659375,undefined,729,free,undefined,negative,positive,negative,A,NULL
1739207144,4b5495ee7409e05c203af639df39d143,PennController,104,0,calibrator_val_feedback,NULL,PennController,115,_Header_,Start,1739206659375,undefined,729,free,undefined,negative,positive,negative,A,NULL
1739207144,4b5495ee7409e05c203af639df39d143,PennController,104,0,calibrator_val_feedback,NULL,PennController,115,_Header_,End,1739206659630,undefined,729,free,undefined,negative,positive,negative,A,NULL
1739207144,4b5495ee7409e05c203af639df39d143,PennController,104,0,calibrator_val_feedback,NULL,Selector,Selection,Selection,positive,1739206660864,undefined,729,free,undefined,negative,positive,negative,A,positive;negative
1739207144,4b5495ee7409e05c203af639df39d143,PennController,104,0,calibrator_val_feedback,NULL,PennController,115,_Trial_,End,1739206662869,undefined,729,free,undefined,negative,positive,negative,A,NULL
1739207144,4b5495ee7409e05c203af639df39d143,PennController,107,0,calibrator_val_feedback,NULL,PennController,118,_Trial_,Start,1739206662870,undefined,2794,icebox,undefined,negative,positive,negative,A,NULL
1739207144,4b5495ee7409e05c203af639df39d143,PennController,107,0,calibrator_val_feedback,NULL,PennController,118,_Header_,Start,1739206662870,undefined,2794,icebox,undefined,negative,positive,negative,A,NULL
1739207144,4b5495ee7409e05c203af639df39d143,PennController,107,0,calibrator_val_feedback,NULL,PennController,118,_Header_,End,1739206663120,undefined,2794,icebox,undefined,negative,positive,negative,A,NULL
1739207144,4b5495ee7409e05c203af639df39d143,PennController,107,0,calibrator_val_feedback,NULL,Selector,Selection,Selection,negative,1739206666418,undefined,2794,icebox,undefined,negative,positive,negative,A,positive;negative
1739207144,4b5495ee7409e05c203af639df39d143,PennController,107,0,calibrator_val_feedback,NULL,PennController,118,_Trial_,End,1739206668421,undefined,2794,icebox,undefined,negative,positive,negative,A,NULL
1739207144,4b5495ee7409e05c203af639df39d143,PennController,108,0,calibrator_val_feedback,NULL,PennController,119,_Trial_,Start,1739206668423,undefined,1086,industry,undefined,negative,positive,negative,A,NULL
1739207144,4b5495ee7409e05c203af639df39d143,PennController,108,0,calibrator_val_feedback,NULL,PennController,119,_Header_,Start,1739206668423,undefined,1086,industry,undefined,negative,positive,negative,A,NULL
1739207144,4b5495ee7409e05c203af639df39d143,PennController,108,0,calibrator_val_feedback,NULL,PennController,119,_Header_,End,1739206668676,undefined,1086,industry,undefined,negative,positive,negative,A,NULL
1739207144,4b5495ee7409e05c203af639df39d143,PennController,108,0,calibrator_val_feedback,NULL,Selector,Selection,Selection,negative,1739206670265,undefined,1086,industry,undefined,negative,positive,negative,A,positive;negative
1739207144,4b5495ee7409e05c203af639df39d143,PennController,108,0,calibrator_val_feedback,NULL,PennController,119,_Trial_,End,1739206672269,undefined,1086,industry,undefined,negative,positive,negative,A,NULL
1739207144,4b5495ee7409e05c203af639df39d143,PennController,111,0,calibrator_val_feedback,NULL,PennController,122,_Trial_,Start,1739206672271,undefined,735,jail,undefined,negative,positive,negative,A,NULL
1739207144,4b5495ee7409e05c203af639df39d143,PennController,111,0,calibrator_val_feedback,NULL,PennController,122,_Header_,Start,1739206672271,undefined,735,jail,undefined,negative,positive,negative,A,NULL
1739207144,4b5495ee7409e05c203af639df39d143,PennController,111,0,calibrator_val_feedback,NULL,PennController,122,_Header_,End,1739206672523,undefined,735,jail,undefined,negative,positive,negative,A,NULL
1739207144,4b5495ee7409e05c203af639df39d143,PennController,111,0,calibrator_val_feedback,NULL,Selector,Selection,Selection,negative,1739206673761,undefined,735,jail,undefined,negative,positive,negative,A,positive;negative
1739207144,4b5495ee7409e05c203af639df39d143,PennController,111,0,calibrator_val_feedback,NULL,PennController,122,_Trial_,End,1739206675767,undefined,735,jail,undefined,negative,positive,negative,A,NULL
1739207144,4b5495ee7409e05c203af639df39d143,PennController,105,0,calibrator_val_feedback,NULL,PennController,116,_Trial_,Start,1739206675769,undefined,1666,grin,undefined,negative,positive,negative,A,NULL
1739207144,4b5495ee7409e05c203af639df39d143,PennController,105,0,calibrator_val_feedback,NULL,PennController,116,_Header_,Start,1739206675769,undefined,1666,grin,undefined,negative,positive,negative,A,NULL
1739207144,4b5495ee7409e05c203af639df39d143,PennController,105,0,calibrator_val_feedback,NULL,PennController,116,_Header_,End,1739206676020,undefined,1666,grin,undefined,negative,positive,negative,A,NULL
1739207144,4b5495ee7409e05c203af639df39d143,PennController,105,0,calibrator_val_feedback,NULL,Selector,Selection,Selection,positive,1739206678191,undefined,1666,grin,undefined,negative,positive,negative,A,positive;negative
1739207144,4b5495ee7409e05c203af639df39d143,PennController,105,0,calibrator_val_feedback,NULL,PennController,116,_Trial_,End,1739206680194,undefined,1666,grin,undefined,negative,positive,negative,A,NULL
1739207144,4b5495ee7409e05c203af639df39d143,PennController,112,0,calibrator_val_feedback,NULL,PennController,123,_Trial_,Start,1739206680195,undefined,1256,joke,undefined,negative,positive,negative,A,NULL
1739207144,4b5495ee7409e05c203af639df39d143,PennController,112,0,calibrator_val_feedback,NULL,PennController,123,_Header_,Start,1739206680195,undefined,1256,joke,undefined,negative,positive,negative,A,NULL
1739207144,4b5495ee7409e05c203af639df39d143,PennController,112,0,calibrator_val_feedback,NULL,PennController,123,_Header_,End,1739206680445,undefined,1256,joke,undefined,negative,positive,negative,A,NULL
1739207144,4b5495ee7409e05c203af639df39d143,PennController,112,0,calibrator_val_feedback,NULL,Selector,Selection,Selection,positive,1739206682206,undefined,1256,joke,undefined,negative,positive,negative,A,positive;negative
1739207144,4b5495ee7409e05c203af639df39d143,PennController,112,0,calibrator_val_feedback,NULL,PennController,123,_Trial_,End,1739206684212,undefined,1256,joke,undefined,negative,positive,negative,A,NULL
# 16. Key_value_F.
# 17. Key_value_J.
# 18. Group.
# 19. Comments.
1739207144,4b5495ee7409e05c203af639df39d143,PennController,121,0,calibrator_val_no_feedback,NULL,PennController,132,_Trial_,Start,1739206684215,undefined,811,jail,positive,negative,A,NULL
1739207144,4b5495ee7409e05c203af639df39d143,PennController,121,0,calibrator_val_no_feedback,NULL,PennController,132,_Header_,Start,1739206684215,undefined,811,jail,positive,negative,A,NULL
1739207144,4b5495ee7409e05c203af639df39d143,PennController,121,0,calibrator_val_no_feedback,NULL,PennController,132,_Header_,End,1739206684467,undefined,811,jail,positive,negative,A,NULL
1739207144,4b5495ee7409e05c203af639df39d143,PennController,121,0,calibrator_val_no_feedback,NULL,Selector,unnamed-Selector,Selection,negative,1739206685781,undefined,811,jail,positive,negative,A,positive;negative
1739207144,4b5495ee7409e05c203af639df39d143,PennController,121,0,calibrator_val_no_feedback,NULL,PennController,132,_Trial_,End,1739206685783,undefined,811,jail,positive,negative,A,NULL
1739207144,4b5495ee7409e05c203af639df39d143,PennController,114,0,calibrator_val_no_feedback,NULL,PennController,125,_Trial_,Start,1739206685784,undefined,592,free,positive,negative,A,NULL
1739207144,4b5495ee7409e05c203af639df39d143,PennController,114,0,calibrator_val_no_feedback,NULL,PennController,125,_Header_,Start,1739206685784,undefined,592,free,positive,negative,A,NULL
1739207144,4b5495ee7409e05c203af639df39d143,PennController,114,0,calibrator_val_no_feedback,NULL,PennController,125,_Header_,End,1739206686035,undefined,592,free,positive,negative,A,NULL
1739207144,4b5495ee7409e05c203af639df39d143,PennController,114,0,calibrator_val_no_feedback,NULL,Selector,unnamed-Selector,Selection,positive,1739206687131,undefined,592,free,positive,negative,A,positive;negative
1739207144,4b5495ee7409e05c203af639df39d143,PennController,114,0,calibrator_val_no_feedback,NULL,PennController,125,_Trial_,End,1739206687133,undefined,592,free,positive,negative,A,NULL
1739207144,4b5495ee7409e05c203af639df39d143,PennController,119,0,calibrator_val_no_feedback,NULL,PennController,130,_Trial_,Start,1739206687134,undefined,538,insecure,positive,negative,A,NULL
1739207144,4b5495ee7409e05c203af639df39d143,PennController,119,0,calibrator_val_no_feedback,NULL,PennController,130,_Header_,Start,1739206687134,undefined,538,insecure,positive,negative,A,NULL
1739207144,4b5495ee7409e05c203af639df39d143,PennController,119,0,calibrator_val_no_feedback,NULL,PennController,130,_Header_,End,1739206687386,undefined,538,insecure,positive,negative,A,NULL
1739207144,4b5495ee7409e05c203af639df39d143,PennController,119,0,calibrator_val_no_feedback,NULL,Selector,unnamed-Selector,Selection,negative,1739206688427,undefined,538,insecure,positive,negative,A,positive;negative
1739207144,4b5495ee7409e05c203af639df39d143,PennController,119,0,calibrator_val_no_feedback,NULL,PennController,130,_Trial_,End,1739206688429,undefined,538,insecure,positive,negative,A,NULL
1739207144,4b5495ee7409e05c203af639df39d143,PennController,122,0,calibrator_val_no_feedback,NULL,PennController,133,_Trial_,Start,1739206688430,undefined,704,joke,positive,negative,A,NULL
1739207144,4b5495ee7409e05c203af639df39d143,PennController,122,0,calibrator_val_no_feedback,NULL,PennController,133,_Header_,Start,1739206688430,undefined,704,joke,positive,negative,A,NULL
1739207144,4b5495ee7409e05c203af639df39d143,PennController,122,0,calibrator_val_no_feedback,NULL,PennController,133,_Header_,End,1739206688683,undefined,704,joke,positive,negative,A,NULL
1739207144,4b5495ee7409e05c203af639df39d143,PennController,122,0,calibrator_val_no_feedback,NULL,Selector,unnamed-Selector,Selection,negative,1739206689891,undefined,704,joke,positive,negative,A,positive;negative
1739207144,4b5495ee7409e05c203af639df39d143,PennController,122,0,calibrator_val_no_feedback,NULL,PennController,133,_Trial_,End,1739206689893,undefined,704,joke,positive,negative,A,NULL
1739207144,4b5495ee7409e05c203af639df39d143,PennController,120,0,calibrator_val_no_feedback,NULL,PennController,131,_Trial_,Start,1739206689894,undefined,696,invader,positive,negative,A,NULL
1739207144,4b5495ee7409e05c203af639df39d143,PennController,120,0,calibrator_val_no_feedback,NULL,PennController,131,_Header_,Start,1739206689894,undefined,696,invader,positive,negative,A,NULL
1739207144,4b5495ee7409e05c203af639df39d143,PennController,120,0,calibrator_val_no_feedback,NULL,PennController,131,_Header_,End,1739206690145,undefined,696,invader,positive,negative,A,NULL
1739207144,4b5495ee7409e05c203af639df39d143,PennController,120,0,calibrator_val_no_feedback,NULL,Selector,unnamed-Selector,Selection,negative,1739206691344,undefined,696,invader,positive,negative,A,positive;negative
1739207144,4b5495ee7409e05c203af639df39d143,PennController,120,0,calibrator_val_no_feedback,NULL,PennController,131,_Trial_,End,1739206691345,undefined,696,invader,positive,negative,A,NULL
1739207144,4b5495ee7409e05c203af639df39d143,PennController,117,0,calibrator_val_no_feedback,NULL,PennController,128,_Trial_,Start,1739206691346,undefined,701,icebox,positive,negative,A,NULL
1739207144,4b5495ee7409e05c203af639df39d143,PennController,117,0,calibrator_val_no_feedback,NULL,PennController,128,_Header_,Start,1739206691346,undefined,701,icebox,positive,negative,A,NULL
1739207144,4b5495ee7409e05c203af639df39d143,PennController,117,0,calibrator_val_no_feedback,NULL,PennController,128,_Header_,End,1739206691597,undefined,701,icebox,positive,negative,A,NULL
1739207144,4b5495ee7409e05c203af639df39d143,PennController,117,0,calibrator_val_no_feedback,NULL,Selector,unnamed-Selector,Selection,negative,1739206692802,undefined,701,icebox,positive,negative,A,positive;negative
1739207144,4b5495ee7409e05c203af639df39d143,PennController,117,0,calibrator_val_no_feedback,NULL,PennController,128,_Trial_,End,1739206692803,undefined,701,icebox,positive,negative,A,NULL
1739207144,4b5495ee7409e05c203af639df39d143,PennController,118,0,calibrator_val_no_feedback,NULL,PennController,129,_Trial_,Start,1739206692805,undefined,589,industry,positive,negative,A,NULL
1739207144,4b5495ee7409e05c203af639df39d143,PennController,118,0,calibrator_val_no_feedback,NULL,PennController,129,_Header_,Start,1739206692805,undefined,589,industry,positive,negative,A,NULL
1739207144,4b5495ee7409e05c203af639df39d143,PennController,118,0,calibrator_val_no_feedback,NULL,PennController,129,_Header_,End,1739206693056,undefined,589,industry,positive,negative,A,NULL
1739207144,4b5495ee7409e05c203af639df39d143,PennController,118,0,calibrator_val_no_feedback,NULL,Selector,unnamed-Selector,Selection,negative,1739206694146,undefined,589,industry,positive,negative,A,positive;negative
1739207144,4b5495ee7409e05c203af639df39d143,PennController,118,0,calibrator_val_no_feedback,NULL,PennController,129,_Trial_,End,1739206694147,undefined,589,industry,positive,negative,A,NULL
1739207144,4b5495ee7409e05c203af639df39d143,PennController,116,0,calibrator_val_no_feedback,NULL,PennController,127,_Trial_,Start,1739206694149,undefined,673,hat,positive,negative,A,NULL
1739207144,4b5495ee7409e05c203af639df39d143,PennController,116,0,calibrator_val_no_feedback,NULL,PennController,127,_Header_,Start,1739206694149,undefined,673,hat,positive,negative,A,NULL
1739207144,4b5495ee7409e05c203af639df39d143,PennController,116,0,calibrator_val_no_feedback,NULL,PennController,127,_Header_,End,1739206694399,undefined,673,hat,positive,negative,A,NULL
1739207144,4b5495ee7409e05c203af639df39d143,PennController,116,0,calibrator_val_no_feedback,NULL,Selector,unnamed-Selector,Selection,positive,1739206695571,undefined,673,hat,positive,negative,A,positive;negative
1739207144,4b5495ee7409e05c203af639df39d143,PennController,116,0,calibrator_val_no_feedback,NULL,PennController,127,_Trial_,End,1739206695572,undefined,673,hat,positive,negative,A,NULL
1739207144,4b5495ee7409e05c203af639df39d143,PennController,123,0,calibrator_val_no_feedback,NULL,PennController,134,_Trial_,Start,1739206695573,undefined,507,kitten,positive,negative,A,NULL
1739207144,4b5495ee7409e05c203af639df39d143,PennController,123,0,calibrator_val_no_feedback,NULL,PennController,134,_Header_,Start,1739206695573,undefined,507,kitten,positive,negative,A,NULL
1739207144,4b5495ee7409e05c203af639df39d143,PennController,123,0,calibrator_val_no_feedback,NULL,PennController,134,_Header_,End,1739206695824,undefined,507,kitten,positive,negative,A,NULL
1739207144,4b5495ee7409e05c203af639df39d143,PennController,123,0,calibrator_val_no_feedback,NULL,Selector,unnamed-Selector,Selection,positive,1739206696832,undefined,507,kitten,positive,negative,A,positive;negative
1739207144,4b5495ee7409e05c203af639df39d143,PennController,123,0,calibrator_val_no_feedback,NULL,PennController,134,_Trial_,End,1739206696833,undefined,507,kitten,positive,negative,A,NULL
1739207144,4b5495ee7409e05c203af639df39d143,PennController,115,0,calibrator_val_no_feedback,NULL,PennController,126,_Trial_,Start,1739206696834,undefined,539,grin,positive,negative,A,NULL
1739207144,4b5495ee7409e05c203af639df39d143,PennController,115,0,calibrator_val_no_feedback,NULL,PennController,126,_Header_,Start,1739206696834,undefined,539,grin,positive,negative,A,NULL
1739207144,4b5495ee7409e05c203af639df39d143,PennController,115,0,calibrator_val_no_feedback,NULL,PennController,126,_Header_,End,1739206697085,undefined,539,grin,positive,negative,A,NULL
1739207144,4b5495ee7409e05c203af639df39d143,PennController,115,0,calibrator_val_no_feedback,NULL,Selector,unnamed-Selector,Selection,positive,1739206698127,undefined,539,grin,positive,negative,A,positive;negative
1739207144,4b5495ee7409e05c203af639df39d143,PennController,115,0,calibrator_val_no_feedback,NULL,PennController,126,_Trial_,End,1739206698129,undefined,539,grin,positive,negative,A,NULL
# 13. Comments.
1739207144,4b5495ee7409e05c203af639df39d143,PennController,130,0,endinstructions_val,NULL,PennController,8,_Trial_,Start,1739206698130,NULL
1739207144,4b5495ee7409e05c203af639df39d143,PennController,130,0,endinstructions_val,NULL,PennController,8,_Header_,Start,1739206698130,NULL
1739207144,4b5495ee7409e05c203af639df39d143,PennController,130,0,endinstructions_val,NULL,PennController,8,_Header_,End,1739206698382,NULL
1739207144,4b5495ee7409e05c203af639df39d143,PennController,130,0,endinstructions_val,NULL,PennController,8,_Trial_,End,1739206701125,NULL
# 13. ID.
# 14. ReactionTime.
# 15. Word.
# 16. ConcValCombo.
# 17. Key_value_F.
# 18. Key_value_J.
# 19. Group.
# 20. Comments.
1739207144,4b5495ee7409e05c203af639df39d143,PennController,55,0,test_val,NULL,PennController,66,_Trial_,Start,1739206701126,undefined,892,lilac,concrete-positive,positive,negative,A,NULL
1739207144,4b5495ee7409e05c203af639df39d143,PennController,55,0,test_val,NULL,PennController,66,_Header_,Start,1739206701126,undefined,892,lilac,concrete-positive,positive,negative,A,NULL
1739207144,4b5495ee7409e05c203af639df39d143,PennController,55,0,test_val,NULL,PennController,66,_Header_,End,1739206701377,undefined,892,lilac,concrete-positive,positive,negative,A,NULL
1739207144,4b5495ee7409e05c203af639df39d143,PennController,55,0,test_val,NULL,Selector,unnamed-Selector,Selection,positive,1739206702772,undefined,892,lilac,concrete-positive,positive,negative,A,positive;negative
1739207144,4b5495ee7409e05c203af639df39d143,PennController,55,0,test_val,NULL,PennController,66,_Trial_,End,1739206702774,undefined,892,lilac,concrete-positive,positive,negative,A,NULL
1739207144,4b5495ee7409e05c203af639df39d143,PennController,71,0,test_val,NULL,PennController,82,_Trial_,Start,1739206702774,undefined,521,pleasant,abstract-positive,positive,negative,A,NULL
1739207144,4b5495ee7409e05c203af639df39d143,PennController,71,0,test_val,NULL,PennController,82,_Header_,Start,1739206702774,undefined,521,pleasant,abstract-positive,positive,negative,A,NULL
1739207144,4b5495ee7409e05c203af639df39d143,PennController,71,0,test_val,NULL,PennController,82,_Header_,End,1739206703024,undefined,521,pleasant,abstract-positive,positive,negative,A,NULL
1739207144,4b5495ee7409e05c203af639df39d143,PennController,71,0,test_val,NULL,Selector,unnamed-Selector,Selection,positive,1739206704048,undefined,521,pleasant,abstract-positive,positive,negative,A,positive;negative
1739207144,4b5495ee7409e05c203af639df39d143,PennController,71,0,test_val,NULL,PennController,82,_Trial_,End,1739206704049,undefined,521,pleasant,abstract-positive,positive,negative,A,NULL
1739207144,4b5495ee7409e05c203af639df39d143,PennController,53,0,test_val,NULL,PennController,64,_Trial_,Start,1739206704050,undefined,628,disloyal,abstract-negative,positive,negative,A,NULL
1739207144,4b5495ee7409e05c203af639df39d143,PennController,53,0,test_val,NULL,PennController,64,_Header_,Start,1739206704050,undefined,628,disloyal,abstract-negative,positive,negative,A,NULL
1739207144,4b5495ee7409e05c203af639df39d143,PennController,53,0,test_val,NULL,PennController,64,_Header_,End,1739206704301,undefined,628,disloyal,abstract-negative,positive,negative,A,NULL
1739207144,4b5495ee7409e05c203af639df39d143,PennController,53,0,test_val,NULL,Selector,unnamed-Selector,Selection,negative,1739206705434,undefined,628,disloyal,abstract-negative,positive,negative,A,positive;negative
1739207144,4b5495ee7409e05c203af639df39d143,PennController,53,0,test_val,NULL,PennController,64,_Trial_,End,1739206705435,undefined,628,disloyal,abstract-negative,positive,negative,A,NULL
1739207144,4b5495ee7409e05c203af639df39d143,PennController,78,0,test_val,NULL,PennController,89,_Trial_,Start,1739206705436,undefined,572,thorny,concrete-negative,positive,negative,A,NULL
1739207144,4b5495ee7409e05c203af639df39d143,PennController,78,0,test_val,NULL,PennController,89,_Header_,Start,1739206705436,undefined,572,thorny,concrete-negative,positive,negative,A,NULL
1739207144,4b5495ee7409e05c203af639df39d143,PennController,78,0,test_val,NULL,PennController,89,_Header_,End,1739206705690,undefined,572,thorny,concrete-negative,positive,negative,A,NULL
1739207144,4b5495ee7409e05c203af639df39d143,PennController,78,0,test_val,NULL,Selector,unnamed-Selector,Selection,negative,1739206706763,undefined,572,thorny,concrete-negative,positive,negative,A,positive;negative
1739207144,4b5495ee7409e05c203af639df39d143,PennController,78,0,test_val,NULL,PennController,89,_Trial_,End,1739206706764,undefined,572,thorny,concrete-negative,positive,negative,A,NULL
1739207144,4b5495ee7409e05c203af639df39d143,PennController,56,0,test_val,NULL,PennController,67,_Trial_,Start,1739206706765,undefined,547,human,concrete-positive,positive,negative,A,NULL
1739207144,4b5495ee7409e05c203af639df39d143,PennController,56,0,test_val,NULL,PennController,67,_Header_,Start,1739206706765,undefined,547,human,concrete-positive,positive,negative,A,NULL
1739207144,4b5495ee7409e05c203af639df39d143,PennController,56,0,test_val,NULL,PennController,67,_Header_,End,1739206707017,undefined,547,human,concrete-positive,positive,negative,A,NULL
1739207144,4b5495ee7409e05c203af639df39d143,PennController,56,0,test_val,NULL,Selector,unnamed-Selector,Selection,positive,1739206708064,undefined,547,human,concrete-positive,positive,negative,A,positive;negative
1739207144,4b5495ee7409e05c203af639df39d143,PennController,56,0,test_val,NULL,PennController,67,_Trial_,End,1739206708066,undefined,547,human,concrete-positive,positive,negative,A,NULL
1739207144,4b5495ee7409e05c203af639df39d143,PennController,62,0,test_val,NULL,PennController,73,_Trial_,Start,1739206708067,undefined,1118,pregnant,concrete-positive,positive,negative,A,NULL
1739207144,4b5495ee7409e05c203af639df39d143,PennController,62,0,test_val,NULL,PennController,73,_Header_,Start,1739206708067,undefined,1118,pregnant,concrete-positive,positive,negative,A,NULL
1739207144,4b5495ee7409e05c203af639df39d143,PennController,62,0,test_val,NULL,PennController,73,_Header_,End,1739206708319,undefined,1118,pregnant,concrete-positive,positive,negative,A,NULL
1739207144,4b5495ee7409e05c203af639df39d143,PennController,62,0,test_val,NULL,Selector,unnamed-Selector,Selection,negative,1739206709939,undefined,1118,pregnant,concrete-positive,positive,negative,A,positive;negative
1739207144,4b5495ee7409e05c203af639df39d143,PennController,62,0,test_val,NULL,PennController,73,_Trial_,End,1739206709941,undefined,1118,pregnant,concrete-positive,positive,negative,A,NULL
1739207144,4b5495ee7409e05c203af639df39d143,PennController,73,0,test_val,NULL,PennController,84,_Trial_,Start,1739206709942,undefined,847,divine,abstract-positive,positive,negative,A,NULL
1739207144,4b5495ee7409e05c203af639df39d143,PennController,73,0,test_val,NULL,PennController,84,_Header_,Start,1739206709942,undefined,847,divine,abstract-positive,positive,negative,A,NULL
1739207144,4b5495ee7409e05c203af639df39d143,PennController,73,0,test_val,NULL,PennController,84,_Header_,End,1739206710193,undefined,847,divine,abstract-positive,positive,negative,A,NULL
1739207144,4b5495ee7409e05c203af639df39d143,PennController,73,0,test_val,NULL,Selector,unnamed-Selector,Selection,positive,1739206711544,undefined,847,divine,abstract-positive,positive,negative,A,positive;negative
1739207144,4b5495ee7409e05c203af639df39d143,PennController,73,0,test_val,NULL,PennController,84,_Trial_,End,1739206711546,undefined,847,divine,abstract-positive,positive,negative,A,NULL
1739207144,4b5495ee7409e05c203af639df39d143,PennController,59,0,test_val,NULL,PennController,70,_Trial_,Start,1739206711547,undefined,708,blooming,concrete-positive,positive,negative,A,NULL
1739207144,4b5495ee7409e05c203af639df39d143,PennController,59,0,test_val,NULL,PennController,70,_Header_,Start,1739206711547,undefined,708,blooming,concrete-positive,positive,negative,A,NULL
1739207144,4b5495ee7409e05c203af639df39d143,PennController,59,0,test_val,NULL,PennController,70,_Header_,End,1739206711798,undefined,708,blooming,concrete-positive,positive,negative,A,NULL
1739207144,4b5495ee7409e05c203af639df39d143,PennController,59,0,test_val,NULL,Selector,unnamed-Selector,Selection,positive,1739206713008,undefined,708,blooming,concrete-positive,positive,negative,A,positive;negative
1739207144,4b5495ee7409e05c203af639df39d143,PennController,59,0,test_val,NULL,PennController,70,_Trial_,End,1739206713010,undefined,708,blooming,concrete-positive,positive,negative,A,NULL
1739207144,4b5495ee7409e05c203af639df39d143,PennController,65,0,test_val,NULL,PennController,76,_Trial_,Start,1739206713011,undefined,549,lovable,abstract-positive,positive,negative,A,NULL
1739207144,4b5495ee7409e05c203af639df39d143,PennController,65,0,test_val,NULL,PennController,76,_Header_,Start,1739206713011,undefined,549,lovable,abstract-positive,positive,negative,A,NULL
1739207144,4b5495ee7409e05c203af639df39d143,PennController,65,0,test_val,NULL,PennController,76,_Header_,End,1739206713262,undefined,549,lovable,abstract-positive,positive,negative,A,NULL
1739207144,4b5495ee7409e05c203af639df39d143,PennController,65,0,test_val,NULL,Selector,unnamed-Selector,Selection,positive,1739206714313,undefined,549,lovable,abstract-positive,positive,negative,A,positive;negative
1739207144,4b5495ee7409e05c203af639df39d143,PennController,65,0,test_val,NULL,PennController,76,_Trial_,End,1739206714314,undefined,549,lovable,abstract-positive,positive,negative,A,NULL
1739207144,4b5495ee7409e05c203af639df39d143,PennController,80,0,test_val,NULL,PennController,91,_Trial_,Start,1739206714315,undefined,594,dirty,concrete-negative,positive,negative,A,NULL
1739207144,4b5495ee7409e05c203af639df39d143,PennController,80,0,test_val,NULL,PennController,91,_Header_,Start,1739206714315,undefined,594,dirty,concrete-negative,positive,negative,A,NULL
1739207144,4b5495ee7409e05c203af639df39d143,PennController,80,0,test_val,NULL,PennController,91,_Header_,End,1739206714565,undefined,594,dirty,concrete-negative,positive,negative,A,NULL
1739207144,4b5495ee7409e05c203af639df39d143,PennController,80,0,test_val,NULL,Selector,unnamed-Selector,Selection,negative,1739206715661,undefined,594,dirty,concrete-negative,positive,negative,A,positive;negative
1739207144,4b5495ee7409e05c203af639df39d143,PennController,80,0,test_val,NULL,PennController,91,_Trial_,End,1739206715662,undefined,594,dirty,concrete-negative,positive,negative,A,NULL
1739207144,4b5495ee7409e05c203af639df39d143,PennController,46,0,test_val,NULL,PennController,57,_Trial_,Start,1739206715663,undefined,638,evil,abstract-negative,positive,negative,A,NULL
1739207144,4b5495ee7409e05c203af639df39d143,PennController,46,0,test_val,NULL,PennController,57,_Header_,Start,1739206715663,undefined,638,evil,abstract-negative,positive,negative,A,NULL
1739207144,4b5495ee7409e05c203af639df39d143,PennController,46,0,test_val,NULL,PennController,57,_Header_,End,1739206715913,undefined,638,evil,abstract-negative,positive,negative,A,NULL
1739207144,4b5495ee7409e05c203af639df39d143,PennController,46,0,test_val,NULL,Selector,unnamed-Selector,Selection,negative,1739206717053,undefined,638,evil,abstract-negative,positive,negative,A,positive;negative
1739207144,4b5495ee7409e05c203af639df39d143,PennController,46,0,test_val,NULL,PennController,57,_Trial_,End,1739206717055,undefined,638,evil,abstract-negative,positive,negative,A,NULL
1739207144,4b5495ee7409e05c203af639df39d143,PennController,83,0,test_val,NULL,PennController,94,_Trial_,Start,1739206717056,undefined,612,bloody,concrete-negative,positive,negative,A,NULL
1739207144,4b5495ee7409e05c203af639df39d143,PennController,83,0,test_val,NULL,PennController,94,_Header_,Start,1739206717056,undefined,612,bloody,concrete-negative,positive,negative,A,NULL
1739207144,4b5495ee7409e05c203af639df39d143,PennController,83,0,test_val,NULL,PennController,94,_Header_,End,1739206717310,undefined,612,bloody,concrete-negative,positive,negative,A,NULL
1739207144,4b5495ee7409e05c203af639df39d143,PennController,83,0,test_val,NULL,Selector,unnamed-Selector,Selection,negative,1739206718426,undefined,612,bloody,concrete-negative,positive,negative,A,positive;negative
1739207144,4b5495ee7409e05c203af639df39d143,PennController,83,0,test_val,NULL,PennController,94,_Trial_,End,1739206718427,undefined,612,bloody,concrete-negative,positive,negative,A,NULL
1739207144,4b5495ee7409e05c203af639df39d143,PennController,48,0,test_val,NULL,PennController,59,_Trial_,Start,1739206718428,undefined,584,heartless,abstract-negative,positive,negative,A,NULL
1739207144,4b5495ee7409e05c203af639df39d143,PennController,48,0,test_val,NULL,PennController,59,_Header_,Start,1739206718428,undefined,584,heartless,abstract-negative,positive,negative,A,NULL
1739207144,4b5495ee7409e05c203af639df39d143,PennController,48,0,test_val,NULL,PennController,59,_Header_,End,1739206718679,undefined,584,heartless,abstract-negative,positive,negative,A,NULL
1739207144,4b5495ee7409e05c203af639df39d143,PennController,48,0,test_val,NULL,Selector,unnamed-Selector,Selection,negative,1739206719766,undefined,584,heartless,abstract-negative,positive,negative,A,positive;negative
1739207144,4b5495ee7409e05c203af639df39d143,PennController,48,0,test_val,NULL,PennController,59,_Trial_,End,1739206719768,undefined,584,heartless,abstract-negative,positive,negative,A,NULL
1739207144,4b5495ee7409e05c203af639df39d143,PennController,67,0,test_val,NULL,PennController,78,_Trial_,Start,1739206719768,undefined,682,splendid,abstract-positive,positive,negative,A,NULL
1739207144,4b5495ee7409e05c203af639df39d143,PennController,67,0,test_val,NULL,PennController,78,_Header_,Start,1739206719768,undefined,682,splendid,abstract-positive,positive,negative,A,NULL
1739207144,4b5495ee7409e05c203af639df39d143,PennController,67,0,test_val,NULL,PennController,78,_Header_,End,1739206720022,undefined,682,splendid,abstract-positive,positive,negative,A,NULL
1739207144,4b5495ee7409e05c203af639df39d143,PennController,67,0,test_val,NULL,Selector,unnamed-Selector,Selection,positive,1739206721209,undefined,682,splendid,abstract-positive,positive,negative,A,positive;negative
1739207144,4b5495ee7409e05c203af639df39d143,PennController,67,0,test_val,NULL,PennController,78,_Trial_,End,1739206721210,undefined,682,splendid,abstract-positive,positive,negative,A,NULL
1739207144,4b5495ee7409e05c203af639df39d143,PennController,77,0,test_val,NULL,PennController,88,_Trial_,Start,1739206721212,undefined,610,rusted,concrete-negative,positive,negative,A,NULL
1739207144,4b5495ee7409e05c203af639df39d143,PennController,77,0,test_val,NULL,PennController,88,_Header_,Start,1739206721212,undefined,610,rusted,concrete-negative,positive,negative,A,NULL
1739207144,4b5495ee7409e05c203af639df39d143,PennController,77,0,test_val,NULL,PennController,88,_Header_,End,1739206721465,undefined,610,rusted,concrete-negative,positive,negative,A,NULL
1739207144,4b5495ee7409e05c203af639df39d143,PennController,77,0,test_val,NULL,Selector,unnamed-Selector,Selection,negative,1739206722578,undefined,610,rusted,concrete-negative,positive,negative,A,positive;negative
1739207144,4b5495ee7409e05c203af639df39d143,PennController,77,0,test_val,NULL,PennController,88,_Trial_,End,1739206722579,undefined,610,rusted,concrete-negative,positive,negative,A,NULL
1739207144,4b5495ee7409e05c203af639df39d143,PennController,82,0,test_val,NULL,PennController,93,_Trial_,Start,1739206722581,undefined,763,freezing,concrete-negative,positive,negative,A,NULL
1739207144,4b5495ee7409e05c203af639df39d143,PennController,82,0,test_val,NULL,PennController,93,_Header_,Start,1739206722581,undefined,763,freezing,concrete-negative,positive,negative,A,NULL
1739207144,4b5495ee7409e05c203af639df39d143,PennController,82,0,test_val,NULL,PennController,93,_Header_,End,1739206722832,undefined,763,freezing,concrete-negative,positive,negative,A,NULL
1739207144,4b5495ee7409e05c203af639df39d143,PennController,82,0,test_val,NULL,Selector,unnamed-Selector,Selection,negative,1739206724100,undefined,763,freezing,concrete-negative,positive,negative,A,positive;negative
1739207144,4b5495ee7409e05c203af639df39d143,PennController,82,0,test_val,NULL,PennController,93,_Trial_,End,1739206724101,undefined,763,freezing,concrete-negative,positive,negative,A,NULL
1739207144,4b5495ee7409e05c203af639df39d143,PennController,60,0,test_val,NULL,PennController,71,_Trial_,Start,1739206724102,undefined,779,orange,concrete-positive,positive,negative,A,NULL
1739207144,4b5495ee7409e05c203af639df39d143,PennController,60,0,test_val,NULL,PennController,71,_Header_,Start,1739206724102,undefined,779,orange,concrete-positive,positive,negative,A,NULL
1739207144,4b5495ee7409e05c203af639df39d143,PennController,60,0,test_val,NULL,PennController,71,_Header_,End,1739206724354,undefined,779,orange,concrete-positive,positive,negative,A,NULL
1739207144,4b5495ee7409e05c203af639df39d143,PennController,60,0,test_val,NULL,Selector,unnamed-Selector,Selection,positive,1739206725636,undefined,779,orange,concrete-positive,positive,negative,A,positive;negative
1739207144,4b5495ee7409e05c203af639df39d143,PennController,60,0,test_val,NULL,PennController,71,_Trial_,End,1739206725637,undefined,779,orange,concrete-positive,positive,negative,A,NULL
1739207144,4b5495ee7409e05c203af639df39d143,PennController,61,0,test_val,NULL,PennController,72,_Trial_,Start,1739206725638,undefined,676,starry,concrete-positive,positive,negative,A,NULL
1739207144,4b5495ee7409e05c203af639df39d143,PennController,61,0,test_val,NULL,PennController,72,_Header_,Start,1739206725638,undefined,676,starry,concrete-positive,positive,negative,A,NULL
1739207144,4b5495ee7409e05c203af639df39d143,PennController,61,0,test_val,NULL,PennController,72,_Header_,End,1739206725890,undefined,676,starry,concrete-positive,positive,negative,A,NULL
1739207144,4b5495ee7409e05c203af639df39d143,PennController,61,0,test_val,NULL,Selector,unnamed-Selector,Selection,positive,1739206727070,undefined,676,starry,concrete-positive,positive,negative,A,positive;negative
1739207144,4b5495ee7409e05c203af639df39d143,PennController,61,0,test_val,NULL,PennController,72,_Trial_,End,1739206727071,undefined,676,starry,concrete-positive,positive,negative,A,NULL
1739207144,4b5495ee7409e05c203af639df39d143,PennController,81,0,test_val,NULL,PennController,92,_Trial_,Start,1739206727072,undefined,832,wrinkled,concrete-negative,positive,negative,A,NULL
1739207144,4b5495ee7409e05c203af639df39d143,PennController,81,0,test_val,NULL,PennController,92,_Header_,Start,1739206727072,undefined,832,wrinkled,concrete-negative,positive,negative,A,NULL
1739207144,4b5495ee7409e05c203af639df39d143,PennController,81,0,test_val,NULL,PennController,92,_Header_,End,1739206727323,undefined,832,wrinkled,concrete-negative,positive,negative,A,NULL
1739207144,4b5495ee7409e05c203af639df39d143,PennController,81,0,test_val,NULL,Selector,unnamed-Selector,Selection,negative,1739206728660,undefined,832,wrinkled,concrete-negative,positive,negative,A,positive;negative
1739207144,4b5495ee7409e05c203af639df39d143,PennController,81,0,test_val,NULL,PennController,92,_Trial_,End,1739206728661,undefined,832,wrinkled,concrete-negative,positive,negative,A,NULL
1739207144,4b5495ee7409e05c203af639df39d143,PennController,52,0,test_val,NULL,PennController,63,_Trial_,Start,1739206728662,undefined,552,sinful,abstract-negative,positive,negative,A,NULL
1739207144,4b5495ee7409e05c203af639df39d143,PennController,52,0,test_val,NULL,PennController,63,_Header_,Start,1739206728662,undefined,552,sinful,abstract-negative,positive,negative,A,NULL
1739207144,4b5495ee7409e05c203af639df39d143,PennController,52,0,test_val,NULL,PennController,63,_Header_,End,1739206728913,undefined,552,sinful,abstract-negative,positive,negative,A,NULL
1739207144,4b5495ee7409e05c203af639df39d143,PennController,52,0,test_val,NULL,Selector,unnamed-Selector,Selection,negative,1739206729970,undefined,552,sinful,abstract-negative,positive,negative,A,positive;negative
1739207144,4b5495ee7409e05c203af639df39d143,PennController,52,0,test_val,NULL,PennController,63,_Trial_,End,1739206729972,undefined,552,sinful,abstract-negative,positive,negative,A,NULL
1739207144,4b5495ee7409e05c203af639df39d143,PennController,54,0,test_val,NULL,PennController,65,_Trial_,Start,1739206729972,undefined,670,sunny,concrete-positive,positive,negative,A,NULL
1739207144,4b5495ee7409e05c203af639df39d143,PennController,54,0,test_val,NULL,PennController,65,_Header_,Start,1739206729972,undefined,670,sunny,concrete-positive,positive,negative,A,NULL
1739207144,4b5495ee7409e05c203af639df39d143,PennController,54,0,test_val,NULL,PennController,65,_Header_,End,1739206730224,undefined,670,sunny,concrete-positive,positive,negative,A,NULL
1739207144,4b5495ee7409e05c203af639df39d143,PennController,54,0,test_val,NULL,Selector,unnamed-Selector,Selection,positive,1739206731395,undefined,670,sunny,concrete-positive,positive,negative,A,positive;negative
1739207144,4b5495ee7409e05c203af639df39d143,PennController,54,0,test_val,NULL,PennController,65,_Trial_,End,1739206731397,undefined,670,sunny,concrete-positive,positive,negative,A,NULL
1739207144,4b5495ee7409e05c203af639df39d143,PennController,64,0,test_val,NULL,PennController,75,_Trial_,Start,1739206731398,undefined,490,honest,abstract-positive,positive,negative,A,NULL
1739207144,4b5495ee7409e05c203af639df39d143,PennController,64,0,test_val,NULL,PennController,75,_Header_,Start,1739206731398,undefined,490,honest,abstract-positive,positive,negative,A,NULL
1739207144,4b5495ee7409e05c203af639df39d143,PennController,64,0,test_val,NULL,PennController,75,_Header_,End,1739206731649,undefined,490,honest,abstract-positive,positive,negative,A,NULL
1739207144,4b5495ee7409e05c203af639df39d143,PennController,64,0,test_val,NULL,Selector,unnamed-Selector,Selection,positive,1739206732642,undefined,490,honest,abstract-positive,positive,negative,A,positive;negative
1739207144,4b5495ee7409e05c203af639df39d143,PennController,64,0,test_val,NULL,PennController,75,_Trial_,End,1739206732644,undefined,490,honest,abstract-positive,positive,negative,A,NULL
1739207144,4b5495ee7409e05c203af639df39d143,PennController,69,0,test_val,NULL,PennController,80,_Trial_,Start,1739206732644,undefined,487,sensible,abstract-positive,positive,negative,A,NULL
1739207144,4b5495ee7409e05c203af639df39d143,PennController,69,0,test_val,NULL,PennController,80,_Header_,Start,1739206732644,undefined,487,sensible,abstract-positive,positive,negative,A,NULL
1739207144,4b5495ee7409e05c203af639df39d143,PennController,69,0,test_val,NULL,PennController,80,_Header_,End,1739206732897,undefined,487,sensible,abstract-positive,positive,negative,A,NULL
1739207144,4b5495ee7409e05c203af639df39d143,PennController,69,0,test_val,NULL,Selector,unnamed-Selector,Selection,positive,1739206733886,undefined,487,sensible,abstract-positive,positive,negative,A,positive;negative
1739207144,4b5495ee7409e05c203af639df39d143,PennController,69,0,test_val,NULL,PennController,80,_Trial_,End,1739206733887,undefined,487,sensible,abstract-positive,positive,negative,A,NULL
1739207144,4b5495ee7409e05c203af639df39d143,PennController,72,0,test_val,NULL,PennController,83,_Trial_,Start,1739206733887,undefined,516,helpful,abstract-positive,positive,negative,A,NULL
1739207144,4b5495ee7409e05c203af639df39d143,PennController,72,0,test_val,NULL,PennController,83,_Header_,Start,1739206733888,undefined,516,helpful,abstract-positive,positive,negative,A,NULL
1739207144,4b5495ee7409e05c203af639df39d143,PennController,72,0,test_val,NULL,PennController,83,_Header_,End,1739206734138,undefined,516,helpful,abstract-positive,positive,negative,A,NULL
1739207144,4b5495ee7409e05c203af639df39d143,PennController,72,0,test_val,NULL,Selector,unnamed-Selector,Selection,positive,1739206735156,undefined,516,helpful,abstract-positive,positive,negative,A,positive;negative
1739207144,4b5495ee7409e05c203af639df39d143,PennController,72,0,test_val,NULL,PennController,83,_Trial_,End,1739206735157,undefined,516,helpful,abstract-positive,positive,negative,A,NULL
1739207144,4b5495ee7409e05c203af639df39d143,PennController,70,0,test_val,NULL,PennController,81,_Trial_,Start,1739206735158,undefined,527,mindful,abstract-positive,positive,negative,A,NULL
1739207144,4b5495ee7409e05c203af639df39d143,PennController,70,0,test_val,NULL,PennController,81,_Header_,Start,1739206735158,undefined,527,mindful,abstract-positive,positive,negative,A,NULL
1739207144,4b5495ee7409e05c203af639df39d143,PennController,70,0,test_val,NULL,PennController,81,_Header_,End,1739206735411,undefined,527,mindful,abstract-positive,positive,negative,A,NULL
1739207144,4b5495ee7409e05c203af639df39d143,PennController,70,0,test_val,NULL,Selector,unnamed-Selector,Selection,positive,1739206736442,undefined,527,mindful,abstract-positive,positive,negative,A,positive;negative
1739207144,4b5495ee7409e05c203af639df39d143,PennController,70,0,test_val,NULL,PennController,81,_Trial_,End,1739206736444,undefined,527,mindful,abstract-positive,positive,negative,A,NULL
1739207144,4b5495ee7409e05c203af639df39d143,PennController,51,0,test_val,NULL,PennController,62,_Trial_,Start,1739206736444,undefined,568,stupid,abstract-negative,positive,negative,A,NULL
1739207144,4b5495ee7409e05c203af639df39d143,PennController,51,0,test_val,NULL,PennController,62,_Header_,Start,1739206736444,undefined,568,stupid,abstract-negative,positive,negative,A,NULL
1739207144,4b5495ee7409e05c203af639df39d143,PennController,51,0,test_val,NULL,PennController,62,_Header_,End,1739206736695,undefined,568,stupid,abstract-negative,positive,negative,A,NULL
1739207144,4b5495ee7409e05c203af639df39d143,PennController,51,0,test_val,NULL,Selector,unnamed-Selector,Selection,negative,1739206737766,undefined,568,stupid,abstract-negative,positive,negative,A,positive;negative
1739207144,4b5495ee7409e05c203af639df39d143,PennController,51,0,test_val,NULL,PennController,62,_Trial_,End,1739206737767,undefined,568,stupid,abstract-negative,positive,negative,A,NULL
1739207144,4b5495ee7409e05c203af639df39d143,PennController,47,0,test_val,NULL,PennController,58,_Trial_,Start,1739206737768,undefined,505,soulless,abstract-negative,positive,negative,A,NULL
1739207144,4b5495ee7409e05c203af639df39d143,PennController,47,0,test_val,NULL,PennController,58,_Header_,Start,1739206737768,undefined,505,soulless,abstract-negative,positive,negative,A,NULL
1739207144,4b5495ee7409e05c203af639df39d143,PennController,47,0,test_val,NULL,PennController,58,_Header_,End,1739206738019,undefined,505,soulless,abstract-negative,positive,negative,A,NULL
1739207144,4b5495ee7409e05c203af639df39d143,PennController,47,0,test_val,NULL,Selector,unnamed-Selector,Selection,negative,1739206739027,undefined,505,soulless,abstract-negative,positive,negative,A,positive;negative
1739207144,4b5495ee7409e05c203af639df39d143,PennController,47,0,test_val,NULL,PennController,58,_Trial_,End,1739206739028,undefined,505,soulless,abstract-negative,positive,negative,A,NULL
1739207144,4b5495ee7409e05c203af639df39d143,PennController,44,0,test_val,NULL,PennController,55,_Trial_,Start,1739206739029,undefined,498,worthless,abstract-negative,positive,negative,A,NULL
1739207144,4b5495ee7409e05c203af639df39d143,PennController,44,0,test_val,NULL,PennController,55,_Header_,Start,1739206739029,undefined,498,worthless,abstract-negative,positive,negative,A,NULL
1739207144,4b5495ee7409e05c203af639df39d143,PennController,44,0,test_val,NULL,PennController,55,_Header_,End,1739206739281,undefined,498,worthless,abstract-negative,positive,negative,A,NULL
1739207144,4b5495ee7409e05c203af639df39d143,PennController,44,0,test_val,NULL,Selector,unnamed-Selector,Selection,negative,1739206740284,undefined,498,worthless,abstract-negative,positive,negative,A,positive;negative
1739207144,4b5495ee7409e05c203af639df39d143,PennController,44,0,test_val,NULL,PennController,55,_Trial_,End,1739206740286,undefined,498,worthless,abstract-negative,positive,negative,A,NULL
1739207144,4b5495ee7409e05c203af639df39d143,PennController,63,0,test_val,NULL,PennController,74,_Trial_,Start,1739206740287,undefined,527,handmade,concrete-positive,positive,negative,A,NULL
1739207144,4b5495ee7409e05c203af639df39d143,PennController,63,0,test_val,NULL,PennController,74,_Header_,Start,1739206740287,undefined,527,handmade,concrete-positive,positive,negative,A,NULL
1739207144,4b5495ee7409e05c203af639df39d143,PennController,63,0,test_val,NULL,PennController,74,_Header_,End,1739206740539,undefined,527,handmade,concrete-positive,positive,negative,A,NULL
1739207144,4b5495ee7409e05c203af639df39d143,PennController,63,0,test_val,NULL,Selector,unnamed-Selector,Selection,positive,1739206741570,undefined,527,handmade,concrete-positive,positive,negative,A,positive;negative
1739207144,4b5495ee7409e05c203af639df39d143,PennController,63,0,test_val,NULL,PennController,74,_Trial_,End,1739206741571,undefined,527,handmade,concrete-positive,positive,negative,A,NULL
1739207144,4b5495ee7409e05c203af639df39d143,PennController,75,0,test_val,NULL,PennController,86,_Trial_,Start,1739206741572,undefined,588,headless,concrete-negative,positive,negative,A,NULL
1739207144,4b5495ee7409e05c203af639df39d143,PennController,75,0,test_val,NULL,PennController,86,_Header_,Start,1739206741572,undefined,588,headless,concrete-negative,positive,negative,A,NULL
1739207144,4b5495ee7409e05c203af639df39d143,PennController,75,0,test_val,NULL,PennController,86,_Header_,End,1739206741823,undefined,588,headless,concrete-negative,positive,negative,A,NULL
1739207144,4b5495ee7409e05c203af639df39d143,PennController,75,0,test_val,NULL,Selector,unnamed-Selector,Selection,negative,1739206742915,undefined,588,headless,concrete-negative,positive,negative,A,positive;negative
1739207144,4b5495ee7409e05c203af639df39d143,PennController,75,0,test_val,NULL,PennController,86,_Trial_,End,1739206742916,undefined,588,headless,concrete-negative,positive,negative,A,NULL
1739207144,4b5495ee7409e05c203af639df39d143,PennController,50,0,test_val,NULL,PennController,61,_Trial_,Start,1739206742918,undefined,572,crappy,abstract-negative,positive,negative,A,NULL
1739207144,4b5495ee7409e05c203af639df39d143,PennController,50,0,test_val,NULL,PennController,61,_Header_,Start,1739206742918,undefined,572,crappy,abstract-negative,positive,negative,A,NULL
1739207144,4b5495ee7409e05c203af639df39d143,PennController,50,0,test_val,NULL,PennController,61,_Header_,End,1739206743170,undefined,572,crappy,abstract-negative,positive,negative,A,NULL
1739207144,4b5495ee7409e05c203af639df39d143,PennController,50,0,test_val,NULL,Selector,unnamed-Selector,Selection,negative,1739206744243,undefined,572,crappy,abstract-negative,positive,negative,A,positive;negative
1739207144,4b5495ee7409e05c203af639df39d143,PennController,50,0,test_val,NULL,PennController,61,_Trial_,End,1739206744245,undefined,572,crappy,abstract-negative,positive,negative,A,NULL
1739207144,4b5495ee7409e05c203af639df39d143,PennController,66,0,test_val,NULL,PennController,77,_Trial_,Start,1739206744246,undefined,573,thankful,abstract-positive,positive,negative,A,NULL
1739207144,4b5495ee7409e05c203af639df39d143,PennController,66,0,test_val,NULL,PennController,77,_Header_,Start,1739206744246,undefined,573,thankful,abstract-positive,positive,negative,A,NULL
1739207144,4b5495ee7409e05c203af639df39d143,PennController,66,0,test_val,NULL,PennController,77,_Header_,End,1739206744497,undefined,573,thankful,abstract-positive,positive,negative,A,NULL
1739207144,4b5495ee7409e05c203af639df39d143,PennController,66,0,test_val,NULL,Selector,unnamed-Selector,Selection,positive,1739206745574,undefined,573,thankful,abstract-positive,positive,negative,A,positive;negative
1739207144,4b5495ee7409e05c203af639df39d143,PennController,66,0,test_val,NULL,PennController,77,_Trial_,End,1739206745576,undefined,573,thankful,abstract-positive,positive,negative,A,NULL
1739207144,4b5495ee7409e05c203af639df39d143,PennController,79,0,test_val,NULL,PennController,90,_Trial_,Start,1739206745577,undefined,680,hairy,concrete-negative,positive,negative,A,NULL
1739207144,4b5495ee7409e05c203af639df39d143,PennController,79,0,test_val,NULL,PennController,90,_Header_,Start,1739206745577,undefined,680,hairy,concrete-negative,positive,negative,A,NULL
1739207144,4b5495ee7409e05c203af639df39d143,PennController,79,0,test_val,NULL,PennController,90,_Header_,End,1739206745828,undefined,680,hairy,concrete-negative,positive,negative,A,NULL
1739207144,4b5495ee7409e05c203af639df39d143,PennController,79,0,test_val,NULL,Selector,unnamed-Selector,Selection,negative,1739206747009,undefined,680,hairy,concrete-negative,positive,negative,A,positive;negative
1739207144,4b5495ee7409e05c203af639df39d143,PennController,79,0,test_val,NULL,PennController,90,_Trial_,End,1739206747011,undefined,680,hairy,concrete-negative,positive,negative,A,NULL
1739207144,4b5495ee7409e05c203af639df39d143,PennController,76,0,test_val,NULL,PennController,87,_Trial_,Start,1739206747012,undefined,676,bloodshot,concrete-negative,positive,negative,A,NULL
1739207144,4b5495ee7409e05c203af639df39d143,PennController,76,0,test_val,NULL,PennController,87,_Header_,Start,1739206747012,undefined,676,bloodshot,concrete-negative,positive,negative,A,NULL
1739207144,4b5495ee7409e05c203af639df39d143,PennController,76,0,test_val,NULL,PennController,87,_Header_,End,1739206747262,undefined,676,bloodshot,concrete-negative,positive,negative,A,NULL
1739207144,4b5495ee7409e05c203af639df39d143,PennController,76,0,test_val,NULL,Selector,unnamed-Selector,Selection,negative,1739206748438,undefined,676,bloodshot,concrete-negative,positive,negative,A,positive;negative
1739207144,4b5495ee7409e05c203af639df39d143,PennController,76,0,test_val,NULL,PennController,87,_Trial_,End,1739206748440,undefined,676,bloodshot,concrete-negative,positive,negative,A,NULL
1739207144,4b5495ee7409e05c203af639df39d143,PennController,58,0,test_val,NULL,PennController,69,_Trial_,Start,1739206748441,undefined,714,newborn,concrete-positive,positive,negative,A,NULL
1739207144,4b5495ee7409e05c203af639df39d143,PennController,58,0,test_val,NULL,PennController,69,_Header_,Start,1739206748441,undefined,714,newborn,concrete-positive,positive,negative,A,NULL
1739207144,4b5495ee7409e05c203af639df39d143,PennController,58,0,test_val,NULL,PennController,69,_Header_,End,1739206748693,undefined,714,newborn,concrete-positive,positive,negative,A,NULL
1739207144,4b5495ee7409e05c203af639df39d143,PennController,58,0,test_val,NULL,Selector,unnamed-Selector,Selection,positive,1739206749909,undefined,714,newborn,concrete-positive,positive,negative,A,positive;negative
1739207144,4b5495ee7409e05c203af639df39d143,PennController,58,0,test_val,NULL,PennController,69,_Trial_,End,1739206749911,undefined,714,newborn,concrete-positive,positive,negative,A,NULL
1739207144,4b5495ee7409e05c203af639df39d143,PennController,68,0,test_val,NULL,PennController,79,_Trial_,Start,1739206749911,undefined,531,possible,abstract-positive,positive,negative,A,NULL
1739207144,4b5495ee7409e05c203af639df39d143,PennController,68,0,test_val,NULL,PennController,79,_Header_,Start,1739206749911,undefined,531,possible,abstract-positive,positive,negative,A,NULL
1739207144,4b5495ee7409e05c203af639df39d143,PennController,68,0,test_val,NULL,PennController,79,_Header_,End,1739206750161,undefined,531,possible,abstract-positive,positive,negative,A,NULL
1739207144,4b5495ee7409e05c203af639df39d143,PennController,68,0,test_val,NULL,Selector,unnamed-Selector,Selection,positive,1739206751196,undefined,531,possible,abstract-positive,positive,negative,A,positive;negative
1739207144,4b5495ee7409e05c203af639df39d143,PennController,68,0,test_val,NULL,PennController,79,_Trial_,End,1739206751197,undefined,531,possible,abstract-positive,positive,negative,A,NULL
1739207144,4b5495ee7409e05c203af639df39d143,PennController,57,0,test_val,NULL,PennController,68,_Trial_,Start,1739206751198,undefined,548,female,concrete-positive,positive,negative,A,NULL
1739207144,4b5495ee7409e05c203af639df39d143,PennController,57,0,test_val,NULL,PennController,68,_Header_,Start,1739206751198,undefined,548,female,concrete-positive,positive,negative,A,NULL
1739207144,4b5495ee7409e05c203af639df39d143,PennController,57,0,test_val,NULL,PennController,68,_Header_,End,1739206751450,undefined,548,female,concrete-positive,positive,negative,A,NULL
1739207144,4b5495ee7409e05c203af639df39d143,PennController,57,0,test_val,NULL,Selector,unnamed-Selector,Selection,positive,1739206752501,undefined,548,female,concrete-positive,positive,negative,A,positive;negative
1739207144,4b5495ee7409e05c203af639df39d143,PennController,57,0,test_val,NULL,PennController,68,_Trial_,End,1739206752502,undefined,548,female,concrete-positive,positive,negative,A,NULL
1739207144,4b5495ee7409e05c203af639df39d143,PennController,45,0,test_val,NULL,PennController,56,_Trial_,Start,1739206752502,undefined,660,awful,abstract-negative,positive,negative,A,NULL
1739207144,4b5495ee7409e05c203af639df39d143,PennController,45,0,test_val,NULL,PennController,56,_Header_,Start,1739206752502,undefined,660,awful,abstract-negative,positive,negative,A,NULL
1739207144,4b5495ee7409e05c203af639df39d143,PennController,45,0,test_val,NULL,PennController,56,_Header_,End,1739206752756,undefined,660,awful,abstract-negative,positive,negative,A,NULL
1739207144,4b5495ee7409e05c203af639df39d143,PennController,45,0,test_val,NULL,Selector,unnamed-Selector,Selection,negative,1739206753920,undefined,660,awful,abstract-negative,positive,negative,A,positive;negative
1739207144,4b5495ee7409e05c203af639df39d143,PennController,45,0,test_val,NULL,PennController,56,_Trial_,End,1739206753921,undefined,660,awful,abstract-negative,positive,negative,A,NULL
1739207144,4b5495ee7409e05c203af639df39d143,PennController,74,0,test_val,NULL,PennController,85,_Trial_,Start,1739206753922,undefined,590,toothless,concrete-negative,positive,negative,A,NULL
1739207144,4b5495ee7409e05c203af639df39d143,PennController,74,0,test_val,NULL,PennController,85,_Header_,Start,1739206753922,undefined,590,toothless,concrete-negative,positive,negative,A,NULL
1739207144,4b5495ee7409e05c203af639df39d143,PennController,74,0,test_val,NULL,PennController,85,_Header_,End,1739206754172,undefined,590,toothless,concrete-negative,positive,negative,A,NULL
1739207144,4b5495ee7409e05c203af639df39d143,PennController,74,0,test_val,NULL,Selector,unnamed-Selector,Selection,negative,1739206755266,undefined,590,toothless,concrete-negative,positive,negative,A,positive;negative
1739207144,4b5495ee7409e05c203af639df39d143,PennController,74,0,test_val,NULL,PennController,85,_Trial_,End,1739206755267,undefined,590,toothless,concrete-negative,positive,negative,A,NULL
1739207144,4b5495ee7409e05c203af639df39d143,PennController,49,0,test_val,NULL,PennController,60,_Trial_,Start,1739206755268,undefined,600,sexist,abstract-negative,positive,negative,A,NULL
1739207144,4b5495ee7409e05c203af639df39d143,PennController,49,0,test_val,NULL,PennController,60,_Header_,Start,1739206755268,undefined,600,sexist,abstract-negative,positive,negative,A,NULL
1739207144,4b5495ee7409e05c203af639df39d143,PennController,49,0,test_val,NULL,PennController,60,_Header_,End,1739206755519,undefined,600,sexist,abstract-negative,positive,negative,A,NULL
1739207144,4b5495ee7409e05c203af639df39d143,PennController,49,0,test_val,NULL,Selector,unnamed-Selector,Selection,negative,1739206756623,undefined,600,sexist,abstract-negative,positive,negative,A,positive;negative
1739207144,4b5495ee7409e05c203af639df39d143,PennController,49,0,test_val,NULL,PennController,60,_Trial_,End,1739206756624,undefined,600,sexist,abstract-negative,positive,negative,A,NULL
1739207144,4b5495ee7409e05c203af639df39d143,PennController,54,0,test_val,NULL,PennController,65,_Trial_,Start,1739206756625,undefined,591,sunny,concrete-positive,positive,negative,A,NULL
1739207144,4b5495ee7409e05c203af639df39d143,PennController,54,0,test_val,NULL,PennController,65,_Header_,Start,1739206756625,undefined,591,sunny,concrete-positive,positive,negative,A,NULL
1739207144,4b5495ee7409e05c203af639df39d143,PennController,54,0,test_val,NULL,PennController,65,_Header_,End,1739206756877,undefined,591,sunny,concrete-positive,positive,negative,A,NULL
1739207144,4b5495ee7409e05c203af639df39d143,PennController,54,0,test_val,NULL,Selector,unnamed-Selector,Selection,positive,1739206757970,undefined,591,sunny,concrete-positive,positive,negative,A,positive;negative
1739207144,4b5495ee7409e05c203af639df39d143,PennController,54,0,test_val,NULL,PennController,65,_Trial_,End,1739206757971,undefined,591,sunny,concrete-positive,positive,negative,A,NULL
1739207144,4b5495ee7409e05c203af639df39d143,PennController,64,0,test_val,NULL,PennController,75,_Trial_,Start,1739206757971,undefined,484,honest,abstract-positive,positive,negative,A,NULL
1739207144,4b5495ee7409e05c203af639df39d143,PennController,64,0,test_val,NULL,PennController,75,_Header_,Start,1739206757971,undefined,484,honest,abstract-positive,positive,negative,A,NULL
1739207144,4b5495ee7409e05c203af639df39d143,PennController,64,0,test_val,NULL,PennController,75,_Header_,End,1739206758223,undefined,484,honest,abstract-positive,positive,negative,A,NULL
1739207144,4b5495ee7409e05c203af639df39d143,PennController,64,0,test_val,NULL,Selector,unnamed-Selector,Selection,positive,1739206759211,undefined,484,honest,abstract-positive,positive,negative,A,positive;negative
1739207144,4b5495ee7409e05c203af639df39d143,PennController,64,0,test_val,NULL,PennController,75,_Trial_,End,1739206759212,undefined,484,honest,abstract-positive,positive,negative,A,NULL
1739207144,4b5495ee7409e05c203af639df39d143,PennController,68,0,test_val,NULL,PennController,79,_Trial_,Start,1739206759213,undefined,455,possible,abstract-positive,positive,negative,A,NULL
1739207144,4b5495ee7409e05c203af639df39d143,PennController,68,0,test_val,NULL,PennController,79,_Header_,Start,1739206759213,undefined,455,possible,abstract-positive,positive,negative,A,NULL
1739207144,4b5495ee7409e05c203af639df39d143,PennController,68,0,test_val,NULL,PennController,79,_Header_,End,1739206759465,undefined,455,possible,abstract-positive,positive,negative,A,NULL
1739207144,4b5495ee7409e05c203af639df39d143,PennController,68,0,test_val,NULL,Selector,unnamed-Selector,Selection,positive,1739206760420,undefined,455,possible,abstract-positive,positive,negative,A,positive;negative
1739207144,4b5495ee7409e05c203af639df39d143,PennController,68,0,test_val,NULL,PennController,79,_Trial_,End,1739206760421,undefined,455,possible,abstract-positive,positive,negative,A,NULL
1739207144,4b5495ee7409e05c203af639df39d143,PennController,53,0,test_val,NULL,PennController,64,_Trial_,Start,1739206760422,undefined,663,disloyal,abstract-negative,positive,negative,A,NULL
1739207144,4b5495ee7409e05c203af639df39d143,PennController,53,0,test_val,NULL,PennController,64,_Header_,Start,1739206760422,undefined,663,disloyal,abstract-negative,positive,negative,A,NULL
1739207144,4b5495ee7409e05c203af639df39d143,PennController,53,0,test_val,NULL,PennController,64,_Header_,End,1739206760675,undefined,663,disloyal,abstract-negative,positive,negative,A,NULL
1739207144,4b5495ee7409e05c203af639df39d143,PennController,53,0,test_val,NULL,Selector,unnamed-Selector,Selection,negative,1739206761840,undefined,663,disloyal,abstract-negative,positive,negative,A,positive;negative
1739207144,4b5495ee7409e05c203af639df39d143,PennController,53,0,test_val,NULL,PennController,64,_Trial_,End,1739206761841,undefined,663,disloyal,abstract-negative,positive,negative,A,NULL
1739207144,4b5495ee7409e05c203af639df39d143,PennController,61,0,test_val,NULL,PennController,72,_Trial_,Start,1739206761842,undefined,681,starry,concrete-positive,positive,negative,A,NULL
1739207144,4b5495ee7409e05c203af639df39d143,PennController,61,0,test_val,NULL,PennController,72,_Header_,Start,1739206761842,undefined,681,starry,concrete-positive,positive,negative,A,NULL
1739207144,4b5495ee7409e05c203af639df39d143,PennController,61,0,test_val,NULL,PennController,72,_Header_,End,1739206762096,undefined,681,starry,concrete-positive,positive,negative,A,NULL
1739207144,4b5495ee7409e05c203af639df39d143,PennController,61,0,test_val,NULL,Selector,unnamed-Selector,Selection,positive,1739206763278,undefined,681,starry,concrete-positive,positive,negative,A,positive;negative
1739207144,4b5495ee7409e05c203af639df39d143,PennController,61,0,test_val,NULL,PennController,72,_Trial_,End,1739206763279,undefined,681,starry,concrete-positive,positive,negative,A,NULL
1739207144,4b5495ee7409e05c203af639df39d143,PennController,82,0,test_val,NULL,PennController,93,_Trial_,Start,1739206763280,undefined,575,freezing,concrete-negative,positive,negative,A,NULL
1739207144,4b5495ee7409e05c203af639df39d143,PennController,82,0,test_val,NULL,PennController,93,_Header_,Start,1739206763280,undefined,575,freezing,concrete-negative,positive,negative,A,NULL
1739207144,4b5495ee7409e05c203af639df39d143,PennController,82,0,test_val,NULL,PennController,93,_Header_,End,1739206763531,undefined,575,freezing,concrete-negative,positive,negative,A,NULL
1739207144,4b5495ee7409e05c203af639df39d143,PennController,82,0,test_val,NULL,Selector,unnamed-Selector,Selection,negative,1739206764609,undefined,575,freezing,concrete-negative,positive,negative,A,positive;negative
1739207144,4b5495ee7409e05c203af639df39d143,PennController,82,0,test_val,NULL,PennController,93,_Trial_,End,1739206764610,undefined,575,freezing,concrete-negative,positive,negative,A,NULL
1739207144,4b5495ee7409e05c203af639df39d143,PennController,57,0,test_val,NULL,PennController,68,_Trial_,Start,1739206764611,undefined,517,female,concrete-positive,positive,negative,A,NULL
1739207144,4b5495ee7409e05c203af639df39d143,PennController,57,0,test_val,NULL,PennController,68,_Header_,Start,1739206764611,undefined,517,female,concrete-positive,positive,negative,A,NULL
1739207144,4b5495ee7409e05c203af639df39d143,PennController,57,0,test_val,NULL,PennController,68,_Header_,End,1739206764864,undefined,517,female,concrete-positive,positive,negative,A,NULL
1739207144,4b5495ee7409e05c203af639df39d143,PennController,57,0,test_val,NULL,Selector,unnamed-Selector,Selection,positive,1739206765883,undefined,517,female,concrete-positive,positive,negative,A,positive;negative
1739207144,4b5495ee7409e05c203af639df39d143,PennController,57,0,test_val,NULL,PennController,68,_Trial_,End,1739206765884,undefined,517,female,concrete-positive,positive,negative,A,NULL
1739207144,4b5495ee7409e05c203af639df39d143,PennController,78,0,test_val,NULL,PennController,89,_Trial_,Start,1739206765885,undefined,556,thorny,concrete-negative,positive,negative,A,NULL
1739207144,4b5495ee7409e05c203af639df39d143,PennController,78,0,test_val,NULL,PennController,89,_Header_,Start,1739206765885,undefined,556,thorny,concrete-negative,positive,negative,A,NULL
1739207144,4b5495ee7409e05c203af639df39d143,PennController,78,0,test_val,NULL,PennController,89,_Header_,End,1739206766135,undefined,556,thorny,concrete-negative,positive,negative,A,NULL
1739207144,4b5495ee7409e05c203af639df39d143,PennController,78,0,test_val,NULL,Selector,unnamed-Selector,Selection,negative,1739206767194,undefined,556,thorny,concrete-negative,positive,negative,A,positive;negative
1739207144,4b5495ee7409e05c203af639df39d143,PennController,78,0,test_val,NULL,PennController,89,_Trial_,End,1739206767195,undefined,556,thorny,concrete-negative,positive,negative,A,NULL
1739207144,4b5495ee7409e05c203af639df39d143,PennController,79,0,test_val,NULL,PennController,90,_Trial_,Start,1739206767196,undefined,555,hairy,concrete-negative,positive,negative,A,NULL
1739207144,4b5495ee7409e05c203af639df39d143,PennController,79,0,test_val,NULL,PennController,90,_Header_,Start,1739206767196,undefined,555,hairy,concrete-negative,positive,negative,A,NULL
1739207144,4b5495ee7409e05c203af639df39d143,PennController,79,0,test_val,NULL,PennController,90,_Header_,End,1739206767449,undefined,555,hairy,concrete-negative,positive,negative,A,NULL
1739207144,4b5495ee7409e05c203af639df39d143,PennController,79,0,test_val,NULL,Selector,unnamed-Selector,Selection,negative,1739206768507,undefined,555,hairy,concrete-negative,positive,negative,A,positive;negative
1739207144,4b5495ee7409e05c203af639df39d143,PennController,79,0,test_val,NULL,PennController,90,_Trial_,End,1739206768509,undefined,555,hairy,concrete-negative,positive,negative,A,NULL
1739207144,4b5495ee7409e05c203af639df39d143,PennController,58,0,test_val,NULL,PennController,69,_Trial_,Start,1739206768509,undefined,558,newborn,concrete-positive,positive,negative,A,NULL
1739207144,4b5495ee7409e05c203af639df39d143,PennController,58,0,test_val,NULL,PennController,69,_Header_,Start,1739206768509,undefined,558,newborn,concrete-positive,positive,negative,A,NULL
1739207144,4b5495ee7409e05c203af639df39d143,PennController,58,0,test_val,NULL,PennController,69,_Header_,End,1739206768760,undefined,558,newborn,concrete-positive,positive,negative,A,NULL
1739207144,4b5495ee7409e05c203af639df39d143,PennController,58,0,test_val,NULL,Selector,unnamed-Selector,Selection,positive,1739206769822,undefined,558,newborn,concrete-positive,positive,negative,A,positive;negative
1739207144,4b5495ee7409e05c203af639df39d143,PennController,58,0,test_val,NULL,PennController,69,_Trial_,End,1739206769824,undefined,558,newborn,concrete-positive,positive,negative,A,NULL
1739207144,4b5495ee7409e05c203af639df39d143,PennController,72,0,test_val,NULL,PennController,83,_Trial_,Start,1739206769825,undefined,582,helpful,abstract-positive,positive,negative,A,NULL
1739207144,4b5495ee7409e05c203af639df39d143,PennController,72,0,test_val,NULL,PennController,83,_Header_,Start,1739206769825,undefined,582,helpful,abstract-positive,positive,negative,A,NULL
1739207144,4b5495ee7409e05c203af639df39d143,PennController,72,0,test_val,NULL,PennController,83,_Header_,End,1739206770078,undefined,582,helpful,abstract-positive,positive,negative,A,NULL
1739207144,4b5495ee7409e05c203af639df39d143,PennController,72,0,test_val,NULL,Selector,unnamed-Selector,Selection,positive,1739206771160,undefined,582,helpful,abstract-positive,positive,negative,A,positive;negative
1739207144,4b5495ee7409e05c203af639df39d143,PennController,72,0,test_val,NULL,PennController,83,_Trial_,End,1739206771162,undefined,582,helpful,abstract-positive,positive,negative,A,NULL
1739207144,4b5495ee7409e05c203af639df39d143,PennController,81,0,test_val,NULL,PennController,92,_Trial_,Start,1739206771163,undefined,811,wrinkled,concrete-negative,positive,negative,A,NULL
1739207144,4b5495ee7409e05c203af639df39d143,PennController,81,0,test_val,NULL,PennController,92,_Header_,Start,1739206771163,undefined,811,wrinkled,concrete-negative,positive,negative,A,NULL
1739207144,4b5495ee7409e05c203af639df39d143,PennController,81,0,test_val,NULL,PennController,92,_Header_,End,1739206771413,undefined,811,wrinkled,concrete-negative,positive,negative,A,NULL
1739207144,4b5495ee7409e05c203af639df39d143,PennController,81,0,test_val,NULL,Selector,unnamed-Selector,Selection,negative,1739206772726,undefined,811,wrinkled,concrete-negative,positive,negative,A,positive;negative
1739207144,4b5495ee7409e05c203af639df39d143,PennController,81,0,test_val,NULL,PennController,92,_Trial_,End,1739206772727,undefined,811,wrinkled,concrete-negative,positive,negative,A,NULL
1739207144,4b5495ee7409e05c203af639df39d143,PennController,83,0,test_val,NULL,PennController,94,_Trial_,Start,1739206772728,undefined,504,bloody,concrete-negative,positive,negative,A,NULL
1739207144,4b5495ee7409e05c203af639df39d143,PennController,83,0,test_val,NULL,PennController,94,_Header_,Start,1739206772728,undefined,504,bloody,concrete-negative,positive,negative,A,NULL
1739207144,4b5495ee7409e05c203af639df39d143,PennController,83,0,test_val,NULL,PennController,94,_Header_,End,1739206772980,undefined,504,bloody,concrete-negative,positive,negative,A,NULL
1739207144,4b5495ee7409e05c203af639df39d143,PennController,83,0,test_val,NULL,Selector,unnamed-Selector,Selection,negative,1739206773987,undefined,504,bloody,concrete-negative,positive,negative,A,positive;negative
1739207144,4b5495ee7409e05c203af639df39d143,PennController,83,0,test_val,NULL,PennController,94,_Trial_,End,1739206773988,undefined,504,bloody,concrete-negative,positive,negative,A,NULL
1739207144,4b5495ee7409e05c203af639df39d143,PennController,76,0,test_val,NULL,PennController,87,_Trial_,Start,1739206773989,undefined,489,bloodshot,concrete-negative,positive,negative,A,NULL
1739207144,4b5495ee7409e05c203af639df39d143,PennController,76,0,test_val,NULL,PennController,87,_Header_,Start,1739206773989,undefined,489,bloodshot,concrete-negative,positive,negative,A,NULL
1739207144,4b5495ee7409e05c203af639df39d143,PennController,76,0,test_val,NULL,PennController,87,_Header_,End,1739206774240,undefined,489,bloodshot,concrete-negative,positive,negative,A,NULL
1739207144,4b5495ee7409e05c203af639df39d143,PennController,76,0,test_val,NULL,Selector,unnamed-Selector,Selection,negative,1739206775233,undefined,489,bloodshot,concrete-negative,positive,negative,A,positive;negative
1739207144,4b5495ee7409e05c203af639df39d143,PennController,76,0,test_val,NULL,PennController,87,_Trial_,End,1739206775234,undefined,489,bloodshot,concrete-negative,positive,negative,A,NULL
1739207144,4b5495ee7409e05c203af639df39d143,PennController,75,0,test_val,NULL,PennController,86,_Trial_,Start,1739206775235,undefined,569,headless,concrete-negative,positive,negative,A,NULL
1739207144,4b5495ee7409e05c203af639df39d143,PennController,75,0,test_val,NULL,PennController,86,_Header_,Start,1739206775235,undefined,569,headless,concrete-negative,positive,negative,A,NULL
1739207144,4b5495ee7409e05c203af639df39d143,PennController,75,0,test_val,NULL,PennController,86,_Header_,End,1739206775485,undefined,569,headless,concrete-negative,positive,negative,A,NULL
1739207144,4b5495ee7409e05c203af639df39d143,PennController,75,0,test_val,NULL,Selector,unnamed-Selector,Selection,negative,1739206776557,undefined,569,headless,concrete-negative,positive,negative,A,positive;negative
1739207144,4b5495ee7409e05c203af639df39d143,PennController,75,0,test_val,NULL,PennController,86,_Trial_,End,1739206776559,undefined,569,headless,concrete-negative,positive,negative,A,NULL
1739207144,4b5495ee7409e05c203af639df39d143,PennController,70,0,test_val,NULL,PennController,81,_Trial_,Start,1739206776560,undefined,796,mindful,abstract-positive,positive,negative,A,NULL
1739207144,4b5495ee7409e05c203af639df39d143,PennController,70,0,test_val,NULL,PennController,81,_Header_,Start,1739206776560,undefined,796,mindful,abstract-positive,positive,negative,A,NULL
1739207144,4b5495ee7409e05c203af639df39d143,PennController,70,0,test_val,NULL,PennController,81,_Header_,End,1739206776811,undefined,796,mindful,abstract-positive,positive,negative,A,NULL
1739207144,4b5495ee7409e05c203af639df39d143,PennController,70,0,test_val,NULL,Selector,unnamed-Selector,Selection,positive,1739206778110,undefined,796,mindful,abstract-positive,positive,negative,A,positive;negative
1739207144,4b5495ee7409e05c203af639df39d143,PennController,70,0,test_val,NULL,PennController,81,_Trial_,End,1739206778111,undefined,796,mindful,abstract-positive,positive,negative,A,NULL
1739207144,4b5495ee7409e05c203af639df39d143,PennController,45,0,test_val,NULL,PennController,56,_Trial_,Start,1739206778112,undefined,715,awful,abstract-negative,positive,negative,A,NULL
1739207144,4b5495ee7409e05c203af639df39d143,PennController,45,0,test_val,NULL,PennController,56,_Header_,Start,1739206778112,undefined,715,awful,abstract-negative,positive,negative,A,NULL
1739207144,4b5495ee7409e05c203af639df39d143,PennController,45,0,test_val,NULL,PennController,56,_Header_,End,1739206778363,undefined,715,awful,abstract-negative,positive,negative,A,NULL
1739207144,4b5495ee7409e05c203af639df39d143,PennController,45,0,test_val,NULL,Selector,unnamed-Selector,Selection,negative,1739206779580,undefined,715,awful,abstract-negative,positive,negative,A,positive;negative
1739207144,4b5495ee7409e05c203af639df39d143,PennController,45,0,test_val,NULL,PennController,56,_Trial_,End,1739206779581,undefined,715,awful,abstract-negative,positive,negative,A,NULL
1739207144,4b5495ee7409e05c203af639df39d143,PennController,62,0,test_val,NULL,PennController,73,_Trial_,Start,1739206779582,undefined,614,pregnant,concrete-positive,positive,negative,A,NULL
1739207144,4b5495ee7409e05c203af639df39d143,PennController,62,0,test_val,NULL,PennController,73,_Header_,Start,1739206779582,undefined,614,pregnant,concrete-positive,positive,negative,A,NULL
1739207144,4b5495ee7409e05c203af639df39d143,PennController,62,0,test_val,NULL,PennController,73,_Header_,End,1739206779832,undefined,614,pregnant,concrete-positive,positive,negative,A,NULL
1739207144,4b5495ee7409e05c203af639df39d143,PennController,62,0,test_val,NULL,Selector,unnamed-Selector,Selection,positive,1739206780948,undefined,614,pregnant,concrete-positive,positive,negative,A,positive;negative
1739207144,4b5495ee7409e05c203af639df39d143,PennController,62,0,test_val,NULL,PennController,73,_Trial_,End,1739206780950,undefined,614,pregnant,concrete-positive,positive,negative,A,NULL
1739207144,4b5495ee7409e05c203af639df39d143,PennController,67,0,test_val,NULL,PennController,78,_Trial_,Start,1739206780950,undefined,587,splendid,abstract-positive,positive,negative,A,NULL
1739207144,4b5495ee7409e05c203af639df39d143,PennController,67,0,test_val,NULL,PennController,78,_Header_,Start,1739206780950,undefined,587,splendid,abstract-positive,positive,negative,A,NULL
1739207144,4b5495ee7409e05c203af639df39d143,PennController,67,0,test_val,NULL,PennController,78,_Header_,End,1739206781204,undefined,587,splendid,abstract-positive,positive,negative,A,NULL
1739207144,4b5495ee7409e05c203af639df39d143,PennController,67,0,test_val,NULL,Selector,unnamed-Selector,Selection,positive,1739206782295,undefined,587,splendid,abstract-positive,positive,negative,A,positive;negative
1739207144,4b5495ee7409e05c203af639df39d143,PennController,67,0,test_val,NULL,PennController,78,_Trial_,End,1739206782297,undefined,587,splendid,abstract-positive,positive,negative,A,NULL
1739207144,4b5495ee7409e05c203af639df39d143,PennController,48,0,test_val,NULL,PennController,59,_Trial_,Start,1739206782298,undefined,577,heartless,abstract-negative,positive,negative,A,NULL
1739207144,4b5495ee7409e05c203af639df39d143,PennController,48,0,test_val,NULL,PennController,59,_Header_,Start,1739206782298,undefined,577,heartless,abstract-negative,positive,negative,A,NULL
1739207144,4b5495ee7409e05c203af639df39d143,PennController,48,0,test_val,NULL,PennController,59,_Header_,End,1739206782548,undefined,577,heartless,abstract-negative,positive,negative,A,NULL
1739207144,4b5495ee7409e05c203af639df39d143,PennController,48,0,test_val,NULL,Selector,unnamed-Selector,Selection,negative,1739206783629,undefined,577,heartless,abstract-negative,positive,negative,A,positive;negative
1739207144,4b5495ee7409e05c203af639df39d143,PennController,48,0,test_val,NULL,PennController,59,_Trial_,End,1739206783630,undefined,577,heartless,abstract-negative,positive,negative,A,NULL
1739207144,4b5495ee7409e05c203af639df39d143,PennController,55,0,test_val,NULL,PennController,66,_Trial_,Start,1739206783630,undefined,581,lilac,concrete-positive,positive,negative,A,NULL
1739207144,4b5495ee7409e05c203af639df39d143,PennController,55,0,test_val,NULL,PennController,66,_Header_,Start,1739206783630,undefined,581,lilac,concrete-positive,positive,negative,A,NULL
1739207144,4b5495ee7409e05c203af639df39d143,PennController,55,0,test_val,NULL,PennController,66,_Header_,End,1739206783880,undefined,581,lilac,concrete-positive,positive,negative,A,NULL
1739207144,4b5495ee7409e05c203af639df39d143,PennController,55,0,test_val,NULL,Selector,unnamed-Selector,Selection,positive,1739206784967,undefined,581,lilac,concrete-positive,positive,negative,A,positive;negative
1739207144,4b5495ee7409e05c203af639df39d143,PennController,55,0,test_val,NULL,PennController,66,_Trial_,End,1739206784968,undefined,581,lilac,concrete-positive,positive,negative,A,NULL
1739207144,4b5495ee7409e05c203af639df39d143,PennController,60,0,test_val,NULL,PennController,71,_Trial_,Start,1739206784969,undefined,754,orange,concrete-positive,positive,negative,A,NULL
1739207144,4b5495ee7409e05c203af639df39d143,PennController,60,0,test_val,NULL,PennController,71,_Header_,Start,1739206784969,undefined,754,orange,concrete-positive,positive,negative,A,NULL
1739207144,4b5495ee7409e05c203af639df39d143,PennController,60,0,test_val,NULL,PennController,71,_Header_,End,1739206785221,undefined,754,orange,concrete-positive,positive,negative,A,NULL
1739207144,4b5495ee7409e05c203af639df39d143,PennController,60,0,test_val,NULL,Selector,unnamed-Selector,Selection,positive,1739206786478,undefined,754,orange,concrete-positive,positive,negative,A,positive;negative
1739207144,4b5495ee7409e05c203af639df39d143,PennController,60,0,test_val,NULL,PennController,71,_Trial_,End,1739206786480,undefined,754,orange,concrete-positive,positive,negative,A,NULL
1739207144,4b5495ee7409e05c203af639df39d143,PennController,44,0,test_val,NULL,PennController,55,_Trial_,Start,1739206786481,undefined,712,worthless,abstract-negative,positive,negative,A,NULL
1739207144,4b5495ee7409e05c203af639df39d143,PennController,44,0,test_val,NULL,PennController,55,_Header_,Start,1739206786481,undefined,712,worthless,abstract-negative,positive,negative,A,NULL
1739207144,4b5495ee7409e05c203af639df39d143,PennController,44,0,test_val,NULL,PennController,55,_Header_,End,1739206786733,undefined,712,worthless,abstract-negative,positive,negative,A,NULL
1739207144,4b5495ee7409e05c203af639df39d143,PennController,44,0,test_val,NULL,Selector,unnamed-Selector,Selection,negative,1739206787950,undefined,712,worthless,abstract-negative,positive,negative,A,positive;negative
1739207144,4b5495ee7409e05c203af639df39d143,PennController,44,0,test_val,NULL,PennController,55,_Trial_,End,1739206787951,undefined,712,worthless,abstract-negative,positive,negative,A,NULL
1739207144,4b5495ee7409e05c203af639df39d143,PennController,49,0,test_val,NULL,PennController,60,_Trial_,Start,1739206787952,undefined,544,sexist,abstract-negative,positive,negative,A,NULL
1739207144,4b5495ee7409e05c203af639df39d143,PennController,49,0,test_val,NULL,PennController,60,_Header_,Start,1739206787952,undefined,544,sexist,abstract-negative,positive,negative,A,NULL
1739207144,4b5495ee7409e05c203af639df39d143,PennController,49,0,test_val,NULL,PennController,60,_Header_,End,1739206788202,undefined,544,sexist,abstract-negative,positive,negative,A,NULL
1739207144,4b5495ee7409e05c203af639df39d143,PennController,49,0,test_val,NULL,Selector,unnamed-Selector,Selection,negative,1739206789253,undefined,544,sexist,abstract-negative,positive,negative,A,positive;negative
1739207144,4b5495ee7409e05c203af639df39d143,PennController,49,0,test_val,NULL,PennController,60,_Trial_,End,1739206789254,undefined,544,sexist,abstract-negative,positive,negative,A,NULL
1739207144,4b5495ee7409e05c203af639df39d143,PennController,73,0,test_val,NULL,PennController,84,_Trial_,Start,1739206789255,undefined,577,divine,abstract-positive,positive,negative,A,NULL
1739207144,4b5495ee7409e05c203af639df39d143,PennController,73,0,test_val,NULL,PennController,84,_Header_,Start,1739206789255,undefined,577,divine,abstract-positive,positive,negative,A,NULL
1739207144,4b5495ee7409e05c203af639df39d143,PennController,73,0,test_val,NULL,PennController,84,_Header_,End,1739206789507,undefined,577,divine,abstract-positive,positive,negative,A,NULL
1739207144,4b5495ee7409e05c203af639df39d143,PennController,73,0,test_val,NULL,Selector,unnamed-Selector,Selection,positive,1739206790588,undefined,577,divine,abstract-positive,positive,negative,A,positive;negative
1739207144,4b5495ee7409e05c203af639df39d143,PennController,73,0,test_val,NULL,PennController,84,_Trial_,End,1739206790590,undefined,577,divine,abstract-positive,positive,negative,A,NULL
1739207144,4b5495ee7409e05c203af639df39d143,PennController,71,0,test_val,NULL,PennController,82,_Trial_,Start,1739206790591,undefined,465,pleasant,abstract-positive,positive,negative,A,NULL
1739207144,4b5495ee7409e05c203af639df39d143,PennController,71,0,test_val,NULL,PennController,82,_Header_,Start,1739206790591,undefined,465,pleasant,abstract-positive,positive,negative,A,NULL
1739207144,4b5495ee7409e05c203af639df39d143,PennController,71,0,test_val,NULL,PennController,82,_Header_,End,1739206790842,undefined,465,pleasant,abstract-positive,positive,negative,A,NULL
1739207144,4b5495ee7409e05c203af639df39d143,PennController,71,0,test_val,NULL,Selector,unnamed-Selector,Selection,positive,1739206791812,undefined,465,pleasant,abstract-positive,positive,negative,A,positive;negative
1739207144,4b5495ee7409e05c203af639df39d143,PennController,71,0,test_val,NULL,PennController,82,_Trial_,End,1739206791814,undefined,465,pleasant,abstract-positive,positive,negative,A,NULL
1739207144,4b5495ee7409e05c203af639df39d143,PennController,74,0,test_val,NULL,PennController,85,_Trial_,Start,1739206791814,undefined,554,toothless,concrete-negative,positive,negative,A,NULL
1739207144,4b5495ee7409e05c203af639df39d143,PennController,74,0,test_val,NULL,PennController,85,_Header_,Start,1739206791814,undefined,554,toothless,concrete-negative,positive,negative,A,NULL
1739207144,4b5495ee7409e05c203af639df39d143,PennController,74,0,test_val,NULL,PennController,85,_Header_,End,1739206792067,undefined,554,toothless,concrete-negative,positive,negative,A,NULL
1739207144,4b5495ee7409e05c203af639df39d143,PennController,74,0,test_val,NULL,Selector,unnamed-Selector,Selection,negative,1739206793127,undefined,554,toothless,concrete-negative,positive,negative,A,positive;negative
1739207144,4b5495ee7409e05c203af639df39d143,PennController,74,0,test_val,NULL,PennController,85,_Trial_,End,1739206793128,undefined,554,toothless,concrete-negative,positive,negative,A,NULL
1739207144,4b5495ee7409e05c203af639df39d143,PennController,56,0,test_val,NULL,PennController,67,_Trial_,Start,1739206793129,undefined,587,human,concrete-positive,positive,negative,A,NULL
1739207144,4b5495ee7409e05c203af639df39d143,PennController,56,0,test_val,NULL,PennController,67,_Header_,Start,1739206793129,undefined,587,human,concrete-positive,positive,negative,A,NULL
1739207144,4b5495ee7409e05c203af639df39d143,PennController,56,0,test_val,NULL,PennController,67,_Header_,End,1739206793380,undefined,587,human,concrete-positive,positive,negative,A,NULL
1739207144,4b5495ee7409e05c203af639df39d143,PennController,56,0,test_val,NULL,Selector,unnamed-Selector,Selection,positive,1739206794472,undefined,587,human,concrete-positive,positive,negative,A,positive;negative
1739207144,4b5495ee7409e05c203af639df39d143,PennController,56,0,test_val,NULL,PennController,67,_Trial_,End,1739206794473,undefined,587,human,concrete-positive,positive,negative,A,NULL
1739207144,4b5495ee7409e05c203af639df39d143,PennController,66,0,test_val,NULL,PennController,77,_Trial_,Start,1739206794474,undefined,540,thankful,abstract-positive,positive,negative,A,NULL
1739207144,4b5495ee7409e05c203af639df39d143,PennController,66,0,test_val,NULL,PennController,77,_Header_,Start,1739206794474,undefined,540,thankful,abstract-positive,positive,negative,A,NULL
1739207144,4b5495ee7409e05c203af639df39d143,PennController,66,0,test_val,NULL,PennController,77,_Header_,End,1739206794727,undefined,540,thankful,abstract-positive,positive,negative,A,NULL
1739207144,4b5495ee7409e05c203af639df39d143,PennController,66,0,test_val,NULL,Selector,unnamed-Selector,Selection,positive,1739206795772,undefined,540,thankful,abstract-positive,positive,negative,A,positive;negative
1739207144,4b5495ee7409e05c203af639df39d143,PennController,66,0,test_val,NULL,PennController,77,_Trial_,End,1739206795773,undefined,540,thankful,abstract-positive,positive,negative,A,NULL
1739207144,4b5495ee7409e05c203af639df39d143,PennController,77,0,test_val,NULL,PennController,88,_Trial_,Start,1739206795773,undefined,531,rusted,concrete-negative,positive,negative,A,NULL
1739207144,4b5495ee7409e05c203af639df39d143,PennController,77,0,test_val,NULL,PennController,88,_Header_,Start,1739206795773,undefined,531,rusted,concrete-negative,positive,negative,A,NULL
1739207144,4b5495ee7409e05c203af639df39d143,PennController,77,0,test_val,NULL,PennController,88,_Header_,End,1739206796027,undefined,531,rusted,concrete-negative,positive,negative,A,NULL
1739207144,4b5495ee7409e05c203af639df39d143,PennController,77,0,test_val,NULL,Selector,unnamed-Selector,Selection,negative,1739206797062,undefined,531,rusted,concrete-negative,positive,negative,A,positive;negative
1739207144,4b5495ee7409e05c203af639df39d143,PennController,77,0,test_val,NULL,PennController,88,_Trial_,End,1739206797064,undefined,531,rusted,concrete-negative,positive,negative,A,NULL
1739207144,4b5495ee7409e05c203af639df39d143,PennController,46,0,test_val,NULL,PennController,57,_Trial_,Start,1739206797065,undefined,581,evil,abstract-negative,positive,negative,A,NULL
1739207144,4b5495ee7409e05c203af639df39d143,PennController,46,0,test_val,NULL,PennController,57,_Header_,Start,1739206797065,undefined,581,evil,abstract-negative,positive,negative,A,NULL
1739207144,4b5495ee7409e05c203af639df39d143,PennController,46,0,test_val,NULL,PennController,57,_Header_,End,1739206797319,undefined,581,evil,abstract-negative,positive,negative,A,NULL
1739207144,4b5495ee7409e05c203af639df39d143,PennController,46,0,test_val,NULL,Selector,unnamed-Selector,Selection,negative,1739206798403,undefined,581,evil,abstract-negative,positive,negative,A,positive;negative
1739207144,4b5495ee7409e05c203af639df39d143,PennController,46,0,test_val,NULL,PennController,57,_Trial_,End,1739206798404,undefined,581,evil,abstract-negative,positive,negative,A,NULL
1739207144,4b5495ee7409e05c203af639df39d143,PennController,51,0,test_val,NULL,PennController,62,_Trial_,Start,1739206798404,undefined,458,stupid,abstract-negative,positive,negative,A,NULL
1739207144,4b5495ee7409e05c203af639df39d143,PennController,51,0,test_val,NULL,PennController,62,_Header_,Start,1739206798404,undefined,458,stupid,abstract-negative,positive,negative,A,NULL
1739207144,4b5495ee7409e05c203af639df39d143,PennController,51,0,test_val,NULL,PennController,62,_Header_,End,1739206798654,undefined,458,stupid,abstract-negative,positive,negative,A,NULL
1739207144,4b5495ee7409e05c203af639df39d143,PennController,51,0,test_val,NULL,Selector,unnamed-Selector,Selection,negative,1739206799615,undefined,458,stupid,abstract-negative,positive,negative,A,positive;negative
1739207144,4b5495ee7409e05c203af639df39d143,PennController,51,0,test_val,NULL,PennController,62,_Trial_,End,1739206799616,undefined,458,stupid,abstract-negative,positive,negative,A,NULL
1739207144,4b5495ee7409e05c203af639df39d143,PennController,80,0,test_val,NULL,PennController,91,_Trial_,Start,1739206799617,undefined,497,dirty,concrete-negative,positive,negative,A,NULL
1739207144,4b5495ee7409e05c203af639df39d143,PennController,80,0,test_val,NULL,PennController,91,_Header_,Start,1739206799617,undefined,497,dirty,concrete-negative,positive,negative,A,NULL
1739207144,4b5495ee7409e05c203af639df39d143,PennController,80,0,test_val,NULL,PennController,91,_Header_,End,1739206799869,undefined,497,dirty,concrete-negative,positive,negative,A,NULL
1739207144,4b5495ee7409e05c203af639df39d143,PennController,80,0,test_val,NULL,Selector,unnamed-Selector,Selection,negative,1739206800868,undefined,497,dirty,concrete-negative,positive,negative,A,positive;negative
1739207144,4b5495ee7409e05c203af639df39d143,PennController,80,0,test_val,NULL,PennController,91,_Trial_,End,1739206800869,undefined,497,dirty,concrete-negative,positive,negative,A,NULL
1739207144,4b5495ee7409e05c203af639df39d143,PennController,52,0,test_val,NULL,PennController,63,_Trial_,Start,1739206800870,undefined,447,sinful,abstract-negative,positive,negative,A,NULL
1739207144,4b5495ee7409e05c203af639df39d143,PennController,52,0,test_val,NULL,PennController,63,_Header_,Start,1739206800870,undefined,447,sinful,abstract-negative,positive,negative,A,NULL
1739207144,4b5495ee7409e05c203af639df39d143,PennController,52,0,test_val,NULL,PennController,63,_Header_,End,1739206801122,undefined,447,sinful,abstract-negative,positive,negative,A,NULL
1739207144,4b5495ee7409e05c203af639df39d143,PennController,52,0,test_val,NULL,Selector,unnamed-Selector,Selection,negative,1739206802074,undefined,447,sinful,abstract-negative,positive,negative,A,positive;negative
1739207144,4b5495ee7409e05c203af639df39d143,PennController,52,0,test_val,NULL,PennController,63,_Trial_,End,1739206802074,undefined,447,sinful,abstract-negative,positive,negative,A,NULL
1739207144,4b5495ee7409e05c203af639df39d143,PennController,69,0,test_val,NULL,PennController,80,_Trial_,Start,1739206802075,undefined,592,sensible,abstract-positive,positive,negative,A,NULL
1739207144,4b5495ee7409e05c203af639df39d143,PennController,69,0,test_val,NULL,PennController,80,_Header_,Start,1739206802075,undefined,592,sensible,abstract-positive,positive,negative,A,NULL
1739207144,4b5495ee7409e05c203af639df39d143,PennController,69,0,test_val,NULL,PennController,80,_Header_,End,1739206802326,undefined,592,sensible,abstract-positive,positive,negative,A,NULL
1739207144,4b5495ee7409e05c203af639df39d143,PennController,69,0,test_val,NULL,Selector,unnamed-Selector,Selection,positive,1739206803422,undefined,592,sensible,abstract-positive,positive,negative,A,positive;negative
1739207144,4b5495ee7409e05c203af639df39d143,PennController,69,0,test_val,NULL,PennController,80,_Trial_,End,1739206803423,undefined,592,sensible,abstract-positive,positive,negative,A,NULL
1739207144,4b5495ee7409e05c203af639df39d143,PennController,47,0,test_val,NULL,PennController,58,_Trial_,Start,1739206803423,undefined,532,soulless,abstract-negative,positive,negative,A,NULL
1739207144,4b5495ee7409e05c203af639df39d143,PennController,47,0,test_val,NULL,PennController,58,_Header_,Start,1739206803423,undefined,532,soulless,abstract-negative,positive,negative,A,NULL
1739207144,4b5495ee7409e05c203af639df39d143,PennController,47,0,test_val,NULL,PennController,58,_Header_,End,1739206803677,undefined,532,soulless,abstract-negative,positive,negative,A,NULL
1739207144,4b5495ee7409e05c203af639df39d143,PennController,47,0,test_val,NULL,Selector,unnamed-Selector,Selection,negative,1739206804715,undefined,532,soulless,abstract-negative,positive,negative,A,positive;negative
1739207144,4b5495ee7409e05c203af639df39d143,PennController,47,0,test_val,NULL,PennController,58,_Trial_,End,1739206804717,undefined,532,soulless,abstract-negative,positive,negative,A,NULL
1739207144,4b5495ee7409e05c203af639df39d143,PennController,63,0,test_val,NULL,PennController,74,_Trial_,Start,1739206804719,undefined,608,handmade,concrete-positive,positive,negative,A,NULL
1739207144,4b5495ee7409e05c203af639df39d143,PennController,63,0,test_val,NULL,PennController,74,_Header_,Start,1739206804719,undefined,608,handmade,concrete-positive,positive,negative,A,NULL
1739207144,4b5495ee7409e05c203af639df39d143,PennController,63,0,test_val,NULL,PennController,74,_Header_,End,1739206804972,undefined,608,handmade,concrete-positive,positive,negative,A,NULL
1739207144,4b5495ee7409e05c203af639df39d143,PennController,63,0,test_val,NULL,Selector,unnamed-Selector,Selection,positive,1739206806083,undefined,608,handmade,concrete-positive,positive,negative,A,positive;negative
1739207144,4b5495ee7409e05c203af639df39d143,PennController,63,0,test_val,NULL,PennController,74,_Trial_,End,1739206806084,undefined,608,handmade,concrete-positive,positive,negative,A,NULL
