"","ID.true","Word","Label","Task","BlockOrder","EventTime","Value","ReactionTime","Key_value_F","Key_value_J","Comments","Group","LogReactionTime","TrialNumber"
"1","632b5400bf46cdb11db9f588","hat","calibrator_val_feedback","Valence","VC",1742927170111,"positive",2245,"positive","negative","positive;negative","A",7.71646080017636,1
"2","632b5400bf46cdb11db9f588","insecure","calibrator_val_feedback","Valence","VC",1742927173559,"negative",717,"positive","negative","positive;negative","A",6.57507584059962,2
"3","632b5400bf46cdb11db9f588","icebox","calibrator_val_feedback","Valence","VC",1742927177345,"positive",989,"positive","negative","positive;negative","A",6.89669433162271,3
"4","632b5400bf46cdb11db9f588","free","calibrator_val_feedback","Valence","VC",1742927179489,"positive",1315,"positive","negative","positive;negative","A",7.18159194461187,4
"5","632b5400bf46cdb11db9f588","invader","calibrator_val_feedback","Valence","VC",1742927183481,"negative",410,"positive","negative","positive;negative","A",6.01615715969835,5
"6","632b5400bf46cdb11db9f588","industry","calibrator_val_feedback","Valence","VC",1742927187244,"positive",1017,"positive","negative","positive;negative","A",6.92461239604856,6
"7","632b5400bf46cdb11db9f588","kitten","calibrator_val_feedback","Valence","VC",1742927190860,"positive",833,"positive","negative","positive;negative","A",6.72503364216684,7
"8","632b5400bf46cdb11db9f588","jail","calibrator_val_feedback","Valence","VC",1742927194670,"negative",667,"positive","negative","positive;negative","A",6.50279004591562,8
"9","632b5400bf46cdb11db9f588","joke","calibrator_val_feedback","Valence","VC",1742927197768,"negative",539,"positive","negative","positive;negative","A",6.289715570909,9
"10","632b5400bf46cdb11db9f588","grin","calibrator_val_feedback","Valence","VC",1742927201242,"positive",592,"positive","negative","positive;negative","A",6.38350663488401,10
"11","632b5400bf46cdb11db9f588","hat","calibrator_val_no_feedback","Valence","VC",1742927203791,"negative",823,"A","positive;negative","","",6.71295620067707,11
"12","632b5400bf46cdb11db9f588","icebox","calibrator_val_no_feedback","Valence","VC",1742927205790,"positive",1233,"A","positive;negative","","",7.11720550316434,12
"13","632b5400bf46cdb11db9f588","joke","calibrator_val_no_feedback","Valence","VC",1742927207139,"negative",574,"A","positive;negative","","",6.35262939631957,13
"14","632b5400bf46cdb11db9f588","kitten","calibrator_val_no_feedback","Valence","VC",1742927208397,"positive",489,"A","positive;negative","","",6.19236248947487,14
"15","632b5400bf46cdb11db9f588","free","calibrator_val_no_feedback","Valence","VC",1742927209623,"positive",451,"A","positive;negative","","",6.11146733950268,15
"16","632b5400bf46cdb11db9f588","invader","calibrator_val_no_feedback","Valence","VC",1742927211144,"negative",753,"A","positive;negative","","",6.62406522779989,16
"17","632b5400bf46cdb11db9f588","grin","calibrator_val_no_feedback","Valence","VC",1742927212460,"positive",542,"A","positive;negative","","",6.29526600143965,17
"18","632b5400bf46cdb11db9f588","insecure","calibrator_val_no_feedback","Valence","VC",1742927213722,"positive",481,"A","positive;negative","","",6.17586727010576,18
"19","632b5400bf46cdb11db9f588","jail","calibrator_val_no_feedback","Valence","VC",1742927215056,"negative",565,"A","positive;negative","","",6.33682573114644,19
"20","632b5400bf46cdb11db9f588","industry","calibrator_val_no_feedback","Valence","VC",1742927216708,"negative",878,"A","positive;negative","","",6.77764659363512,20
"21","632b5400bf46cdb11db9f588","sugar","calibrator_conc_feedback","Concrete","VC",1742927403324,"abstract",2521,"concrete","abstract","concrete;abstract","A",7.83241092718792,21
"22","632b5400bf46cdb11db9f588","whistle","calibrator_conc_feedback","Concrete","VC",1742927406222,"abstract",110,"concrete","abstract","concrete;abstract","A",4.70048036579242,22
"23","632b5400bf46cdb11db9f588","marriage","calibrator_conc_feedback","Concrete","VC",1742927409275,"concrete",204,"concrete","abstract","concrete;abstract","A",5.31811999384422,23
"24","632b5400bf46cdb11db9f588","shirt","calibrator_conc_feedback","Concrete","VC",1742927412208,"concrete",98,"concrete","abstract","concrete;abstract","A",4.58496747867057,24
"25","632b5400bf46cdb11db9f588","grasshopper","calibrator_conc_feedback","Concrete","VC",1742927414969,"concrete",80,"concrete","abstract","concrete;abstract","A",4.38202663467388,25
"26","632b5400bf46cdb11db9f588","polite","calibrator_conc_feedback","Concrete","VC",1742927417825,"abstract",7,"concrete","abstract","concrete;abstract","A",1.94591014905531,26
"27","632b5400bf46cdb11db9f588","kick","calibrator_conc_feedback","Concrete","VC",1742927420753,"abstract",68,"concrete","abstract","concrete;abstract","A",4.21950770517611,27
"28","632b5400bf46cdb11db9f588","gas","calibrator_conc_feedback","Concrete","VC",1742927424329,"abstract",1693,"concrete","abstract","concrete;abstract","A",7.43425738213314,28
"29","632b5400bf46cdb11db9f588","theory","calibrator_conc_feedback","Concrete","VC",1742927429001,"abstract",1020,"concrete","abstract","concrete;abstract","A",6.92755790627832,29
"30","632b5400bf46cdb11db9f588","insecure","calibrator_conc_feedback","Concrete","VC",1742927431693,"abstract",112,"concrete","abstract","concrete;abstract","A",4.71849887129509,30
"31","632b5400bf46cdb11db9f588","sugar","calibrator_conc_no_feedback","Concrete","VC",1742927432797,"abstract",136,"A","concrete;abstract","","",4.91265488573605,31
"32","632b5400bf46cdb11db9f588","shirt","calibrator_conc_no_feedback","Concrete","VC",1742927433685,"abstract",105,"A","concrete;abstract","","",4.65396035015752,32
"33","632b5400bf46cdb11db9f588","whistle","calibrator_conc_no_feedback","Concrete","VC",1742927434971,"abstract",517,"A","concrete;abstract","","",6.24804287450843,33
"34","632b5400bf46cdb11db9f588","gas","calibrator_conc_no_feedback","Concrete","VC",1742927436335,"abstract",577,"A","concrete;abstract","","",6.3578422665081,34
"35","632b5400bf46cdb11db9f588","theory","calibrator_conc_no_feedback","Concrete","VC",1742927437513,"concrete",400,"A","concrete;abstract","","",5.99146454710798,35
"36","632b5400bf46cdb11db9f588","grasshopper","calibrator_conc_no_feedback","Concrete","VC",1742927439055,"concrete",767,"A","concrete;abstract","","",6.64248680136726,36
"37","632b5400bf46cdb11db9f588","insecure","calibrator_conc_no_feedback","Concrete","VC",1742927440326,"abstract",495,"A","concrete;abstract","","",6.20455776256869,37
"38","632b5400bf46cdb11db9f588","polite","calibrator_conc_no_feedback","Concrete","VC",1742927441499,"abstract",397,"A","concrete;abstract","","",5.98393628068719,38
"39","632b5400bf46cdb11db9f588","kick","calibrator_conc_no_feedback","Concrete","VC",1742927442803,"concrete",531,"A","concrete;abstract","","",6.27476202124194,39
"40","632b5400bf46cdb11db9f588","marriage","calibrator_conc_no_feedback","Concrete","VC",1742927443965,"concrete",384,"A","concrete;abstract","","",5.95064255258773,40
"41","5ddcbca2798297c203d13723","whistle","calibrator_conc_feedback","Concrete","CV",1739204253331,"concrete",1037,"abstract","concrete","abstract;concrete","B",6.94408720822953,1
"42","5ddcbca2798297c203d13723","kick","calibrator_conc_feedback","Concrete","CV",1739204256282,"concrete",1217,"abstract","concrete","abstract;concrete","B",7.10414409298753,2
"43","5ddcbca2798297c203d13723","gas","calibrator_conc_feedback","Concrete","CV",1739204260251,"concrete",1209,"abstract","concrete","abstract;concrete","B",7.09754885061479,3
"44","5ddcbca2798297c203d13723","insecure","calibrator_conc_feedback","Concrete","CV",1739204263891,"abstract",885,"abstract","concrete","abstract;concrete","B",6.78558764500793,4
"45","5ddcbca2798297c203d13723","polite","calibrator_conc_feedback","Concrete","CV",1739204268146,"abstract",1496,"abstract","concrete","abstract;concrete","B",7.31055015853442,5
"46","5ddcbca2798297c203d13723","grasshopper","calibrator_conc_feedback","Concrete","CV",1739204271970,"concrete",1066,"abstract","concrete","abstract;concrete","B",6.97166860472579,6
"47","5ddcbca2798297c203d13723","marriage","calibrator_conc_feedback","Concrete","CV",1739204275595,"concrete",866,"abstract","concrete","abstract;concrete","B",6.76388490856244,7
"48","5ddcbca2798297c203d13723","theory","calibrator_conc_feedback","Concrete","CV",1739204280155,"abstract",1804,"abstract","concrete","abstract;concrete","B",7.49776170062257,8
"49","5ddcbca2798297c203d13723","shirt","calibrator_conc_feedback","Concrete","CV",1739204283667,"concrete",752,"abstract","concrete","abstract;concrete","B",6.62273632394984,9
"50","5ddcbca2798297c203d13723","sugar","calibrator_conc_feedback","Concrete","CV",1739204287259,"concrete",833,"abstract","concrete","abstract;concrete","B",6.72503364216684,10
"51","5ddcbca2798297c203d13723","gas","calibrator_conc_no_feedback","Concrete","CV",1739204290922,"concrete",906,"B","abstract;concrete","","",6.80903930604298,11
"52","5ddcbca2798297c203d13723","grasshopper","calibrator_conc_no_feedback","Concrete","CV",1739204292491,"concrete",811,"B","abstract;concrete","","",6.69826805411541,12
"53","5ddcbca2798297c203d13723","marriage","calibrator_conc_no_feedback","Concrete","CV",1739204294146,"concrete",904,"B","abstract;concrete","","",6.80682936039218,13
"54","5ddcbca2798297c203d13723","kick","calibrator_conc_no_feedback","Concrete","CV",1739204295731,"concrete",826,"B","abstract;concrete","","",6.71659477352098,14
"55","5ddcbca2798297c203d13723","theory","calibrator_conc_no_feedback","Concrete","CV",1739204297171,"abstract",680,"B","abstract;concrete","","",6.52209279817015,15
"56","5ddcbca2798297c203d13723","sugar","calibrator_conc_no_feedback","Concrete","CV",1739204298699,"concrete",771,"B","abstract;concrete","","",6.64768837356333,16
"57","5ddcbca2798297c203d13723","whistle","calibrator_conc_no_feedback","Concrete","CV",1739204300386,"concrete",932,"B","abstract;concrete","","",6.83733281468559,17
"58","5ddcbca2798297c203d13723","insecure","calibrator_conc_no_feedback","Concrete","CV",1739204302315,"abstract",1174,"B","abstract;concrete","","",7.06817200038804,18
"59","5ddcbca2798297c203d13723","polite","calibrator_conc_no_feedback","Concrete","CV",1739204304027,"abstract",955,"B","abstract;concrete","","",6.86171134048073,19
"60","5ddcbca2798297c203d13723","shirt","calibrator_conc_no_feedback","Concrete","CV",1739204305483,"concrete",701,"B","abstract;concrete","","",6.55250788703459,20
"61","5ddcbca2798297c203d13723","icebox","calibrator_val_feedback","Valence","CV",1739204527994,"positive",1101,"negative","positive","negative;positive","B",7.00397413672268,21
"62","5ddcbca2798297c203d13723","insecure","calibrator_val_feedback","Valence","CV",1739204532138,"negative",1390,"negative","positive","negative;positive","B",7.23705902612474,22
"63","5ddcbca2798297c203d13723","industry","calibrator_val_feedback","Valence","CV",1739204536474,"positive",1575,"negative","positive","negative;positive","B",7.36201055125973,23
"64","5ddcbca2798297c203d13723","hat","calibrator_val_feedback","Valence","CV",1739204540139,"positive",908,"negative","positive","negative;positive","B",6.81124437860129,24
"65","5ddcbca2798297c203d13723","invader","calibrator_val_feedback","Valence","CV",1739204543804,"negative",908,"negative","positive","negative;positive","B",6.81124437860129,25
"66","5ddcbca2798297c203d13723","kitten","calibrator_val_feedback","Valence","CV",1739204547386,"positive",828,"negative","positive","negative;positive","B",6.71901315438526,26
"67","5ddcbca2798297c203d13723","joke","calibrator_val_feedback","Valence","CV",1739204551187,"positive",1042,"negative","positive","negative;positive","B",6.94889722231331,27
"68","5ddcbca2798297c203d13723","grin","calibrator_val_feedback","Valence","CV",1739204554835,"positive",887,"negative","positive","negative;positive","B",6.78784498230958,28
"69","5ddcbca2798297c203d13723","free","calibrator_val_feedback","Valence","CV",1739204558443,"positive",849,"negative","positive","negative;positive","B",6.74405918631135,29
"70","5ddcbca2798297c203d13723","jail","calibrator_val_feedback","Valence","CV",1739204562379,"negative",1178,"negative","positive","negative;positive","B",7.07157336421153,30
"71","5ddcbca2798297c203d13723","joke","calibrator_val_no_feedback","Valence","CV",1739204565980,"positive",844,"B","negative;positive","","",6.73815249459596,31
"72","5ddcbca2798297c203d13723","insecure","calibrator_val_no_feedback","Valence","CV",1739204567835,"negative",1103,"B","negative;positive","","",7.0057890192535,32
"73","5ddcbca2798297c203d13723","hat","calibrator_val_no_feedback","Valence","CV",1739204569283,"positive",692,"B","negative;positive","","",6.53958595561767,33
"74","5ddcbca2798297c203d13723","industry","calibrator_val_no_feedback","Valence","CV",1739204570851,"positive",810,"B","negative;positive","","",6.69703424766648,34
"75","5ddcbca2798297c203d13723","icebox","calibrator_val_no_feedback","Valence","CV",1739204572363,"positive",758,"B","negative;positive","","",6.63068338564237,35
"76","5ddcbca2798297c203d13723","jail","calibrator_val_no_feedback","Valence","CV",1739204574003,"negative",885,"B","negative;positive","","",6.78558764500793,36
"77","5ddcbca2798297c203d13723","free","calibrator_val_no_feedback","Valence","CV",1739204576059,"positive",1304,"B","negative;positive","","",7.1731917424866,37
"78","5ddcbca2798297c203d13723","kitten","calibrator_val_no_feedback","Valence","CV",1739204577539,"positive",724,"B","negative;positive","","",6.58479139238572,38
"79","5ddcbca2798297c203d13723","grin","calibrator_val_no_feedback","Valence","CV",1739204579218,"positive",923,"B","negative;positive","","",6.82762923450285,39
"80","5ddcbca2798297c203d13723","invader","calibrator_val_no_feedback","Valence","CV",1739204580883,"negative",910,"B","negative;positive","","",6.8134445995109,40
"81","666883e7cd549b6798159085","jail","calibrator_val_feedback","Valence","VC",1742930907964,"negative",991,"positive","negative","positive;negative","A",6.89871453432999,1
"82","666883e7cd549b6798159085","grin","calibrator_val_feedback","Valence","VC",1742930911415,"positive",693,"positive","negative","positive;negative","A",6.5410299991899,2
"83","666883e7cd549b6798159085","hat","calibrator_val_feedback","Valence","VC",1742930915057,"positive",884,"positive","negative","positive;negative","A",6.78445706263764,3
"84","666883e7cd549b6798159085","joke","calibrator_val_feedback","Valence","VC",1742930918936,"positive",1117,"positive","negative","positive;negative","A",7.0184017990692,4
"85","666883e7cd549b6798159085","invader","calibrator_val_feedback","Valence","VC",1742930922387,"negative",691,"positive","negative","positive;negative","A",6.53813982376767,5
"86","666883e7cd549b6798159085","icebox","calibrator_val_feedback","Valence","VC",1742930926406,"positive",1258,"positive","negative","positive;negative","A",7.13727843726039,6
"87","666883e7cd549b6798159085","kitten","calibrator_val_feedback","Valence","VC",1742930929795,"positive",632,"positive","negative","positive;negative","A",6.44888939414686,7
"88","666883e7cd549b6798159085","insecure","calibrator_val_feedback","Valence","VC",1742930933388,"negative",831,"positive","negative","positive;negative","A",6.72262979485545,8
"89","666883e7cd549b6798159085","free","calibrator_val_feedback","Valence","VC",1742930936799,"positive",650,"positive","negative","positive;negative","A",6.47697236288968,9
"90","666883e7cd549b6798159085","industry","calibrator_val_feedback","Valence","VC",1742930940597,"positive",1041,"positive","negative","positive;negative","A",6.94793706861497,10
"91","666883e7cd549b6798159085","kitten","calibrator_val_no_feedback","Valence","VC",1742930944393,"positive",1037,"A","positive;negative","","",6.94408720822953,11
"92","666883e7cd549b6798159085","free","calibrator_val_no_feedback","Valence","VC",1742930945777,"positive",626,"A","positive;negative","","",6.4393503711001,12
"93","666883e7cd549b6798159085","joke","calibrator_val_no_feedback","Valence","VC",1742930946803,"positive",270,"A","positive;negative","","",5.59842195899838,13
"94","666883e7cd549b6798159085","hat","calibrator_val_no_feedback","Valence","VC",1742930948205,"positive",648,"A","positive;negative","","",6.47389069635227,14
"95","666883e7cd549b6798159085","icebox","calibrator_val_no_feedback","Valence","VC",1742930949589,"positive",631,"A","positive;negative","","",6.44730586254121,15
"96","666883e7cd549b6798159085","invader","calibrator_val_no_feedback","Valence","VC",1742930950943,"negative",597,"A","positive;negative","","",6.3919171133926,16
"97","666883e7cd549b6798159085","industry","calibrator_val_no_feedback","Valence","VC",1742930952629,"positive",927,"A","positive;negative","","",6.83195356556585,17
"98","666883e7cd549b6798159085","jail","calibrator_val_no_feedback","Valence","VC",1742930953956,"negative",570,"A","positive;negative","","",6.3456363608286,18
"99","666883e7cd549b6798159085","insecure","calibrator_val_no_feedback","Valence","VC",1742930955403,"negative",690,"A","positive;negative","","",6.5366915975913,19
"100","666883e7cd549b6798159085","grin","calibrator_val_no_feedback","Valence","VC",1742930956918,"positive",758,"A","positive;negative","","",6.63068338564237,20
"101","666883e7cd549b6798159085","sugar","calibrator_conc_feedback","Concrete","VC",1742931168315,"concrete",1795,"concrete","abstract","concrete;abstract","A",7.49276030092238,21
"102","666883e7cd549b6798159085","kick","calibrator_conc_feedback","Concrete","VC",1742931174807,"concrete",2136,"concrete","abstract","concrete;abstract","A",7.66669020008009,22
"103","666883e7cd549b6798159085","insecure","calibrator_conc_feedback","Concrete","VC",1742931177510,"abstract",1546,"concrete","abstract","concrete;abstract","A",7.34342622914737,23
"104","666883e7cd549b6798159085","whistle","calibrator_conc_feedback","Concrete","VC",1742931181929,"concrete",1662,"concrete","abstract","concrete;abstract","A",7.41577697541539,24
"105","666883e7cd549b6798159085","theory","calibrator_conc_feedback","Concrete","VC",1742931185574,"abstract",885,"concrete","abstract","concrete;abstract","A",6.78558764500793,25
"106","666883e7cd549b6798159085","gas","calibrator_conc_feedback","Concrete","VC",1742931189484,"concrete",1151,"concrete","abstract","concrete;abstract","A",7.04838640872188,26
"107","666883e7cd549b6798159085","marriage","calibrator_conc_feedback","Concrete","VC",1742931193388,"abstract",1144,"concrete","abstract","concrete;abstract","A",7.04228617193974,27
"108","666883e7cd549b6798159085","shirt","calibrator_conc_feedback","Concrete","VC",1742931197252,"concrete",1106,"concrete","abstract","concrete;abstract","A",7.00850518208228,28
"109","666883e7cd549b6798159085","polite","calibrator_conc_feedback","Concrete","VC",1742931200750,"abstract",739,"concrete","abstract","concrete;abstract","A",6.6052979209482,29
"110","666883e7cd549b6798159085","grasshopper","calibrator_conc_feedback","Concrete","VC",1742931204442,"concrete",933,"concrete","abstract","concrete;abstract","A",6.83840520084734,30
"111","666883e7cd549b6798159085","kick","calibrator_conc_no_feedback","Concrete","VC",1742931208178,"concrete",979,"A","concrete;abstract","","",6.88653164253051,31
"112","666883e7cd549b6798159085","grasshopper","calibrator_conc_no_feedback","Concrete","VC",1742931210141,"concrete",1207,"A","concrete;abstract","","",7.09589322109753,32
"113","666883e7cd549b6798159085","marriage","calibrator_conc_no_feedback","Concrete","VC",1742931212610,"abstract",1711,"A","concrete;abstract","","",7.44483327389219,33
"114","666883e7cd549b6798159085","polite","calibrator_conc_no_feedback","Concrete","VC",1742931214296,"abstract",932,"A","concrete;abstract","","",6.83733281468559,34
"115","666883e7cd549b6798159085","gas","calibrator_conc_no_feedback","Concrete","VC",1742931216089,"concrete",1035,"A","concrete;abstract","","",6.94215670569947,35
"116","666883e7cd549b6798159085","whistle","calibrator_conc_no_feedback","Concrete","VC",1742931217555,"concrete",710,"A","concrete;abstract","","",6.56526497003536,36
"117","666883e7cd549b6798159085","insecure","calibrator_conc_no_feedback","Concrete","VC",1742931218997,"abstract",683,"A","concrete;abstract","","",6.52649485957079,37
"118","666883e7cd549b6798159085","sugar","calibrator_conc_no_feedback","Concrete","VC",1742931220403,"concrete",647,"A","concrete;abstract","","",6.4723462945009,38
"119","666883e7cd549b6798159085","shirt","calibrator_conc_no_feedback","Concrete","VC",1742931222257,"concrete",1094,"A","concrete;abstract","","",6.99759598298193,39
"120","666883e7cd549b6798159085","theory","calibrator_conc_no_feedback","Concrete","VC",1742931223679,"abstract",666,"A","concrete;abstract","","",6.50128967054039,40
"121","5d5618b69cd0f20015e1ab0d","joke","calibrator_val_feedback","Valence","VC",1742921601060,"negative",942,"negative","positive","negative;positive","B",6.84800527457636,1
"122","5d5618b69cd0f20015e1ab0d","grin","calibrator_val_feedback","Valence","VC",1742921604547,"positive",1231,"negative","positive","negative;positive","B",7.11558212618445,2
"123","5d5618b69cd0f20015e1ab0d","insecure","calibrator_val_feedback","Valence","VC",1742921606987,"negative",1079,"negative","positive","negative;positive","B",6.98378996525813,3
"124","5d5618b69cd0f20015e1ab0d","icebox","calibrator_val_feedback","Valence","VC",1742921610467,"positive",719,"negative","positive","negative;positive","B",6.57786135772105,4
"125","5d5618b69cd0f20015e1ab0d","jail","calibrator_val_feedback","Valence","VC",1742921613877,"negative",647,"negative","positive","negative;positive","B",6.4723462945009,5
"126","5d5618b69cd0f20015e1ab0d","free","calibrator_val_feedback","Valence","VC",1742921617276,"positive",635,"negative","positive","negative;positive","B",6.45362499889269,6
"127","5d5618b69cd0f20015e1ab0d","industry","calibrator_val_feedback","Valence","VC",1742921620639,"positive",602,"negative","positive","negative;positive","B",6.40025744530882,7
"128","5d5618b69cd0f20015e1ab0d","kitten","calibrator_val_feedback","Valence","VC",1742921623996,"positive",593,"negative","positive","negative;positive","B",6.38519439899773,8
"129","5d5618b69cd0f20015e1ab0d","invader","calibrator_val_feedback","Valence","VC",1742921627387,"negative",631,"negative","positive","negative;positive","B",6.44730586254121,9
"130","5d5618b69cd0f20015e1ab0d","hat","calibrator_val_feedback","Valence","VC",1742921630743,"positive",598,"negative","positive","negative;positive","B",6.39359075395063,10
"131","5d5618b69cd0f20015e1ab0d","kitten","calibrator_val_no_feedback","Valence","VC",1742921634028,"positive",517,"B","negative;positive","","",6.24804287450843,11
"132","5d5618b69cd0f20015e1ab0d","jail","calibrator_val_no_feedback","Valence","VC",1742921635373,"negative",587,"B","negative;positive","","",6.3750248198281,12
"133","5d5618b69cd0f20015e1ab0d","joke","calibrator_val_no_feedback","Valence","VC",1742921636874,"positive",741,"B","negative;positive","","",6.60800062529609,13
"134","5d5618b69cd0f20015e1ab0d","industry","calibrator_val_no_feedback","Valence","VC",1742921638267,"positive",631,"B","negative;positive","","",6.44730586254121,14
"135","5d5618b69cd0f20015e1ab0d","hat","calibrator_val_no_feedback","Valence","VC",1742921639609,"positive",586,"B","negative;positive","","",6.37331978957701,15
"136","5d5618b69cd0f20015e1ab0d","invader","calibrator_val_no_feedback","Valence","VC",1742921640906,"negative",536,"B","negative;positive","","",6.2841341610708,16
"137","5d5618b69cd0f20015e1ab0d","grin","calibrator_val_no_feedback","Valence","VC",1742921642215,"positive",548,"B","negative;positive","","",6.30627528694802,17
"138","5d5618b69cd0f20015e1ab0d","icebox","calibrator_val_no_feedback","Valence","VC",1742921643597,"positive",621,"B","negative;positive","","",6.43133108193348,18
"139","5d5618b69cd0f20015e1ab0d","insecure","calibrator_val_no_feedback","Valence","VC",1742921645064,"negative",707,"B","negative;positive","","",6.56103066589657,19
"140","5d5618b69cd0f20015e1ab0d","free","calibrator_val_no_feedback","Valence","VC",1742921646451,"positive",630,"B","negative;positive","","",6.44571981938558,20
"141","5d5618b69cd0f20015e1ab0d","whistle","calibrator_conc_feedback","Concrete","VC",1742921859891,"abstract",1547,"abstract","concrete","abstract;concrete","B",7.34407285057307,21
"142","5d5618b69cd0f20015e1ab0d","grasshopper","calibrator_conc_feedback","Concrete","VC",1742921863762,"concrete",1111,"abstract","concrete","abstract;concrete","B",7.01301578963963,22
"143","5d5618b69cd0f20015e1ab0d","theory","calibrator_conc_feedback","Concrete","VC",1742921867584,"abstract",1061,"abstract","concrete","abstract;concrete","B",6.96696713861398,23
"144","5d5618b69cd0f20015e1ab0d","kick","calibrator_conc_feedback","Concrete","VC",1742921871491,"concrete",1145,"abstract","concrete","abstract;concrete","B",7.04315991598834,24
"145","5d5618b69cd0f20015e1ab0d","gas","calibrator_conc_feedback","Concrete","VC",1742921875774,"concrete",1520,"abstract","concrete","abstract;concrete","B",7.32646561384032,25
"146","5d5618b69cd0f20015e1ab0d","sugar","calibrator_conc_feedback","Concrete","VC",1742921880920,"concrete",2384,"abstract","concrete","abstract;concrete","B",7.77653502818524,26
"147","5d5618b69cd0f20015e1ab0d","marriage","calibrator_conc_feedback","Concrete","VC",1742921886749,"concrete",3065,"abstract","concrete","abstract;concrete","B",8.02780284837031,27
"148","5d5618b69cd0f20015e1ab0d","polite","calibrator_conc_feedback","Concrete","VC",1742921890678,"abstract",1159,"abstract","concrete","abstract;concrete","B",7.05531284333975,28
"149","5d5618b69cd0f20015e1ab0d","insecure","calibrator_conc_feedback","Concrete","VC",1742921895248,"abstract",1809,"abstract","concrete","abstract;concrete","B",7.50052948539529,29
"150","5d5618b69cd0f20015e1ab0d","shirt","calibrator_conc_feedback","Concrete","VC",1742921899137,"concrete",1123,"abstract","concrete","abstract;concrete","B",7.02375895473844,30
"151","5d5618b69cd0f20015e1ab0d","polite","calibrator_conc_no_feedback","Concrete","VC",1742921903053,"abstract",1156,"B","abstract;concrete","","",7.05272104923232,31
"152","5d5618b69cd0f20015e1ab0d","theory","calibrator_conc_no_feedback","Concrete","VC",1742921904665,"abstract",848,"B","abstract;concrete","","",6.7428806357919,32
"153","5d5618b69cd0f20015e1ab0d","grasshopper","calibrator_conc_no_feedback","Concrete","VC",1742921906077,"concrete",650,"B","abstract;concrete","","",6.47697236288968,33
"154","5d5618b69cd0f20015e1ab0d","whistle","calibrator_conc_no_feedback","Concrete","VC",1742921908013,"abstract",1174,"B","abstract;concrete","","",7.06817200038804,34
"155","5d5618b69cd0f20015e1ab0d","shirt","calibrator_conc_no_feedback","Concrete","VC",1742921909547,"concrete",769,"B","abstract;concrete","","",6.64509096950564,35
"156","5d5618b69cd0f20015e1ab0d","kick","calibrator_conc_no_feedback","Concrete","VC",1742921911219,"concrete",910,"B","abstract;concrete","","",6.8134445995109,36
"157","5d5618b69cd0f20015e1ab0d","insecure","calibrator_conc_no_feedback","Concrete","VC",1742921912783,"abstract",796,"B","abstract;concrete","","",6.67959918584438,37
"158","5d5618b69cd0f20015e1ab0d","marriage","calibrator_conc_no_feedback","Concrete","VC",1742921914389,"concrete",846,"B","abstract;concrete","","",6.74051935960622,38
"159","5d5618b69cd0f20015e1ab0d","gas","calibrator_conc_no_feedback","Concrete","VC",1742921915872,"concrete",719,"B","abstract;concrete","","",6.57786135772105,39
"160","5d5618b69cd0f20015e1ab0d","sugar","calibrator_conc_no_feedback","Concrete","VC",1742921917332,"concrete",691,"B","abstract;concrete","","",6.53813982376767,40
"161","5ba802ee60f3d5000169e5da","grasshopper","calibrator_conc_feedback","Concrete","CV",1739201761605,"concrete",1093,"abstract","concrete","abstract;concrete","B",6.99668148817654,1
"162","5ba802ee60f3d5000169e5da","kick","calibrator_conc_feedback","Concrete","CV",1739201764924,"concrete",560,"abstract","concrete","abstract;concrete","B",6.32793678372919,2
"163","5ba802ee60f3d5000169e5da","theory","calibrator_conc_feedback","Concrete","CV",1739201768233,"abstract",545,"abstract","concrete","abstract;concrete","B",6.30078579466324,3
"164","5ba802ee60f3d5000169e5da","polite","calibrator_conc_feedback","Concrete","CV",1739201771569,"abstract",574,"abstract","concrete","abstract;concrete","B",6.35262939631957,4
"165","5ba802ee60f3d5000169e5da","whistle","calibrator_conc_feedback","Concrete","CV",1739201774960,"concrete",632,"abstract","concrete","abstract;concrete","B",6.44888939414686,5
"166","5ba802ee60f3d5000169e5da","marriage","calibrator_conc_feedback","Concrete","CV",1739201778412,"concrete",696,"abstract","concrete","abstract;concrete","B",6.54534966033442,6
"167","5ba802ee60f3d5000169e5da","sugar","calibrator_conc_feedback","Concrete","CV",1739201782499,"concrete",1331,"abstract","concrete","abstract;concrete","B",7.19368581839511,7
"168","5ba802ee60f3d5000169e5da","gas","calibrator_conc_feedback","Concrete","CV",1739201785859,"concrete",599,"abstract","concrete","abstract;concrete","B",6.39526159811545,8
"169","5ba802ee60f3d5000169e5da","shirt","calibrator_conc_feedback","Concrete","CV",1739201789552,"concrete",937,"abstract","concrete","abstract;concrete","B",6.84268328223842,9
"170","5ba802ee60f3d5000169e5da","insecure","calibrator_conc_feedback","Concrete","CV",1739201792898,"abstract",588,"abstract","concrete","abstract;concrete","B",6.37672694789863,10
"171","5ba802ee60f3d5000169e5da","theory","calibrator_conc_no_feedback","Concrete","CV",1739201796234,"abstract",576,"B","abstract;concrete","","",6.35610766069589,11
"172","5ba802ee60f3d5000169e5da","insecure","calibrator_conc_no_feedback","Concrete","CV",1739201797756,"abstract",764,"B","abstract;concrete","","",6.63856778916652,12
"173","5ba802ee60f3d5000169e5da","grasshopper","calibrator_conc_no_feedback","Concrete","CV",1739201799088,"concrete",576,"B","abstract;concrete","","",6.35610766069589,13
"174","5ba802ee60f3d5000169e5da","gas","calibrator_conc_no_feedback","Concrete","CV",1739201800384,"concrete",536,"B","abstract;concrete","","",6.2841341610708,14
"175","5ba802ee60f3d5000169e5da","sugar","calibrator_conc_no_feedback","Concrete","CV",1739201801666,"concrete",525,"B","abstract;concrete","","",6.26339826259162,15
"176","5ba802ee60f3d5000169e5da","whistle","calibrator_conc_no_feedback","Concrete","CV",1739201803057,"concrete",633,"B","abstract;concrete","","",6.45047042214418,16
"177","5ba802ee60f3d5000169e5da","shirt","calibrator_conc_no_feedback","Concrete","CV",1739201804396,"concrete",578,"B","abstract;concrete","","",6.35957386867238,17
"178","5ba802ee60f3d5000169e5da","polite","calibrator_conc_no_feedback","Concrete","CV",1739201805830,"abstract",676,"B","abstract;concrete","","",6.51619307604296,18
"179","5ba802ee60f3d5000169e5da","marriage","calibrator_conc_no_feedback","Concrete","CV",1739201807102,"abstract",514,"B","abstract;concrete","","",6.24222326545517,19
"180","5ba802ee60f3d5000169e5da","kick","calibrator_conc_no_feedback","Concrete","CV",1739201808447,"concrete",590,"B","abstract;concrete","","",6.38012253689976,20
"181","5ba802ee60f3d5000169e5da","hat","calibrator_val_feedback","Valence","CV",1739202022611,"positive",1524,"negative","positive","negative;positive","B",7.32909373624659,21
"182","5ba802ee60f3d5000169e5da","industry","calibrator_val_feedback","Valence","CV",1739202025656,"negative",1134,"negative","positive","negative;positive","B",7.0335064842877,22
"183","5ba802ee60f3d5000169e5da","insecure","calibrator_val_feedback","Valence","CV",1739202029248,"negative",834,"negative","positive","negative;positive","B",6.72623340235875,23
"184","5ba802ee60f3d5000169e5da","invader","calibrator_val_feedback","Valence","CV",1739202033071,"negative",822,"negative","positive","negative;positive","B",6.71174039505618,24
"185","5ba802ee60f3d5000169e5da","icebox","calibrator_val_feedback","Valence","CV",1739202036568,"positive",976,"negative","positive","negative;positive","B",6.88346258641309,25
"186","5ba802ee60f3d5000169e5da","grin","calibrator_val_feedback","Valence","CV",1739202040170,"positive",843,"negative","positive","negative;positive","B",6.73696695800186,26
"187","5ba802ee60f3d5000169e5da","jail","calibrator_val_feedback","Valence","CV",1739202043586,"negative",660,"negative","positive","negative;positive","B",6.49223983502047,27
"188","5ba802ee60f3d5000169e5da","joke","calibrator_val_feedback","Valence","CV",1739202047260,"positive",914,"negative","positive","negative;positive","B",6.81783057145415,28
"189","5ba802ee60f3d5000169e5da","kitten","calibrator_val_feedback","Valence","CV",1739202050604,"positive",587,"negative","positive","negative;positive","B",6.3750248198281,29
"190","5ba802ee60f3d5000169e5da","free","calibrator_val_feedback","Valence","CV",1739202053942,"positive",577,"negative","positive","negative;positive","B",6.3578422665081,30
"191","5ba802ee60f3d5000169e5da","grin","calibrator_val_no_feedback","Valence","CV",1739202057392,"positive",692,"B","negative;positive","","",6.53958595561767,31
"192","5ba802ee60f3d5000169e5da","insecure","calibrator_val_no_feedback","Valence","CV",1739202059027,"negative",879,"B","negative;positive","","",6.77878489768518,32
"193","5ba802ee60f3d5000169e5da","industry","calibrator_val_no_feedback","Valence","CV",1739202060479,"negative",699,"B","negative;positive","","",6.54965074223381,33
"194","5ba802ee60f3d5000169e5da","invader","calibrator_val_no_feedback","Valence","CV",1739202061832,"negative",599,"B","negative;positive","","",6.39526159811545,34
"195","5ba802ee60f3d5000169e5da","free","calibrator_val_no_feedback","Valence","CV",1739202063186,"positive",597,"B","negative;positive","","",6.3919171133926,35
"196","5ba802ee60f3d5000169e5da","joke","calibrator_val_no_feedback","Valence","CV",1739202064471,"positive",532,"B","negative;positive","","",6.27664348934164,36
"197","5ba802ee60f3d5000169e5da","kitten","calibrator_val_no_feedback","Valence","CV",1739202065688,"positive",462,"B","negative;positive","","",6.13556489108174,37
"198","5ba802ee60f3d5000169e5da","jail","calibrator_val_no_feedback","Valence","CV",1739202066953,"negative",506,"B","negative;positive","","",6.22653666928747,38
"199","5ba802ee60f3d5000169e5da","icebox","calibrator_val_no_feedback","Valence","CV",1739202068308,"positive",600,"B","negative;positive","","",6.39692965521615,39
"200","5ba802ee60f3d5000169e5da","hat","calibrator_val_no_feedback","Valence","CV",1739202069628,"positive",563,"B","negative;positive","","",6.33327962813969,40
"201","5f0b7f45bd7f5a0e21a8b561","polite","calibrator_conc_feedback","Concrete","CV",1739194321706,"abstract",1952,"concrete","abstract","concrete;abstract","A",7.57660976697304,1
"202","5f0b7f45bd7f5a0e21a8b561","theory","calibrator_conc_feedback","Concrete","CV",1739194327135,"abstract",2836,"concrete","abstract","concrete;abstract","A",7.95014988765202,2
"203","5f0b7f45bd7f5a0e21a8b561","shirt","calibrator_conc_feedback","Concrete","CV",1739194330547,"concrete",1158,"concrete","abstract","concrete;abstract","A",7.05444965813294,3
"204","5f0b7f45bd7f5a0e21a8b561","marriage","calibrator_conc_feedback","Concrete","CV",1739194334250,"concrete",1454,"concrete","abstract","concrete;abstract","A",7.28207365809346,4
"205","5f0b7f45bd7f5a0e21a8b561","insecure","calibrator_conc_feedback","Concrete","CV",1739194339265,"abstract",2618,"concrete","abstract","concrete;abstract","A",7.87016594646984,5
"206","5f0b7f45bd7f5a0e21a8b561","kick","calibrator_conc_feedback","Concrete","CV",1739194343787,"concrete",1553,"concrete","abstract","concrete;abstract","A",7.34794382314869,6
"207","5f0b7f45bd7f5a0e21a8b561","grasshopper","calibrator_conc_feedback","Concrete","CV",1739194347231,"concrete",972,"concrete","abstract","concrete;abstract","A",6.87935580446044,7
"208","5f0b7f45bd7f5a0e21a8b561","gas","calibrator_conc_feedback","Concrete","CV",1739194351320,"concrete",1289,"concrete","abstract","concrete;abstract","A",7.16162200293919,8
"209","5f0b7f45bd7f5a0e21a8b561","whistle","calibrator_conc_feedback","Concrete","CV",1739194355017,"concrete",1037,"concrete","abstract","concrete;abstract","A",6.94408720822953,9
"210","5f0b7f45bd7f5a0e21a8b561","sugar","calibrator_conc_feedback","Concrete","CV",1739194358500,"concrete",742,"concrete","abstract","concrete;abstract","A",6.60934924316738,10
"211","5f0b7f45bd7f5a0e21a8b561","gas","calibrator_conc_no_feedback","Concrete","CV",1739194361872,"concrete",870,"A","concrete;abstract","","",6.76849321164863,11
"212","5f0b7f45bd7f5a0e21a8b561","kick","calibrator_conc_no_feedback","Concrete","CV",1739194363580,"concrete",953,"A","concrete;abstract","","",6.8596149036542,12
"213","5f0b7f45bd7f5a0e21a8b561","grasshopper","calibrator_conc_no_feedback","Concrete","CV",1739194364891,"concrete",552,"A","concrete;abstract","","",6.31354804627709,13
"214","5f0b7f45bd7f5a0e21a8b561","marriage","calibrator_conc_no_feedback","Concrete","CV",1739194366180,"concrete",529,"A","concrete;abstract","","",6.2709884318583,14
"215","5f0b7f45bd7f5a0e21a8b561","polite","calibrator_conc_no_feedback","Concrete","CV",1739194367556,"abstract",619,"A","concrete;abstract","","",6.4281052726846,15
"216","5f0b7f45bd7f5a0e21a8b561","shirt","calibrator_conc_no_feedback","Concrete","CV",1739194368948,"concrete",635,"A","concrete;abstract","","",6.45362499889269,16
"217","5f0b7f45bd7f5a0e21a8b561","insecure","calibrator_conc_no_feedback","Concrete","CV",1739194371849,"concrete",2143,"A","concrete;abstract","","",7.66996199547358,17
"218","5f0b7f45bd7f5a0e21a8b561","whistle","calibrator_conc_no_feedback","Concrete","CV",1739194373338,"concrete",731,"A","concrete;abstract","","",6.59441345974978,18
"219","5f0b7f45bd7f5a0e21a8b561","sugar","calibrator_conc_no_feedback","Concrete","CV",1739194374605,"concrete",513,"A","concrete;abstract","","",6.24027584517077,19
"220","5f0b7f45bd7f5a0e21a8b561","theory","calibrator_conc_no_feedback","Concrete","CV",1739194376030,"abstract",669,"A","concrete;abstract","","",6.50578406012823,20
"221","5f0b7f45bd7f5a0e21a8b561","icebox","calibrator_val_feedback","Valence","CV",1739194612401,"positive",1058,"positive","negative","positive;negative","A",6.96413561241824,21
"222","5f0b7f45bd7f5a0e21a8b561","invader","calibrator_val_feedback","Valence","CV",1739194615487,"negative",843,"positive","negative","positive;negative","A",6.73696695800186,22
"223","5f0b7f45bd7f5a0e21a8b561","grin","calibrator_val_feedback","Valence","CV",1739194619446,"positive",1096,"positive","negative","positive;negative","A",6.99942246750796,23
"224","5f0b7f45bd7f5a0e21a8b561","joke","calibrator_val_feedback","Valence","CV",1739194622781,"positive",646,"positive","negative","positive;negative","A",6.4707995037826,24
"225","5f0b7f45bd7f5a0e21a8b561","hat","calibrator_val_feedback","Valence","CV",1739194626153,"positive",510,"positive","negative","positive;negative","A",6.23441072571837,25
"226","5f0b7f45bd7f5a0e21a8b561","insecure","calibrator_val_feedback","Valence","CV",1739194629363,"negative",541,"positive","negative","positive;negative","A",6.29341927884648,26
"227","5f0b7f45bd7f5a0e21a8b561","jail","calibrator_val_feedback","Valence","CV",1739194632650,"negative",565,"positive","negative","positive;negative","A",6.33682573114644,27
"228","5f0b7f45bd7f5a0e21a8b561","kitten","calibrator_val_feedback","Valence","CV",1739194635908,"positive",505,"positive","negative","positive;negative","A",6.22455842927536,28
"229","5f0b7f45bd7f5a0e21a8b561","industry","calibrator_val_feedback","Valence","CV",1739194639445,"positive",785,"positive","negative","positive;negative","A",6.66568371778241,29
"230","5f0b7f45bd7f5a0e21a8b561","free","calibrator_val_feedback","Valence","CV",1739194642721,"positive",522,"positive","negative","positive;negative","A",6.25766758788264,30
"231","5f0b7f45bd7f5a0e21a8b561","jail","calibrator_val_no_feedback","Valence","CV",1739194645905,"negative",661,"A","positive;negative","","",6.49375383985169,31
"232","5f0b7f45bd7f5a0e21a8b561","insecure","calibrator_val_no_feedback","Valence","CV",1739194647361,"negative",701,"A","positive;negative","","",6.55250788703459,32
"233","5f0b7f45bd7f5a0e21a8b561","grin","calibrator_val_no_feedback","Valence","CV",1739194648706,"positive",588,"A","positive;negative","","",6.37672694789863,33
"234","5f0b7f45bd7f5a0e21a8b561","industry","calibrator_val_no_feedback","Valence","CV",1739194650049,"positive",589,"A","positive;negative","","",6.37842618365159,34
"235","5f0b7f45bd7f5a0e21a8b561","joke","calibrator_val_no_feedback","Valence","CV",1739194651389,"positive",583,"A","positive;negative","","",6.36818718635049,35
"236","5f0b7f45bd7f5a0e21a8b561","free","calibrator_val_no_feedback","Valence","CV",1739194652624,"positive",476,"A","positive;negative","","",6.16541785423142,36
"237","5f0b7f45bd7f5a0e21a8b561","kitten","calibrator_val_no_feedback","Valence","CV",1739194653914,"positive",531,"A","positive;negative","","",6.27476202124194,37
"238","5f0b7f45bd7f5a0e21a8b561","invader","calibrator_val_no_feedback","Valence","CV",1739194655118,"negative",447,"A","positive;negative","","",6.10255859461357,38
"239","5f0b7f45bd7f5a0e21a8b561","icebox","calibrator_val_no_feedback","Valence","CV",1739194656587,"positive",717,"A","positive;negative","","",6.57507584059962,39
"240","5f0b7f45bd7f5a0e21a8b561","hat","calibrator_val_no_feedback","Valence","CV",1739194657902,"positive",557,"A","positive;negative","","",6.32256523992728,40
"241","65c2510fa94c23aa2cc4de8b","industry","calibrator_val_feedback","Valence","VC",1739213472869,"positive",1403,"negative","positive","negative;positive","B",7.24636808010246,1
"242","65c2510fa94c23aa2cc4de8b","grin","calibrator_val_feedback","Valence","VC",1739213476964,"positive",1337,"negative","positive","negative;positive","B",7.19818357710194,2
"243","65c2510fa94c23aa2cc4de8b","insecure","calibrator_val_feedback","Valence","VC",1739213482837,"negative",3111,"negative","positive","negative;positive","B",8.04269949689764,3
"244","65c2510fa94c23aa2cc4de8b","kitten","calibrator_val_feedback","Valence","VC",1739213486580,"positive",983,"negative","positive","negative;positive","B",6.89060912014717,4
"245","65c2510fa94c23aa2cc4de8b","free","calibrator_val_feedback","Valence","VC",1739213490316,"positive",973,"negative","positive","negative;positive","B",6.880384082186,5
"246","65c2510fa94c23aa2cc4de8b","joke","calibrator_val_feedback","Valence","VC",1739213495332,"positive",2257,"negative","positive","negative;positive","B",7.72179177681754,6
"247","65c2510fa94c23aa2cc4de8b","icebox","calibrator_val_feedback","Valence","VC",1739213499139,"positive",1043,"negative","positive","negative;positive","B",6.94985645500077,7
"248","65c2510fa94c23aa2cc4de8b","jail","calibrator_val_feedback","Valence","VC",1739213502804,"negative",902,"negative","positive","negative;positive","B",6.80461452006262,8
"249","65c2510fa94c23aa2cc4de8b","invader","calibrator_val_feedback","Valence","VC",1739213507228,"negative",1658,"negative","positive","negative;positive","B",7.41336733569524,9
"250","65c2510fa94c23aa2cc4de8b","hat","calibrator_val_feedback","Valence","VC",1739213510828,"positive",841,"negative","positive","negative;positive","B",6.73459165997295,10
"251","65c2510fa94c23aa2cc4de8b","icebox","calibrator_val_no_feedback","Valence","VC",1739213514548,"positive",955,"B","negative;positive","","",6.86171134048073,11
"252","65c2510fa94c23aa2cc4de8b","industry","calibrator_val_no_feedback","Valence","VC",1739213516380,"positive",1073,"B","negative;positive","","",6.9782137426307,12
"253","65c2510fa94c23aa2cc4de8b","insecure","calibrator_val_no_feedback","Valence","VC",1739213518116,"negative",979,"B","negative;positive","","",6.88653164253051,13
"254","65c2510fa94c23aa2cc4de8b","hat","calibrator_val_no_feedback","Valence","VC",1739213519628,"positive",750,"B","negative;positive","","",6.62007320653036,14
"255","65c2510fa94c23aa2cc4de8b","free","calibrator_val_no_feedback","Valence","VC",1739213521196,"positive",807,"B","negative;positive","","",6.69332366826995,15
"256","65c2510fa94c23aa2cc4de8b","jail","calibrator_val_no_feedback","Valence","VC",1739213522708,"negative",755,"B","negative;positive","","",6.62671774924902,16
"257","65c2510fa94c23aa2cc4de8b","joke","calibrator_val_no_feedback","Valence","VC",1739213524405,"positive",938,"B","negative;positive","","",6.84374994900622,17
"258","65c2510fa94c23aa2cc4de8b","kitten","calibrator_val_no_feedback","Valence","VC",1739213525916,"positive",756,"B","negative;positive","","",6.62804137617953,18
"259","65c2510fa94c23aa2cc4de8b","invader","calibrator_val_no_feedback","Valence","VC",1739213527364,"negative",688,"B","negative;positive","","",6.53378883793334,19
"260","65c2510fa94c23aa2cc4de8b","grin","calibrator_val_no_feedback","Valence","VC",1739213529028,"positive",905,"B","negative;positive","","",6.80793494369993,20
"261","65c2510fa94c23aa2cc4de8b","gas","calibrator_conc_feedback","Concrete","VC",1739213765820,"concrete",1771,"abstract","concrete","abstract;concrete","B",7.47929963778283,21
"262","65c2510fa94c23aa2cc4de8b","shirt","calibrator_conc_feedback","Concrete","VC",1739213769325,"concrete",745,"abstract","concrete","abstract;concrete","B",6.61338421837956,22
"263","65c2510fa94c23aa2cc4de8b","kick","calibrator_conc_feedback","Concrete","VC",1739213772820,"concrete",732,"abstract","concrete","abstract;concrete","B",6.59578051396131,23
"264","65c2510fa94c23aa2cc4de8b","sugar","calibrator_conc_feedback","Concrete","VC",1739213776268,"concrete",686,"abstract","concrete","abstract;concrete","B",6.53087762772588,24
"265","65c2510fa94c23aa2cc4de8b","marriage","calibrator_conc_feedback","Concrete","VC",1739213780956,"abstract",1926,"abstract","concrete","abstract;concrete","B",7.56320059235807,25
"266","65c2510fa94c23aa2cc4de8b","insecure","calibrator_conc_feedback","Concrete","VC",1739213784860,"abstract",1141,"abstract","concrete","abstract;concrete","B",7.03966034986208,26
"267","65c2510fa94c23aa2cc4de8b","theory","calibrator_conc_feedback","Concrete","VC",1739213788516,"abstract",896,"abstract","concrete","abstract;concrete","B",6.79794041297493,27
"268","65c2510fa94c23aa2cc4de8b","grasshopper","calibrator_conc_feedback","Concrete","VC",1739213792084,"concrete",811,"abstract","concrete","abstract;concrete","B",6.69826805411541,28
"269","65c2510fa94c23aa2cc4de8b","whistle","calibrator_conc_feedback","Concrete","VC",1739213795557,"concrete",706,"abstract","concrete","abstract;concrete","B",6.55961523749324,29
"270","65c2510fa94c23aa2cc4de8b","polite","calibrator_conc_feedback","Concrete","VC",1739213799180,"abstract",859,"abstract","concrete","abstract;concrete","B",6.75576892198425,30
"271","65c2510fa94c23aa2cc4de8b","sugar","calibrator_conc_no_feedback","Concrete","VC",1739213802484,"concrete",544,"B","abstract;concrete","","",6.29894924685594,31
"272","65c2510fa94c23aa2cc4de8b","insecure","calibrator_conc_no_feedback","Concrete","VC",1739213803876,"abstract",631,"B","abstract;concrete","","",6.44730586254121,32
"273","65c2510fa94c23aa2cc4de8b","grasshopper","calibrator_conc_no_feedback","Concrete","VC",1739213805357,"concrete",724,"B","abstract;concrete","","",6.58479139238572,33
"274","65c2510fa94c23aa2cc4de8b","marriage","calibrator_conc_no_feedback","Concrete","VC",1739213807060,"abstract",945,"B","abstract;concrete","","",6.85118492749374,34
"275","65c2510fa94c23aa2cc4de8b","shirt","calibrator_conc_no_feedback","Concrete","VC",1739213808460,"concrete",638,"B","abstract;concrete","","",6.45833828334479,35
"276","65c2510fa94c23aa2cc4de8b","whistle","calibrator_conc_no_feedback","Concrete","VC",1739213809781,"concrete",563,"B","abstract;concrete","","",6.33327962813969,36
"277","65c2510fa94c23aa2cc4de8b","theory","calibrator_conc_no_feedback","Concrete","VC",1739213811212,"abstract",673,"B","abstract;concrete","","",6.51174532964473,37
"278","65c2510fa94c23aa2cc4de8b","kick","calibrator_conc_no_feedback","Concrete","VC",1739213812612,"concrete",641,"B","abstract;concrete","","",6.46302945692067,38
"279","65c2510fa94c23aa2cc4de8b","polite","calibrator_conc_no_feedback","Concrete","VC",1739213814100,"abstract",729,"B","abstract;concrete","","",6.59167373200866,39
"280","65c2510fa94c23aa2cc4de8b","gas","calibrator_conc_no_feedback","Concrete","VC",1739213815524,"concrete",665,"B","abstract;concrete","","",6.49978704065585,40
"281","5f692cb4ed7a291143a9c66b","insecure","calibrator_conc_feedback","Concrete","CV",1742938584263,"abstract",1626,"abstract","concrete","abstract;concrete","B",7.39387829010776,1
"282","5f692cb4ed7a291143a9c66b","marriage","calibrator_conc_feedback","Concrete","CV",1742938588475,"abstract",1435,"abstract","concrete","abstract;concrete","B",7.26892012819372,2
"283","5f692cb4ed7a291143a9c66b","whistle","calibrator_conc_feedback","Concrete","CV",1742938592616,"abstract",1371,"abstract","concrete","abstract;concrete","B",7.22329567956231,3
"284","5f692cb4ed7a291143a9c66b","kick","calibrator_conc_feedback","Concrete","CV",1742938597137,"concrete",1744,"abstract","concrete","abstract;concrete","B",7.46393660446893,4
"285","5f692cb4ed7a291143a9c66b","sugar","calibrator_conc_feedback","Concrete","CV",1742938600763,"concrete",856,"abstract","concrete","abstract;concrete","B",6.75227037614174,5
"286","5f692cb4ed7a291143a9c66b","theory","calibrator_conc_feedback","Concrete","CV",1742938604623,"abstract",1095,"abstract","concrete","abstract;concrete","B",6.9985096422506,6
"287","5f692cb4ed7a291143a9c66b","shirt","calibrator_conc_feedback","Concrete","CV",1742938608230,"concrete",840,"abstract","concrete","abstract;concrete","B",6.73340189183736,7
"288","5f692cb4ed7a291143a9c66b","gas","calibrator_conc_feedback","Concrete","CV",1742938612303,"concrete",1295,"abstract","concrete","abstract;concrete","B",7.16626597413364,8
"289","5f692cb4ed7a291143a9c66b","grasshopper","calibrator_conc_feedback","Concrete","CV",1742938616184,"concrete",1112,"abstract","concrete","abstract;concrete","B",7.01391547481053,9
"290","5f692cb4ed7a291143a9c66b","polite","calibrator_conc_feedback","Concrete","CV",1742938620288,"abstract",1334,"abstract","concrete","abstract;concrete","B",7.19593722647557,10
"291","5f692cb4ed7a291143a9c66b","marriage","calibrator_conc_no_feedback","Concrete","CV",1742938624768,"concrete",1707,"B","abstract;concrete","","",7.44249272279444,11
"292","5f692cb4ed7a291143a9c66b","shirt","calibrator_conc_no_feedback","Concrete","CV",1742938626339,"concrete",803,"B","abstract;concrete","","",6.68835471394676,12
"293","5f692cb4ed7a291143a9c66b","kick","calibrator_conc_no_feedback","Concrete","CV",1742938628225,"concrete",1118,"B","abstract;concrete","","",7.01929665371504,13
"294","5f692cb4ed7a291143a9c66b","whistle","calibrator_conc_no_feedback","Concrete","CV",1742938629919,"concrete",929,"B","abstract;concrete","","",6.83410873881384,14
"295","5f692cb4ed7a291143a9c66b","insecure","calibrator_conc_no_feedback","Concrete","CV",1742938631515,"abstract",833,"B","abstract;concrete","","",6.72503364216684,15
"296","5f692cb4ed7a291143a9c66b","polite","calibrator_conc_no_feedback","Concrete","CV",1742938633017,"abstract",733,"B","abstract;concrete","","",6.59714570188665,16
"297","5f692cb4ed7a291143a9c66b","gas","calibrator_conc_no_feedback","Concrete","CV",1742938634958,"concrete",1178,"B","abstract;concrete","","",7.07157336421153,17
"298","5f692cb4ed7a291143a9c66b","grasshopper","calibrator_conc_no_feedback","Concrete","CV",1742938637117,"concrete",1388,"B","abstract;concrete","","",7.23561914106675,18
"299","5f692cb4ed7a291143a9c66b","theory","calibrator_conc_no_feedback","Concrete","CV",1742938638555,"abstract",675,"B","abstract;concrete","","",6.51471269087253,19
"300","5f692cb4ed7a291143a9c66b","sugar","calibrator_conc_no_feedback","Concrete","CV",1742938640040,"concrete",713,"B","abstract;concrete","","",6.5694814204143,20
"301","5f692cb4ed7a291143a9c66b","hat","calibrator_val_feedback","Valence","CV",1742938885289,"positive",2565,"negative","positive","negative;positive","B",7.84971375760487,21
"302","5f692cb4ed7a291143a9c66b","jail","calibrator_val_feedback","Valence","CV",1742938887975,"negative",1267,"negative","positive","negative;positive","B",7.14440718032114,22
"303","5f692cb4ed7a291143a9c66b","free","calibrator_val_feedback","Valence","CV",1742938892487,"positive",1750,"negative","positive","negative;positive","B",7.46737106691756,23
"304","5f692cb4ed7a291143a9c66b","industry","calibrator_val_feedback","Valence","CV",1742938896594,"positive",1330,"negative","positive","negative;positive","B",7.1929342212158,24
"305","5f692cb4ed7a291143a9c66b","icebox","calibrator_val_feedback","Valence","CV",1742938900957,"positive",1594,"negative","positive","negative;positive","B",7.37400185935016,25
"306","5f692cb4ed7a291143a9c66b","insecure","calibrator_val_feedback","Valence","CV",1742938905176,"negative",1441,"negative","positive","negative;positive","B",7.27309259599952,26
"307","5f692cb4ed7a291143a9c66b","joke","calibrator_val_feedback","Valence","CV",1742938909376,"positive",1425,"negative","positive","negative;positive","B",7.26192709270275,27
"308","5f692cb4ed7a291143a9c66b","grin","calibrator_val_feedback","Valence","CV",1742938913220,"positive",1075,"negative","positive","negative;positive","B",6.98007594056176,28
"309","5f692cb4ed7a291143a9c66b","invader","calibrator_val_feedback","Valence","CV",1742938917131,"negative",1134,"negative","positive","negative;positive","B",7.0335064842877,29
"310","5f692cb4ed7a291143a9c66b","kitten","calibrator_val_feedback","Valence","CV",1742938921427,"positive",1517,"negative","positive","negative;positive","B",7.32448997934853,30
"311","5f692cb4ed7a291143a9c66b","invader","calibrator_val_no_feedback","Valence","CV",1742938925207,"negative",1012,"B","negative;positive","","",6.91968384984741,31
"312","5f692cb4ed7a291143a9c66b","joke","calibrator_val_no_feedback","Valence","CV",1742938927125,"positive",1151,"B","negative;positive","","",7.04838640872188,32
"313","5f692cb4ed7a291143a9c66b","hat","calibrator_val_no_feedback","Valence","CV",1742938929141,"positive",1253,"B","negative;positive","","",7.13329595489607,33
"314","5f692cb4ed7a291143a9c66b","jail","calibrator_val_no_feedback","Valence","CV",1742938930975,"negative",1068,"B","negative;positive","","",6.97354301952014,34
"315","5f692cb4ed7a291143a9c66b","kitten","calibrator_val_no_feedback","Valence","CV",1742938932509,"positive",771,"B","negative;positive","","",6.64768837356333,35
"316","5f692cb4ed7a291143a9c66b","icebox","calibrator_val_no_feedback","Valence","CV",1742938934241,"positive",964,"B","negative;positive","","",6.87109129461055,36
"317","5f692cb4ed7a291143a9c66b","insecure","calibrator_val_no_feedback","Valence","CV",1742938935921,"negative",917,"B","negative;positive","","",6.82110747225646,37
"318","5f692cb4ed7a291143a9c66b","grin","calibrator_val_no_feedback","Valence","CV",1742938938161,"positive",1474,"B","negative;positive","","",7.29573507274928,38
"319","5f692cb4ed7a291143a9c66b","free","calibrator_val_no_feedback","Valence","CV",1742938940127,"positive",1201,"B","negative;positive","","",7.09090982207998,39
"320","5f692cb4ed7a291143a9c66b","industry","calibrator_val_no_feedback","Valence","CV",1742938941747,"positive",853,"B","negative;positive","","",6.74875954749168,40
"321","6440ff579347d8f75783b52d","grasshopper","calibrator_conc_feedback","Concrete","CV",1742936174154,"concrete",1794,"concrete","abstract","concrete;abstract","A",7.49220304261874,1
"322","6440ff579347d8f75783b52d","kick","calibrator_conc_feedback","Concrete","CV",1742936178128,"concrete",1220,"concrete","abstract","concrete;abstract","A",7.1066061377273,2
"323","6440ff579347d8f75783b52d","marriage","calibrator_conc_feedback","Concrete","CV",1742936182412,"abstract",1527,"concrete","abstract","concrete;abstract","A",7.33106030521863,3
"324","6440ff579347d8f75783b52d","sugar","calibrator_conc_feedback","Concrete","CV",1742936186341,"concrete",1173,"concrete","abstract","concrete;abstract","A",7.06731984865348,4
"325","6440ff579347d8f75783b52d","insecure","calibrator_conc_feedback","Concrete","CV",1742936190342,"abstract",1245,"concrete","abstract","concrete;abstract","A",7.12689080889881,5
"326","6440ff579347d8f75783b52d","whistle","calibrator_conc_feedback","Concrete","CV",1742936194254,"concrete",1157,"concrete","abstract","concrete;abstract","A",7.05358572719368,6
"327","6440ff579347d8f75783b52d","gas","calibrator_conc_feedback","Concrete","CV",1742936198106,"concrete",1089,"concrete","abstract","concrete;abstract","A",6.99301512293296,7
"328","6440ff579347d8f75783b52d","theory","calibrator_conc_feedback","Concrete","CV",1742936201837,"abstract",967,"concrete","abstract","concrete;abstract","A",6.87419849545329,8
"329","6440ff579347d8f75783b52d","shirt","calibrator_conc_feedback","Concrete","CV",1742936205302,"concrete",709,"concrete","abstract","concrete;abstract","A",6.56385552653213,9
"330","6440ff579347d8f75783b52d","polite","calibrator_conc_feedback","Concrete","CV",1742936208993,"abstract",936,"concrete","abstract","concrete;abstract","A",6.84161547647759,10
"331","6440ff579347d8f75783b52d","kick","calibrator_conc_no_feedback","Concrete","CV",1742936212687,"concrete",939,"A","concrete;abstract","","",6.84481547920826,11
"332","6440ff579347d8f75783b52d","marriage","calibrator_conc_no_feedback","Concrete","CV",1742936214989,"abstract",1545,"A","concrete;abstract","","",7.34277918933185,12
"333","6440ff579347d8f75783b52d","grasshopper","calibrator_conc_no_feedback","Concrete","CV",1742936216637,"concrete",891,"A","concrete;abstract","","",6.79234442747081,13
"334","6440ff579347d8f75783b52d","theory","calibrator_conc_no_feedback","Concrete","CV",1742936218143,"abstract",754,"A","concrete;abstract","","",6.62539236800796,14
"335","6440ff579347d8f75783b52d","whistle","calibrator_conc_no_feedback","Concrete","CV",1742936219709,"concrete",808,"A","concrete;abstract","","",6.69456205852109,15
"336","6440ff579347d8f75783b52d","shirt","calibrator_conc_no_feedback","Concrete","CV",1742936221123,"concrete",656,"A","concrete;abstract","","",6.48616078894409,16
"337","6440ff579347d8f75783b52d","insecure","calibrator_conc_no_feedback","Concrete","CV",1742936222693,"abstract",813,"A","concrete;abstract","","",6.70073110954781,17
"338","6440ff579347d8f75783b52d","gas","calibrator_conc_no_feedback","Concrete","CV",1742936224261,"concrete",812,"A","concrete;abstract","","",6.69950034016168,18
"339","6440ff579347d8f75783b52d","polite","calibrator_conc_no_feedback","Concrete","CV",1742936225849,"abstract",833,"A","concrete;abstract","","",6.72503364216684,19
"340","6440ff579347d8f75783b52d","sugar","calibrator_conc_no_feedback","Concrete","CV",1742936227277,"concrete",673,"A","concrete;abstract","","",6.51174532964473,20
"341","6440ff579347d8f75783b52d","joke","calibrator_val_feedback","Valence","CV",1742936500641,"positive",2098,"positive","negative","positive;negative","A",7.64873978895624,21
"342","6440ff579347d8f75783b52d","invader","calibrator_val_feedback","Valence","CV",1742936504476,"negative",1076,"positive","negative","positive;negative","A",6.98100574072173,22
"343","6440ff579347d8f75783b52d","grin","calibrator_val_feedback","Valence","CV",1742936508063,"positive",829,"positive","negative","positive;negative","A",6.7202201551353,23
"344","6440ff579347d8f75783b52d","free","calibrator_val_feedback","Valence","CV",1742936511480,"positive",660,"positive","negative","positive;negative","A",6.49223983502047,24
"345","6440ff579347d8f75783b52d","industry","calibrator_val_feedback","Valence","CV",1742936515581,"positive",1348,"positive","negative","positive;negative","A",7.20637729147225,25
"346","6440ff579347d8f75783b52d","insecure","calibrator_val_feedback","Valence","CV",1742936519173,"negative",835,"positive","negative","positive;negative","A",6.72743172485086,26
"347","6440ff579347d8f75783b52d","hat","calibrator_val_feedback","Valence","CV",1742936522684,"positive",752,"positive","negative","positive;negative","A",6.62273632394984,27
"348","6440ff579347d8f75783b52d","kitten","calibrator_val_feedback","Valence","CV",1742936526189,"positive",746,"positive","negative","positive;negative","A",6.61472560020376,28
"349","6440ff579347d8f75783b52d","icebox","calibrator_val_feedback","Valence","CV",1742936529961,"positive",1014,"positive","negative","positive;negative","A",6.92165818415113,29
"350","6440ff579347d8f75783b52d","jail","calibrator_val_feedback","Valence","CV",1742936533684,"negative",965,"positive","negative","positive;negative","A",6.87212810133899,30
"351","6440ff579347d8f75783b52d","invader","calibrator_val_no_feedback","Valence","CV",1742936537223,"negative",784,"A","positive;negative","","",6.66440902035041,31
"352","6440ff579347d8f75783b52d","joke","calibrator_val_no_feedback","Valence","CV",1742936538918,"positive",937,"A","positive;negative","","",6.84268328223842,32
"353","6440ff579347d8f75783b52d","jail","calibrator_val_no_feedback","Valence","CV",1742936540652,"negative",979,"A","positive;negative","","",6.88653164253051,33
"354","6440ff579347d8f75783b52d","grin","calibrator_val_no_feedback","Valence","CV",1742936542087,"positive",677,"A","positive;negative","","",6.51767127291227,34
"355","6440ff579347d8f75783b52d","hat","calibrator_val_no_feedback","Valence","CV",1742936543806,"positive",966,"A","positive;negative","","",6.87316383421252,35
"356","6440ff579347d8f75783b52d","icebox","calibrator_val_no_feedback","Valence","CV",1742936545247,"positive",686,"A","positive;negative","","",6.53087762772588,36
"357","6440ff579347d8f75783b52d","free","calibrator_val_no_feedback","Valence","CV",1742936546676,"positive",675,"A","positive;negative","","",6.51471269087253,37
"358","6440ff579347d8f75783b52d","industry","calibrator_val_no_feedback","Valence","CV",1742936548200,"positive",768,"A","positive;negative","","",6.64378973314767,38
"359","6440ff579347d8f75783b52d","insecure","calibrator_val_no_feedback","Valence","CV",1742936549781,"negative",828,"A","positive;negative","","",6.71901315438526,39
"360","6440ff579347d8f75783b52d","kitten","calibrator_val_no_feedback","Valence","CV",1742936551143,"positive",607,"A","positive;negative","","",6.4085287910595,40
"361","5bf44e609a50810001a69f89","industry","calibrator_val_feedback","Valence","VC",1739216147199,"negative",1919,"negative","positive","negative;positive","B",7.5595594960077,1
"362","5bf44e609a50810001a69f89","icebox","calibrator_val_feedback","Valence","VC",1739216151920,"negative",1939,"negative","positive","negative;positive","B",7.56992765524265,2
"363","5bf44e609a50810001a69f89","free","calibrator_val_feedback","Valence","VC",1739216156736,"positive",2023,"negative","positive","negative;positive","B",7.61233683716775,3
"364","5bf44e609a50810001a69f89","jail","calibrator_val_feedback","Valence","VC",1739216161976,"negative",2467,"negative","positive","negative;positive","B",7.81075811652936,4
"365","5bf44e609a50810001a69f89","kitten","calibrator_val_feedback","Valence","VC",1739216165760,"positive",992,"negative","positive","negative;positive","B",6.89972310728487,5
"366","5bf44e609a50810001a69f89","insecure","calibrator_val_feedback","Valence","VC",1739216169600,"negative",1048,"negative","positive","negative;positive","B",6.95463886488099,6
"367","5bf44e609a50810001a69f89","invader","calibrator_val_feedback","Valence","VC",1739216175098,"negative",1291,"negative","positive","negative;positive","B",7.16317239084664,7
"368","5bf44e609a50810001a69f89","grin","calibrator_val_feedback","Valence","VC",1739216177112,"positive",667,"negative","positive","negative;positive","B",6.50279004591562,8
"369","5bf44e609a50810001a69f89","joke","calibrator_val_feedback","Valence","VC",1739216180903,"positive",993,"negative","positive","negative;positive","B",6.90073066404517,9
"370","5bf44e609a50810001a69f89","hat","calibrator_val_feedback","Valence","VC",1739216184808,"positive",1121,"negative","positive","negative;positive","B",7.02197642307216,10
"371","5bf44e609a50810001a69f89","joke","calibrator_val_no_feedback","Valence","VC",1739216188600,"positive",1001,"B","negative;positive","","",6.90875477931522,11
"372","5bf44e609a50810001a69f89","kitten","calibrator_val_no_feedback","Valence","VC",1739216190128,"positive",765,"B","negative;positive","","",6.63987583382654,12
"373","5bf44e609a50810001a69f89","hat","calibrator_val_no_feedback","Valence","VC",1739216192776,"positive",1880,"B","negative;positive","","",7.539027055824,13
"374","5bf44e609a50810001a69f89","free","calibrator_val_no_feedback","Valence","VC",1739216194112,"positive",577,"B","negative;positive","","",6.3578422665081,14
"375","5bf44e609a50810001a69f89","icebox","calibrator_val_no_feedback","Valence","VC",1739216195472,"negative",583,"B","negative;positive","","",6.36818718635049,15
"376","5bf44e609a50810001a69f89","invader","calibrator_val_no_feedback","Valence","VC",1739216196897,"negative",670,"B","negative;positive","","",6.50727771238501,16
"377","5bf44e609a50810001a69f89","industry","calibrator_val_no_feedback","Valence","VC",1739216198376,"negative",716,"B","negative;positive","","",6.57368016696065,17
"378","5bf44e609a50810001a69f89","grin","calibrator_val_no_feedback","Valence","VC",1739216199744,"positive",596,"B","negative;positive","","",6.39024066706535,18
"379","5bf44e609a50810001a69f89","insecure","calibrator_val_no_feedback","Valence","VC",1739216201152,"positive",636,"B","negative;positive","","",6.45519856334012,19
"380","5bf44e609a50810001a69f89","jail","calibrator_val_no_feedback","Valence","VC",1739216202607,"negative",687,"B","negative;positive","","",6.53233429222235,20
"381","5bf44e609a50810001a69f89","insecure","calibrator_conc_feedback","Concrete","VC",1739216451487,"abstract",1692,"abstract","concrete","abstract;concrete","B",7.43366654016617,21
"382","5bf44e609a50810001a69f89","whistle","calibrator_conc_feedback","Concrete","VC",1739216455303,"concrete",1023,"abstract","concrete","abstract;concrete","B",6.93049476595163,22
"383","5bf44e609a50810001a69f89","theory","calibrator_conc_feedback","Concrete","VC",1739216459367,"abstract",1290,"abstract","concrete","abstract;concrete","B",7.16239749735572,23
"384","5bf44e609a50810001a69f89","shirt","calibrator_conc_feedback","Concrete","VC",1739216462935,"concrete",775,"abstract","concrete","abstract;concrete","B",6.65286302935335,24
"385","5bf44e609a50810001a69f89","sugar","calibrator_conc_feedback","Concrete","VC",1739216466319,"concrete",599,"abstract","concrete","abstract;concrete","B",6.39526159811545,25
"386","5bf44e609a50810001a69f89","polite","calibrator_conc_feedback","Concrete","VC",1739216469992,"abstract",886,"abstract","concrete","abstract;concrete","B",6.78671695060508,26
"387","5bf44e609a50810001a69f89","grasshopper","calibrator_conc_feedback","Concrete","VC",1739216473567,"concrete",790,"abstract","concrete","abstract;concrete","B",6.67203294546107,27
"388","5bf44e609a50810001a69f89","gas","calibrator_conc_feedback","Concrete","VC",1739216476984,"concrete",644,"abstract","concrete","abstract;concrete","B",6.46769872610435,28
"389","5bf44e609a50810001a69f89","kick","calibrator_conc_feedback","Concrete","VC",1739216480344,"concrete",588,"abstract","concrete","abstract;concrete","B",6.37672694789863,29
"390","5bf44e609a50810001a69f89","marriage","calibrator_conc_feedback","Concrete","VC",1739216484344,"concrete",1223,"abstract","concrete","abstract;concrete","B",7.10906213568717,30
"391","5bf44e609a50810001a69f89","marriage","calibrator_conc_no_feedback","Concrete","VC",1739216487863,"abstract",732,"B","abstract;concrete","","",6.59578051396131,31
"392","5bf44e609a50810001a69f89","whistle","calibrator_conc_no_feedback","Concrete","VC",1739216489679,"concrete",1042,"B","abstract;concrete","","",6.94889722231331,32
"393","5bf44e609a50810001a69f89","kick","calibrator_conc_no_feedback","Concrete","VC",1739216491015,"concrete",567,"B","abstract;concrete","","",6.34035930372775,33
"394","5bf44e609a50810001a69f89","insecure","calibrator_conc_no_feedback","Concrete","VC",1739216492767,"abstract",990,"B","abstract;concrete","","",6.89770494312864,34
"395","5bf44e609a50810001a69f89","theory","calibrator_conc_no_feedback","Concrete","VC",1739216494104,"abstract",566,"B","abstract;concrete","","",6.33859407820318,35
"396","5bf44e609a50810001a69f89","grasshopper","calibrator_conc_no_feedback","Concrete","VC",1739216495479,"concrete",599,"B","abstract;concrete","","",6.39526159811545,36
"397","5bf44e609a50810001a69f89","gas","calibrator_conc_no_feedback","Concrete","VC",1739216496832,"concrete",578,"B","abstract;concrete","","",6.35957386867238,37
"398","5bf44e609a50810001a69f89","shirt","calibrator_conc_no_feedback","Concrete","VC",1739216498175,"concrete",563,"B","abstract;concrete","","",6.33327962813969,38
"399","5bf44e609a50810001a69f89","sugar","calibrator_conc_no_feedback","Concrete","VC",1739216499528,"concrete",584,"B","abstract;concrete","","",6.36990098282823,39
"400","5bf44e609a50810001a69f89","polite","calibrator_conc_no_feedback","Concrete","VC",1739216500991,"abstract",689,"B","abstract;concrete","","",6.53524127101366,40
"401","5608a73fd7def20012b7389d","polite","calibrator_conc_feedback","Concrete","CV",1742935503107,"abstract",2482,"concrete","abstract","concrete;abstract","A",7.81681996576455,1
"402","5608a73fd7def20012b7389d","kick","calibrator_conc_feedback","Concrete","CV",1742935507252,"concrete",1384,"concrete","abstract","concrete;abstract","A",7.23273313617761,2
"403","5608a73fd7def20012b7389d","sugar","calibrator_conc_feedback","Concrete","CV",1742935510904,"concrete",889,"concrete","abstract","concrete;abstract","A",6.7900972355139,3
"404","5608a73fd7def20012b7389d","marriage","calibrator_conc_feedback","Concrete","CV",1742935515540,"abstract",1872,"concrete","abstract","concrete;abstract","A",7.53476265703754,4
"405","5608a73fd7def20012b7389d","grasshopper","calibrator_conc_feedback","Concrete","CV",1742935519496,"concrete",1190,"concrete","abstract","concrete;abstract","A",7.08170858610557,5
"406","5608a73fd7def20012b7389d","whistle","calibrator_conc_feedback","Concrete","CV",1742935523184,"concrete",925,"concrete","abstract","concrete;abstract","A",6.82979373751242,6
"407","5608a73fd7def20012b7389d","shirt","calibrator_conc_feedback","Concrete","CV",1742935526718,"concrete",777,"concrete","abstract","concrete;abstract","A",6.65544035036765,7
"408","5608a73fd7def20012b7389d","theory","calibrator_conc_feedback","Concrete","CV",1742935530697,"abstract",1218,"concrete","abstract","concrete;abstract","A",7.10496544826984,8
"409","5608a73fd7def20012b7389d","gas","calibrator_conc_feedback","Concrete","CV",1742935535168,"concrete",1709,"concrete","abstract","concrete;abstract","A",7.44366368311559,9
"410","5608a73fd7def20012b7389d","insecure","calibrator_conc_feedback","Concrete","CV",1742935538894,"abstract",961,"concrete","abstract","concrete;abstract","A",6.86797440897029,10
"411","5608a73fd7def20012b7389d","shirt","calibrator_conc_no_feedback","Concrete","CV",1742935542651,"concrete",996,"A","concrete;abstract","","",6.9037472575846,11
"412","5608a73fd7def20012b7389d","grasshopper","calibrator_conc_no_feedback","Concrete","CV",1742935544350,"concrete",941,"A","concrete;abstract","","",6.84694313958538,12
"413","5608a73fd7def20012b7389d","kick","calibrator_conc_no_feedback","Concrete","CV",1742935545946,"concrete",839,"A","concrete;abstract","","",6.73221070646721,13
"414","5608a73fd7def20012b7389d","gas","calibrator_conc_no_feedback","Concrete","CV",1742935547389,"concrete",687,"A","concrete;abstract","","",6.53233429222235,14
"415","5608a73fd7def20012b7389d","sugar","calibrator_conc_no_feedback","Concrete","CV",1742935548798,"concrete",652,"A","concrete;abstract","","",6.48004456192665,15
"416","5608a73fd7def20012b7389d","theory","calibrator_conc_no_feedback","Concrete","CV",1742935550494,"abstract",939,"A","concrete;abstract","","",6.84481547920826,16
"417","5608a73fd7def20012b7389d","marriage","calibrator_conc_no_feedback","Concrete","CV",1742935552304,"abstract",1049,"A","concrete;abstract","","",6.9555926083963,17
"418","5608a73fd7def20012b7389d","insecure","calibrator_conc_no_feedback","Concrete","CV",1742935554079,"abstract",1019,"A","concrete;abstract","","",6.92657703322272,18
"419","5608a73fd7def20012b7389d","whistle","calibrator_conc_no_feedback","Concrete","CV",1742935555513,"concrete",676,"A","concrete;abstract","","",6.51619307604296,19
"420","5608a73fd7def20012b7389d","polite","calibrator_conc_no_feedback","Concrete","CV",1742935557542,"abstract",1267,"A","concrete;abstract","","",7.14440718032114,20
"421","5608a73fd7def20012b7389d","industry","calibrator_val_feedback","Valence","CV",1742935787383,"positive",1581,"positive","negative","positive;negative","A",7.36581283720947,21
"422","5608a73fd7def20012b7389d","insecure","calibrator_val_feedback","Valence","CV",1742935791408,"negative",1262,"positive","negative","positive;negative","A",7.14045304310116,22
"423","5608a73fd7def20012b7389d","kitten","calibrator_val_feedback","Valence","CV",1742935796133,"positive",887,"positive","negative","positive;negative","A",6.78784498230958,23
"424","5608a73fd7def20012b7389d","jail","calibrator_val_feedback","Valence","CV",1742935799043,"negative",1228,"positive","negative","positive;negative","A",7.11314210870709,24
"425","5608a73fd7def20012b7389d","joke","calibrator_val_feedback","Valence","CV",1742935803140,"positive",1336,"positive","negative","positive;negative","A",7.19743535409659,25
"426","5608a73fd7def20012b7389d","free","calibrator_val_feedback","Valence","CV",1742935806903,"positive",1004,"positive","negative","positive;negative","A",6.91174730025167,26
"427","5608a73fd7def20012b7389d","invader","calibrator_val_feedback","Valence","CV",1742935810445,"negative",783,"positive","negative","positive;negative","A",6.6631326959908,27
"428","5608a73fd7def20012b7389d","grin","calibrator_val_feedback","Valence","CV",1742935813941,"positive",737,"positive","negative","positive;negative","A",6.60258789218934,28
"429","5608a73fd7def20012b7389d","hat","calibrator_val_feedback","Valence","CV",1742935818036,"positive",1335,"positive","negative","positive;negative","A",7.19668657083435,29
"430","5608a73fd7def20012b7389d","icebox","calibrator_val_feedback","Valence","CV",1742935822316,"positive",1521,"positive","negative","positive;negative","A",7.32712329225929,30
"431","5608a73fd7def20012b7389d","icebox","calibrator_val_no_feedback","Valence","CV",1742935825884,"positive",804,"A","positive;negative","","",6.68959926917897,31
"432","5608a73fd7def20012b7389d","invader","calibrator_val_no_feedback","Valence","CV",1742935827382,"negative",739,"A","positive;negative","","",6.6052979209482,32
"433","5608a73fd7def20012b7389d","insecure","calibrator_val_no_feedback","Valence","CV",1742935828835,"negative",695,"A","positive;negative","","",6.54391184556479,33
"434","5608a73fd7def20012b7389d","hat","calibrator_val_no_feedback","Valence","CV",1742935830264,"positive",669,"A","positive;negative","","",6.50578406012823,34
"435","5608a73fd7def20012b7389d","grin","calibrator_val_no_feedback","Valence","CV",1742935831914,"positive",892,"A","positive;negative","","",6.79346613258001,35
"436","5608a73fd7def20012b7389d","industry","calibrator_val_no_feedback","Valence","CV",1742935833290,"positive",616,"A","positive;negative","","",6.42324696353352,36
"437","5608a73fd7def20012b7389d","joke","calibrator_val_no_feedback","Valence","CV",1742935834934,"positive",884,"A","positive;negative","","",6.78445706263764,37
"438","5608a73fd7def20012b7389d","kitten","calibrator_val_no_feedback","Valence","CV",1742935836309,"positive",616,"A","positive;negative","","",6.42324696353352,38
"439","5608a73fd7def20012b7389d","free","calibrator_val_no_feedback","Valence","CV",1742935837707,"positive",641,"A","positive;negative","","",6.46302945692067,39
"440","5608a73fd7def20012b7389d","jail","calibrator_val_no_feedback","Valence","CV",1742935839289,"negative",825,"A","positive;negative","","",6.71538338633468,40
"441","56d857ad4a9be1000a53af36","hat","calibrator_val_feedback","Valence","VC",1739207686192,"positive",1343,"positive","negative","positive;negative","A",7.20266119652324,1
"442","56d857ad4a9be1000a53af36","grin","calibrator_val_feedback","Valence","VC",1739207690624,"negative",1294,"positive","negative","positive;negative","A",7.16549347506085,2
"443","56d857ad4a9be1000a53af36","joke","calibrator_val_feedback","Valence","VC",1739207693104,"positive",1327,"positive","negative","positive;negative","A",7.19067603433221,3
"444","56d857ad4a9be1000a53af36","insecure","calibrator_val_feedback","Valence","VC",1739207697519,"negative",1653,"positive","negative","positive;negative","A",7.41034709782102,4
"445","56d857ad4a9be1000a53af36","industry","calibrator_val_feedback","Valence","VC",1739207700957,"positive",680,"positive","negative","positive;negative","A",6.52209279817015,5
"446","56d857ad4a9be1000a53af36","jail","calibrator_val_feedback","Valence","VC",1739207708696,"negative",4977,"positive","negative","positive;negative","A",8.51258257885855,6
"447","56d857ad4a9be1000a53af36","invader","calibrator_val_feedback","Valence","VC",1739207713410,"negative",1204,"positive","negative","positive;negative","A",7.09340462586877,7
"448","56d857ad4a9be1000a53af36","free","calibrator_val_feedback","Valence","VC",1739207716331,"positive",907,"positive","negative","positive;negative","A",6.81014245011514,8
"449","56d857ad4a9be1000a53af36","icebox","calibrator_val_feedback","Valence","VC",1739207720566,"positive",1479,"positive","negative","positive;negative","A",7.2991214627108,9
"450","56d857ad4a9be1000a53af36","kitten","calibrator_val_feedback","Valence","VC",1739207724517,"positive",1188,"positive","negative","positive;negative","A",7.08002649992259,10
"451","56d857ad4a9be1000a53af36","free","calibrator_val_no_feedback","Valence","VC",1739207727875,"positive",600,"A","positive;negative","","",6.39692965521615,11
"452","56d857ad4a9be1000a53af36","joke","calibrator_val_no_feedback","Valence","VC",1739207729259,"positive",623,"A","positive;negative","","",6.43454651878745,12
"453","56d857ad4a9be1000a53af36","insecure","calibrator_val_no_feedback","Valence","VC",1739207730574,"negative",556,"A","positive;negative","","",6.32076829425058,13
"454","56d857ad4a9be1000a53af36","invader","calibrator_val_no_feedback","Valence","VC",1739207731849,"negative",517,"A","positive;negative","","",6.24804287450843,14
"455","56d857ad4a9be1000a53af36","hat","calibrator_val_no_feedback","Valence","VC",1739207733162,"positive",553,"A","positive;negative","","",6.31535800152233,15
"456","56d857ad4a9be1000a53af36","icebox","calibrator_val_no_feedback","Valence","VC",1739207734503,"positive",586,"A","positive;negative","","",6.37331978957701,16
"457","56d857ad4a9be1000a53af36","grin","calibrator_val_no_feedback","Valence","VC",1739207735853,"negative",589,"A","positive;negative","","",6.37842618365159,17
"458","56d857ad4a9be1000a53af36","jail","calibrator_val_no_feedback","Valence","VC",1739207737188,"negative",575,"A","positive;negative","","",6.35437004079735,18
"459","56d857ad4a9be1000a53af36","kitten","calibrator_val_no_feedback","Valence","VC",1739207738414,"positive",471,"A","positive;negative","","",6.15485809401642,19
"460","56d857ad4a9be1000a53af36","industry","calibrator_val_no_feedback","Valence","VC",1739207739625,"positive",453,"A","positive;negative","","",6.11589212548303,20
"461","56d857ad4a9be1000a53af36","polite","calibrator_conc_feedback","Concrete","VC",1739207955974,"abstract",4601,"concrete","abstract","concrete;abstract","A",8.43402895015547,21
"462","56d857ad4a9be1000a53af36","insecure","calibrator_conc_feedback","Concrete","VC",1739207958383,"abstract",1610,"concrete","abstract","concrete;abstract","A",7.38398945797851,22
"463","56d857ad4a9be1000a53af36","marriage","calibrator_conc_feedback","Concrete","VC",1739207962382,"abstract",1238,"concrete","abstract","concrete;abstract","A",7.12125245324454,23
"464","56d857ad4a9be1000a53af36","kick","calibrator_conc_feedback","Concrete","VC",1739207967371,"concrete",2227,"concrete","abstract","concrete;abstract","A",7.70841066725737,24
"465","56d857ad4a9be1000a53af36","theory","calibrator_conc_feedback","Concrete","VC",1739207971412,"abstract",1283,"concrete","abstract","concrete;abstract","A",7.15695636461564,25
"466","56d857ad4a9be1000a53af36","shirt","calibrator_conc_feedback","Concrete","VC",1739207983208,"concrete",9030,"concrete","abstract","concrete;abstract","A",9.10830764641103,26
"467","56d857ad4a9be1000a53af36","sugar","calibrator_conc_feedback","Concrete","VC",1739207994063,"concrete",8094,"concrete","abstract","concrete;abstract","A",8.99887832543581,27
"468","56d857ad4a9be1000a53af36","grasshopper","calibrator_conc_feedback","Concrete","VC",1739207998254,"concrete",1431,"concrete","abstract","concrete;abstract","A",7.26612877955645,28
"469","56d857ad4a9be1000a53af36","gas","calibrator_conc_feedback","Concrete","VC",1739208001999,"concrete",988,"concrete","abstract","concrete;abstract","A",6.89568269774787,29
"470","56d857ad4a9be1000a53af36","whistle","calibrator_conc_feedback","Concrete","VC",1739208005648,"concrete",886,"concrete","abstract","concrete;abstract","A",6.78671695060508,30
"471","56d857ad4a9be1000a53af36","theory","calibrator_conc_no_feedback","Concrete","VC",1739208009309,"abstract",899,"A","concrete;abstract","","",6.80128303447162,31
"472","56d857ad4a9be1000a53af36","marriage","calibrator_conc_no_feedback","Concrete","VC",1739208011074,"abstract",1005,"A","concrete;abstract","","",6.91274282049318,32
"473","56d857ad4a9be1000a53af36","sugar","calibrator_conc_no_feedback","Concrete","VC",1739208012483,"concrete",652,"A","concrete;abstract","","",6.48004456192665,33
"474","56d857ad4a9be1000a53af36","insecure","calibrator_conc_no_feedback","Concrete","VC",1739208013937,"abstract",694,"A","concrete;abstract","","",6.5424719605068,34
"475","56d857ad4a9be1000a53af36","kick","calibrator_conc_no_feedback","Concrete","VC",1739208015327,"concrete",634,"A","concrete;abstract","","",6.45204895443723,35
"476","56d857ad4a9be1000a53af36","gas","calibrator_conc_no_feedback","Concrete","VC",1739208016712,"concrete",625,"A","concrete;abstract","","",6.4377516497364,36
"477","56d857ad4a9be1000a53af36","whistle","calibrator_conc_no_feedback","Concrete","VC",1739208018182,"concrete",712,"A","concrete;abstract","","",6.56807791141198,37
"478","56d857ad4a9be1000a53af36","polite","calibrator_conc_no_feedback","Concrete","VC",1739208019513,"abstract",575,"A","concrete;abstract","","",6.35437004079735,38
"479","56d857ad4a9be1000a53af36","grasshopper","calibrator_conc_no_feedback","Concrete","VC",1739208020845,"abstract",577,"A","concrete;abstract","","",6.3578422665081,39
"480","56d857ad4a9be1000a53af36","shirt","calibrator_conc_no_feedback","Concrete","VC",1739208022176,"concrete",574,"A","concrete;abstract","","",6.35262939631957,40
"481","5ef98087540ce971a8fb4280","invader","calibrator_val_feedback","Valence","VC",1739206646119,"negative",1290,"positive","negative","positive;negative","A",7.16239749735572,1
"482","5ef98087540ce971a8fb4280","insecure","calibrator_val_feedback","Valence","VC",1739206650036,"negative",1159,"positive","negative","positive;negative","A",7.05531284333975,2
"483","5ef98087540ce971a8fb4280","kitten","calibrator_val_feedback","Valence","VC",1739206653472,"positive",680,"positive","negative","positive;negative","A",6.52209279817015,3
"484","5ef98087540ce971a8fb4280","hat","calibrator_val_feedback","Valence","VC",1739206657372,"positive",1137,"positive","negative","positive;negative","A",7.03614849375054,4
"485","5ef98087540ce971a8fb4280","free","calibrator_val_feedback","Valence","VC",1739206660864,"positive",729,"positive","negative","positive;negative","A",6.59167373200866,5
"486","5ef98087540ce971a8fb4280","icebox","calibrator_val_feedback","Valence","VC",1739206666418,"negative",2794,"positive","negative","positive;negative","A",7.93522953981691,6
"487","5ef98087540ce971a8fb4280","industry","calibrator_val_feedback","Valence","VC",1739206670265,"negative",1086,"positive","negative","positive;negative","A",6.99025650049388,7
"488","5ef98087540ce971a8fb4280","jail","calibrator_val_feedback","Valence","VC",1739206673761,"negative",735,"positive","negative","positive;negative","A",6.59987049921284,8
"489","5ef98087540ce971a8fb4280","grin","calibrator_val_feedback","Valence","VC",1739206678191,"positive",1666,"positive","negative","positive;negative","A",7.41818082272679,9
"490","5ef98087540ce971a8fb4280","joke","calibrator_val_feedback","Valence","VC",1739206682206,"positive",1256,"positive","negative","positive;negative","A",7.13568734702814,10
"491","5ef98087540ce971a8fb4280","jail","calibrator_val_no_feedback","Valence","VC",1739206685781,"negative",811,"A","positive;negative","","",6.69826805411541,11
"492","5ef98087540ce971a8fb4280","free","calibrator_val_no_feedback","Valence","VC",1739206687131,"positive",592,"A","positive;negative","","",6.38350663488401,12
"493","5ef98087540ce971a8fb4280","insecure","calibrator_val_no_feedback","Valence","VC",1739206688427,"negative",538,"A","positive;negative","","",6.28785856016178,13
"494","5ef98087540ce971a8fb4280","joke","calibrator_val_no_feedback","Valence","VC",1739206689891,"negative",704,"A","positive;negative","","",6.55677835615804,14
"495","5ef98087540ce971a8fb4280","invader","calibrator_val_no_feedback","Valence","VC",1739206691344,"negative",696,"A","positive;negative","","",6.54534966033442,15
"496","5ef98087540ce971a8fb4280","icebox","calibrator_val_no_feedback","Valence","VC",1739206692802,"negative",701,"A","positive;negative","","",6.55250788703459,16
"497","5ef98087540ce971a8fb4280","industry","calibrator_val_no_feedback","Valence","VC",1739206694146,"negative",589,"A","positive;negative","","",6.37842618365159,17
"498","5ef98087540ce971a8fb4280","hat","calibrator_val_no_feedback","Valence","VC",1739206695571,"positive",673,"A","positive;negative","","",6.51174532964473,18
"499","5ef98087540ce971a8fb4280","kitten","calibrator_val_no_feedback","Valence","VC",1739206696832,"positive",507,"A","positive;negative","","",6.22851100359118,19
"500","5ef98087540ce971a8fb4280","grin","calibrator_val_no_feedback","Valence","VC",1739206698127,"positive",539,"A","positive;negative","","",6.289715570909,20
"501","5ef98087540ce971a8fb4280","grasshopper","calibrator_conc_feedback","Concrete","VC",1739206897441,"concrete",1723,"concrete","abstract","concrete;abstract","A",7.45182223652793,21
"502","5ef98087540ce971a8fb4280","theory","calibrator_conc_feedback","Concrete","VC",1739206900422,"abstract",1259,"concrete","abstract","concrete;abstract","A",7.13807303404435,22
"503","5ef98087540ce971a8fb4280","shirt","calibrator_conc_feedback","Concrete","VC",1739206904483,"concrete",1306,"concrete","abstract","concrete;abstract","A",7.17472430983638,23
"504","5ef98087540ce971a8fb4280","gas","calibrator_conc_feedback","Concrete","VC",1739206908755,"concrete",1510,"concrete","abstract","concrete;abstract","A",7.31986492980897,24
"505","5ef98087540ce971a8fb4280","marriage","calibrator_conc_feedback","Concrete","VC",1739206912450,"concrete",936,"concrete","abstract","concrete;abstract","A",6.84161547647759,25
"506","5ef98087540ce971a8fb4280","kick","calibrator_conc_feedback","Concrete","VC",1739206915940,"abstract",732,"concrete","abstract","concrete;abstract","A",6.59578051396131,26
"507","5ef98087540ce971a8fb4280","polite","calibrator_conc_feedback","Concrete","VC",1739206920801,"concrete",797,"concrete","abstract","concrete;abstract","A",6.68085467879022,27
"508","5ef98087540ce971a8fb4280","sugar","calibrator_conc_feedback","Concrete","VC",1739206924510,"concrete",953,"concrete","abstract","concrete;abstract","A",6.8596149036542,28
"509","5ef98087540ce971a8fb4280","insecure","calibrator_conc_feedback","Concrete","VC",1739206927964,"abstract",697,"concrete","abstract","concrete;abstract","A",6.54678541076052,29
"510","5ef98087540ce971a8fb4280","whistle","calibrator_conc_feedback","Concrete","VC",1739206931757,"concrete",1028,"concrete","abstract","concrete;abstract","A",6.93537044601511,30
"511","5ef98087540ce971a8fb4280","kick","calibrator_conc_no_feedback","Concrete","VC",1739206940197,"abstract",4483,"A","concrete;abstract","","",8.40804774415544,31
"512","5ef98087540ce971a8fb4280","whistle","calibrator_conc_no_feedback","Concrete","VC",1739206941824,"concrete",871,"A","concrete;abstract","","",6.7696419768525,32
"513","5ef98087540ce971a8fb4280","gas","calibrator_conc_no_feedback","Concrete","VC",1739206943432,"abstract",851,"A","concrete;abstract","","",6.74641212857337,33
"514","5ef98087540ce971a8fb4280","sugar","calibrator_conc_no_feedback","Concrete","VC",1739206944757,"concrete",567,"A","concrete;abstract","","",6.34035930372775,34
"515","5ef98087540ce971a8fb4280","shirt","calibrator_conc_no_feedback","Concrete","VC",1739206946369,"concrete",857,"A","concrete;abstract","","",6.75343791859778,35
"516","5ef98087540ce971a8fb4280","marriage","calibrator_conc_no_feedback","Concrete","VC",1739206947719,"concrete",592,"A","concrete;abstract","","",6.38350663488401,36
"517","5ef98087540ce971a8fb4280","theory","calibrator_conc_no_feedback","Concrete","VC",1739206949047,"abstract",570,"A","concrete;abstract","","",6.3456363608286,37
"518","5ef98087540ce971a8fb4280","grasshopper","calibrator_conc_no_feedback","Concrete","VC",1739206950609,"concrete",809,"A","concrete;abstract","","",6.69579891705849,38
"519","5ef98087540ce971a8fb4280","polite","calibrator_conc_no_feedback","Concrete","VC",1739206951862,"concrete",495,"A","concrete;abstract","","",6.20455776256869,39
"520","5ef98087540ce971a8fb4280","insecure","calibrator_conc_no_feedback","Concrete","VC",1739206953186,"abstract",566,"A","concrete;abstract","","",6.33859407820318,40
"521","6110a371c00388d587922ff1","polite","calibrator_conc_feedback","Concrete","CV",1739196130134,"abstract",1486,"concrete","abstract","concrete;abstract","A",7.3038432252777,1
"522","6110a371c00388d587922ff1","grasshopper","calibrator_conc_feedback","Concrete","CV",1739196132687,"concrete",1097,"concrete","abstract","concrete;abstract","A",7.00033446027523,2
"523","6110a371c00388d587922ff1","sugar","calibrator_conc_feedback","Concrete","CV",1739196137383,"concrete",1940,"concrete","abstract","concrete;abstract","A",7.57044325205737,3
"524","6110a371c00388d587922ff1","theory","calibrator_conc_feedback","Concrete","CV",1739196141407,"abstract",1264,"concrete","abstract","concrete;abstract","A",7.1420365747068,4
"525","6110a371c00388d587922ff1","gas","calibrator_conc_feedback","Concrete","CV",1739196145551,"abstract",1387,"concrete","abstract","concrete;abstract","A",7.23489842031483,5
"526","6110a371c00388d587922ff1","shirt","calibrator_conc_feedback","Concrete","CV",1739196149831,"concrete",1519,"concrete","abstract","concrete;abstract","A",7.32580750259577,6
"527","6110a371c00388d587922ff1","marriage","calibrator_conc_feedback","Concrete","CV",1739196153992,"concrete",1403,"concrete","abstract","concrete;abstract","A",7.24636808010246,7
"528","6110a371c00388d587922ff1","insecure","calibrator_conc_feedback","Concrete","CV",1739196158127,"abstract",1379,"concrete","abstract","concrete;abstract","A",7.2291138777933,8
"529","6110a371c00388d587922ff1","whistle","calibrator_conc_feedback","Concrete","CV",1739196162010,"abstract",1127,"concrete","abstract","concrete;abstract","A",7.02731451403978,9
"530","6110a371c00388d587922ff1","kick","calibrator_conc_feedback","Concrete","CV",1739196168263,"concrete",3499,"concrete","abstract","concrete;abstract","A",8.16023249236769,10
"531","6110a371c00388d587922ff1","polite","calibrator_conc_no_feedback","Concrete","CV",1739196174319,"abstract",3296,"A","concrete;abstract","","",8.10046489102936,11
"532","6110a371c00388d587922ff1","grasshopper","calibrator_conc_no_feedback","Concrete","CV",1739196176656,"concrete",1581,"A","concrete;abstract","","",7.36581283720947,12
"533","6110a371c00388d587922ff1","theory","calibrator_conc_no_feedback","Concrete","CV",1739196178271,"abstract",856,"A","concrete;abstract","","",6.75227037614174,13
"534","6110a371c00388d587922ff1","kick","calibrator_conc_no_feedback","Concrete","CV",1739196179790,"concrete",765,"A","concrete;abstract","","",6.63987583382654,14
"535","6110a371c00388d587922ff1","shirt","calibrator_conc_no_feedback","Concrete","CV",1739196181375,"concrete",830,"A","concrete;abstract","","",6.72142570079064,15
"536","6110a371c00388d587922ff1","marriage","calibrator_conc_no_feedback","Concrete","CV",1739196183279,"concrete",1149,"A","concrete;abstract","","",7.04664727784876,16
"537","6110a371c00388d587922ff1","whistle","calibrator_conc_no_feedback","Concrete","CV",1739196184774,"concrete",738,"A","concrete;abstract","","",6.60394382460047,17
"538","6110a371c00388d587922ff1","gas","calibrator_conc_no_feedback","Concrete","CV",1739196186446,"concrete",913,"A","concrete;abstract","","",6.81673588059497,18
"539","6110a371c00388d587922ff1","sugar","calibrator_conc_no_feedback","Concrete","CV",1739196188512,"abstract",1310,"A","concrete;abstract","","",7.1777824161952,19
"540","6110a371c00388d587922ff1","insecure","calibrator_conc_no_feedback","Concrete","CV",1739196190094,"abstract",820,"A","concrete;abstract","","",6.7093043402583,20
"541","6110a371c00388d587922ff1","joke","calibrator_val_feedback","Valence","CV",1739196396696,"positive",1060,"positive","negative","positive;negative","A",6.96602418710611,21
"542","6110a371c00388d587922ff1","hat","calibrator_val_feedback","Valence","CV",1739196400641,"positive",1187,"positive","negative","positive;negative","A",7.07918439460967,22
"543","6110a371c00388d587922ff1","icebox","calibrator_val_feedback","Valence","CV",1739196404809,"positive",1414,"positive","negative","positive;negative","A",7.25417784645652,23
"544","6110a371c00388d587922ff1","grin","calibrator_val_feedback","Valence","CV",1739196408270,"positive",707,"positive","negative","positive;negative","A",6.56103066589657,24
"545","6110a371c00388d587922ff1","jail","calibrator_val_feedback","Valence","CV",1739196411711,"negative",683,"positive","negative","positive;negative","A",6.52649485957079,25
"546","6110a371c00388d587922ff1","insecure","calibrator_val_feedback","Valence","CV",1739196415327,"negative",857,"positive","negative","positive;negative","A",6.75343791859778,26
"547","6110a371c00388d587922ff1","industry","calibrator_val_feedback","Valence","CV",1739196419543,"positive",1461,"positive","negative","positive;negative","A",7.2868764117507,27
"548","6110a371c00388d587922ff1","kitten","calibrator_val_feedback","Valence","CV",1739196425345,"positive",3044,"positive","negative","positive;negative","A",8.02092771898158,28
"549","6110a371c00388d587922ff1","invader","calibrator_val_feedback","Valence","CV",1739196428806,"negative",703,"positive","negative","positive;negative","A",6.55535689181067,29
"550","6110a371c00388d587922ff1","free","calibrator_val_feedback","Valence","CV",1739196432279,"positive",715,"positive","negative","positive;negative","A",6.57228254269401,30
"551","6110a371c00388d587922ff1","insecure","calibrator_val_no_feedback","Valence","CV",1739196435703,"negative",666,"A","positive;negative","","",6.50128967054039,31
"552","6110a371c00388d587922ff1","grin","calibrator_val_no_feedback","Valence","CV",1739196438265,"positive",1803,"A","positive;negative","","",7.49720722320332,32
"553","6110a371c00388d587922ff1","joke","calibrator_val_no_feedback","Valence","CV",1739196439887,"positive",867,"A","positive;negative","","",6.76503897678054,33
"554","6110a371c00388d587922ff1","invader","calibrator_val_no_feedback","Valence","CV",1739196441438,"negative",798,"A","positive;negative","","",6.68210859744981,34
"555","6110a371c00388d587922ff1","industry","calibrator_val_no_feedback","Valence","CV",1739196445191,"negative",2996,"A","positive;negative","","",8.00503334463711,35
"556","6110a371c00388d587922ff1","hat","calibrator_val_no_feedback","Valence","CV",1739196447015,"positive",1067,"A","positive;negative","","",6.97260625130175,36
"557","6110a371c00388d587922ff1","jail","calibrator_val_no_feedback","Valence","CV",1739196448583,"negative",815,"A","positive;negative","","",6.70318811324086,37
"558","6110a371c00388d587922ff1","free","calibrator_val_no_feedback","Valence","CV",1739196505623,"positive",56282,"A","positive;negative","","",10.9381300471996,38
"559","6110a371c00388d587922ff1","kitten","calibrator_val_no_feedback","Valence","CV",1739196506799,"positive",419,"A","positive;negative","","",6.03787091992214,39
"560","6110a371c00388d587922ff1","icebox","calibrator_val_no_feedback","Valence","CV",1739196507967,"positive",411,"A","positive;negative","","",6.01859321449623,40
"561","55bc1119fdf99b5693f3ec47","invader","calibrator_val_feedback","Valence","VC",1742918675016,"negative",1806,"negative","positive","negative;positive","B",7.49886973397693,1
"562","55bc1119fdf99b5693f3ec47","grin","calibrator_val_feedback","Valence","VC",1742918679216,"positive",1444,"negative","positive","negative;positive","B",7.27517231945277,2
"563","55bc1119fdf99b5693f3ec47","industry","calibrator_val_feedback","Valence","VC",1742918683736,"positive",1764,"negative","positive","negative;positive","B",7.47533923656674,3
"564","55bc1119fdf99b5693f3ec47","insecure","calibrator_val_feedback","Valence","VC",1742918687697,"negative",1203,"negative","positive","negative;positive","B",7.09257371597468,4
"565","55bc1119fdf99b5693f3ec47","jail","calibrator_val_feedback","Valence","VC",1742918691616,"negative",1163,"negative","positive","negative;positive","B",7.05875815251866,5
"566","55bc1119fdf99b5693f3ec47","joke","calibrator_val_feedback","Valence","VC",1742918695145,"positive",771,"negative","positive","negative;positive","B",6.64768837356333,6
"567","55bc1119fdf99b5693f3ec47","free","calibrator_val_feedback","Valence","VC",1742918699056,"positive",1151,"negative","positive","negative;positive","B",7.04838640872188,7
"568","55bc1119fdf99b5693f3ec47","hat","calibrator_val_feedback","Valence","VC",1742918702984,"positive",1170,"negative","positive","negative;positive","B",7.0647590277918,8
"569","55bc1119fdf99b5693f3ec47","icebox","calibrator_val_feedback","Valence","VC",1742918706728,"positive",983,"negative","positive","negative;positive","B",6.89060912014717,9
"570","55bc1119fdf99b5693f3ec47","kitten","calibrator_val_feedback","Valence","VC",1742918710232,"positive",745,"negative","positive","negative;positive","B",6.61338421837956,10
"571","55bc1119fdf99b5693f3ec47","icebox","calibrator_val_no_feedback","Valence","VC",1742918714512,"positive",1517,"B","negative;positive","","",7.32448997934853,11
"572","55bc1119fdf99b5693f3ec47","invader","calibrator_val_no_feedback","Valence","VC",1742918718504,"negative",3234,"B","negative;positive","","",8.08147504013705,12
"573","55bc1119fdf99b5693f3ec47","jail","calibrator_val_no_feedback","Valence","VC",1742918721288,"negative",2027,"B","negative;positive","","",7.614312146452,13
"574","55bc1119fdf99b5693f3ec47","free","calibrator_val_no_feedback","Valence","VC",1742918722904,"positive",861,"B","negative;positive","","",6.75809450442773,14
"575","55bc1119fdf99b5693f3ec47","insecure","calibrator_val_no_feedback","Valence","VC",1742918724776,"negative",1119,"B","negative;positive","","",7.02019070831193,15
"576","55bc1119fdf99b5693f3ec47","industry","calibrator_val_no_feedback","Valence","VC",1742918726488,"positive",955,"B","negative;positive","","",6.86171134048073,16
"577","55bc1119fdf99b5693f3ec47","kitten","calibrator_val_no_feedback","Valence","VC",1742918727888,"positive",641,"B","negative;positive","","",6.46302945692067,17
"578","55bc1119fdf99b5693f3ec47","hat","calibrator_val_no_feedback","Valence","VC",1742918729552,"positive",908,"B","negative;positive","","",6.81124437860129,18
"579","55bc1119fdf99b5693f3ec47","grin","calibrator_val_no_feedback","Valence","VC",1742918731040,"positive",731,"B","negative;positive","","",6.59441345974978,19
"580","55bc1119fdf99b5693f3ec47","joke","calibrator_val_no_feedback","Valence","VC",1742918732464,"positive",672,"B","negative;positive","","",6.51025834052315,20
