#
# Results on Tue, 27 May 2025 14:56:59 GMT
# USER AGENT: Mozilla/5.0 (Windows NT 10.0; Win64; x64) AppleWebKit/537.36 (KHTML, like Gecko) Chrome/136.0.0.0 Safari/537.36
# Design number was non-random = 0
#
# Columns below this comment are as follows:
# 1. Results reception time.
# 2. MD5 hash of participant's IP address.
# 3. Controller name.
# 4. Order number of item.
# 5. Inner element number.
# 6. Label.
# 7. Latin Square Group.
# 8. PennElementType.
# 9. PennElementName.
# 10. Parameter.
# 11. Value.
# 12. EventTime.
# 13. Comments.
1748357819,04fb6816e4b6d3e8ff577b0ed70f6ce4,PennController,1,0,welcome,NULL,PennController,0,_Trial_,Start,1748357195853,NULL
1748357819,04fb6816e4b6d3e8ff577b0ed70f6ce4,PennController,1,0,welcome,NULL,PennController,0,_Header_,Start,1748357195853,NULL
1748357819,04fb6816e4b6d3e8ff577b0ed70f6ce4,PennController,1,0,welcome,NULL,PennController,0,_Header_,End,1748357196107,NULL
1748357819,04fb6816e4b6d3e8ff577b0ed70f6ce4,PennController,1,0,welcome,NULL,PennController,0,_Trial_,End,1748357211382,NULL
# 13. ID.
# 14. Comments.
1748357819,04fb6816e4b6d3e8ff577b0ed70f6ce4,PennController,124,0,consent,NULL,PennController,2,_Trial_,Start,1748357211385,6772be1363ec1102cc8bc48d,NULL
1748357819,04fb6816e4b6d3e8ff577b0ed70f6ce4,PennController,124,0,consent,NULL,PennController,2,_Header_,Start,1748357211385,6772be1363ec1102cc8bc48d,NULL
1748357819,04fb6816e4b6d3e8ff577b0ed70f6ce4,PennController,124,0,consent,NULL,PennController,2,_Header_,End,1748357211644,6772be1363ec1102cc8bc48d,NULL
1748357819,04fb6816e4b6d3e8ff577b0ed70f6ce4,PennController,124,0,consent,NULL,TextInput,ID,Final,6772be1363ec1102cc8bc48d,1748357224593,6772be1363ec1102cc8bc48d,NULL
1748357819,04fb6816e4b6d3e8ff577b0ed70f6ce4,PennController,124,0,consent,NULL,PennController,2,_Trial_,End,1748357224593,6772be1363ec1102cc8bc48d,NULL
# 13. Comments.
1748357819,04fb6816e4b6d3e8ff577b0ed70f6ce4,PennController,126,0,instructions1_val,NULL,PennController,4,_Trial_,Start,1748357224594,NULL
1748357819,04fb6816e4b6d3e8ff577b0ed70f6ce4,PennController,126,0,instructions1_val,NULL,PennController,4,_Header_,Start,1748357224594,NULL
1748357819,04fb6816e4b6d3e8ff577b0ed70f6ce4,PennController,126,0,instructions1_val,NULL,PennController,4,_Header_,End,1748357224852,NULL
1748357819,04fb6816e4b6d3e8ff577b0ed70f6ce4,PennController,126,0,instructions1_val,NULL,PennController,4,_Trial_,End,1748357253995,NULL
1748357819,04fb6816e4b6d3e8ff577b0ed70f6ce4,PennController,127,0,instructions2_val,NULL,PennController,5,_Trial_,Start,1748357253997,NULL
1748357819,04fb6816e4b6d3e8ff577b0ed70f6ce4,PennController,127,0,instructions2_val,NULL,PennController,5,_Header_,Start,1748357253997,NULL
1748357819,04fb6816e4b6d3e8ff577b0ed70f6ce4,PennController,127,0,instructions2_val,NULL,PennController,5,_Header_,End,1748357254254,NULL
1748357819,04fb6816e4b6d3e8ff577b0ed70f6ce4,PennController,127,0,instructions2_val,NULL,PennController,5,_Trial_,End,1748357262526,NULL
1748357819,04fb6816e4b6d3e8ff577b0ed70f6ce4,PennController,128,0,instructions3_hands,NULL,PennController,6,_Trial_,Start,1748357262527,NULL
1748357819,04fb6816e4b6d3e8ff577b0ed70f6ce4,PennController,128,0,instructions3_hands,NULL,PennController,6,_Header_,Start,1748357262527,NULL
1748357819,04fb6816e4b6d3e8ff577b0ed70f6ce4,PennController,128,0,instructions3_hands,NULL,PennController,6,_Header_,End,1748357262784,NULL
1748357819,04fb6816e4b6d3e8ff577b0ed70f6ce4,PennController,128,0,instructions3_hands,NULL,PennController,6,_Trial_,End,1748357275380,NULL
1748357819,04fb6816e4b6d3e8ff577b0ed70f6ce4,PennController,129,0,practice_intro_val,NULL,PennController,7,_Trial_,Start,1748357275381,NULL
1748357819,04fb6816e4b6d3e8ff577b0ed70f6ce4,PennController,129,0,practice_intro_val,NULL,PennController,7,_Header_,Start,1748357275381,NULL
1748357819,04fb6816e4b6d3e8ff577b0ed70f6ce4,PennController,129,0,practice_intro_val,NULL,PennController,7,_Header_,End,1748357275636,NULL
1748357819,04fb6816e4b6d3e8ff577b0ed70f6ce4,PennController,129,0,practice_intro_val,NULL,PennController,7,_Trial_,End,1748357277870,NULL
# 13. ID.
# 14. ReactionTime.
# 15. Word.
# 16. selectedKey.
# 17. selectedValue.
# 18. Key_value_F.
# 19. Key_value_J.
# 20. Group.
# 21. Comments.
1748357819,04fb6816e4b6d3e8ff577b0ed70f6ce4,PennController,108,0,calibrator_val_feedback,NULL,PennController,119,_Trial_,Start,1748357277871,undefined,1570,industry,undefined,negative,positive,negative,A,NULL
1748357819,04fb6816e4b6d3e8ff577b0ed70f6ce4,PennController,108,0,calibrator_val_feedback,NULL,PennController,119,_Header_,Start,1748357277871,undefined,1570,industry,undefined,negative,positive,negative,A,NULL
1748357819,04fb6816e4b6d3e8ff577b0ed70f6ce4,PennController,108,0,calibrator_val_feedback,NULL,PennController,119,_Header_,End,1748357278128,undefined,1570,industry,undefined,negative,positive,negative,A,NULL
1748357819,04fb6816e4b6d3e8ff577b0ed70f6ce4,PennController,108,0,calibrator_val_feedback,NULL,Selector,Selection,Selection,positive,1748357280210,undefined,1570,industry,undefined,negative,positive,negative,A,positive;negative
1748357819,04fb6816e4b6d3e8ff577b0ed70f6ce4,PennController,108,0,calibrator_val_feedback,NULL,PennController,119,_Trial_,End,1748357282213,undefined,1570,industry,undefined,negative,positive,negative,A,NULL
1748357819,04fb6816e4b6d3e8ff577b0ed70f6ce4,PennController,111,0,calibrator_val_feedback,NULL,PennController,122,_Trial_,Start,1748357282214,undefined,847,jail,undefined,negative,positive,negative,A,NULL
1748357819,04fb6816e4b6d3e8ff577b0ed70f6ce4,PennController,111,0,calibrator_val_feedback,NULL,PennController,122,_Header_,Start,1748357282214,undefined,847,jail,undefined,negative,positive,negative,A,NULL
1748357819,04fb6816e4b6d3e8ff577b0ed70f6ce4,PennController,111,0,calibrator_val_feedback,NULL,PennController,122,_Header_,End,1748357282467,undefined,847,jail,undefined,negative,positive,negative,A,NULL
1748357819,04fb6816e4b6d3e8ff577b0ed70f6ce4,PennController,111,0,calibrator_val_feedback,NULL,Selector,Selection,Selection,negative,1748357283819,undefined,847,jail,undefined,negative,positive,negative,A,positive;negative
1748357819,04fb6816e4b6d3e8ff577b0ed70f6ce4,PennController,111,0,calibrator_val_feedback,NULL,PennController,122,_Trial_,End,1748357285829,undefined,847,jail,undefined,negative,positive,negative,A,NULL
1748357819,04fb6816e4b6d3e8ff577b0ed70f6ce4,PennController,112,0,calibrator_val_feedback,NULL,PennController,123,_Trial_,Start,1748357285830,undefined,1531,joke,undefined,negative,positive,negative,A,NULL
1748357819,04fb6816e4b6d3e8ff577b0ed70f6ce4,PennController,112,0,calibrator_val_feedback,NULL,PennController,123,_Header_,Start,1748357285830,undefined,1531,joke,undefined,negative,positive,negative,A,NULL
1748357819,04fb6816e4b6d3e8ff577b0ed70f6ce4,PennController,112,0,calibrator_val_feedback,NULL,PennController,123,_Header_,End,1748357286081,undefined,1531,joke,undefined,negative,positive,negative,A,NULL
1748357819,04fb6816e4b6d3e8ff577b0ed70f6ce4,PennController,112,0,calibrator_val_feedback,NULL,Selector,Selection,Selection,positive,1748357288119,undefined,1531,joke,undefined,negative,positive,negative,A,positive;negative
1748357819,04fb6816e4b6d3e8ff577b0ed70f6ce4,PennController,112,0,calibrator_val_feedback,NULL,PennController,123,_Trial_,End,1748357290129,undefined,1531,joke,undefined,negative,positive,negative,A,NULL
1748357819,04fb6816e4b6d3e8ff577b0ed70f6ce4,PennController,113,0,calibrator_val_feedback,NULL,PennController,124,_Trial_,Start,1748357290130,undefined,1173,kitten,undefined,negative,positive,negative,A,NULL
1748357819,04fb6816e4b6d3e8ff577b0ed70f6ce4,PennController,113,0,calibrator_val_feedback,NULL,PennController,124,_Header_,Start,1748357290130,undefined,1173,kitten,undefined,negative,positive,negative,A,NULL
1748357819,04fb6816e4b6d3e8ff577b0ed70f6ce4,PennController,113,0,calibrator_val_feedback,NULL,PennController,124,_Header_,End,1748357290381,undefined,1173,kitten,undefined,negative,positive,negative,A,NULL
1748357819,04fb6816e4b6d3e8ff577b0ed70f6ce4,PennController,113,0,calibrator_val_feedback,NULL,Selector,Selection,Selection,positive,1748357292062,undefined,1173,kitten,undefined,negative,positive,negative,A,positive;negative
1748357819,04fb6816e4b6d3e8ff577b0ed70f6ce4,PennController,113,0,calibrator_val_feedback,NULL,PennController,124,_Trial_,End,1748357294070,undefined,1173,kitten,undefined,negative,positive,negative,A,NULL
1748357819,04fb6816e4b6d3e8ff577b0ed70f6ce4,PennController,105,0,calibrator_val_feedback,NULL,PennController,116,_Trial_,Start,1748357294071,undefined,788,grin,undefined,negative,positive,negative,A,NULL
1748357819,04fb6816e4b6d3e8ff577b0ed70f6ce4,PennController,105,0,calibrator_val_feedback,NULL,PennController,116,_Header_,Start,1748357294071,undefined,788,grin,undefined,negative,positive,negative,A,NULL
1748357819,04fb6816e4b6d3e8ff577b0ed70f6ce4,PennController,105,0,calibrator_val_feedback,NULL,PennController,116,_Header_,End,1748357294330,undefined,788,grin,undefined,negative,positive,negative,A,NULL
1748357819,04fb6816e4b6d3e8ff577b0ed70f6ce4,PennController,105,0,calibrator_val_feedback,NULL,Selector,Selection,Selection,positive,1748357295625,undefined,788,grin,undefined,negative,positive,negative,A,positive;negative
1748357819,04fb6816e4b6d3e8ff577b0ed70f6ce4,PennController,105,0,calibrator_val_feedback,NULL,PennController,116,_Trial_,End,1748357297631,undefined,788,grin,undefined,negative,positive,negative,A,NULL
1748357819,04fb6816e4b6d3e8ff577b0ed70f6ce4,PennController,106,0,calibrator_val_feedback,NULL,PennController,117,_Trial_,Start,1748357297632,undefined,685,hat,undefined,negative,positive,negative,A,NULL
1748357819,04fb6816e4b6d3e8ff577b0ed70f6ce4,PennController,106,0,calibrator_val_feedback,NULL,PennController,117,_Header_,Start,1748357297632,undefined,685,hat,undefined,negative,positive,negative,A,NULL
1748357819,04fb6816e4b6d3e8ff577b0ed70f6ce4,PennController,106,0,calibrator_val_feedback,NULL,PennController,117,_Header_,End,1748357297889,undefined,685,hat,undefined,negative,positive,negative,A,NULL
1748357819,04fb6816e4b6d3e8ff577b0ed70f6ce4,PennController,106,0,calibrator_val_feedback,NULL,Selector,Selection,Selection,positive,1748357299080,undefined,685,hat,undefined,negative,positive,negative,A,positive;negative
1748357819,04fb6816e4b6d3e8ff577b0ed70f6ce4,PennController,106,0,calibrator_val_feedback,NULL,PennController,117,_Trial_,End,1748357301093,undefined,685,hat,undefined,negative,positive,negative,A,NULL
1748357819,04fb6816e4b6d3e8ff577b0ed70f6ce4,PennController,109,0,calibrator_val_feedback,NULL,PennController,120,_Trial_,Start,1748357301094,undefined,758,insecure,undefined,negative,positive,negative,A,NULL
1748357819,04fb6816e4b6d3e8ff577b0ed70f6ce4,PennController,109,0,calibrator_val_feedback,NULL,PennController,120,_Header_,Start,1748357301094,undefined,758,insecure,undefined,negative,positive,negative,A,NULL
1748357819,04fb6816e4b6d3e8ff577b0ed70f6ce4,PennController,109,0,calibrator_val_feedback,NULL,PennController,120,_Header_,End,1748357301346,undefined,758,insecure,undefined,negative,positive,negative,A,NULL
1748357819,04fb6816e4b6d3e8ff577b0ed70f6ce4,PennController,109,0,calibrator_val_feedback,NULL,Selector,Selection,Selection,negative,1748357302613,undefined,758,insecure,undefined,negative,positive,negative,A,positive;negative
1748357819,04fb6816e4b6d3e8ff577b0ed70f6ce4,PennController,109,0,calibrator_val_feedback,NULL,PennController,120,_Trial_,End,1748357304621,undefined,758,insecure,undefined,negative,positive,negative,A,NULL
1748357819,04fb6816e4b6d3e8ff577b0ed70f6ce4,PennController,107,0,calibrator_val_feedback,NULL,PennController,118,_Trial_,Start,1748357304623,undefined,1048,icebox,undefined,negative,positive,negative,A,NULL
1748357819,04fb6816e4b6d3e8ff577b0ed70f6ce4,PennController,107,0,calibrator_val_feedback,NULL,PennController,118,_Header_,Start,1748357304623,undefined,1048,icebox,undefined,negative,positive,negative,A,NULL
1748357819,04fb6816e4b6d3e8ff577b0ed70f6ce4,PennController,107,0,calibrator_val_feedback,NULL,PennController,118,_Header_,End,1748357304878,undefined,1048,icebox,undefined,negative,positive,negative,A,NULL
1748357819,04fb6816e4b6d3e8ff577b0ed70f6ce4,PennController,107,0,calibrator_val_feedback,NULL,Selector,Selection,Selection,positive,1748357306432,undefined,1048,icebox,undefined,negative,positive,negative,A,positive;negative
1748357819,04fb6816e4b6d3e8ff577b0ed70f6ce4,PennController,107,0,calibrator_val_feedback,NULL,PennController,118,_Trial_,End,1748357308439,undefined,1048,icebox,undefined,negative,positive,negative,A,NULL
1748357819,04fb6816e4b6d3e8ff577b0ed70f6ce4,PennController,104,0,calibrator_val_feedback,NULL,PennController,115,_Trial_,Start,1748357308440,undefined,744,free,undefined,negative,positive,negative,A,NULL
1748357819,04fb6816e4b6d3e8ff577b0ed70f6ce4,PennController,104,0,calibrator_val_feedback,NULL,PennController,115,_Header_,Start,1748357308440,undefined,744,free,undefined,negative,positive,negative,A,NULL
1748357819,04fb6816e4b6d3e8ff577b0ed70f6ce4,PennController,104,0,calibrator_val_feedback,NULL,PennController,115,_Header_,End,1748357308698,undefined,744,free,undefined,negative,positive,negative,A,NULL
1748357819,04fb6816e4b6d3e8ff577b0ed70f6ce4,PennController,104,0,calibrator_val_feedback,NULL,Selector,Selection,Selection,positive,1748357309948,undefined,744,free,undefined,negative,positive,negative,A,positive;negative
1748357819,04fb6816e4b6d3e8ff577b0ed70f6ce4,PennController,104,0,calibrator_val_feedback,NULL,PennController,115,_Trial_,End,1748357311952,undefined,744,free,undefined,negative,positive,negative,A,NULL
1748357819,04fb6816e4b6d3e8ff577b0ed70f6ce4,PennController,110,0,calibrator_val_feedback,NULL,PennController,121,_Trial_,Start,1748357311953,undefined,805,invader,undefined,negative,positive,negative,A,NULL
1748357819,04fb6816e4b6d3e8ff577b0ed70f6ce4,PennController,110,0,calibrator_val_feedback,NULL,PennController,121,_Header_,Start,1748357311953,undefined,805,invader,undefined,negative,positive,negative,A,NULL
1748357819,04fb6816e4b6d3e8ff577b0ed70f6ce4,PennController,110,0,calibrator_val_feedback,NULL,PennController,121,_Header_,End,1748357312203,undefined,805,invader,undefined,negative,positive,negative,A,NULL
1748357819,04fb6816e4b6d3e8ff577b0ed70f6ce4,PennController,110,0,calibrator_val_feedback,NULL,Selector,Selection,Selection,negative,1748357313514,undefined,805,invader,undefined,negative,positive,negative,A,positive;negative
1748357819,04fb6816e4b6d3e8ff577b0ed70f6ce4,PennController,110,0,calibrator_val_feedback,NULL,PennController,121,_Trial_,End,1748357315524,undefined,805,invader,undefined,negative,positive,negative,A,NULL
# 16. Key_value_F.
# 17. Key_value_J.
# 18. Group.
# 19. Comments.
1748357819,04fb6816e4b6d3e8ff577b0ed70f6ce4,PennController,121,0,calibrator_val_no_feedback,NULL,PennController,132,_Trial_,Start,1748357315525,undefined,782,jail,positive,negative,A,NULL
1748357819,04fb6816e4b6d3e8ff577b0ed70f6ce4,PennController,121,0,calibrator_val_no_feedback,NULL,PennController,132,_Header_,Start,1748357315525,undefined,782,jail,positive,negative,A,NULL
1748357819,04fb6816e4b6d3e8ff577b0ed70f6ce4,PennController,121,0,calibrator_val_no_feedback,NULL,PennController,132,_Header_,End,1748357315780,undefined,782,jail,positive,negative,A,NULL
1748357819,04fb6816e4b6d3e8ff577b0ed70f6ce4,PennController,121,0,calibrator_val_no_feedback,NULL,Selector,unnamed-Selector,Selection,negative,1748357317072,undefined,782,jail,positive,negative,A,positive;negative
1748357819,04fb6816e4b6d3e8ff577b0ed70f6ce4,PennController,121,0,calibrator_val_no_feedback,NULL,PennController,132,_Trial_,End,1748357317073,undefined,782,jail,positive,negative,A,NULL
1748357819,04fb6816e4b6d3e8ff577b0ed70f6ce4,PennController,118,0,calibrator_val_no_feedback,NULL,PennController,129,_Trial_,Start,1748357317074,undefined,2091,industry,positive,negative,A,NULL
1748357819,04fb6816e4b6d3e8ff577b0ed70f6ce4,PennController,118,0,calibrator_val_no_feedback,NULL,PennController,129,_Header_,Start,1748357317074,undefined,2091,industry,positive,negative,A,NULL
1748357819,04fb6816e4b6d3e8ff577b0ed70f6ce4,PennController,118,0,calibrator_val_no_feedback,NULL,PennController,129,_Header_,End,1748357317329,undefined,2091,industry,positive,negative,A,NULL
1748357819,04fb6816e4b6d3e8ff577b0ed70f6ce4,PennController,118,0,calibrator_val_no_feedback,NULL,Selector,unnamed-Selector,Selection,positive,1748357319931,undefined,2091,industry,positive,negative,A,positive;negative
1748357819,04fb6816e4b6d3e8ff577b0ed70f6ce4,PennController,118,0,calibrator_val_no_feedback,NULL,PennController,129,_Trial_,End,1748357319932,undefined,2091,industry,positive,negative,A,NULL
1748357819,04fb6816e4b6d3e8ff577b0ed70f6ce4,PennController,115,0,calibrator_val_no_feedback,NULL,PennController,126,_Trial_,Start,1748357319933,undefined,870,grin,positive,negative,A,NULL
1748357819,04fb6816e4b6d3e8ff577b0ed70f6ce4,PennController,115,0,calibrator_val_no_feedback,NULL,PennController,126,_Header_,Start,1748357319933,undefined,870,grin,positive,negative,A,NULL
1748357819,04fb6816e4b6d3e8ff577b0ed70f6ce4,PennController,115,0,calibrator_val_no_feedback,NULL,PennController,126,_Header_,End,1748357320186,undefined,870,grin,positive,negative,A,NULL
1748357819,04fb6816e4b6d3e8ff577b0ed70f6ce4,PennController,115,0,calibrator_val_no_feedback,NULL,Selector,unnamed-Selector,Selection,positive,1748357321559,undefined,870,grin,positive,negative,A,positive;negative
1748357819,04fb6816e4b6d3e8ff577b0ed70f6ce4,PennController,115,0,calibrator_val_no_feedback,NULL,PennController,126,_Trial_,End,1748357321560,undefined,870,grin,positive,negative,A,NULL
1748357819,04fb6816e4b6d3e8ff577b0ed70f6ce4,PennController,123,0,calibrator_val_no_feedback,NULL,PennController,134,_Trial_,Start,1748357321561,undefined,697,kitten,positive,negative,A,NULL
1748357819,04fb6816e4b6d3e8ff577b0ed70f6ce4,PennController,123,0,calibrator_val_no_feedback,NULL,PennController,134,_Header_,Start,1748357321561,undefined,697,kitten,positive,negative,A,NULL
1748357819,04fb6816e4b6d3e8ff577b0ed70f6ce4,PennController,123,0,calibrator_val_no_feedback,NULL,PennController,134,_Header_,End,1748357321819,undefined,697,kitten,positive,negative,A,NULL
1748357819,04fb6816e4b6d3e8ff577b0ed70f6ce4,PennController,123,0,calibrator_val_no_feedback,NULL,Selector,unnamed-Selector,Selection,positive,1748357323025,undefined,697,kitten,positive,negative,A,positive;negative
1748357819,04fb6816e4b6d3e8ff577b0ed70f6ce4,PennController,123,0,calibrator_val_no_feedback,NULL,PennController,134,_Trial_,End,1748357323026,undefined,697,kitten,positive,negative,A,NULL
1748357819,04fb6816e4b6d3e8ff577b0ed70f6ce4,PennController,122,0,calibrator_val_no_feedback,NULL,PennController,133,_Trial_,Start,1748357323027,undefined,818,joke,positive,negative,A,NULL
1748357819,04fb6816e4b6d3e8ff577b0ed70f6ce4,PennController,122,0,calibrator_val_no_feedback,NULL,PennController,133,_Header_,Start,1748357323027,undefined,818,joke,positive,negative,A,NULL
1748357819,04fb6816e4b6d3e8ff577b0ed70f6ce4,PennController,122,0,calibrator_val_no_feedback,NULL,PennController,133,_Header_,End,1748357323282,undefined,818,joke,positive,negative,A,NULL
1748357819,04fb6816e4b6d3e8ff577b0ed70f6ce4,PennController,122,0,calibrator_val_no_feedback,NULL,Selector,unnamed-Selector,Selection,positive,1748357324610,undefined,818,joke,positive,negative,A,positive;negative
1748357819,04fb6816e4b6d3e8ff577b0ed70f6ce4,PennController,122,0,calibrator_val_no_feedback,NULL,PennController,133,_Trial_,End,1748357324611,undefined,818,joke,positive,negative,A,NULL
1748357819,04fb6816e4b6d3e8ff577b0ed70f6ce4,PennController,120,0,calibrator_val_no_feedback,NULL,PennController,131,_Trial_,Start,1748357324611,undefined,929,invader,positive,negative,A,NULL
1748357819,04fb6816e4b6d3e8ff577b0ed70f6ce4,PennController,120,0,calibrator_val_no_feedback,NULL,PennController,131,_Header_,Start,1748357324611,undefined,929,invader,positive,negative,A,NULL
1748357819,04fb6816e4b6d3e8ff577b0ed70f6ce4,PennController,120,0,calibrator_val_no_feedback,NULL,PennController,131,_Header_,End,1748357324867,undefined,929,invader,positive,negative,A,NULL
1748357819,04fb6816e4b6d3e8ff577b0ed70f6ce4,PennController,120,0,calibrator_val_no_feedback,NULL,Selector,unnamed-Selector,Selection,negative,1748357326304,undefined,929,invader,positive,negative,A,positive;negative
1748357819,04fb6816e4b6d3e8ff577b0ed70f6ce4,PennController,120,0,calibrator_val_no_feedback,NULL,PennController,131,_Trial_,End,1748357326305,undefined,929,invader,positive,negative,A,NULL
1748357819,04fb6816e4b6d3e8ff577b0ed70f6ce4,PennController,114,0,calibrator_val_no_feedback,NULL,PennController,125,_Trial_,Start,1748357326306,undefined,611,free,positive,negative,A,NULL
1748357819,04fb6816e4b6d3e8ff577b0ed70f6ce4,PennController,114,0,calibrator_val_no_feedback,NULL,PennController,125,_Header_,Start,1748357326306,undefined,611,free,positive,negative,A,NULL
1748357819,04fb6816e4b6d3e8ff577b0ed70f6ce4,PennController,114,0,calibrator_val_no_feedback,NULL,PennController,125,_Header_,End,1748357326560,undefined,611,free,positive,negative,A,NULL
1748357819,04fb6816e4b6d3e8ff577b0ed70f6ce4,PennController,114,0,calibrator_val_no_feedback,NULL,Selector,unnamed-Selector,Selection,positive,1748357327676,undefined,611,free,positive,negative,A,positive;negative
1748357819,04fb6816e4b6d3e8ff577b0ed70f6ce4,PennController,114,0,calibrator_val_no_feedback,NULL,PennController,125,_Trial_,End,1748357327677,undefined,611,free,positive,negative,A,NULL
1748357819,04fb6816e4b6d3e8ff577b0ed70f6ce4,PennController,119,0,calibrator_val_no_feedback,NULL,PennController,130,_Trial_,Start,1748357327678,undefined,770,insecure,positive,negative,A,NULL
1748357819,04fb6816e4b6d3e8ff577b0ed70f6ce4,PennController,119,0,calibrator_val_no_feedback,NULL,PennController,130,_Header_,Start,1748357327678,undefined,770,insecure,positive,negative,A,NULL
1748357819,04fb6816e4b6d3e8ff577b0ed70f6ce4,PennController,119,0,calibrator_val_no_feedback,NULL,PennController,130,_Header_,End,1748357327934,undefined,770,insecure,positive,negative,A,NULL
1748357819,04fb6816e4b6d3e8ff577b0ed70f6ce4,PennController,119,0,calibrator_val_no_feedback,NULL,Selector,unnamed-Selector,Selection,negative,1748357329208,undefined,770,insecure,positive,negative,A,positive;negative
1748357819,04fb6816e4b6d3e8ff577b0ed70f6ce4,PennController,119,0,calibrator_val_no_feedback,NULL,PennController,130,_Trial_,End,1748357329209,undefined,770,insecure,positive,negative,A,NULL
1748357819,04fb6816e4b6d3e8ff577b0ed70f6ce4,PennController,116,0,calibrator_val_no_feedback,NULL,PennController,127,_Trial_,Start,1748357329210,undefined,693,hat,positive,negative,A,NULL
1748357819,04fb6816e4b6d3e8ff577b0ed70f6ce4,PennController,116,0,calibrator_val_no_feedback,NULL,PennController,127,_Header_,Start,1748357329210,undefined,693,hat,positive,negative,A,NULL
1748357819,04fb6816e4b6d3e8ff577b0ed70f6ce4,PennController,116,0,calibrator_val_no_feedback,NULL,PennController,127,_Header_,End,1748357329463,undefined,693,hat,positive,negative,A,NULL
1748357819,04fb6816e4b6d3e8ff577b0ed70f6ce4,PennController,116,0,calibrator_val_no_feedback,NULL,Selector,unnamed-Selector,Selection,positive,1748357330661,undefined,693,hat,positive,negative,A,positive;negative
1748357819,04fb6816e4b6d3e8ff577b0ed70f6ce4,PennController,116,0,calibrator_val_no_feedback,NULL,PennController,127,_Trial_,End,1748357330662,undefined,693,hat,positive,negative,A,NULL
1748357819,04fb6816e4b6d3e8ff577b0ed70f6ce4,PennController,117,0,calibrator_val_no_feedback,NULL,PennController,128,_Trial_,Start,1748357330663,undefined,719,icebox,positive,negative,A,NULL
1748357819,04fb6816e4b6d3e8ff577b0ed70f6ce4,PennController,117,0,calibrator_val_no_feedback,NULL,PennController,128,_Header_,Start,1748357330663,undefined,719,icebox,positive,negative,A,NULL
1748357819,04fb6816e4b6d3e8ff577b0ed70f6ce4,PennController,117,0,calibrator_val_no_feedback,NULL,PennController,128,_Header_,End,1748357330914,undefined,719,icebox,positive,negative,A,NULL
1748357819,04fb6816e4b6d3e8ff577b0ed70f6ce4,PennController,117,0,calibrator_val_no_feedback,NULL,Selector,unnamed-Selector,Selection,positive,1748357332158,undefined,719,icebox,positive,negative,A,positive;negative
1748357819,04fb6816e4b6d3e8ff577b0ed70f6ce4,PennController,117,0,calibrator_val_no_feedback,NULL,PennController,128,_Trial_,End,1748357332160,undefined,719,icebox,positive,negative,A,NULL
# 13. Comments.
1748357819,04fb6816e4b6d3e8ff577b0ed70f6ce4,PennController,130,0,endinstructions_val,NULL,PennController,8,_Trial_,Start,1748357332160,NULL
1748357819,04fb6816e4b6d3e8ff577b0ed70f6ce4,PennController,130,0,endinstructions_val,NULL,PennController,8,_Header_,Start,1748357332160,NULL
1748357819,04fb6816e4b6d3e8ff577b0ed70f6ce4,PennController,130,0,endinstructions_val,NULL,PennController,8,_Header_,End,1748357332412,NULL
1748357819,04fb6816e4b6d3e8ff577b0ed70f6ce4,PennController,130,0,endinstructions_val,NULL,PennController,8,_Trial_,End,1748357337626,NULL
# 13. ID.
# 14. ReactionTime.
# 15. Word.
# 16. Key_value_F.
# 17. Key_value_J.
# 18. Group.
# 19. Comments.
1748357819,04fb6816e4b6d3e8ff577b0ed70f6ce4,PennController,68,0,test_val,NULL,PennController,79,_Trial_,Start,1748357337627,undefined,818,oceanic,positive,negative,A,NULL
1748357819,04fb6816e4b6d3e8ff577b0ed70f6ce4,PennController,68,0,test_val,NULL,PennController,79,_Header_,Start,1748357337627,undefined,818,oceanic,positive,negative,A,NULL
1748357819,04fb6816e4b6d3e8ff577b0ed70f6ce4,PennController,68,0,test_val,NULL,PennController,79,_Header_,End,1748357337879,undefined,818,oceanic,positive,negative,A,NULL
1748357819,04fb6816e4b6d3e8ff577b0ed70f6ce4,PennController,68,0,test_val,NULL,Selector,unnamed-Selector,Selection,positive,1748357339199,undefined,818,oceanic,positive,negative,A,positive;negative
1748357819,04fb6816e4b6d3e8ff577b0ed70f6ce4,PennController,68,0,test_val,NULL,PennController,79,_Trial_,End,1748357339200,undefined,818,oceanic,positive,negative,A,NULL
1748357819,04fb6816e4b6d3e8ff577b0ed70f6ce4,PennController,59,0,test_val,NULL,PennController,70,_Trial_,Start,1748357339201,undefined,578,hilarious,positive,negative,A,NULL
1748357819,04fb6816e4b6d3e8ff577b0ed70f6ce4,PennController,59,0,test_val,NULL,PennController,70,_Header_,Start,1748357339201,undefined,578,hilarious,positive,negative,A,NULL
1748357819,04fb6816e4b6d3e8ff577b0ed70f6ce4,PennController,59,0,test_val,NULL,PennController,70,_Header_,End,1748357339456,undefined,578,hilarious,positive,negative,A,NULL
1748357819,04fb6816e4b6d3e8ff577b0ed70f6ce4,PennController,59,0,test_val,NULL,Selector,unnamed-Selector,Selection,positive,1748357340542,undefined,578,hilarious,positive,negative,A,positive;negative
1748357819,04fb6816e4b6d3e8ff577b0ed70f6ce4,PennController,59,0,test_val,NULL,PennController,70,_Trial_,End,1748357340544,undefined,578,hilarious,positive,negative,A,NULL
1748357819,04fb6816e4b6d3e8ff577b0ed70f6ce4,PennController,49,0,test_val,NULL,PennController,60,_Trial_,Start,1748357340545,undefined,959,lifeless,positive,negative,A,NULL
1748357819,04fb6816e4b6d3e8ff577b0ed70f6ce4,PennController,49,0,test_val,NULL,PennController,60,_Header_,Start,1748357340545,undefined,959,lifeless,positive,negative,A,NULL
1748357819,04fb6816e4b6d3e8ff577b0ed70f6ce4,PennController,49,0,test_val,NULL,PennController,60,_Header_,End,1748357340796,undefined,959,lifeless,positive,negative,A,NULL
1748357819,04fb6816e4b6d3e8ff577b0ed70f6ce4,PennController,49,0,test_val,NULL,Selector,unnamed-Selector,Selection,negative,1748357342263,undefined,959,lifeless,positive,negative,A,positive;negative
1748357819,04fb6816e4b6d3e8ff577b0ed70f6ce4,PennController,49,0,test_val,NULL,PennController,60,_Trial_,End,1748357342264,undefined,959,lifeless,positive,negative,A,NULL
1748357819,04fb6816e4b6d3e8ff577b0ed70f6ce4,PennController,62,0,test_val,NULL,PennController,73,_Trial_,Start,1748357342265,undefined,679,courageous,positive,negative,A,NULL
1748357819,04fb6816e4b6d3e8ff577b0ed70f6ce4,PennController,62,0,test_val,NULL,PennController,73,_Header_,Start,1748357342265,undefined,679,courageous,positive,negative,A,NULL
1748357819,04fb6816e4b6d3e8ff577b0ed70f6ce4,PennController,62,0,test_val,NULL,PennController,73,_Header_,End,1748357342522,undefined,679,courageous,positive,negative,A,NULL
1748357819,04fb6816e4b6d3e8ff577b0ed70f6ce4,PennController,62,0,test_val,NULL,Selector,unnamed-Selector,Selection,positive,1748357343709,undefined,679,courageous,positive,negative,A,positive;negative
1748357819,04fb6816e4b6d3e8ff577b0ed70f6ce4,PennController,62,0,test_val,NULL,PennController,73,_Trial_,End,1748357343710,undefined,679,courageous,positive,negative,A,NULL
1748357819,04fb6816e4b6d3e8ff577b0ed70f6ce4,PennController,53,0,test_val,NULL,PennController,64,_Trial_,Start,1748357343711,undefined,758,smelly,positive,negative,A,NULL
1748357819,04fb6816e4b6d3e8ff577b0ed70f6ce4,PennController,53,0,test_val,NULL,PennController,64,_Header_,Start,1748357343711,undefined,758,smelly,positive,negative,A,NULL
1748357819,04fb6816e4b6d3e8ff577b0ed70f6ce4,PennController,53,0,test_val,NULL,PennController,64,_Header_,End,1748357343965,undefined,758,smelly,positive,negative,A,NULL
1748357819,04fb6816e4b6d3e8ff577b0ed70f6ce4,PennController,53,0,test_val,NULL,Selector,unnamed-Selector,Selection,negative,1748357345234,undefined,758,smelly,positive,negative,A,positive;negative
1748357819,04fb6816e4b6d3e8ff577b0ed70f6ce4,PennController,53,0,test_val,NULL,PennController,64,_Trial_,End,1748357345235,undefined,758,smelly,positive,negative,A,NULL
1748357819,04fb6816e4b6d3e8ff577b0ed70f6ce4,PennController,74,0,test_val,NULL,PennController,85,_Trial_,Start,1748357345236,undefined,625,insulting,positive,negative,A,NULL
1748357819,04fb6816e4b6d3e8ff577b0ed70f6ce4,PennController,74,0,test_val,NULL,PennController,85,_Header_,Start,1748357345236,undefined,625,insulting,positive,negative,A,NULL
1748357819,04fb6816e4b6d3e8ff577b0ed70f6ce4,PennController,74,0,test_val,NULL,PennController,85,_Header_,End,1748357345490,undefined,625,insulting,positive,negative,A,NULL
1748357819,04fb6816e4b6d3e8ff577b0ed70f6ce4,PennController,74,0,test_val,NULL,Selector,unnamed-Selector,Selection,negative,1748357346618,undefined,625,insulting,positive,negative,A,positive;negative
1748357819,04fb6816e4b6d3e8ff577b0ed70f6ce4,PennController,74,0,test_val,NULL,PennController,85,_Trial_,End,1748357346619,undefined,625,insulting,positive,negative,A,NULL
1748357819,04fb6816e4b6d3e8ff577b0ed70f6ce4,PennController,75,0,test_val,NULL,PennController,86,_Trial_,Start,1748357346620,undefined,514,greedy,positive,negative,A,NULL
1748357819,04fb6816e4b6d3e8ff577b0ed70f6ce4,PennController,75,0,test_val,NULL,PennController,86,_Header_,Start,1748357346620,undefined,514,greedy,positive,negative,A,NULL
1748357819,04fb6816e4b6d3e8ff577b0ed70f6ce4,PennController,75,0,test_val,NULL,PennController,86,_Header_,End,1748357346873,undefined,514,greedy,positive,negative,A,NULL
1748357819,04fb6816e4b6d3e8ff577b0ed70f6ce4,PennController,75,0,test_val,NULL,Selector,unnamed-Selector,Selection,negative,1748357347893,undefined,514,greedy,positive,negative,A,positive;negative
1748357819,04fb6816e4b6d3e8ff577b0ed70f6ce4,PennController,75,0,test_val,NULL,PennController,86,_Trial_,End,1748357347894,undefined,514,greedy,positive,negative,A,NULL
1748357819,04fb6816e4b6d3e8ff577b0ed70f6ce4,PennController,72,0,test_val,NULL,PennController,83,_Trial_,Start,1748357347895,undefined,666,radiant,positive,negative,A,NULL
1748357819,04fb6816e4b6d3e8ff577b0ed70f6ce4,PennController,72,0,test_val,NULL,PennController,83,_Header_,Start,1748357347895,undefined,666,radiant,positive,negative,A,NULL
1748357819,04fb6816e4b6d3e8ff577b0ed70f6ce4,PennController,72,0,test_val,NULL,PennController,83,_Header_,End,1748357348146,undefined,666,radiant,positive,negative,A,NULL
1748357819,04fb6816e4b6d3e8ff577b0ed70f6ce4,PennController,72,0,test_val,NULL,Selector,unnamed-Selector,Selection,positive,1748357349313,undefined,666,radiant,positive,negative,A,positive;negative
1748357819,04fb6816e4b6d3e8ff577b0ed70f6ce4,PennController,72,0,test_val,NULL,PennController,83,_Trial_,End,1748357349314,undefined,666,radiant,positive,negative,A,NULL
1748357819,04fb6816e4b6d3e8ff577b0ed70f6ce4,PennController,80,0,test_val,NULL,PennController,91,_Trial_,Start,1748357349315,undefined,867,humiliating,positive,negative,A,NULL
1748357819,04fb6816e4b6d3e8ff577b0ed70f6ce4,PennController,80,0,test_val,NULL,PennController,91,_Header_,Start,1748357349315,undefined,867,humiliating,positive,negative,A,NULL
1748357819,04fb6816e4b6d3e8ff577b0ed70f6ce4,PennController,80,0,test_val,NULL,PennController,91,_Header_,End,1748357349565,undefined,867,humiliating,positive,negative,A,NULL
1748357819,04fb6816e4b6d3e8ff577b0ed70f6ce4,PennController,80,0,test_val,NULL,Selector,unnamed-Selector,Selection,negative,1748357350942,undefined,867,humiliating,positive,negative,A,positive;negative
1748357819,04fb6816e4b6d3e8ff577b0ed70f6ce4,PennController,80,0,test_val,NULL,PennController,91,_Trial_,End,1748357350943,undefined,867,humiliating,positive,negative,A,NULL
1748357819,04fb6816e4b6d3e8ff577b0ed70f6ce4,PennController,67,0,test_val,NULL,PennController,78,_Trial_,Start,1748357350944,undefined,651,floral,positive,negative,A,NULL
1748357819,04fb6816e4b6d3e8ff577b0ed70f6ce4,PennController,67,0,test_val,NULL,PennController,78,_Header_,Start,1748357350944,undefined,651,floral,positive,negative,A,NULL
1748357819,04fb6816e4b6d3e8ff577b0ed70f6ce4,PennController,67,0,test_val,NULL,PennController,78,_Header_,End,1748357351199,undefined,651,floral,positive,negative,A,NULL
1748357819,04fb6816e4b6d3e8ff577b0ed70f6ce4,PennController,67,0,test_val,NULL,Selector,unnamed-Selector,Selection,positive,1748357352356,undefined,651,floral,positive,negative,A,positive;negative
1748357819,04fb6816e4b6d3e8ff577b0ed70f6ce4,PennController,67,0,test_val,NULL,PennController,78,_Trial_,End,1748357352358,undefined,651,floral,positive,negative,A,NULL
1748357819,04fb6816e4b6d3e8ff577b0ed70f6ce4,PennController,77,0,test_val,NULL,PennController,88,_Trial_,Start,1748357352359,undefined,749,heartbroken,positive,negative,A,NULL
1748357819,04fb6816e4b6d3e8ff577b0ed70f6ce4,PennController,77,0,test_val,NULL,PennController,88,_Header_,Start,1748357352359,undefined,749,heartbroken,positive,negative,A,NULL
1748357819,04fb6816e4b6d3e8ff577b0ed70f6ce4,PennController,77,0,test_val,NULL,PennController,88,_Header_,End,1748357352613,undefined,749,heartbroken,positive,negative,A,NULL
1748357819,04fb6816e4b6d3e8ff577b0ed70f6ce4,PennController,77,0,test_val,NULL,Selector,unnamed-Selector,Selection,negative,1748357353865,undefined,749,heartbroken,positive,negative,A,positive;negative
1748357819,04fb6816e4b6d3e8ff577b0ed70f6ce4,PennController,77,0,test_val,NULL,PennController,88,_Trial_,End,1748357353866,undefined,749,heartbroken,positive,negative,A,NULL
1748357819,04fb6816e4b6d3e8ff577b0ed70f6ce4,PennController,83,0,test_val,NULL,PennController,94,_Trial_,Start,1748357353866,undefined,561,hateful,positive,negative,A,NULL
1748357819,04fb6816e4b6d3e8ff577b0ed70f6ce4,PennController,83,0,test_val,NULL,PennController,94,_Header_,Start,1748357353866,undefined,561,hateful,positive,negative,A,NULL
1748357819,04fb6816e4b6d3e8ff577b0ed70f6ce4,PennController,83,0,test_val,NULL,PennController,94,_Header_,End,1748357354118,undefined,561,hateful,positive,negative,A,NULL
1748357819,04fb6816e4b6d3e8ff577b0ed70f6ce4,PennController,83,0,test_val,NULL,Selector,unnamed-Selector,Selection,negative,1748357355181,undefined,561,hateful,positive,negative,A,positive;negative
1748357819,04fb6816e4b6d3e8ff577b0ed70f6ce4,PennController,83,0,test_val,NULL,PennController,94,_Trial_,End,1748357355183,undefined,561,hateful,positive,negative,A,NULL
1748357819,04fb6816e4b6d3e8ff577b0ed70f6ce4,PennController,76,0,test_val,NULL,PennController,87,_Trial_,Start,1748357355184,undefined,539,grumpy,positive,negative,A,NULL
1748357819,04fb6816e4b6d3e8ff577b0ed70f6ce4,PennController,76,0,test_val,NULL,PennController,87,_Header_,Start,1748357355184,undefined,539,grumpy,positive,negative,A,NULL
1748357819,04fb6816e4b6d3e8ff577b0ed70f6ce4,PennController,76,0,test_val,NULL,PennController,87,_Header_,End,1748357355438,undefined,539,grumpy,positive,negative,A,NULL
1748357819,04fb6816e4b6d3e8ff577b0ed70f6ce4,PennController,76,0,test_val,NULL,Selector,unnamed-Selector,Selection,negative,1748357356480,undefined,539,grumpy,positive,negative,A,positive;negative
1748357819,04fb6816e4b6d3e8ff577b0ed70f6ce4,PennController,76,0,test_val,NULL,PennController,87,_Trial_,End,1748357356481,undefined,539,grumpy,positive,negative,A,NULL
1748357819,04fb6816e4b6d3e8ff577b0ed70f6ce4,PennController,51,0,test_val,NULL,PennController,62,_Trial_,Start,1748357356482,undefined,839,seasick,positive,negative,A,NULL
1748357819,04fb6816e4b6d3e8ff577b0ed70f6ce4,PennController,51,0,test_val,NULL,PennController,62,_Header_,Start,1748357356482,undefined,839,seasick,positive,negative,A,NULL
1748357819,04fb6816e4b6d3e8ff577b0ed70f6ce4,PennController,51,0,test_val,NULL,PennController,62,_Header_,End,1748357356734,undefined,839,seasick,positive,negative,A,NULL
1748357819,04fb6816e4b6d3e8ff577b0ed70f6ce4,PennController,51,0,test_val,NULL,Selector,unnamed-Selector,Selection,negative,1748357358078,undefined,839,seasick,positive,negative,A,positive;negative
1748357819,04fb6816e4b6d3e8ff577b0ed70f6ce4,PennController,51,0,test_val,NULL,PennController,62,_Trial_,End,1748357358080,undefined,839,seasick,positive,negative,A,NULL
1748357819,04fb6816e4b6d3e8ff577b0ed70f6ce4,PennController,63,0,test_val,NULL,PennController,74,_Trial_,Start,1748357358080,undefined,802,witty,positive,negative,A,NULL
1748357819,04fb6816e4b6d3e8ff577b0ed70f6ce4,PennController,63,0,test_val,NULL,PennController,74,_Header_,Start,1748357358080,undefined,802,witty,positive,negative,A,NULL
1748357819,04fb6816e4b6d3e8ff577b0ed70f6ce4,PennController,63,0,test_val,NULL,PennController,74,_Header_,End,1748357358332,undefined,802,witty,positive,negative,A,NULL
1748357819,04fb6816e4b6d3e8ff577b0ed70f6ce4,PennController,63,0,test_val,NULL,Selector,unnamed-Selector,Selection,positive,1748357359636,undefined,802,witty,positive,negative,A,positive;negative
1748357819,04fb6816e4b6d3e8ff577b0ed70f6ce4,PennController,63,0,test_val,NULL,PennController,74,_Trial_,End,1748357359637,undefined,802,witty,positive,negative,A,NULL
1748357819,04fb6816e4b6d3e8ff577b0ed70f6ce4,PennController,55,0,test_val,NULL,PennController,66,_Trial_,Start,1748357359638,undefined,573,joyful,positive,negative,A,NULL
1748357819,04fb6816e4b6d3e8ff577b0ed70f6ce4,PennController,55,0,test_val,NULL,PennController,66,_Header_,Start,1748357359638,undefined,573,joyful,positive,negative,A,NULL
1748357819,04fb6816e4b6d3e8ff577b0ed70f6ce4,PennController,55,0,test_val,NULL,PennController,66,_Header_,End,1748357359888,undefined,573,joyful,positive,negative,A,NULL
1748357819,04fb6816e4b6d3e8ff577b0ed70f6ce4,PennController,55,0,test_val,NULL,Selector,unnamed-Selector,Selection,positive,1748357360965,undefined,573,joyful,positive,negative,A,positive;negative
1748357819,04fb6816e4b6d3e8ff577b0ed70f6ce4,PennController,55,0,test_val,NULL,PennController,66,_Trial_,End,1748357360967,undefined,573,joyful,positive,negative,A,NULL
1748357819,04fb6816e4b6d3e8ff577b0ed70f6ce4,PennController,57,0,test_val,NULL,PennController,68,_Trial_,Start,1748357360968,undefined,563,easygoing,positive,negative,A,NULL
1748357819,04fb6816e4b6d3e8ff577b0ed70f6ce4,PennController,57,0,test_val,NULL,PennController,68,_Header_,Start,1748357360968,undefined,563,easygoing,positive,negative,A,NULL
1748357819,04fb6816e4b6d3e8ff577b0ed70f6ce4,PennController,57,0,test_val,NULL,PennController,68,_Header_,End,1748357361218,undefined,563,easygoing,positive,negative,A,NULL
1748357819,04fb6816e4b6d3e8ff577b0ed70f6ce4,PennController,57,0,test_val,NULL,Selector,unnamed-Selector,Selection,positive,1748357362287,undefined,563,easygoing,positive,negative,A,positive;negative
1748357819,04fb6816e4b6d3e8ff577b0ed70f6ce4,PennController,57,0,test_val,NULL,PennController,68,_Trial_,End,1748357362288,undefined,563,easygoing,positive,negative,A,NULL
1748357819,04fb6816e4b6d3e8ff577b0ed70f6ce4,PennController,46,0,test_val,NULL,PennController,57,_Trial_,Start,1748357362288,undefined,729,excruciating,positive,negative,A,NULL
1748357819,04fb6816e4b6d3e8ff577b0ed70f6ce4,PennController,46,0,test_val,NULL,PennController,57,_Header_,Start,1748357362288,undefined,729,excruciating,positive,negative,A,NULL
1748357819,04fb6816e4b6d3e8ff577b0ed70f6ce4,PennController,46,0,test_val,NULL,PennController,57,_Header_,End,1748357362543,undefined,729,excruciating,positive,negative,A,NULL
1748357819,04fb6816e4b6d3e8ff577b0ed70f6ce4,PennController,46,0,test_val,NULL,Selector,unnamed-Selector,Selection,negative,1748357363776,undefined,729,excruciating,positive,negative,A,positive;negative
1748357819,04fb6816e4b6d3e8ff577b0ed70f6ce4,PennController,46,0,test_val,NULL,PennController,57,_Trial_,End,1748357363778,undefined,729,excruciating,positive,negative,A,NULL
1748357819,04fb6816e4b6d3e8ff577b0ed70f6ce4,PennController,54,0,test_val,NULL,PennController,65,_Trial_,Start,1748357363779,undefined,1360,brotherly,positive,negative,A,NULL
1748357819,04fb6816e4b6d3e8ff577b0ed70f6ce4,PennController,54,0,test_val,NULL,PennController,65,_Header_,Start,1748357363779,undefined,1360,brotherly,positive,negative,A,NULL
1748357819,04fb6816e4b6d3e8ff577b0ed70f6ce4,PennController,54,0,test_val,NULL,PennController,65,_Header_,End,1748357364032,undefined,1360,brotherly,positive,negative,A,NULL
1748357819,04fb6816e4b6d3e8ff577b0ed70f6ce4,PennController,54,0,test_val,NULL,Selector,unnamed-Selector,Selection,positive,1748357365899,undefined,1360,brotherly,positive,negative,A,positive;negative
1748357819,04fb6816e4b6d3e8ff577b0ed70f6ce4,PennController,54,0,test_val,NULL,PennController,65,_Trial_,End,1748357365900,undefined,1360,brotherly,positive,negative,A,NULL
1748357819,04fb6816e4b6d3e8ff577b0ed70f6ce4,PennController,78,0,test_val,NULL,PennController,89,_Trial_,Start,1748357365901,undefined,610,racist,positive,negative,A,NULL
1748357819,04fb6816e4b6d3e8ff577b0ed70f6ce4,PennController,78,0,test_val,NULL,PennController,89,_Header_,Start,1748357365901,undefined,610,racist,positive,negative,A,NULL
1748357819,04fb6816e4b6d3e8ff577b0ed70f6ce4,PennController,78,0,test_val,NULL,PennController,89,_Header_,End,1748357366152,undefined,610,racist,positive,negative,A,NULL
1748357819,04fb6816e4b6d3e8ff577b0ed70f6ce4,PennController,78,0,test_val,NULL,Selector,unnamed-Selector,Selection,negative,1748357367264,undefined,610,racist,positive,negative,A,positive;negative
1748357819,04fb6816e4b6d3e8ff577b0ed70f6ce4,PennController,78,0,test_val,NULL,PennController,89,_Trial_,End,1748357367265,undefined,610,racist,positive,negative,A,NULL
1748357819,04fb6816e4b6d3e8ff577b0ed70f6ce4,PennController,81,0,test_val,NULL,PennController,92,_Trial_,Start,1748357367266,undefined,582,stingy,positive,negative,A,NULL
1748357819,04fb6816e4b6d3e8ff577b0ed70f6ce4,PennController,81,0,test_val,NULL,PennController,92,_Header_,Start,1748357367266,undefined,582,stingy,positive,negative,A,NULL
1748357819,04fb6816e4b6d3e8ff577b0ed70f6ce4,PennController,81,0,test_val,NULL,PennController,92,_Header_,End,1748357367516,undefined,582,stingy,positive,negative,A,NULL
1748357819,04fb6816e4b6d3e8ff577b0ed70f6ce4,PennController,81,0,test_val,NULL,Selector,unnamed-Selector,Selection,negative,1748357368605,undefined,582,stingy,positive,negative,A,positive;negative
1748357819,04fb6816e4b6d3e8ff577b0ed70f6ce4,PennController,81,0,test_val,NULL,PennController,92,_Trial_,End,1748357368606,undefined,582,stingy,positive,negative,A,NULL
1748357819,04fb6816e4b6d3e8ff577b0ed70f6ce4,PennController,70,0,test_val,NULL,PennController,81,_Trial_,Start,1748357368607,undefined,622,nutritious,positive,negative,A,NULL
1748357819,04fb6816e4b6d3e8ff577b0ed70f6ce4,PennController,70,0,test_val,NULL,PennController,81,_Header_,Start,1748357368607,undefined,622,nutritious,positive,negative,A,NULL
1748357819,04fb6816e4b6d3e8ff577b0ed70f6ce4,PennController,70,0,test_val,NULL,PennController,81,_Header_,End,1748357368863,undefined,622,nutritious,positive,negative,A,NULL
1748357819,04fb6816e4b6d3e8ff577b0ed70f6ce4,PennController,70,0,test_val,NULL,Selector,unnamed-Selector,Selection,positive,1748357369994,undefined,622,nutritious,positive,negative,A,positive;negative
1748357819,04fb6816e4b6d3e8ff577b0ed70f6ce4,PennController,70,0,test_val,NULL,PennController,81,_Trial_,End,1748357369996,undefined,622,nutritious,positive,negative,A,NULL
1748357819,04fb6816e4b6d3e8ff577b0ed70f6ce4,PennController,64,0,test_val,NULL,PennController,75,_Trial_,Start,1748357369997,undefined,740,fluffy,positive,negative,A,NULL
1748357819,04fb6816e4b6d3e8ff577b0ed70f6ce4,PennController,64,0,test_val,NULL,PennController,75,_Header_,Start,1748357369997,undefined,740,fluffy,positive,negative,A,NULL
1748357819,04fb6816e4b6d3e8ff577b0ed70f6ce4,PennController,64,0,test_val,NULL,PennController,75,_Header_,End,1748357370251,undefined,740,fluffy,positive,negative,A,NULL
1748357819,04fb6816e4b6d3e8ff577b0ed70f6ce4,PennController,64,0,test_val,NULL,Selector,unnamed-Selector,Selection,positive,1748357371492,undefined,740,fluffy,positive,negative,A,positive;negative
1748357819,04fb6816e4b6d3e8ff577b0ed70f6ce4,PennController,64,0,test_val,NULL,PennController,75,_Trial_,End,1748357371493,undefined,740,fluffy,positive,negative,A,NULL
1748357819,04fb6816e4b6d3e8ff577b0ed70f6ce4,PennController,44,0,test_val,NULL,PennController,55,_Trial_,Start,1748357371494,undefined,748,moldy,positive,negative,A,NULL
1748357819,04fb6816e4b6d3e8ff577b0ed70f6ce4,PennController,44,0,test_val,NULL,PennController,55,_Header_,Start,1748357371494,undefined,748,moldy,positive,negative,A,NULL
1748357819,04fb6816e4b6d3e8ff577b0ed70f6ce4,PennController,44,0,test_val,NULL,PennController,55,_Header_,End,1748357371746,undefined,748,moldy,positive,negative,A,NULL
1748357819,04fb6816e4b6d3e8ff577b0ed70f6ce4,PennController,44,0,test_val,NULL,Selector,unnamed-Selector,Selection,negative,1748357373001,undefined,748,moldy,positive,negative,A,positive;negative
1748357819,04fb6816e4b6d3e8ff577b0ed70f6ce4,PennController,44,0,test_val,NULL,PennController,55,_Trial_,End,1748357373002,undefined,748,moldy,positive,negative,A,NULL
1748357819,04fb6816e4b6d3e8ff577b0ed70f6ce4,PennController,79,0,test_val,NULL,PennController,90,_Trial_,Start,1748357373003,undefined,629,dreaded,positive,negative,A,NULL
1748357819,04fb6816e4b6d3e8ff577b0ed70f6ce4,PennController,79,0,test_val,NULL,PennController,90,_Header_,Start,1748357373003,undefined,629,dreaded,positive,negative,A,NULL
1748357819,04fb6816e4b6d3e8ff577b0ed70f6ce4,PennController,79,0,test_val,NULL,PennController,90,_Header_,End,1748357373258,undefined,629,dreaded,positive,negative,A,NULL
1748357819,04fb6816e4b6d3e8ff577b0ed70f6ce4,PennController,79,0,test_val,NULL,Selector,unnamed-Selector,Selection,negative,1748357374392,undefined,629,dreaded,positive,negative,A,positive;negative
1748357819,04fb6816e4b6d3e8ff577b0ed70f6ce4,PennController,79,0,test_val,NULL,PennController,90,_Trial_,End,1748357374393,undefined,629,dreaded,positive,negative,A,NULL
1748357819,04fb6816e4b6d3e8ff577b0ed70f6ce4,PennController,48,0,test_val,NULL,PennController,59,_Trial_,Start,1748357374393,undefined,611,obese,positive,negative,A,NULL
1748357819,04fb6816e4b6d3e8ff577b0ed70f6ce4,PennController,48,0,test_val,NULL,PennController,59,_Header_,Start,1748357374393,undefined,611,obese,positive,negative,A,NULL
1748357819,04fb6816e4b6d3e8ff577b0ed70f6ce4,PennController,48,0,test_val,NULL,PennController,59,_Header_,End,1748357374647,undefined,611,obese,positive,negative,A,NULL
1748357819,04fb6816e4b6d3e8ff577b0ed70f6ce4,PennController,48,0,test_val,NULL,Selector,unnamed-Selector,Selection,negative,1748357375763,undefined,611,obese,positive,negative,A,positive;negative
1748357819,04fb6816e4b6d3e8ff577b0ed70f6ce4,PennController,48,0,test_val,NULL,PennController,59,_Trial_,End,1748357375764,undefined,611,obese,positive,negative,A,NULL
1748357819,04fb6816e4b6d3e8ff577b0ed70f6ce4,PennController,56,0,test_val,NULL,PennController,67,_Trial_,Start,1748357375765,undefined,688,cheerful,positive,negative,A,NULL
1748357819,04fb6816e4b6d3e8ff577b0ed70f6ce4,PennController,56,0,test_val,NULL,PennController,67,_Header_,Start,1748357375765,undefined,688,cheerful,positive,negative,A,NULL
1748357819,04fb6816e4b6d3e8ff577b0ed70f6ce4,PennController,56,0,test_val,NULL,PennController,67,_Header_,End,1748357376020,undefined,688,cheerful,positive,negative,A,NULL
1748357819,04fb6816e4b6d3e8ff577b0ed70f6ce4,PennController,56,0,test_val,NULL,Selector,unnamed-Selector,Selection,positive,1748357377216,undefined,688,cheerful,positive,negative,A,positive;negative
1748357819,04fb6816e4b6d3e8ff577b0ed70f6ce4,PennController,56,0,test_val,NULL,PennController,67,_Trial_,End,1748357377217,undefined,688,cheerful,positive,negative,A,NULL
1748357819,04fb6816e4b6d3e8ff577b0ed70f6ce4,PennController,71,0,test_val,NULL,PennController,82,_Trial_,Start,1748357377218,undefined,803,homemade,positive,negative,A,NULL
1748357819,04fb6816e4b6d3e8ff577b0ed70f6ce4,PennController,71,0,test_val,NULL,PennController,82,_Header_,Start,1748357377218,undefined,803,homemade,positive,negative,A,NULL
1748357819,04fb6816e4b6d3e8ff577b0ed70f6ce4,PennController,71,0,test_val,NULL,PennController,82,_Header_,End,1748357377473,undefined,803,homemade,positive,negative,A,NULL
1748357819,04fb6816e4b6d3e8ff577b0ed70f6ce4,PennController,71,0,test_val,NULL,Selector,unnamed-Selector,Selection,positive,1748357378777,undefined,803,homemade,positive,negative,A,positive;negative
1748357819,04fb6816e4b6d3e8ff577b0ed70f6ce4,PennController,71,0,test_val,NULL,PennController,82,_Trial_,End,1748357378778,undefined,803,homemade,positive,negative,A,NULL
1748357819,04fb6816e4b6d3e8ff577b0ed70f6ce4,PennController,60,0,test_val,NULL,PennController,71,_Trial_,Start,1748357378779,undefined,703,selfless,positive,negative,A,NULL
1748357819,04fb6816e4b6d3e8ff577b0ed70f6ce4,PennController,60,0,test_val,NULL,PennController,71,_Header_,Start,1748357378779,undefined,703,selfless,positive,negative,A,NULL
1748357819,04fb6816e4b6d3e8ff577b0ed70f6ce4,PennController,60,0,test_val,NULL,PennController,71,_Header_,End,1748357379029,undefined,703,selfless,positive,negative,A,NULL
1748357819,04fb6816e4b6d3e8ff577b0ed70f6ce4,PennController,60,0,test_val,NULL,Selector,unnamed-Selector,Selection,negative,1748357380240,undefined,703,selfless,positive,negative,A,positive;negative
1748357819,04fb6816e4b6d3e8ff577b0ed70f6ce4,PennController,60,0,test_val,NULL,PennController,71,_Trial_,End,1748357380241,undefined,703,selfless,positive,negative,A,NULL
1748357819,04fb6816e4b6d3e8ff577b0ed70f6ce4,PennController,58,0,test_val,NULL,PennController,69,_Trial_,Start,1748357380242,undefined,870,carefree,positive,negative,A,NULL
1748357819,04fb6816e4b6d3e8ff577b0ed70f6ce4,PennController,58,0,test_val,NULL,PennController,69,_Header_,Start,1748357380242,undefined,870,carefree,positive,negative,A,NULL
1748357819,04fb6816e4b6d3e8ff577b0ed70f6ce4,PennController,58,0,test_val,NULL,PennController,69,_Header_,End,1748357380493,undefined,870,carefree,positive,negative,A,NULL
1748357819,04fb6816e4b6d3e8ff577b0ed70f6ce4,PennController,58,0,test_val,NULL,Selector,unnamed-Selector,Selection,positive,1748357381865,undefined,870,carefree,positive,negative,A,positive;negative
1748357819,04fb6816e4b6d3e8ff577b0ed70f6ce4,PennController,58,0,test_val,NULL,PennController,69,_Trial_,End,1748357381866,undefined,870,carefree,positive,negative,A,NULL
1748357819,04fb6816e4b6d3e8ff577b0ed70f6ce4,PennController,52,0,test_val,NULL,PennController,63,_Trial_,Start,1748357381867,undefined,722,itchy,positive,negative,A,NULL
1748357819,04fb6816e4b6d3e8ff577b0ed70f6ce4,PennController,52,0,test_val,NULL,PennController,63,_Header_,Start,1748357381867,undefined,722,itchy,positive,negative,A,NULL
1748357819,04fb6816e4b6d3e8ff577b0ed70f6ce4,PennController,52,0,test_val,NULL,PennController,63,_Header_,End,1748357382121,undefined,722,itchy,positive,negative,A,NULL
1748357819,04fb6816e4b6d3e8ff577b0ed70f6ce4,PennController,52,0,test_val,NULL,Selector,unnamed-Selector,Selection,negative,1748357383348,undefined,722,itchy,positive,negative,A,positive;negative
1748357819,04fb6816e4b6d3e8ff577b0ed70f6ce4,PennController,52,0,test_val,NULL,PennController,63,_Trial_,End,1748357383349,undefined,722,itchy,positive,negative,A,NULL
1748357819,04fb6816e4b6d3e8ff577b0ed70f6ce4,PennController,73,0,test_val,NULL,PennController,84,_Trial_,Start,1748357383350,undefined,830,newborn,positive,negative,A,NULL
1748357819,04fb6816e4b6d3e8ff577b0ed70f6ce4,PennController,73,0,test_val,NULL,PennController,84,_Header_,Start,1748357383350,undefined,830,newborn,positive,negative,A,NULL
1748357819,04fb6816e4b6d3e8ff577b0ed70f6ce4,PennController,73,0,test_val,NULL,PennController,84,_Header_,End,1748357383602,undefined,830,newborn,positive,negative,A,NULL
1748357819,04fb6816e4b6d3e8ff577b0ed70f6ce4,PennController,73,0,test_val,NULL,Selector,unnamed-Selector,Selection,positive,1748357384933,undefined,830,newborn,positive,negative,A,positive;negative
1748357819,04fb6816e4b6d3e8ff577b0ed70f6ce4,PennController,73,0,test_val,NULL,PennController,84,_Trial_,End,1748357384934,undefined,830,newborn,positive,negative,A,NULL
1748357819,04fb6816e4b6d3e8ff577b0ed70f6ce4,PennController,50,0,test_val,NULL,PennController,61,_Trial_,Start,1748357384935,undefined,733,rancid,positive,negative,A,NULL
1748357819,04fb6816e4b6d3e8ff577b0ed70f6ce4,PennController,50,0,test_val,NULL,PennController,61,_Header_,Start,1748357384935,undefined,733,rancid,positive,negative,A,NULL
1748357819,04fb6816e4b6d3e8ff577b0ed70f6ce4,PennController,50,0,test_val,NULL,PennController,61,_Header_,End,1748357385190,undefined,733,rancid,positive,negative,A,NULL
1748357819,04fb6816e4b6d3e8ff577b0ed70f6ce4,PennController,50,0,test_val,NULL,Selector,unnamed-Selector,Selection,negative,1748357386426,undefined,733,rancid,positive,negative,A,positive;negative
1748357819,04fb6816e4b6d3e8ff577b0ed70f6ce4,PennController,50,0,test_val,NULL,PennController,61,_Trial_,End,1748357386427,undefined,733,rancid,positive,negative,A,NULL
1748357819,04fb6816e4b6d3e8ff577b0ed70f6ce4,PennController,61,0,test_val,NULL,PennController,72,_Trial_,Start,1748357386428,undefined,679,dependable,positive,negative,A,NULL
1748357819,04fb6816e4b6d3e8ff577b0ed70f6ce4,PennController,61,0,test_val,NULL,PennController,72,_Header_,Start,1748357386428,undefined,679,dependable,positive,negative,A,NULL
1748357819,04fb6816e4b6d3e8ff577b0ed70f6ce4,PennController,61,0,test_val,NULL,PennController,72,_Header_,End,1748357386678,undefined,679,dependable,positive,negative,A,NULL
1748357819,04fb6816e4b6d3e8ff577b0ed70f6ce4,PennController,61,0,test_val,NULL,Selector,unnamed-Selector,Selection,negative,1748357387865,undefined,679,dependable,positive,negative,A,positive;negative
1748357819,04fb6816e4b6d3e8ff577b0ed70f6ce4,PennController,61,0,test_val,NULL,PennController,72,_Trial_,End,1748357387866,undefined,679,dependable,positive,negative,A,NULL
1748357819,04fb6816e4b6d3e8ff577b0ed70f6ce4,PennController,45,0,test_val,NULL,PennController,56,_Trial_,Start,1748357387867,undefined,882,nauseous,positive,negative,A,NULL
1748357819,04fb6816e4b6d3e8ff577b0ed70f6ce4,PennController,45,0,test_val,NULL,PennController,56,_Header_,Start,1748357387867,undefined,882,nauseous,positive,negative,A,NULL
1748357819,04fb6816e4b6d3e8ff577b0ed70f6ce4,PennController,45,0,test_val,NULL,PennController,56,_Header_,End,1748357388123,undefined,882,nauseous,positive,negative,A,NULL
1748357819,04fb6816e4b6d3e8ff577b0ed70f6ce4,PennController,45,0,test_val,NULL,Selector,unnamed-Selector,Selection,negative,1748357389513,undefined,882,nauseous,positive,negative,A,positive;negative
1748357819,04fb6816e4b6d3e8ff577b0ed70f6ce4,PennController,45,0,test_val,NULL,PennController,56,_Trial_,End,1748357389514,undefined,882,nauseous,positive,negative,A,NULL
1748357819,04fb6816e4b6d3e8ff577b0ed70f6ce4,PennController,65,0,test_val,NULL,PennController,76,_Trial_,Start,1748357389515,undefined,710,sunny,positive,negative,A,NULL
1748357819,04fb6816e4b6d3e8ff577b0ed70f6ce4,PennController,65,0,test_val,NULL,PennController,76,_Header_,Start,1748357389515,undefined,710,sunny,positive,negative,A,NULL
1748357819,04fb6816e4b6d3e8ff577b0ed70f6ce4,PennController,65,0,test_val,NULL,PennController,76,_Header_,End,1748357389771,undefined,710,sunny,positive,negative,A,NULL
1748357819,04fb6816e4b6d3e8ff577b0ed70f6ce4,PennController,65,0,test_val,NULL,Selector,unnamed-Selector,Selection,positive,1748357390992,undefined,710,sunny,positive,negative,A,positive;negative
1748357819,04fb6816e4b6d3e8ff577b0ed70f6ce4,PennController,65,0,test_val,NULL,PennController,76,_Trial_,End,1748357390993,undefined,710,sunny,positive,negative,A,NULL
1748357819,04fb6816e4b6d3e8ff577b0ed70f6ce4,PennController,47,0,test_val,NULL,PennController,58,_Trial_,Start,1748357390993,undefined,744,comatose,positive,negative,A,NULL
1748357819,04fb6816e4b6d3e8ff577b0ed70f6ce4,PennController,47,0,test_val,NULL,PennController,58,_Header_,Start,1748357390993,undefined,744,comatose,positive,negative,A,NULL
1748357819,04fb6816e4b6d3e8ff577b0ed70f6ce4,PennController,47,0,test_val,NULL,PennController,58,_Header_,End,1748357391247,undefined,744,comatose,positive,negative,A,NULL
1748357819,04fb6816e4b6d3e8ff577b0ed70f6ce4,PennController,47,0,test_val,NULL,Selector,unnamed-Selector,Selection,negative,1748357392499,undefined,744,comatose,positive,negative,A,positive;negative
1748357819,04fb6816e4b6d3e8ff577b0ed70f6ce4,PennController,47,0,test_val,NULL,PennController,58,_Trial_,End,1748357392500,undefined,744,comatose,positive,negative,A,NULL
1748357819,04fb6816e4b6d3e8ff577b0ed70f6ce4,PennController,82,0,test_val,NULL,PennController,93,_Trial_,Start,1748357392501,undefined,763,infuriating,positive,negative,A,NULL
1748357819,04fb6816e4b6d3e8ff577b0ed70f6ce4,PennController,82,0,test_val,NULL,PennController,93,_Header_,Start,1748357392501,undefined,763,infuriating,positive,negative,A,NULL
1748357819,04fb6816e4b6d3e8ff577b0ed70f6ce4,PennController,82,0,test_val,NULL,PennController,93,_Header_,End,1748357392755,undefined,763,infuriating,positive,negative,A,NULL
1748357819,04fb6816e4b6d3e8ff577b0ed70f6ce4,PennController,82,0,test_val,NULL,Selector,unnamed-Selector,Selection,negative,1748357394026,undefined,763,infuriating,positive,negative,A,positive;negative
1748357819,04fb6816e4b6d3e8ff577b0ed70f6ce4,PennController,82,0,test_val,NULL,PennController,93,_Trial_,End,1748357394027,undefined,763,infuriating,positive,negative,A,NULL
1748357819,04fb6816e4b6d3e8ff577b0ed70f6ce4,PennController,66,0,test_val,NULL,PennController,77,_Trial_,Start,1748357394028,undefined,674,blooming,positive,negative,A,NULL
1748357819,04fb6816e4b6d3e8ff577b0ed70f6ce4,PennController,66,0,test_val,NULL,PennController,77,_Header_,Start,1748357394028,undefined,674,blooming,positive,negative,A,NULL
1748357819,04fb6816e4b6d3e8ff577b0ed70f6ce4,PennController,66,0,test_val,NULL,PennController,77,_Header_,End,1748357394280,undefined,674,blooming,positive,negative,A,NULL
1748357819,04fb6816e4b6d3e8ff577b0ed70f6ce4,PennController,66,0,test_val,NULL,Selector,unnamed-Selector,Selection,positive,1748357395459,undefined,674,blooming,positive,negative,A,positive;negative
1748357819,04fb6816e4b6d3e8ff577b0ed70f6ce4,PennController,66,0,test_val,NULL,PennController,77,_Trial_,End,1748357395460,undefined,674,blooming,positive,negative,A,NULL
1748357819,04fb6816e4b6d3e8ff577b0ed70f6ce4,PennController,69,0,test_val,NULL,PennController,80,_Trial_,Start,1748357395461,undefined,589,decorative,positive,negative,A,NULL
1748357819,04fb6816e4b6d3e8ff577b0ed70f6ce4,PennController,69,0,test_val,NULL,PennController,80,_Header_,Start,1748357395461,undefined,589,decorative,positive,negative,A,NULL
1748357819,04fb6816e4b6d3e8ff577b0ed70f6ce4,PennController,69,0,test_val,NULL,PennController,80,_Header_,End,1748357395713,undefined,589,decorative,positive,negative,A,NULL
1748357819,04fb6816e4b6d3e8ff577b0ed70f6ce4,PennController,69,0,test_val,NULL,Selector,unnamed-Selector,Selection,positive,1748357396805,undefined,589,decorative,positive,negative,A,positive;negative
1748357819,04fb6816e4b6d3e8ff577b0ed70f6ce4,PennController,69,0,test_val,NULL,PennController,80,_Trial_,End,1748357396806,undefined,589,decorative,positive,negative,A,NULL
1748357819,04fb6816e4b6d3e8ff577b0ed70f6ce4,PennController,50,0,test_val,NULL,PennController,61,_Trial_,Start,1748357396807,undefined,718,rancid,positive,negative,A,NULL
1748357819,04fb6816e4b6d3e8ff577b0ed70f6ce4,PennController,50,0,test_val,NULL,PennController,61,_Header_,Start,1748357396807,undefined,718,rancid,positive,negative,A,NULL
1748357819,04fb6816e4b6d3e8ff577b0ed70f6ce4,PennController,50,0,test_val,NULL,PennController,61,_Header_,End,1748357397059,undefined,718,rancid,positive,negative,A,NULL
1748357819,04fb6816e4b6d3e8ff577b0ed70f6ce4,PennController,50,0,test_val,NULL,Selector,unnamed-Selector,Selection,negative,1748357398280,undefined,718,rancid,positive,negative,A,positive;negative
1748357819,04fb6816e4b6d3e8ff577b0ed70f6ce4,PennController,50,0,test_val,NULL,PennController,61,_Trial_,End,1748357398281,undefined,718,rancid,positive,negative,A,NULL
1748357819,04fb6816e4b6d3e8ff577b0ed70f6ce4,PennController,77,0,test_val,NULL,PennController,88,_Trial_,Start,1748357398282,undefined,926,heartbroken,positive,negative,A,NULL
1748357819,04fb6816e4b6d3e8ff577b0ed70f6ce4,PennController,77,0,test_val,NULL,PennController,88,_Header_,Start,1748357398282,undefined,926,heartbroken,positive,negative,A,NULL
1748357819,04fb6816e4b6d3e8ff577b0ed70f6ce4,PennController,77,0,test_val,NULL,PennController,88,_Header_,End,1748357398539,undefined,926,heartbroken,positive,negative,A,NULL
1748357819,04fb6816e4b6d3e8ff577b0ed70f6ce4,PennController,77,0,test_val,NULL,Selector,unnamed-Selector,Selection,negative,1748357399976,undefined,926,heartbroken,positive,negative,A,positive;negative
1748357819,04fb6816e4b6d3e8ff577b0ed70f6ce4,PennController,77,0,test_val,NULL,PennController,88,_Trial_,End,1748357399977,undefined,926,heartbroken,positive,negative,A,NULL
1748357819,04fb6816e4b6d3e8ff577b0ed70f6ce4,PennController,53,0,test_val,NULL,PennController,64,_Trial_,Start,1748357399978,undefined,591,smelly,positive,negative,A,NULL
1748357819,04fb6816e4b6d3e8ff577b0ed70f6ce4,PennController,53,0,test_val,NULL,PennController,64,_Header_,Start,1748357399978,undefined,591,smelly,positive,negative,A,NULL
1748357819,04fb6816e4b6d3e8ff577b0ed70f6ce4,PennController,53,0,test_val,NULL,PennController,64,_Header_,End,1748357400231,undefined,591,smelly,positive,negative,A,NULL
1748357819,04fb6816e4b6d3e8ff577b0ed70f6ce4,PennController,53,0,test_val,NULL,Selector,unnamed-Selector,Selection,negative,1748357401326,undefined,591,smelly,positive,negative,A,positive;negative
1748357819,04fb6816e4b6d3e8ff577b0ed70f6ce4,PennController,53,0,test_val,NULL,PennController,64,_Trial_,End,1748357401327,undefined,591,smelly,positive,negative,A,NULL
1748357819,04fb6816e4b6d3e8ff577b0ed70f6ce4,PennController,47,0,test_val,NULL,PennController,58,_Trial_,Start,1748357401328,undefined,592,comatose,positive,negative,A,NULL
1748357819,04fb6816e4b6d3e8ff577b0ed70f6ce4,PennController,47,0,test_val,NULL,PennController,58,_Header_,Start,1748357401328,undefined,592,comatose,positive,negative,A,NULL
1748357819,04fb6816e4b6d3e8ff577b0ed70f6ce4,PennController,47,0,test_val,NULL,PennController,58,_Header_,End,1748357401583,undefined,592,comatose,positive,negative,A,NULL
1748357819,04fb6816e4b6d3e8ff577b0ed70f6ce4,PennController,47,0,test_val,NULL,Selector,unnamed-Selector,Selection,negative,1748357402683,undefined,592,comatose,positive,negative,A,positive;negative
1748357819,04fb6816e4b6d3e8ff577b0ed70f6ce4,PennController,47,0,test_val,NULL,PennController,58,_Trial_,End,1748357402684,undefined,592,comatose,positive,negative,A,NULL
1748357819,04fb6816e4b6d3e8ff577b0ed70f6ce4,PennController,67,0,test_val,NULL,PennController,78,_Trial_,Start,1748357402685,undefined,663,floral,positive,negative,A,NULL
1748357819,04fb6816e4b6d3e8ff577b0ed70f6ce4,PennController,67,0,test_val,NULL,PennController,78,_Header_,Start,1748357402685,undefined,663,floral,positive,negative,A,NULL
1748357819,04fb6816e4b6d3e8ff577b0ed70f6ce4,PennController,67,0,test_val,NULL,PennController,78,_Header_,End,1748357402939,undefined,663,floral,positive,negative,A,NULL
1748357819,04fb6816e4b6d3e8ff577b0ed70f6ce4,PennController,67,0,test_val,NULL,Selector,unnamed-Selector,Selection,positive,1748357404107,undefined,663,floral,positive,negative,A,positive;negative
1748357819,04fb6816e4b6d3e8ff577b0ed70f6ce4,PennController,67,0,test_val,NULL,PennController,78,_Trial_,End,1748357404108,undefined,663,floral,positive,negative,A,NULL
1748357819,04fb6816e4b6d3e8ff577b0ed70f6ce4,PennController,70,0,test_val,NULL,PennController,81,_Trial_,Start,1748357404109,undefined,851,nutritious,positive,negative,A,NULL
1748357819,04fb6816e4b6d3e8ff577b0ed70f6ce4,PennController,70,0,test_val,NULL,PennController,81,_Header_,Start,1748357404109,undefined,851,nutritious,positive,negative,A,NULL
1748357819,04fb6816e4b6d3e8ff577b0ed70f6ce4,PennController,70,0,test_val,NULL,PennController,81,_Header_,End,1748357404362,undefined,851,nutritious,positive,negative,A,NULL
1748357819,04fb6816e4b6d3e8ff577b0ed70f6ce4,PennController,70,0,test_val,NULL,Selector,unnamed-Selector,Selection,positive,1748357405715,undefined,851,nutritious,positive,negative,A,positive;negative
1748357819,04fb6816e4b6d3e8ff577b0ed70f6ce4,PennController,70,0,test_val,NULL,PennController,81,_Trial_,End,1748357405716,undefined,851,nutritious,positive,negative,A,NULL
1748357819,04fb6816e4b6d3e8ff577b0ed70f6ce4,PennController,52,0,test_val,NULL,PennController,63,_Trial_,Start,1748357405717,undefined,635,itchy,positive,negative,A,NULL
1748357819,04fb6816e4b6d3e8ff577b0ed70f6ce4,PennController,52,0,test_val,NULL,PennController,63,_Header_,Start,1748357405717,undefined,635,itchy,positive,negative,A,NULL
1748357819,04fb6816e4b6d3e8ff577b0ed70f6ce4,PennController,52,0,test_val,NULL,PennController,63,_Header_,End,1748357405972,undefined,635,itchy,positive,negative,A,NULL
1748357819,04fb6816e4b6d3e8ff577b0ed70f6ce4,PennController,52,0,test_val,NULL,Selector,unnamed-Selector,Selection,negative,1748357407107,undefined,635,itchy,positive,negative,A,positive;negative
1748357819,04fb6816e4b6d3e8ff577b0ed70f6ce4,PennController,52,0,test_val,NULL,PennController,63,_Trial_,End,1748357407109,undefined,635,itchy,positive,negative,A,NULL
1748357819,04fb6816e4b6d3e8ff577b0ed70f6ce4,PennController,63,0,test_val,NULL,PennController,74,_Trial_,Start,1748357407109,undefined,889,witty,positive,negative,A,NULL
1748357819,04fb6816e4b6d3e8ff577b0ed70f6ce4,PennController,63,0,test_val,NULL,PennController,74,_Header_,Start,1748357407109,undefined,889,witty,positive,negative,A,NULL
1748357819,04fb6816e4b6d3e8ff577b0ed70f6ce4,PennController,63,0,test_val,NULL,PennController,74,_Header_,End,1748357407365,undefined,889,witty,positive,negative,A,NULL
1748357819,04fb6816e4b6d3e8ff577b0ed70f6ce4,PennController,63,0,test_val,NULL,Selector,unnamed-Selector,Selection,positive,1748357408759,undefined,889,witty,positive,negative,A,positive;negative
1748357819,04fb6816e4b6d3e8ff577b0ed70f6ce4,PennController,63,0,test_val,NULL,PennController,74,_Trial_,End,1748357408761,undefined,889,witty,positive,negative,A,NULL
1748357819,04fb6816e4b6d3e8ff577b0ed70f6ce4,PennController,55,0,test_val,NULL,PennController,66,_Trial_,Start,1748357408762,undefined,538,joyful,positive,negative,A,NULL
1748357819,04fb6816e4b6d3e8ff577b0ed70f6ce4,PennController,55,0,test_val,NULL,PennController,66,_Header_,Start,1748357408762,undefined,538,joyful,positive,negative,A,NULL
1748357819,04fb6816e4b6d3e8ff577b0ed70f6ce4,PennController,55,0,test_val,NULL,PennController,66,_Header_,End,1748357409018,undefined,538,joyful,positive,negative,A,NULL
1748357819,04fb6816e4b6d3e8ff577b0ed70f6ce4,PennController,55,0,test_val,NULL,Selector,unnamed-Selector,Selection,positive,1748357410056,undefined,538,joyful,positive,negative,A,positive;negative
1748357819,04fb6816e4b6d3e8ff577b0ed70f6ce4,PennController,55,0,test_val,NULL,PennController,66,_Trial_,End,1748357410057,undefined,538,joyful,positive,negative,A,NULL
1748357819,04fb6816e4b6d3e8ff577b0ed70f6ce4,PennController,71,0,test_val,NULL,PennController,82,_Trial_,Start,1748357410058,undefined,716,homemade,positive,negative,A,NULL
1748357819,04fb6816e4b6d3e8ff577b0ed70f6ce4,PennController,71,0,test_val,NULL,PennController,82,_Header_,Start,1748357410058,undefined,716,homemade,positive,negative,A,NULL
1748357819,04fb6816e4b6d3e8ff577b0ed70f6ce4,PennController,71,0,test_val,NULL,PennController,82,_Header_,End,1748357410310,undefined,716,homemade,positive,negative,A,NULL
1748357819,04fb6816e4b6d3e8ff577b0ed70f6ce4,PennController,71,0,test_val,NULL,Selector,unnamed-Selector,Selection,positive,1748357411528,undefined,716,homemade,positive,negative,A,positive;negative
1748357819,04fb6816e4b6d3e8ff577b0ed70f6ce4,PennController,71,0,test_val,NULL,PennController,82,_Trial_,End,1748357411530,undefined,716,homemade,positive,negative,A,NULL
1748357819,04fb6816e4b6d3e8ff577b0ed70f6ce4,PennController,81,0,test_val,NULL,PennController,92,_Trial_,Start,1748357411530,undefined,880,stingy,positive,negative,A,NULL
1748357819,04fb6816e4b6d3e8ff577b0ed70f6ce4,PennController,81,0,test_val,NULL,PennController,92,_Header_,Start,1748357411530,undefined,880,stingy,positive,negative,A,NULL
1748357819,04fb6816e4b6d3e8ff577b0ed70f6ce4,PennController,81,0,test_val,NULL,PennController,92,_Header_,End,1748357411787,undefined,880,stingy,positive,negative,A,NULL
1748357819,04fb6816e4b6d3e8ff577b0ed70f6ce4,PennController,81,0,test_val,NULL,Selector,unnamed-Selector,Selection,negative,1748357413173,undefined,880,stingy,positive,negative,A,positive;negative
1748357819,04fb6816e4b6d3e8ff577b0ed70f6ce4,PennController,81,0,test_val,NULL,PennController,92,_Trial_,End,1748357413174,undefined,880,stingy,positive,negative,A,NULL
1748357819,04fb6816e4b6d3e8ff577b0ed70f6ce4,PennController,65,0,test_val,NULL,PennController,76,_Trial_,Start,1748357413175,undefined,669,sunny,positive,negative,A,NULL
1748357819,04fb6816e4b6d3e8ff577b0ed70f6ce4,PennController,65,0,test_val,NULL,PennController,76,_Header_,Start,1748357413175,undefined,669,sunny,positive,negative,A,NULL
1748357819,04fb6816e4b6d3e8ff577b0ed70f6ce4,PennController,65,0,test_val,NULL,PennController,76,_Header_,End,1748357413428,undefined,669,sunny,positive,negative,A,NULL
1748357819,04fb6816e4b6d3e8ff577b0ed70f6ce4,PennController,65,0,test_val,NULL,Selector,unnamed-Selector,Selection,positive,1748357414603,undefined,669,sunny,positive,negative,A,positive;negative
1748357819,04fb6816e4b6d3e8ff577b0ed70f6ce4,PennController,65,0,test_val,NULL,PennController,76,_Trial_,End,1748357414604,undefined,669,sunny,positive,negative,A,NULL
1748357819,04fb6816e4b6d3e8ff577b0ed70f6ce4,PennController,45,0,test_val,NULL,PennController,56,_Trial_,Start,1748357414604,undefined,719,nauseous,positive,negative,A,NULL
1748357819,04fb6816e4b6d3e8ff577b0ed70f6ce4,PennController,45,0,test_val,NULL,PennController,56,_Header_,Start,1748357414604,undefined,719,nauseous,positive,negative,A,NULL
1748357819,04fb6816e4b6d3e8ff577b0ed70f6ce4,PennController,45,0,test_val,NULL,PennController,56,_Header_,End,1748357414863,undefined,719,nauseous,positive,negative,A,NULL
1748357819,04fb6816e4b6d3e8ff577b0ed70f6ce4,PennController,45,0,test_val,NULL,Selector,unnamed-Selector,Selection,negative,1748357416090,undefined,719,nauseous,positive,negative,A,positive;negative
1748357819,04fb6816e4b6d3e8ff577b0ed70f6ce4,PennController,45,0,test_val,NULL,PennController,56,_Trial_,End,1748357416092,undefined,719,nauseous,positive,negative,A,NULL
1748357819,04fb6816e4b6d3e8ff577b0ed70f6ce4,PennController,82,0,test_val,NULL,PennController,93,_Trial_,Start,1748357416092,undefined,1155,infuriating,positive,negative,A,NULL
1748357819,04fb6816e4b6d3e8ff577b0ed70f6ce4,PennController,82,0,test_val,NULL,PennController,93,_Header_,Start,1748357416092,undefined,1155,infuriating,positive,negative,A,NULL
1748357819,04fb6816e4b6d3e8ff577b0ed70f6ce4,PennController,82,0,test_val,NULL,PennController,93,_Header_,End,1748357416347,undefined,1155,infuriating,positive,negative,A,NULL
1748357819,04fb6816e4b6d3e8ff577b0ed70f6ce4,PennController,82,0,test_val,NULL,Selector,unnamed-Selector,Selection,positive,1748357418007,undefined,1155,infuriating,positive,negative,A,positive;negative
1748357819,04fb6816e4b6d3e8ff577b0ed70f6ce4,PennController,82,0,test_val,NULL,PennController,93,_Trial_,End,1748357418008,undefined,1155,infuriating,positive,negative,A,NULL
1748357819,04fb6816e4b6d3e8ff577b0ed70f6ce4,PennController,73,0,test_val,NULL,PennController,84,_Trial_,Start,1748357418009,undefined,768,newborn,positive,negative,A,NULL
1748357819,04fb6816e4b6d3e8ff577b0ed70f6ce4,PennController,73,0,test_val,NULL,PennController,84,_Header_,Start,1748357418009,undefined,768,newborn,positive,negative,A,NULL
1748357819,04fb6816e4b6d3e8ff577b0ed70f6ce4,PennController,73,0,test_val,NULL,PennController,84,_Header_,End,1748357418261,undefined,768,newborn,positive,negative,A,NULL
1748357819,04fb6816e4b6d3e8ff577b0ed70f6ce4,PennController,73,0,test_val,NULL,Selector,unnamed-Selector,Selection,positive,1748357419537,undefined,768,newborn,positive,negative,A,positive;negative
1748357819,04fb6816e4b6d3e8ff577b0ed70f6ce4,PennController,73,0,test_val,NULL,PennController,84,_Trial_,End,1748357419538,undefined,768,newborn,positive,negative,A,NULL
1748357819,04fb6816e4b6d3e8ff577b0ed70f6ce4,PennController,83,0,test_val,NULL,PennController,94,_Trial_,Start,1748357419538,undefined,767,hateful,positive,negative,A,NULL
1748357819,04fb6816e4b6d3e8ff577b0ed70f6ce4,PennController,83,0,test_val,NULL,PennController,94,_Header_,Start,1748357419538,undefined,767,hateful,positive,negative,A,NULL
1748357819,04fb6816e4b6d3e8ff577b0ed70f6ce4,PennController,83,0,test_val,NULL,PennController,94,_Header_,End,1748357419794,undefined,767,hateful,positive,negative,A,NULL
1748357819,04fb6816e4b6d3e8ff577b0ed70f6ce4,PennController,83,0,test_val,NULL,Selector,unnamed-Selector,Selection,negative,1748357421064,undefined,767,hateful,positive,negative,A,positive;negative
1748357819,04fb6816e4b6d3e8ff577b0ed70f6ce4,PennController,83,0,test_val,NULL,PennController,94,_Trial_,End,1748357421065,undefined,767,hateful,positive,negative,A,NULL
1748357819,04fb6816e4b6d3e8ff577b0ed70f6ce4,PennController,78,0,test_val,NULL,PennController,89,_Trial_,Start,1748357421066,undefined,544,racist,positive,negative,A,NULL
1748357819,04fb6816e4b6d3e8ff577b0ed70f6ce4,PennController,78,0,test_val,NULL,PennController,89,_Header_,Start,1748357421066,undefined,544,racist,positive,negative,A,NULL
1748357819,04fb6816e4b6d3e8ff577b0ed70f6ce4,PennController,78,0,test_val,NULL,PennController,89,_Header_,End,1748357421321,undefined,544,racist,positive,negative,A,NULL
1748357819,04fb6816e4b6d3e8ff577b0ed70f6ce4,PennController,78,0,test_val,NULL,Selector,unnamed-Selector,Selection,negative,1748357422375,undefined,544,racist,positive,negative,A,positive;negative
1748357819,04fb6816e4b6d3e8ff577b0ed70f6ce4,PennController,78,0,test_val,NULL,PennController,89,_Trial_,End,1748357422376,undefined,544,racist,positive,negative,A,NULL
1748357819,04fb6816e4b6d3e8ff577b0ed70f6ce4,PennController,66,0,test_val,NULL,PennController,77,_Trial_,Start,1748357422377,undefined,599,blooming,positive,negative,A,NULL
1748357819,04fb6816e4b6d3e8ff577b0ed70f6ce4,PennController,66,0,test_val,NULL,PennController,77,_Header_,Start,1748357422377,undefined,599,blooming,positive,negative,A,NULL
1748357819,04fb6816e4b6d3e8ff577b0ed70f6ce4,PennController,66,0,test_val,NULL,PennController,77,_Header_,End,1748357422628,undefined,599,blooming,positive,negative,A,NULL
1748357819,04fb6816e4b6d3e8ff577b0ed70f6ce4,PennController,66,0,test_val,NULL,Selector,unnamed-Selector,Selection,positive,1748357423730,undefined,599,blooming,positive,negative,A,positive;negative
1748357819,04fb6816e4b6d3e8ff577b0ed70f6ce4,PennController,66,0,test_val,NULL,PennController,77,_Trial_,End,1748357423731,undefined,599,blooming,positive,negative,A,NULL
1748357819,04fb6816e4b6d3e8ff577b0ed70f6ce4,PennController,58,0,test_val,NULL,PennController,69,_Trial_,Start,1748357423732,undefined,794,carefree,positive,negative,A,NULL
1748357819,04fb6816e4b6d3e8ff577b0ed70f6ce4,PennController,58,0,test_val,NULL,PennController,69,_Header_,Start,1748357423732,undefined,794,carefree,positive,negative,A,NULL
1748357819,04fb6816e4b6d3e8ff577b0ed70f6ce4,PennController,58,0,test_val,NULL,PennController,69,_Header_,End,1748357423989,undefined,794,carefree,positive,negative,A,NULL
1748357819,04fb6816e4b6d3e8ff577b0ed70f6ce4,PennController,58,0,test_val,NULL,Selector,unnamed-Selector,Selection,positive,1748357425297,undefined,794,carefree,positive,negative,A,positive;negative
1748357819,04fb6816e4b6d3e8ff577b0ed70f6ce4,PennController,58,0,test_val,NULL,PennController,69,_Trial_,End,1748357425298,undefined,794,carefree,positive,negative,A,NULL
1748357819,04fb6816e4b6d3e8ff577b0ed70f6ce4,PennController,80,0,test_val,NULL,PennController,91,_Trial_,Start,1748357425299,undefined,720,humiliating,positive,negative,A,NULL
1748357819,04fb6816e4b6d3e8ff577b0ed70f6ce4,PennController,80,0,test_val,NULL,PennController,91,_Header_,Start,1748357425299,undefined,720,humiliating,positive,negative,A,NULL
1748357819,04fb6816e4b6d3e8ff577b0ed70f6ce4,PennController,80,0,test_val,NULL,PennController,91,_Header_,End,1748357425554,undefined,720,humiliating,positive,negative,A,NULL
1748357819,04fb6816e4b6d3e8ff577b0ed70f6ce4,PennController,80,0,test_val,NULL,Selector,unnamed-Selector,Selection,negative,1748357426781,undefined,720,humiliating,positive,negative,A,positive;negative
1748357819,04fb6816e4b6d3e8ff577b0ed70f6ce4,PennController,80,0,test_val,NULL,PennController,91,_Trial_,End,1748357426783,undefined,720,humiliating,positive,negative,A,NULL
1748357819,04fb6816e4b6d3e8ff577b0ed70f6ce4,PennController,44,0,test_val,NULL,PennController,55,_Trial_,Start,1748357426784,undefined,555,moldy,positive,negative,A,NULL
1748357819,04fb6816e4b6d3e8ff577b0ed70f6ce4,PennController,44,0,test_val,NULL,PennController,55,_Header_,Start,1748357426784,undefined,555,moldy,positive,negative,A,NULL
1748357819,04fb6816e4b6d3e8ff577b0ed70f6ce4,PennController,44,0,test_val,NULL,PennController,55,_Header_,End,1748357427034,undefined,555,moldy,positive,negative,A,NULL
1748357819,04fb6816e4b6d3e8ff577b0ed70f6ce4,PennController,44,0,test_val,NULL,Selector,unnamed-Selector,Selection,negative,1748357428090,undefined,555,moldy,positive,negative,A,positive;negative
1748357819,04fb6816e4b6d3e8ff577b0ed70f6ce4,PennController,44,0,test_val,NULL,PennController,55,_Trial_,End,1748357428091,undefined,555,moldy,positive,negative,A,NULL
1748357819,04fb6816e4b6d3e8ff577b0ed70f6ce4,PennController,61,0,test_val,NULL,PennController,72,_Trial_,Start,1748357428092,undefined,612,dependable,positive,negative,A,NULL
1748357819,04fb6816e4b6d3e8ff577b0ed70f6ce4,PennController,61,0,test_val,NULL,PennController,72,_Header_,Start,1748357428092,undefined,612,dependable,positive,negative,A,NULL
1748357819,04fb6816e4b6d3e8ff577b0ed70f6ce4,PennController,61,0,test_val,NULL,PennController,72,_Header_,End,1748357428349,undefined,612,dependable,positive,negative,A,NULL
1748357819,04fb6816e4b6d3e8ff577b0ed70f6ce4,PennController,61,0,test_val,NULL,Selector,unnamed-Selector,Selection,positive,1748357429465,undefined,612,dependable,positive,negative,A,positive;negative
1748357819,04fb6816e4b6d3e8ff577b0ed70f6ce4,PennController,61,0,test_val,NULL,PennController,72,_Trial_,End,1748357429466,undefined,612,dependable,positive,negative,A,NULL
1748357819,04fb6816e4b6d3e8ff577b0ed70f6ce4,PennController,56,0,test_val,NULL,PennController,67,_Trial_,Start,1748357429467,undefined,630,cheerful,positive,negative,A,NULL
1748357819,04fb6816e4b6d3e8ff577b0ed70f6ce4,PennController,56,0,test_val,NULL,PennController,67,_Header_,Start,1748357429467,undefined,630,cheerful,positive,negative,A,NULL
1748357819,04fb6816e4b6d3e8ff577b0ed70f6ce4,PennController,56,0,test_val,NULL,PennController,67,_Header_,End,1748357429725,undefined,630,cheerful,positive,negative,A,NULL
1748357819,04fb6816e4b6d3e8ff577b0ed70f6ce4,PennController,56,0,test_val,NULL,Selector,unnamed-Selector,Selection,positive,1748357430858,undefined,630,cheerful,positive,negative,A,positive;negative
1748357819,04fb6816e4b6d3e8ff577b0ed70f6ce4,PennController,56,0,test_val,NULL,PennController,67,_Trial_,End,1748357430859,undefined,630,cheerful,positive,negative,A,NULL
1748357819,04fb6816e4b6d3e8ff577b0ed70f6ce4,PennController,75,0,test_val,NULL,PennController,86,_Trial_,Start,1748357430860,undefined,630,greedy,positive,negative,A,NULL
1748357819,04fb6816e4b6d3e8ff577b0ed70f6ce4,PennController,75,0,test_val,NULL,PennController,86,_Header_,Start,1748357430860,undefined,630,greedy,positive,negative,A,NULL
1748357819,04fb6816e4b6d3e8ff577b0ed70f6ce4,PennController,75,0,test_val,NULL,PennController,86,_Header_,End,1748357431113,undefined,630,greedy,positive,negative,A,NULL
1748357819,04fb6816e4b6d3e8ff577b0ed70f6ce4,PennController,75,0,test_val,NULL,Selector,unnamed-Selector,Selection,negative,1748357432246,undefined,630,greedy,positive,negative,A,positive;negative
1748357819,04fb6816e4b6d3e8ff577b0ed70f6ce4,PennController,75,0,test_val,NULL,PennController,86,_Trial_,End,1748357432247,undefined,630,greedy,positive,negative,A,NULL
1748357819,04fb6816e4b6d3e8ff577b0ed70f6ce4,PennController,68,0,test_val,NULL,PennController,79,_Trial_,Start,1748357432248,undefined,710,oceanic,positive,negative,A,NULL
1748357819,04fb6816e4b6d3e8ff577b0ed70f6ce4,PennController,68,0,test_val,NULL,PennController,79,_Header_,Start,1748357432248,undefined,710,oceanic,positive,negative,A,NULL
1748357819,04fb6816e4b6d3e8ff577b0ed70f6ce4,PennController,68,0,test_val,NULL,PennController,79,_Header_,End,1748357432501,undefined,710,oceanic,positive,negative,A,NULL
1748357819,04fb6816e4b6d3e8ff577b0ed70f6ce4,PennController,68,0,test_val,NULL,Selector,unnamed-Selector,Selection,positive,1748357433718,undefined,710,oceanic,positive,negative,A,positive;negative
1748357819,04fb6816e4b6d3e8ff577b0ed70f6ce4,PennController,68,0,test_val,NULL,PennController,79,_Trial_,End,1748357433719,undefined,710,oceanic,positive,negative,A,NULL
1748357819,04fb6816e4b6d3e8ff577b0ed70f6ce4,PennController,76,0,test_val,NULL,PennController,87,_Trial_,Start,1748357433720,undefined,1052,grumpy,positive,negative,A,NULL
1748357819,04fb6816e4b6d3e8ff577b0ed70f6ce4,PennController,76,0,test_val,NULL,PennController,87,_Header_,Start,1748357433720,undefined,1052,grumpy,positive,negative,A,NULL
1748357819,04fb6816e4b6d3e8ff577b0ed70f6ce4,PennController,76,0,test_val,NULL,PennController,87,_Header_,End,1748357433977,undefined,1052,grumpy,positive,negative,A,NULL
1748357819,04fb6816e4b6d3e8ff577b0ed70f6ce4,PennController,76,0,test_val,NULL,Selector,unnamed-Selector,Selection,negative,1748357435535,undefined,1052,grumpy,positive,negative,A,positive;negative
1748357819,04fb6816e4b6d3e8ff577b0ed70f6ce4,PennController,76,0,test_val,NULL,PennController,87,_Trial_,End,1748357435536,undefined,1052,grumpy,positive,negative,A,NULL
1748357819,04fb6816e4b6d3e8ff577b0ed70f6ce4,PennController,48,0,test_val,NULL,PennController,59,_Trial_,Start,1748357435537,undefined,712,obese,positive,negative,A,NULL
1748357819,04fb6816e4b6d3e8ff577b0ed70f6ce4,PennController,48,0,test_val,NULL,PennController,59,_Header_,Start,1748357435537,undefined,712,obese,positive,negative,A,NULL
1748357819,04fb6816e4b6d3e8ff577b0ed70f6ce4,PennController,48,0,test_val,NULL,PennController,59,_Header_,End,1748357435791,undefined,712,obese,positive,negative,A,NULL
1748357819,04fb6816e4b6d3e8ff577b0ed70f6ce4,PennController,48,0,test_val,NULL,Selector,unnamed-Selector,Selection,negative,1748357437009,undefined,712,obese,positive,negative,A,positive;negative
1748357819,04fb6816e4b6d3e8ff577b0ed70f6ce4,PennController,48,0,test_val,NULL,PennController,59,_Trial_,End,1748357437010,undefined,712,obese,positive,negative,A,NULL
1748357819,04fb6816e4b6d3e8ff577b0ed70f6ce4,PennController,62,0,test_val,NULL,PennController,73,_Trial_,Start,1748357437011,undefined,619,courageous,positive,negative,A,NULL
1748357819,04fb6816e4b6d3e8ff577b0ed70f6ce4,PennController,62,0,test_val,NULL,PennController,73,_Header_,Start,1748357437011,undefined,619,courageous,positive,negative,A,NULL
1748357819,04fb6816e4b6d3e8ff577b0ed70f6ce4,PennController,62,0,test_val,NULL,PennController,73,_Header_,End,1748357437267,undefined,619,courageous,positive,negative,A,NULL
1748357819,04fb6816e4b6d3e8ff577b0ed70f6ce4,PennController,62,0,test_val,NULL,Selector,unnamed-Selector,Selection,positive,1748357438390,undefined,619,courageous,positive,negative,A,positive;negative
1748357819,04fb6816e4b6d3e8ff577b0ed70f6ce4,PennController,62,0,test_val,NULL,PennController,73,_Trial_,End,1748357438392,undefined,619,courageous,positive,negative,A,NULL
1748357819,04fb6816e4b6d3e8ff577b0ed70f6ce4,PennController,79,0,test_val,NULL,PennController,90,_Trial_,Start,1748357438393,undefined,705,dreaded,positive,negative,A,NULL
1748357819,04fb6816e4b6d3e8ff577b0ed70f6ce4,PennController,79,0,test_val,NULL,PennController,90,_Header_,Start,1748357438393,undefined,705,dreaded,positive,negative,A,NULL
1748357819,04fb6816e4b6d3e8ff577b0ed70f6ce4,PennController,79,0,test_val,NULL,PennController,90,_Header_,End,1748357438650,undefined,705,dreaded,positive,negative,A,NULL
1748357819,04fb6816e4b6d3e8ff577b0ed70f6ce4,PennController,79,0,test_val,NULL,Selector,unnamed-Selector,Selection,negative,1748357439861,undefined,705,dreaded,positive,negative,A,positive;negative
1748357819,04fb6816e4b6d3e8ff577b0ed70f6ce4,PennController,79,0,test_val,NULL,PennController,90,_Trial_,End,1748357439862,undefined,705,dreaded,positive,negative,A,NULL
1748357819,04fb6816e4b6d3e8ff577b0ed70f6ce4,PennController,74,0,test_val,NULL,PennController,85,_Trial_,Start,1748357439863,undefined,635,insulting,positive,negative,A,NULL
1748357819,04fb6816e4b6d3e8ff577b0ed70f6ce4,PennController,74,0,test_val,NULL,PennController,85,_Header_,Start,1748357439863,undefined,635,insulting,positive,negative,A,NULL
1748357819,04fb6816e4b6d3e8ff577b0ed70f6ce4,PennController,74,0,test_val,NULL,PennController,85,_Header_,End,1748357440119,undefined,635,insulting,positive,negative,A,NULL
1748357819,04fb6816e4b6d3e8ff577b0ed70f6ce4,PennController,74,0,test_val,NULL,Selector,unnamed-Selector,Selection,negative,1748357441258,undefined,635,insulting,positive,negative,A,positive;negative
1748357819,04fb6816e4b6d3e8ff577b0ed70f6ce4,PennController,74,0,test_val,NULL,PennController,85,_Trial_,End,1748357441258,undefined,635,insulting,positive,negative,A,NULL
1748357819,04fb6816e4b6d3e8ff577b0ed70f6ce4,PennController,72,0,test_val,NULL,PennController,83,_Trial_,Start,1748357441259,undefined,638,radiant,positive,negative,A,NULL
1748357819,04fb6816e4b6d3e8ff577b0ed70f6ce4,PennController,72,0,test_val,NULL,PennController,83,_Header_,Start,1748357441259,undefined,638,radiant,positive,negative,A,NULL
1748357819,04fb6816e4b6d3e8ff577b0ed70f6ce4,PennController,72,0,test_val,NULL,PennController,83,_Header_,End,1748357441510,undefined,638,radiant,positive,negative,A,NULL
1748357819,04fb6816e4b6d3e8ff577b0ed70f6ce4,PennController,72,0,test_val,NULL,Selector,unnamed-Selector,Selection,positive,1748357442657,undefined,638,radiant,positive,negative,A,positive;negative
1748357819,04fb6816e4b6d3e8ff577b0ed70f6ce4,PennController,72,0,test_val,NULL,PennController,83,_Trial_,End,1748357442659,undefined,638,radiant,positive,negative,A,NULL
1748357819,04fb6816e4b6d3e8ff577b0ed70f6ce4,PennController,49,0,test_val,NULL,PennController,60,_Trial_,Start,1748357442659,undefined,862,lifeless,positive,negative,A,NULL
1748357819,04fb6816e4b6d3e8ff577b0ed70f6ce4,PennController,49,0,test_val,NULL,PennController,60,_Header_,Start,1748357442659,undefined,862,lifeless,positive,negative,A,NULL
1748357819,04fb6816e4b6d3e8ff577b0ed70f6ce4,PennController,49,0,test_val,NULL,PennController,60,_Header_,End,1748357442913,undefined,862,lifeless,positive,negative,A,NULL
1748357819,04fb6816e4b6d3e8ff577b0ed70f6ce4,PennController,49,0,test_val,NULL,Selector,unnamed-Selector,Selection,positive,1748357444281,undefined,862,lifeless,positive,negative,A,positive;negative
1748357819,04fb6816e4b6d3e8ff577b0ed70f6ce4,PennController,49,0,test_val,NULL,PennController,60,_Trial_,End,1748357444282,undefined,862,lifeless,positive,negative,A,NULL
1748357819,04fb6816e4b6d3e8ff577b0ed70f6ce4,PennController,57,0,test_val,NULL,PennController,68,_Trial_,Start,1748357444283,undefined,633,easygoing,positive,negative,A,NULL
1748357819,04fb6816e4b6d3e8ff577b0ed70f6ce4,PennController,57,0,test_val,NULL,PennController,68,_Header_,Start,1748357444283,undefined,633,easygoing,positive,negative,A,NULL
1748357819,04fb6816e4b6d3e8ff577b0ed70f6ce4,PennController,57,0,test_val,NULL,PennController,68,_Header_,End,1748357444535,undefined,633,easygoing,positive,negative,A,NULL
1748357819,04fb6816e4b6d3e8ff577b0ed70f6ce4,PennController,57,0,test_val,NULL,Selector,unnamed-Selector,Selection,positive,1748357445675,undefined,633,easygoing,positive,negative,A,positive;negative
1748357819,04fb6816e4b6d3e8ff577b0ed70f6ce4,PennController,57,0,test_val,NULL,PennController,68,_Trial_,End,1748357445676,undefined,633,easygoing,positive,negative,A,NULL
1748357819,04fb6816e4b6d3e8ff577b0ed70f6ce4,PennController,51,0,test_val,NULL,PennController,62,_Trial_,Start,1748357445677,undefined,1236,seasick,positive,negative,A,NULL
1748357819,04fb6816e4b6d3e8ff577b0ed70f6ce4,PennController,51,0,test_val,NULL,PennController,62,_Header_,Start,1748357445677,undefined,1236,seasick,positive,negative,A,NULL
1748357819,04fb6816e4b6d3e8ff577b0ed70f6ce4,PennController,51,0,test_val,NULL,PennController,62,_Header_,End,1748357445935,undefined,1236,seasick,positive,negative,A,NULL
1748357819,04fb6816e4b6d3e8ff577b0ed70f6ce4,PennController,51,0,test_val,NULL,Selector,unnamed-Selector,Selection,negative,1748357447675,undefined,1236,seasick,positive,negative,A,positive;negative
1748357819,04fb6816e4b6d3e8ff577b0ed70f6ce4,PennController,51,0,test_val,NULL,PennController,62,_Trial_,End,1748357447676,undefined,1236,seasick,positive,negative,A,NULL
1748357819,04fb6816e4b6d3e8ff577b0ed70f6ce4,PennController,46,0,test_val,NULL,PennController,57,_Trial_,Start,1748357447677,undefined,519,excruciating,positive,negative,A,NULL
1748357819,04fb6816e4b6d3e8ff577b0ed70f6ce4,PennController,46,0,test_val,NULL,PennController,57,_Header_,Start,1748357447677,undefined,519,excruciating,positive,negative,A,NULL
1748357819,04fb6816e4b6d3e8ff577b0ed70f6ce4,PennController,46,0,test_val,NULL,PennController,57,_Header_,End,1748357447927,undefined,519,excruciating,positive,negative,A,NULL
1748357819,04fb6816e4b6d3e8ff577b0ed70f6ce4,PennController,46,0,test_val,NULL,Selector,unnamed-Selector,Selection,negative,1748357448952,undefined,519,excruciating,positive,negative,A,positive;negative
1748357819,04fb6816e4b6d3e8ff577b0ed70f6ce4,PennController,46,0,test_val,NULL,PennController,57,_Trial_,End,1748357448953,undefined,519,excruciating,positive,negative,A,NULL
1748357819,04fb6816e4b6d3e8ff577b0ed70f6ce4,PennController,54,0,test_val,NULL,PennController,65,_Trial_,Start,1748357448953,undefined,737,brotherly,positive,negative,A,NULL
1748357819,04fb6816e4b6d3e8ff577b0ed70f6ce4,PennController,54,0,test_val,NULL,PennController,65,_Header_,Start,1748357448953,undefined,737,brotherly,positive,negative,A,NULL
1748357819,04fb6816e4b6d3e8ff577b0ed70f6ce4,PennController,54,0,test_val,NULL,PennController,65,_Header_,End,1748357449206,undefined,737,brotherly,positive,negative,A,NULL
1748357819,04fb6816e4b6d3e8ff577b0ed70f6ce4,PennController,54,0,test_val,NULL,Selector,unnamed-Selector,Selection,positive,1748357450453,undefined,737,brotherly,positive,negative,A,positive;negative
1748357819,04fb6816e4b6d3e8ff577b0ed70f6ce4,PennController,54,0,test_val,NULL,PennController,65,_Trial_,End,1748357450454,undefined,737,brotherly,positive,negative,A,NULL
1748357819,04fb6816e4b6d3e8ff577b0ed70f6ce4,PennController,59,0,test_val,NULL,PennController,70,_Trial_,Start,1748357450454,undefined,739,hilarious,positive,negative,A,NULL
1748357819,04fb6816e4b6d3e8ff577b0ed70f6ce4,PennController,59,0,test_val,NULL,PennController,70,_Header_,Start,1748357450454,undefined,739,hilarious,positive,negative,A,NULL
1748357819,04fb6816e4b6d3e8ff577b0ed70f6ce4,PennController,59,0,test_val,NULL,PennController,70,_Header_,End,1748357450705,undefined,739,hilarious,positive,negative,A,NULL
1748357819,04fb6816e4b6d3e8ff577b0ed70f6ce4,PennController,59,0,test_val,NULL,Selector,unnamed-Selector,Selection,positive,1748357451949,undefined,739,hilarious,positive,negative,A,positive;negative
1748357819,04fb6816e4b6d3e8ff577b0ed70f6ce4,PennController,59,0,test_val,NULL,PennController,70,_Trial_,End,1748357451950,undefined,739,hilarious,positive,negative,A,NULL
1748357819,04fb6816e4b6d3e8ff577b0ed70f6ce4,PennController,69,0,test_val,NULL,PennController,80,_Trial_,Start,1748357451951,undefined,533,decorative,positive,negative,A,NULL
1748357819,04fb6816e4b6d3e8ff577b0ed70f6ce4,PennController,69,0,test_val,NULL,PennController,80,_Header_,Start,1748357451951,undefined,533,decorative,positive,negative,A,NULL
1748357819,04fb6816e4b6d3e8ff577b0ed70f6ce4,PennController,69,0,test_val,NULL,PennController,80,_Header_,End,1748357452208,undefined,533,decorative,positive,negative,A,NULL
1748357819,04fb6816e4b6d3e8ff577b0ed70f6ce4,PennController,69,0,test_val,NULL,Selector,unnamed-Selector,Selection,positive,1748357453248,undefined,533,decorative,positive,negative,A,positive;negative
1748357819,04fb6816e4b6d3e8ff577b0ed70f6ce4,PennController,69,0,test_val,NULL,PennController,80,_Trial_,End,1748357453249,undefined,533,decorative,positive,negative,A,NULL
1748357819,04fb6816e4b6d3e8ff577b0ed70f6ce4,PennController,64,0,test_val,NULL,PennController,75,_Trial_,Start,1748357453250,undefined,561,fluffy,positive,negative,A,NULL
1748357819,04fb6816e4b6d3e8ff577b0ed70f6ce4,PennController,64,0,test_val,NULL,PennController,75,_Header_,Start,1748357453250,undefined,561,fluffy,positive,negative,A,NULL
1748357819,04fb6816e4b6d3e8ff577b0ed70f6ce4,PennController,64,0,test_val,NULL,PennController,75,_Header_,End,1748357453501,undefined,561,fluffy,positive,negative,A,NULL
1748357819,04fb6816e4b6d3e8ff577b0ed70f6ce4,PennController,64,0,test_val,NULL,Selector,unnamed-Selector,Selection,positive,1748357454563,undefined,561,fluffy,positive,negative,A,positive;negative
1748357819,04fb6816e4b6d3e8ff577b0ed70f6ce4,PennController,64,0,test_val,NULL,PennController,75,_Trial_,End,1748357454564,undefined,561,fluffy,positive,negative,A,NULL
1748357819,04fb6816e4b6d3e8ff577b0ed70f6ce4,PennController,60,0,test_val,NULL,PennController,71,_Trial_,Start,1748357454565,undefined,574,selfless,positive,negative,A,NULL
1748357819,04fb6816e4b6d3e8ff577b0ed70f6ce4,PennController,60,0,test_val,NULL,PennController,71,_Header_,Start,1748357454565,undefined,574,selfless,positive,negative,A,NULL
1748357819,04fb6816e4b6d3e8ff577b0ed70f6ce4,PennController,60,0,test_val,NULL,PennController,71,_Header_,End,1748357454818,undefined,574,selfless,positive,negative,A,NULL
1748357819,04fb6816e4b6d3e8ff577b0ed70f6ce4,PennController,60,0,test_val,NULL,Selector,unnamed-Selector,Selection,positive,1748357455899,undefined,574,selfless,positive,negative,A,positive;negative
1748357819,04fb6816e4b6d3e8ff577b0ed70f6ce4,PennController,60,0,test_val,NULL,PennController,71,_Trial_,End,1748357455899,undefined,574,selfless,positive,negative,A,NULL
1748357819,04fb6816e4b6d3e8ff577b0ed70f6ce4,PennController,77,0,test_val,NULL,PennController,88,_Trial_,Start,1748357455900,undefined,647,heartbroken,positive,negative,A,NULL
1748357819,04fb6816e4b6d3e8ff577b0ed70f6ce4,PennController,77,0,test_val,NULL,PennController,88,_Header_,Start,1748357455900,undefined,647,heartbroken,positive,negative,A,NULL
1748357819,04fb6816e4b6d3e8ff577b0ed70f6ce4,PennController,77,0,test_val,NULL,PennController,88,_Header_,End,1748357456153,undefined,647,heartbroken,positive,negative,A,NULL
1748357819,04fb6816e4b6d3e8ff577b0ed70f6ce4,PennController,77,0,test_val,NULL,Selector,unnamed-Selector,Selection,positive,1748357457302,undefined,647,heartbroken,positive,negative,A,positive;negative
1748357819,04fb6816e4b6d3e8ff577b0ed70f6ce4,PennController,77,0,test_val,NULL,PennController,88,_Trial_,End,1748357457303,undefined,647,heartbroken,positive,negative,A,NULL
1748357819,04fb6816e4b6d3e8ff577b0ed70f6ce4,PennController,51,0,test_val,NULL,PennController,62,_Trial_,Start,1748357457304,undefined,722,seasick,positive,negative,A,NULL
1748357819,04fb6816e4b6d3e8ff577b0ed70f6ce4,PennController,51,0,test_val,NULL,PennController,62,_Header_,Start,1748357457304,undefined,722,seasick,positive,negative,A,NULL
1748357819,04fb6816e4b6d3e8ff577b0ed70f6ce4,PennController,51,0,test_val,NULL,PennController,62,_Header_,End,1748357457558,undefined,722,seasick,positive,negative,A,NULL
1748357819,04fb6816e4b6d3e8ff577b0ed70f6ce4,PennController,51,0,test_val,NULL,Selector,unnamed-Selector,Selection,negative,1748357458782,undefined,722,seasick,positive,negative,A,positive;negative
1748357819,04fb6816e4b6d3e8ff577b0ed70f6ce4,PennController,51,0,test_val,NULL,PennController,62,_Trial_,End,1748357458784,undefined,722,seasick,positive,negative,A,NULL
1748357819,04fb6816e4b6d3e8ff577b0ed70f6ce4,PennController,74,0,test_val,NULL,PennController,85,_Trial_,Start,1748357458785,undefined,530,insulting,positive,negative,A,NULL
1748357819,04fb6816e4b6d3e8ff577b0ed70f6ce4,PennController,74,0,test_val,NULL,PennController,85,_Header_,Start,1748357458785,undefined,530,insulting,positive,negative,A,NULL
1748357819,04fb6816e4b6d3e8ff577b0ed70f6ce4,PennController,74,0,test_val,NULL,PennController,85,_Header_,End,1748357459036,undefined,530,insulting,positive,negative,A,NULL
1748357819,04fb6816e4b6d3e8ff577b0ed70f6ce4,PennController,74,0,test_val,NULL,Selector,unnamed-Selector,Selection,negative,1748357460076,undefined,530,insulting,positive,negative,A,positive;negative
1748357819,04fb6816e4b6d3e8ff577b0ed70f6ce4,PennController,74,0,test_val,NULL,PennController,85,_Trial_,End,1748357460077,undefined,530,insulting,positive,negative,A,NULL
1748357819,04fb6816e4b6d3e8ff577b0ed70f6ce4,PennController,79,0,test_val,NULL,PennController,90,_Trial_,Start,1748357460078,undefined,554,dreaded,positive,negative,A,NULL
1748357819,04fb6816e4b6d3e8ff577b0ed70f6ce4,PennController,79,0,test_val,NULL,PennController,90,_Header_,Start,1748357460078,undefined,554,dreaded,positive,negative,A,NULL
1748357819,04fb6816e4b6d3e8ff577b0ed70f6ce4,PennController,79,0,test_val,NULL,PennController,90,_Header_,End,1748357460334,undefined,554,dreaded,positive,negative,A,NULL
1748357819,04fb6816e4b6d3e8ff577b0ed70f6ce4,PennController,79,0,test_val,NULL,Selector,unnamed-Selector,Selection,negative,1748357461393,undefined,554,dreaded,positive,negative,A,positive;negative
1748357819,04fb6816e4b6d3e8ff577b0ed70f6ce4,PennController,79,0,test_val,NULL,PennController,90,_Trial_,End,1748357461395,undefined,554,dreaded,positive,negative,A,NULL
1748357819,04fb6816e4b6d3e8ff577b0ed70f6ce4,PennController,64,0,test_val,NULL,PennController,75,_Trial_,Start,1748357461395,undefined,644,fluffy,positive,negative,A,NULL
1748357819,04fb6816e4b6d3e8ff577b0ed70f6ce4,PennController,64,0,test_val,NULL,PennController,75,_Header_,Start,1748357461395,undefined,644,fluffy,positive,negative,A,NULL
1748357819,04fb6816e4b6d3e8ff577b0ed70f6ce4,PennController,64,0,test_val,NULL,PennController,75,_Header_,End,1748357461652,undefined,644,fluffy,positive,negative,A,NULL
1748357819,04fb6816e4b6d3e8ff577b0ed70f6ce4,PennController,64,0,test_val,NULL,Selector,unnamed-Selector,Selection,positive,1748357462798,undefined,644,fluffy,positive,negative,A,positive;negative
