#
# Results on Tue, 27 May 2025 15:14:32 GMT
# USER AGENT: Mozilla/5.0 (Macintosh; Intel Mac OS X 10_15_7) AppleWebKit/537.36 (KHTML, like Gecko) Chrome/136.0.0.0 Safari/537.36
# Design number was non-random = 0
#
# Columns below this comment are as follows:
# 1. Results reception time.
# 2. MD5 hash of participant's IP address.
# 3. Controller name.
# 4. Order number of item.
# 5. Inner element number.
# 6. Label.
# 7. Latin Square Group.
# 8. PennElementType.
# 9. PennElementName.
# 10. Parameter.
# 11. Value.
# 12. EventTime.
# 13. Comments.
1748358872,28bd2098c6bb39d4162b8cad8f9ecfb5,PennController,1,0,welcome,NULL,PennController,0,_Trial_,Start,1748358034934,NULL
1748358872,28bd2098c6bb39d4162b8cad8f9ecfb5,PennController,1,0,welcome,NULL,PennController,0,_Header_,Start,1748358034934,NULL
1748358872,28bd2098c6bb39d4162b8cad8f9ecfb5,PennController,1,0,welcome,NULL,PennController,0,_Header_,End,1748358035188,NULL
1748358872,28bd2098c6bb39d4162b8cad8f9ecfb5,PennController,1,0,welcome,NULL,PennController,0,_Trial_,End,1748358055680,NULL
# 13. ID.
# 14. Comments.
1748358872,28bd2098c6bb39d4162b8cad8f9ecfb5,PennController,124,0,consent,NULL,PennController,2,_Trial_,Start,1748358055682,607cbf385d3202721e3f719f,NULL
1748358872,28bd2098c6bb39d4162b8cad8f9ecfb5,PennController,124,0,consent,NULL,PennController,2,_Header_,Start,1748358055682,607cbf385d3202721e3f719f,NULL
1748358872,28bd2098c6bb39d4162b8cad8f9ecfb5,PennController,124,0,consent,NULL,PennController,2,_Header_,End,1748358055932,607cbf385d3202721e3f719f,NULL
1748358872,28bd2098c6bb39d4162b8cad8f9ecfb5,PennController,124,0,consent,NULL,TextInput,ID,Final,607cbf385d3202721e3f719f,1748358067129,607cbf385d3202721e3f719f,NULL
1748358872,28bd2098c6bb39d4162b8cad8f9ecfb5,PennController,124,0,consent,NULL,PennController,2,_Trial_,End,1748358067129,607cbf385d3202721e3f719f,NULL
# 13. Comments.
1748358872,28bd2098c6bb39d4162b8cad8f9ecfb5,PennController,132,0,instructions1_sp,NULL,PennController,10,_Trial_,Start,1748358067130,NULL
1748358872,28bd2098c6bb39d4162b8cad8f9ecfb5,PennController,132,0,instructions1_sp,NULL,PennController,10,_Header_,Start,1748358067130,NULL
1748358872,28bd2098c6bb39d4162b8cad8f9ecfb5,PennController,132,0,instructions1_sp,NULL,PennController,10,_Header_,End,1748358067381,NULL
1748358872,28bd2098c6bb39d4162b8cad8f9ecfb5,PennController,132,0,instructions1_sp,NULL,PennController,10,_Trial_,End,1748358106015,NULL
1748358872,28bd2098c6bb39d4162b8cad8f9ecfb5,PennController,133,0,instructions2_sp,NULL,PennController,11,_Trial_,Start,1748358106016,NULL
1748358872,28bd2098c6bb39d4162b8cad8f9ecfb5,PennController,133,0,instructions2_sp,NULL,PennController,11,_Header_,Start,1748358106016,NULL
1748358872,28bd2098c6bb39d4162b8cad8f9ecfb5,PennController,133,0,instructions2_sp,NULL,PennController,11,_Header_,End,1748358106269,NULL
1748358872,28bd2098c6bb39d4162b8cad8f9ecfb5,PennController,133,0,instructions2_sp,NULL,PennController,11,_Trial_,End,1748358120407,NULL
1748358872,28bd2098c6bb39d4162b8cad8f9ecfb5,PennController,128,0,instructions3_hands,NULL,PennController,6,_Trial_,Start,1748358120408,NULL
1748358872,28bd2098c6bb39d4162b8cad8f9ecfb5,PennController,128,0,instructions3_hands,NULL,PennController,6,_Header_,Start,1748358120408,NULL
1748358872,28bd2098c6bb39d4162b8cad8f9ecfb5,PennController,128,0,instructions3_hands,NULL,PennController,6,_Header_,End,1748358120661,NULL
1748358872,28bd2098c6bb39d4162b8cad8f9ecfb5,PennController,128,0,instructions3_hands,NULL,PennController,6,_Trial_,End,1748358134114,NULL
1748358872,28bd2098c6bb39d4162b8cad8f9ecfb5,PennController,135,0,practice_intro_sp,NULL,PennController,13,_Trial_,Start,1748358134115,NULL
1748358872,28bd2098c6bb39d4162b8cad8f9ecfb5,PennController,135,0,practice_intro_sp,NULL,PennController,13,_Header_,Start,1748358134115,NULL
1748358872,28bd2098c6bb39d4162b8cad8f9ecfb5,PennController,135,0,practice_intro_sp,NULL,PennController,13,_Header_,End,1748358134369,NULL
1748358872,28bd2098c6bb39d4162b8cad8f9ecfb5,PennController,135,0,practice_intro_sp,NULL,PennController,13,_Trial_,End,1748358139249,NULL
# 13. ID.
# 14. ReactionTime.
# 15. Word.
# 16. selectedKey.
# 17. selectedValue.
# 18. Key_value_F.
# 19. Key_value_J.
# 20. Group.
# 21. Comments.
1748358872,28bd2098c6bb39d4162b8cad8f9ecfb5,PennController,88,0,calibrator_sp_feedback,NULL,PennController,99,_Trial_,Start,1748358139250,undefined,1920,round,undefined,physical,social,physical,B,NULL
1748358872,28bd2098c6bb39d4162b8cad8f9ecfb5,PennController,88,0,calibrator_sp_feedback,NULL,PennController,99,_Header_,Start,1748358139250,undefined,1920,round,undefined,physical,social,physical,B,NULL
1748358872,28bd2098c6bb39d4162b8cad8f9ecfb5,PennController,88,0,calibrator_sp_feedback,NULL,PennController,99,_Header_,End,1748358139502,undefined,1920,round,undefined,physical,social,physical,B,NULL
1748358872,28bd2098c6bb39d4162b8cad8f9ecfb5,PennController,88,0,calibrator_sp_feedback,NULL,Selector,Selection,Selection,physical,1748358141928,undefined,1920,round,undefined,physical,social,physical,B,social;physical
1748358872,28bd2098c6bb39d4162b8cad8f9ecfb5,PennController,88,0,calibrator_sp_feedback,NULL,PennController,99,_Trial_,End,1748358143930,undefined,1920,round,undefined,physical,social,physical,B,NULL
1748358872,28bd2098c6bb39d4162b8cad8f9ecfb5,PennController,89,0,calibrator_sp_feedback,NULL,PennController,100,_Trial_,Start,1748358143931,undefined,1955,loyal,undefined,physical,social,physical,B,NULL
1748358872,28bd2098c6bb39d4162b8cad8f9ecfb5,PennController,89,0,calibrator_sp_feedback,NULL,PennController,100,_Header_,Start,1748358143931,undefined,1955,loyal,undefined,physical,social,physical,B,NULL
1748358872,28bd2098c6bb39d4162b8cad8f9ecfb5,PennController,89,0,calibrator_sp_feedback,NULL,PennController,100,_Header_,End,1748358144183,undefined,1955,loyal,undefined,physical,social,physical,B,NULL
1748358872,28bd2098c6bb39d4162b8cad8f9ecfb5,PennController,89,0,calibrator_sp_feedback,NULL,Selector,Selection,Selection,social,1748358146643,undefined,1955,loyal,undefined,physical,social,physical,B,social;physical
1748358872,28bd2098c6bb39d4162b8cad8f9ecfb5,PennController,89,0,calibrator_sp_feedback,NULL,PennController,100,_Trial_,End,1748358148646,undefined,1955,loyal,undefined,physical,social,physical,B,NULL
1748358872,28bd2098c6bb39d4162b8cad8f9ecfb5,PennController,92,0,calibrator_sp_feedback,NULL,PennController,103,_Trial_,Start,1748358148647,undefined,3134,overrated,undefined,physical,social,physical,B,NULL
1748358872,28bd2098c6bb39d4162b8cad8f9ecfb5,PennController,92,0,calibrator_sp_feedback,NULL,PennController,103,_Header_,Start,1748358148647,undefined,3134,overrated,undefined,physical,social,physical,B,NULL
1748358872,28bd2098c6bb39d4162b8cad8f9ecfb5,PennController,92,0,calibrator_sp_feedback,NULL,PennController,103,_Header_,End,1748358148899,undefined,3134,overrated,undefined,physical,social,physical,B,NULL
1748358872,28bd2098c6bb39d4162b8cad8f9ecfb5,PennController,92,0,calibrator_sp_feedback,NULL,Selector,Selection,Selection,social,1748358152539,undefined,3134,overrated,undefined,physical,social,physical,B,social;physical
1748358872,28bd2098c6bb39d4162b8cad8f9ecfb5,PennController,92,0,calibrator_sp_feedback,NULL,PennController,103,_Trial_,End,1748358154543,undefined,3134,overrated,undefined,physical,social,physical,B,NULL
1748358872,28bd2098c6bb39d4162b8cad8f9ecfb5,PennController,87,0,calibrator_sp_feedback,NULL,PennController,98,_Trial_,Start,1748358154544,undefined,2124,frozen,undefined,physical,social,physical,B,NULL
1748358872,28bd2098c6bb39d4162b8cad8f9ecfb5,PennController,87,0,calibrator_sp_feedback,NULL,PennController,98,_Header_,Start,1748358154544,undefined,2124,frozen,undefined,physical,social,physical,B,NULL
1748358872,28bd2098c6bb39d4162b8cad8f9ecfb5,PennController,87,0,calibrator_sp_feedback,NULL,PennController,98,_Header_,End,1748358154795,undefined,2124,frozen,undefined,physical,social,physical,B,NULL
1748358872,28bd2098c6bb39d4162b8cad8f9ecfb5,PennController,87,0,calibrator_sp_feedback,NULL,Selector,Selection,Selection,physical,1748358157423,undefined,2124,frozen,undefined,physical,social,physical,B,social;physical
1748358872,28bd2098c6bb39d4162b8cad8f9ecfb5,PennController,87,0,calibrator_sp_feedback,NULL,PennController,98,_Trial_,End,1748358159425,undefined,2124,frozen,undefined,physical,social,physical,B,NULL
1748358872,28bd2098c6bb39d4162b8cad8f9ecfb5,PennController,93,0,calibrator_sp_feedback,NULL,PennController,104,_Trial_,Start,1748358159426,undefined,3093,comforting,undefined,physical,social,physical,B,NULL
1748358872,28bd2098c6bb39d4162b8cad8f9ecfb5,PennController,93,0,calibrator_sp_feedback,NULL,PennController,104,_Header_,Start,1748358159426,undefined,3093,comforting,undefined,physical,social,physical,B,NULL
1748358872,28bd2098c6bb39d4162b8cad8f9ecfb5,PennController,93,0,calibrator_sp_feedback,NULL,PennController,104,_Header_,End,1748358159677,undefined,3093,comforting,undefined,physical,social,physical,B,NULL
1748358872,28bd2098c6bb39d4162b8cad8f9ecfb5,PennController,93,0,calibrator_sp_feedback,NULL,Selector,Selection,Selection,social,1748358163276,undefined,3093,comforting,undefined,physical,social,physical,B,social;physical
1748358872,28bd2098c6bb39d4162b8cad8f9ecfb5,PennController,93,0,calibrator_sp_feedback,NULL,PennController,104,_Trial_,End,1748358165278,undefined,3093,comforting,undefined,physical,social,physical,B,NULL
1748358872,28bd2098c6bb39d4162b8cad8f9ecfb5,PennController,85,0,calibrator_sp_feedback,NULL,PennController,96,_Trial_,Start,1748358165279,undefined,1125,metallic,undefined,physical,social,physical,B,NULL
1748358872,28bd2098c6bb39d4162b8cad8f9ecfb5,PennController,85,0,calibrator_sp_feedback,NULL,PennController,96,_Header_,Start,1748358165279,undefined,1125,metallic,undefined,physical,social,physical,B,NULL
1748358872,28bd2098c6bb39d4162b8cad8f9ecfb5,PennController,85,0,calibrator_sp_feedback,NULL,PennController,96,_Header_,End,1748358165530,undefined,1125,metallic,undefined,physical,social,physical,B,NULL
1748358872,28bd2098c6bb39d4162b8cad8f9ecfb5,PennController,85,0,calibrator_sp_feedback,NULL,Selector,Selection,Selection,physical,1748358167158,undefined,1125,metallic,undefined,physical,social,physical,B,social;physical
1748358872,28bd2098c6bb39d4162b8cad8f9ecfb5,PennController,85,0,calibrator_sp_feedback,NULL,PennController,96,_Trial_,End,1748358169163,undefined,1125,metallic,undefined,physical,social,physical,B,NULL
1748358872,28bd2098c6bb39d4162b8cad8f9ecfb5,PennController,91,0,calibrator_sp_feedback,NULL,PennController,102,_Trial_,Start,1748358169164,undefined,2008,aloof,undefined,physical,social,physical,B,NULL
1748358872,28bd2098c6bb39d4162b8cad8f9ecfb5,PennController,91,0,calibrator_sp_feedback,NULL,PennController,102,_Header_,Start,1748358169164,undefined,2008,aloof,undefined,physical,social,physical,B,NULL
1748358872,28bd2098c6bb39d4162b8cad8f9ecfb5,PennController,91,0,calibrator_sp_feedback,NULL,PennController,102,_Header_,End,1748358169416,undefined,2008,aloof,undefined,physical,social,physical,B,NULL
1748358872,28bd2098c6bb39d4162b8cad8f9ecfb5,PennController,91,0,calibrator_sp_feedback,NULL,Selector,Selection,Selection,social,1748358171929,undefined,2008,aloof,undefined,physical,social,physical,B,social;physical
1748358872,28bd2098c6bb39d4162b8cad8f9ecfb5,PennController,91,0,calibrator_sp_feedback,NULL,PennController,102,_Trial_,End,1748358173932,undefined,2008,aloof,undefined,physical,social,physical,B,NULL
1748358872,28bd2098c6bb39d4162b8cad8f9ecfb5,PennController,86,0,calibrator_sp_feedback,NULL,PennController,97,_Trial_,Start,1748358173933,undefined,1394,wet,undefined,physical,social,physical,B,NULL
1748358872,28bd2098c6bb39d4162b8cad8f9ecfb5,PennController,86,0,calibrator_sp_feedback,NULL,PennController,97,_Header_,Start,1748358173933,undefined,1394,wet,undefined,physical,social,physical,B,NULL
1748358872,28bd2098c6bb39d4162b8cad8f9ecfb5,PennController,86,0,calibrator_sp_feedback,NULL,PennController,97,_Header_,End,1748358174185,undefined,1394,wet,undefined,physical,social,physical,B,NULL
1748358872,28bd2098c6bb39d4162b8cad8f9ecfb5,PennController,86,0,calibrator_sp_feedback,NULL,Selector,Selection,Selection,physical,1748358176083,undefined,1394,wet,undefined,physical,social,physical,B,social;physical
1748358872,28bd2098c6bb39d4162b8cad8f9ecfb5,PennController,86,0,calibrator_sp_feedback,NULL,PennController,97,_Trial_,End,1748358178085,undefined,1394,wet,undefined,physical,social,physical,B,NULL
1748358872,28bd2098c6bb39d4162b8cad8f9ecfb5,PennController,90,0,calibrator_sp_feedback,NULL,PennController,101,_Trial_,Start,1748358178086,undefined,1851,diplomatic,undefined,physical,social,physical,B,NULL
1748358872,28bd2098c6bb39d4162b8cad8f9ecfb5,PennController,90,0,calibrator_sp_feedback,NULL,PennController,101,_Header_,Start,1748358178086,undefined,1851,diplomatic,undefined,physical,social,physical,B,NULL
1748358872,28bd2098c6bb39d4162b8cad8f9ecfb5,PennController,90,0,calibrator_sp_feedback,NULL,PennController,101,_Header_,End,1748358178337,undefined,1851,diplomatic,undefined,physical,social,physical,B,NULL
1748358872,28bd2098c6bb39d4162b8cad8f9ecfb5,PennController,90,0,calibrator_sp_feedback,NULL,Selector,Selection,Selection,social,1748358180690,undefined,1851,diplomatic,undefined,physical,social,physical,B,social;physical
1748358872,28bd2098c6bb39d4162b8cad8f9ecfb5,PennController,90,0,calibrator_sp_feedback,NULL,PennController,101,_Trial_,End,1748358182696,undefined,1851,diplomatic,undefined,physical,social,physical,B,NULL
1748358872,28bd2098c6bb39d4162b8cad8f9ecfb5,PennController,84,0,calibrator_sp_feedback,NULL,PennController,95,_Trial_,Start,1748358182697,undefined,1174,triangular,undefined,physical,social,physical,B,NULL
1748358872,28bd2098c6bb39d4162b8cad8f9ecfb5,PennController,84,0,calibrator_sp_feedback,NULL,PennController,95,_Header_,Start,1748358182697,undefined,1174,triangular,undefined,physical,social,physical,B,NULL
1748358872,28bd2098c6bb39d4162b8cad8f9ecfb5,PennController,84,0,calibrator_sp_feedback,NULL,PennController,95,_Header_,End,1748358182951,undefined,1174,triangular,undefined,physical,social,physical,B,NULL
1748358872,28bd2098c6bb39d4162b8cad8f9ecfb5,PennController,84,0,calibrator_sp_feedback,NULL,Selector,Selection,Selection,physical,1748358184628,undefined,1174,triangular,undefined,physical,social,physical,B,social;physical
1748358872,28bd2098c6bb39d4162b8cad8f9ecfb5,PennController,84,0,calibrator_sp_feedback,NULL,PennController,95,_Trial_,End,1748358186634,undefined,1174,triangular,undefined,physical,social,physical,B,NULL
# 16. Key_value_F.
# 17. Key_value_J.
# 18. Group.
# 19. Comments.
1748358872,28bd2098c6bb39d4162b8cad8f9ecfb5,PennController,96,0,calibrator_sp_no_feedback,NULL,PennController,107,_Trial_,Start,1748358186635,undefined,1704,wet,social,physical,B,NULL
1748358872,28bd2098c6bb39d4162b8cad8f9ecfb5,PennController,96,0,calibrator_sp_no_feedback,NULL,PennController,107,_Header_,Start,1748358186635,undefined,1704,wet,social,physical,B,NULL
1748358872,28bd2098c6bb39d4162b8cad8f9ecfb5,PennController,96,0,calibrator_sp_no_feedback,NULL,PennController,107,_Header_,End,1748358186887,undefined,1704,wet,social,physical,B,NULL
1748358872,28bd2098c6bb39d4162b8cad8f9ecfb5,PennController,96,0,calibrator_sp_no_feedback,NULL,Selector,unnamed-Selector,Selection,physical,1748358189092,undefined,1704,wet,social,physical,B,social;physical
1748358872,28bd2098c6bb39d4162b8cad8f9ecfb5,PennController,96,0,calibrator_sp_no_feedback,NULL,PennController,107,_Trial_,End,1748358189093,undefined,1704,wet,social,physical,B,NULL
1748358872,28bd2098c6bb39d4162b8cad8f9ecfb5,PennController,103,0,calibrator_sp_no_feedback,NULL,PennController,114,_Trial_,Start,1748358189094,undefined,1571,comforting,social,physical,B,NULL
1748358872,28bd2098c6bb39d4162b8cad8f9ecfb5,PennController,103,0,calibrator_sp_no_feedback,NULL,PennController,114,_Header_,Start,1748358189094,undefined,1571,comforting,social,physical,B,NULL
1748358872,28bd2098c6bb39d4162b8cad8f9ecfb5,PennController,103,0,calibrator_sp_no_feedback,NULL,PennController,114,_Header_,End,1748358189344,undefined,1571,comforting,social,physical,B,NULL
1748358872,28bd2098c6bb39d4162b8cad8f9ecfb5,PennController,103,0,calibrator_sp_no_feedback,NULL,Selector,unnamed-Selector,Selection,social,1748358191419,undefined,1571,comforting,social,physical,B,social;physical
1748358872,28bd2098c6bb39d4162b8cad8f9ecfb5,PennController,103,0,calibrator_sp_no_feedback,NULL,PennController,114,_Trial_,End,1748358191420,undefined,1571,comforting,social,physical,B,NULL
1748358872,28bd2098c6bb39d4162b8cad8f9ecfb5,PennController,98,0,calibrator_sp_no_feedback,NULL,PennController,109,_Trial_,Start,1748358191421,undefined,1391,round,social,physical,B,NULL
1748358872,28bd2098c6bb39d4162b8cad8f9ecfb5,PennController,98,0,calibrator_sp_no_feedback,NULL,PennController,109,_Header_,Start,1748358191421,undefined,1391,round,social,physical,B,NULL
1748358872,28bd2098c6bb39d4162b8cad8f9ecfb5,PennController,98,0,calibrator_sp_no_feedback,NULL,PennController,109,_Header_,End,1748358191675,undefined,1391,round,social,physical,B,NULL
1748358872,28bd2098c6bb39d4162b8cad8f9ecfb5,PennController,98,0,calibrator_sp_no_feedback,NULL,Selector,unnamed-Selector,Selection,physical,1748358193571,undefined,1391,round,social,physical,B,social;physical
1748358872,28bd2098c6bb39d4162b8cad8f9ecfb5,PennController,98,0,calibrator_sp_no_feedback,NULL,PennController,109,_Trial_,End,1748358193572,undefined,1391,round,social,physical,B,NULL
1748358872,28bd2098c6bb39d4162b8cad8f9ecfb5,PennController,101,0,calibrator_sp_no_feedback,NULL,PennController,112,_Trial_,Start,1748358193572,undefined,1430,aloof,social,physical,B,NULL
1748358872,28bd2098c6bb39d4162b8cad8f9ecfb5,PennController,101,0,calibrator_sp_no_feedback,NULL,PennController,112,_Header_,Start,1748358193572,undefined,1430,aloof,social,physical,B,NULL
1748358872,28bd2098c6bb39d4162b8cad8f9ecfb5,PennController,101,0,calibrator_sp_no_feedback,NULL,PennController,112,_Header_,End,1748358193826,undefined,1430,aloof,social,physical,B,NULL
1748358872,28bd2098c6bb39d4162b8cad8f9ecfb5,PennController,101,0,calibrator_sp_no_feedback,NULL,Selector,unnamed-Selector,Selection,social,1748358195759,undefined,1430,aloof,social,physical,B,social;physical
1748358872,28bd2098c6bb39d4162b8cad8f9ecfb5,PennController,101,0,calibrator_sp_no_feedback,NULL,PennController,112,_Trial_,End,1748358195760,undefined,1430,aloof,social,physical,B,NULL
1748358872,28bd2098c6bb39d4162b8cad8f9ecfb5,PennController,95,0,calibrator_sp_no_feedback,NULL,PennController,106,_Trial_,Start,1748358195761,undefined,841,metallic,social,physical,B,NULL
1748358872,28bd2098c6bb39d4162b8cad8f9ecfb5,PennController,95,0,calibrator_sp_no_feedback,NULL,PennController,106,_Header_,Start,1748358195761,undefined,841,metallic,social,physical,B,NULL
1748358872,28bd2098c6bb39d4162b8cad8f9ecfb5,PennController,95,0,calibrator_sp_no_feedback,NULL,PennController,106,_Header_,End,1748358196014,undefined,841,metallic,social,physical,B,NULL
1748358872,28bd2098c6bb39d4162b8cad8f9ecfb5,PennController,95,0,calibrator_sp_no_feedback,NULL,Selector,unnamed-Selector,Selection,physical,1748358197358,undefined,841,metallic,social,physical,B,social;physical
1748358872,28bd2098c6bb39d4162b8cad8f9ecfb5,PennController,95,0,calibrator_sp_no_feedback,NULL,PennController,106,_Trial_,End,1748358197359,undefined,841,metallic,social,physical,B,NULL
1748358872,28bd2098c6bb39d4162b8cad8f9ecfb5,PennController,94,0,calibrator_sp_no_feedback,NULL,PennController,105,_Trial_,Start,1748358197360,undefined,805,triangular,social,physical,B,NULL
1748358872,28bd2098c6bb39d4162b8cad8f9ecfb5,PennController,94,0,calibrator_sp_no_feedback,NULL,PennController,105,_Header_,Start,1748358197360,undefined,805,triangular,social,physical,B,NULL
1748358872,28bd2098c6bb39d4162b8cad8f9ecfb5,PennController,94,0,calibrator_sp_no_feedback,NULL,PennController,105,_Header_,End,1748358197614,undefined,805,triangular,social,physical,B,NULL
1748358872,28bd2098c6bb39d4162b8cad8f9ecfb5,PennController,94,0,calibrator_sp_no_feedback,NULL,Selector,unnamed-Selector,Selection,physical,1748358198923,undefined,805,triangular,social,physical,B,social;physical
1748358872,28bd2098c6bb39d4162b8cad8f9ecfb5,PennController,94,0,calibrator_sp_no_feedback,NULL,PennController,105,_Trial_,End,1748358198924,undefined,805,triangular,social,physical,B,NULL
1748358872,28bd2098c6bb39d4162b8cad8f9ecfb5,PennController,99,0,calibrator_sp_no_feedback,NULL,PennController,110,_Trial_,Start,1748358198925,undefined,840,loyal,social,physical,B,NULL
1748358872,28bd2098c6bb39d4162b8cad8f9ecfb5,PennController,99,0,calibrator_sp_no_feedback,NULL,PennController,110,_Header_,Start,1748358198925,undefined,840,loyal,social,physical,B,NULL
1748358872,28bd2098c6bb39d4162b8cad8f9ecfb5,PennController,99,0,calibrator_sp_no_feedback,NULL,PennController,110,_Header_,End,1748358199175,undefined,840,loyal,social,physical,B,NULL
1748358872,28bd2098c6bb39d4162b8cad8f9ecfb5,PennController,99,0,calibrator_sp_no_feedback,NULL,Selector,unnamed-Selector,Selection,social,1748358200521,undefined,840,loyal,social,physical,B,social;physical
1748358872,28bd2098c6bb39d4162b8cad8f9ecfb5,PennController,99,0,calibrator_sp_no_feedback,NULL,PennController,110,_Trial_,End,1748358200522,undefined,840,loyal,social,physical,B,NULL
1748358872,28bd2098c6bb39d4162b8cad8f9ecfb5,PennController,100,0,calibrator_sp_no_feedback,NULL,PennController,111,_Trial_,Start,1748358200522,undefined,1126,diplomatic,social,physical,B,NULL
1748358872,28bd2098c6bb39d4162b8cad8f9ecfb5,PennController,100,0,calibrator_sp_no_feedback,NULL,PennController,111,_Header_,Start,1748358200522,undefined,1126,diplomatic,social,physical,B,NULL
1748358872,28bd2098c6bb39d4162b8cad8f9ecfb5,PennController,100,0,calibrator_sp_no_feedback,NULL,PennController,111,_Header_,End,1748358200776,undefined,1126,diplomatic,social,physical,B,NULL
1748358872,28bd2098c6bb39d4162b8cad8f9ecfb5,PennController,100,0,calibrator_sp_no_feedback,NULL,Selector,unnamed-Selector,Selection,social,1748358202405,undefined,1126,diplomatic,social,physical,B,social;physical
1748358872,28bd2098c6bb39d4162b8cad8f9ecfb5,PennController,100,0,calibrator_sp_no_feedback,NULL,PennController,111,_Trial_,End,1748358202406,undefined,1126,diplomatic,social,physical,B,NULL
1748358872,28bd2098c6bb39d4162b8cad8f9ecfb5,PennController,102,0,calibrator_sp_no_feedback,NULL,PennController,113,_Trial_,Start,1748358202406,undefined,807,overrated,social,physical,B,NULL
1748358872,28bd2098c6bb39d4162b8cad8f9ecfb5,PennController,102,0,calibrator_sp_no_feedback,NULL,PennController,113,_Header_,Start,1748358202406,undefined,807,overrated,social,physical,B,NULL
1748358872,28bd2098c6bb39d4162b8cad8f9ecfb5,PennController,102,0,calibrator_sp_no_feedback,NULL,PennController,113,_Header_,End,1748358202656,undefined,807,overrated,social,physical,B,NULL
1748358872,28bd2098c6bb39d4162b8cad8f9ecfb5,PennController,102,0,calibrator_sp_no_feedback,NULL,Selector,unnamed-Selector,Selection,social,1748358203967,undefined,807,overrated,social,physical,B,social;physical
1748358872,28bd2098c6bb39d4162b8cad8f9ecfb5,PennController,102,0,calibrator_sp_no_feedback,NULL,PennController,113,_Trial_,End,1748358203968,undefined,807,overrated,social,physical,B,NULL
1748358872,28bd2098c6bb39d4162b8cad8f9ecfb5,PennController,97,0,calibrator_sp_no_feedback,NULL,PennController,108,_Trial_,Start,1748358203968,undefined,1011,frozen,social,physical,B,NULL
1748358872,28bd2098c6bb39d4162b8cad8f9ecfb5,PennController,97,0,calibrator_sp_no_feedback,NULL,PennController,108,_Header_,Start,1748358203968,undefined,1011,frozen,social,physical,B,NULL
1748358872,28bd2098c6bb39d4162b8cad8f9ecfb5,PennController,97,0,calibrator_sp_no_feedback,NULL,PennController,108,_Header_,End,1748358204219,undefined,1011,frozen,social,physical,B,NULL
1748358872,28bd2098c6bb39d4162b8cad8f9ecfb5,PennController,97,0,calibrator_sp_no_feedback,NULL,Selector,unnamed-Selector,Selection,physical,1748358205731,undefined,1011,frozen,social,physical,B,social;physical
1748358872,28bd2098c6bb39d4162b8cad8f9ecfb5,PennController,97,0,calibrator_sp_no_feedback,NULL,PennController,108,_Trial_,End,1748358205731,undefined,1011,frozen,social,physical,B,NULL
# 13. Comments.
1748358872,28bd2098c6bb39d4162b8cad8f9ecfb5,PennController,136,0,endinstructions_sp,NULL,PennController,14,_Trial_,Start,1748358205732,NULL
1748358872,28bd2098c6bb39d4162b8cad8f9ecfb5,PennController,136,0,endinstructions_sp,NULL,PennController,14,_Header_,Start,1748358205732,NULL
1748358872,28bd2098c6bb39d4162b8cad8f9ecfb5,PennController,136,0,endinstructions_sp,NULL,PennController,14,_Header_,End,1748358205984,NULL
1748358872,28bd2098c6bb39d4162b8cad8f9ecfb5,PennController,136,0,endinstructions_sp,NULL,PennController,14,_Trial_,End,1748358215885,NULL
# 13. ID.
# 14. ReactionTime.
# 15. ConcValCombo.
# 16. Key_value_F.
# 17. Key_value_J.
# 18. Group.
# 19. Comments.
1748358872,28bd2098c6bb39d4162b8cad8f9ecfb5,PennController,36,0,test_sp,NULL,PennController,47,_Trial_,Start,1748358215886,undefined,1019,,social,physical,B,NULL
1748358872,28bd2098c6bb39d4162b8cad8f9ecfb5,PennController,36,0,test_sp,NULL,PennController,47,_Header_,Start,1748358215886,undefined,1019,,social,physical,B,NULL
1748358872,28bd2098c6bb39d4162b8cad8f9ecfb5,PennController,36,0,test_sp,NULL,PennController,47,_Header_,End,1748358216139,undefined,1019,,social,physical,B,NULL
1748358872,28bd2098c6bb39d4162b8cad8f9ecfb5,PennController,36,0,test_sp,NULL,Selector,unnamed-Selector,Selection,social,1748358217661,undefined,1019,,social,physical,B,social;physical
1748358872,28bd2098c6bb39d4162b8cad8f9ecfb5,PennController,36,0,test_sp,NULL,PennController,47,_Trial_,End,1748358217661,undefined,1019,,social,physical,B,NULL
1748358872,28bd2098c6bb39d4162b8cad8f9ecfb5,PennController,11,0,test_sp,NULL,PennController,22,_Trial_,Start,1748358217662,undefined,1456,,social,physical,B,NULL
1748358872,28bd2098c6bb39d4162b8cad8f9ecfb5,PennController,11,0,test_sp,NULL,PennController,22,_Header_,Start,1748358217662,undefined,1456,,social,physical,B,NULL
1748358872,28bd2098c6bb39d4162b8cad8f9ecfb5,PennController,11,0,test_sp,NULL,PennController,22,_Header_,End,1748358217916,undefined,1456,,social,physical,B,NULL
1748358872,28bd2098c6bb39d4162b8cad8f9ecfb5,PennController,11,0,test_sp,NULL,Selector,unnamed-Selector,Selection,physical,1748358219875,undefined,1456,,social,physical,B,social;physical
1748358872,28bd2098c6bb39d4162b8cad8f9ecfb5,PennController,11,0,test_sp,NULL,PennController,22,_Trial_,End,1748358219875,undefined,1456,,social,physical,B,NULL
1748358872,28bd2098c6bb39d4162b8cad8f9ecfb5,PennController,30,0,test_sp,NULL,PennController,41,_Trial_,Start,1748358219876,undefined,1668,,social,physical,B,NULL
1748358872,28bd2098c6bb39d4162b8cad8f9ecfb5,PennController,30,0,test_sp,NULL,PennController,41,_Header_,Start,1748358219876,undefined,1668,,social,physical,B,NULL
1748358872,28bd2098c6bb39d4162b8cad8f9ecfb5,PennController,30,0,test_sp,NULL,PennController,41,_Header_,End,1748358220129,undefined,1668,,social,physical,B,NULL
1748358872,28bd2098c6bb39d4162b8cad8f9ecfb5,PennController,30,0,test_sp,NULL,Selector,unnamed-Selector,Selection,physical,1748358222299,undefined,1668,,social,physical,B,social;physical
1748358872,28bd2098c6bb39d4162b8cad8f9ecfb5,PennController,30,0,test_sp,NULL,PennController,41,_Trial_,End,1748358222299,undefined,1668,,social,physical,B,NULL
1748358872,28bd2098c6bb39d4162b8cad8f9ecfb5,PennController,38,0,test_sp,NULL,PennController,49,_Trial_,Start,1748358222300,undefined,1074,,social,physical,B,NULL
1748358872,28bd2098c6bb39d4162b8cad8f9ecfb5,PennController,38,0,test_sp,NULL,PennController,49,_Header_,Start,1748358222300,undefined,1074,,social,physical,B,NULL
1748358872,28bd2098c6bb39d4162b8cad8f9ecfb5,PennController,38,0,test_sp,NULL,PennController,49,_Header_,End,1748358222552,undefined,1074,,social,physical,B,NULL
1748358872,28bd2098c6bb39d4162b8cad8f9ecfb5,PennController,38,0,test_sp,NULL,Selector,unnamed-Selector,Selection,social,1748358224128,undefined,1074,,social,physical,B,social;physical
1748358872,28bd2098c6bb39d4162b8cad8f9ecfb5,PennController,38,0,test_sp,NULL,PennController,49,_Trial_,End,1748358224128,undefined,1074,,social,physical,B,NULL
1748358872,28bd2098c6bb39d4162b8cad8f9ecfb5,PennController,33,0,test_sp,NULL,PennController,44,_Trial_,Start,1748358224129,undefined,1689,,social,physical,B,NULL
1748358872,28bd2098c6bb39d4162b8cad8f9ecfb5,PennController,33,0,test_sp,NULL,PennController,44,_Header_,Start,1748358224129,undefined,1689,,social,physical,B,NULL
1748358872,28bd2098c6bb39d4162b8cad8f9ecfb5,PennController,33,0,test_sp,NULL,PennController,44,_Header_,End,1748358224380,undefined,1689,,social,physical,B,NULL
1748358872,28bd2098c6bb39d4162b8cad8f9ecfb5,PennController,33,0,test_sp,NULL,Selector,unnamed-Selector,Selection,physical,1748358226571,undefined,1689,,social,physical,B,social;physical
1748358872,28bd2098c6bb39d4162b8cad8f9ecfb5,PennController,33,0,test_sp,NULL,PennController,44,_Trial_,End,1748358226571,undefined,1689,,social,physical,B,NULL
1748358872,28bd2098c6bb39d4162b8cad8f9ecfb5,PennController,13,0,test_sp,NULL,PennController,24,_Trial_,Start,1748358226572,undefined,1379,,social,physical,B,NULL
1748358872,28bd2098c6bb39d4162b8cad8f9ecfb5,PennController,13,0,test_sp,NULL,PennController,24,_Header_,Start,1748358226572,undefined,1379,,social,physical,B,NULL
1748358872,28bd2098c6bb39d4162b8cad8f9ecfb5,PennController,13,0,test_sp,NULL,PennController,24,_Header_,End,1748358226824,undefined,1379,,social,physical,B,NULL
1748358872,28bd2098c6bb39d4162b8cad8f9ecfb5,PennController,13,0,test_sp,NULL,Selector,unnamed-Selector,Selection,physical,1748358228708,undefined,1379,,social,physical,B,social;physical
1748358872,28bd2098c6bb39d4162b8cad8f9ecfb5,PennController,13,0,test_sp,NULL,PennController,24,_Trial_,End,1748358228709,undefined,1379,,social,physical,B,NULL
1748358872,28bd2098c6bb39d4162b8cad8f9ecfb5,PennController,18,0,test_sp,NULL,PennController,29,_Trial_,Start,1748358228709,undefined,1220,,social,physical,B,NULL
1748358872,28bd2098c6bb39d4162b8cad8f9ecfb5,PennController,18,0,test_sp,NULL,PennController,29,_Header_,Start,1748358228709,undefined,1220,,social,physical,B,NULL
1748358872,28bd2098c6bb39d4162b8cad8f9ecfb5,PennController,18,0,test_sp,NULL,PennController,29,_Header_,End,1748358228963,undefined,1220,,social,physical,B,NULL
1748358872,28bd2098c6bb39d4162b8cad8f9ecfb5,PennController,18,0,test_sp,NULL,Selector,unnamed-Selector,Selection,social,1748358230684,undefined,1220,,social,physical,B,social;physical
1748358872,28bd2098c6bb39d4162b8cad8f9ecfb5,PennController,18,0,test_sp,NULL,PennController,29,_Trial_,End,1748358230684,undefined,1220,,social,physical,B,NULL
1748358872,28bd2098c6bb39d4162b8cad8f9ecfb5,PennController,24,0,test_sp,NULL,PennController,35,_Trial_,Start,1748358230685,undefined,1266,,social,physical,B,NULL
1748358872,28bd2098c6bb39d4162b8cad8f9ecfb5,PennController,24,0,test_sp,NULL,PennController,35,_Header_,Start,1748358230685,undefined,1266,,social,physical,B,NULL
1748358872,28bd2098c6bb39d4162b8cad8f9ecfb5,PennController,24,0,test_sp,NULL,PennController,35,_Header_,End,1748358230936,undefined,1266,,social,physical,B,NULL
1748358872,28bd2098c6bb39d4162b8cad8f9ecfb5,PennController,24,0,test_sp,NULL,Selector,unnamed-Selector,Selection,physical,1748358232702,undefined,1266,,social,physical,B,social;physical
1748358872,28bd2098c6bb39d4162b8cad8f9ecfb5,PennController,24,0,test_sp,NULL,PennController,35,_Trial_,End,1748358232703,undefined,1266,,social,physical,B,NULL
1748358872,28bd2098c6bb39d4162b8cad8f9ecfb5,PennController,16,0,test_sp,NULL,PennController,27,_Trial_,Start,1748358232704,undefined,963,,social,physical,B,NULL
1748358872,28bd2098c6bb39d4162b8cad8f9ecfb5,PennController,16,0,test_sp,NULL,PennController,27,_Header_,Start,1748358232704,undefined,963,,social,physical,B,NULL
1748358872,28bd2098c6bb39d4162b8cad8f9ecfb5,PennController,16,0,test_sp,NULL,PennController,27,_Header_,End,1748358232954,undefined,963,,social,physical,B,NULL
1748358872,28bd2098c6bb39d4162b8cad8f9ecfb5,PennController,16,0,test_sp,NULL,Selector,unnamed-Selector,Selection,social,1748358234421,undefined,963,,social,physical,B,social;physical
1748358872,28bd2098c6bb39d4162b8cad8f9ecfb5,PennController,16,0,test_sp,NULL,PennController,27,_Trial_,End,1748358234422,undefined,963,,social,physical,B,NULL
1748358872,28bd2098c6bb39d4162b8cad8f9ecfb5,PennController,31,0,test_sp,NULL,PennController,42,_Trial_,Start,1748358234422,undefined,861,,social,physical,B,NULL
1748358872,28bd2098c6bb39d4162b8cad8f9ecfb5,PennController,31,0,test_sp,NULL,PennController,42,_Header_,Start,1748358234422,undefined,861,,social,physical,B,NULL
1748358872,28bd2098c6bb39d4162b8cad8f9ecfb5,PennController,31,0,test_sp,NULL,PennController,42,_Header_,End,1748358234672,undefined,861,,social,physical,B,NULL
1748358872,28bd2098c6bb39d4162b8cad8f9ecfb5,PennController,31,0,test_sp,NULL,Selector,unnamed-Selector,Selection,physical,1748358236035,undefined,861,,social,physical,B,social;physical
1748358872,28bd2098c6bb39d4162b8cad8f9ecfb5,PennController,31,0,test_sp,NULL,PennController,42,_Trial_,End,1748358236036,undefined,861,,social,physical,B,NULL
1748358872,28bd2098c6bb39d4162b8cad8f9ecfb5,PennController,8,0,test_sp,NULL,PennController,19,_Trial_,Start,1748358236037,undefined,1144,,social,physical,B,NULL
1748358872,28bd2098c6bb39d4162b8cad8f9ecfb5,PennController,8,0,test_sp,NULL,PennController,19,_Header_,Start,1748358236037,undefined,1144,,social,physical,B,NULL
1748358872,28bd2098c6bb39d4162b8cad8f9ecfb5,PennController,8,0,test_sp,NULL,PennController,19,_Header_,End,1748358236287,undefined,1144,,social,physical,B,NULL
1748358872,28bd2098c6bb39d4162b8cad8f9ecfb5,PennController,8,0,test_sp,NULL,Selector,unnamed-Selector,Selection,physical,1748358237934,undefined,1144,,social,physical,B,social;physical
1748358872,28bd2098c6bb39d4162b8cad8f9ecfb5,PennController,8,0,test_sp,NULL,PennController,19,_Trial_,End,1748358237935,undefined,1144,,social,physical,B,NULL
1748358872,28bd2098c6bb39d4162b8cad8f9ecfb5,PennController,5,0,test_sp,NULL,PennController,16,_Trial_,Start,1748358237935,undefined,1424,,social,physical,B,NULL
1748358872,28bd2098c6bb39d4162b8cad8f9ecfb5,PennController,5,0,test_sp,NULL,PennController,16,_Header_,Start,1748358237935,undefined,1424,,social,physical,B,NULL
1748358872,28bd2098c6bb39d4162b8cad8f9ecfb5,PennController,5,0,test_sp,NULL,PennController,16,_Header_,End,1748358238187,undefined,1424,,social,physical,B,NULL
1748358872,28bd2098c6bb39d4162b8cad8f9ecfb5,PennController,5,0,test_sp,NULL,Selector,unnamed-Selector,Selection,physical,1748358240113,undefined,1424,,social,physical,B,social;physical
1748358872,28bd2098c6bb39d4162b8cad8f9ecfb5,PennController,5,0,test_sp,NULL,PennController,16,_Trial_,End,1748358240114,undefined,1424,,social,physical,B,NULL
1748358872,28bd2098c6bb39d4162b8cad8f9ecfb5,PennController,10,0,test_sp,NULL,PennController,21,_Trial_,Start,1748358240115,undefined,1435,,social,physical,B,NULL
1748358872,28bd2098c6bb39d4162b8cad8f9ecfb5,PennController,10,0,test_sp,NULL,PennController,21,_Header_,Start,1748358240115,undefined,1435,,social,physical,B,NULL
1748358872,28bd2098c6bb39d4162b8cad8f9ecfb5,PennController,10,0,test_sp,NULL,PennController,21,_Header_,End,1748358240367,undefined,1435,,social,physical,B,NULL
1748358872,28bd2098c6bb39d4162b8cad8f9ecfb5,PennController,10,0,test_sp,NULL,Selector,unnamed-Selector,Selection,physical,1748358242307,undefined,1435,,social,physical,B,social;physical
1748358872,28bd2098c6bb39d4162b8cad8f9ecfb5,PennController,10,0,test_sp,NULL,PennController,21,_Trial_,End,1748358242308,undefined,1435,,social,physical,B,NULL
1748358872,28bd2098c6bb39d4162b8cad8f9ecfb5,PennController,40,0,test_sp,NULL,PennController,51,_Trial_,Start,1748358242308,undefined,686,,social,physical,B,NULL
1748358872,28bd2098c6bb39d4162b8cad8f9ecfb5,PennController,40,0,test_sp,NULL,PennController,51,_Header_,Start,1748358242308,undefined,686,,social,physical,B,NULL
1748358872,28bd2098c6bb39d4162b8cad8f9ecfb5,PennController,40,0,test_sp,NULL,PennController,51,_Header_,End,1748358242560,undefined,686,,social,physical,B,NULL
1748358872,28bd2098c6bb39d4162b8cad8f9ecfb5,PennController,40,0,test_sp,NULL,Selector,unnamed-Selector,Selection,social,1748358243752,undefined,686,,social,physical,B,social;physical
1748358872,28bd2098c6bb39d4162b8cad8f9ecfb5,PennController,40,0,test_sp,NULL,PennController,51,_Trial_,End,1748358243752,undefined,686,,social,physical,B,NULL
1748358872,28bd2098c6bb39d4162b8cad8f9ecfb5,PennController,19,0,test_sp,NULL,PennController,30,_Trial_,Start,1748358243753,undefined,698,,social,physical,B,NULL
1748358872,28bd2098c6bb39d4162b8cad8f9ecfb5,PennController,19,0,test_sp,NULL,PennController,30,_Header_,Start,1748358243753,undefined,698,,social,physical,B,NULL
1748358872,28bd2098c6bb39d4162b8cad8f9ecfb5,PennController,19,0,test_sp,NULL,PennController,30,_Header_,End,1748358244007,undefined,698,,social,physical,B,NULL
1748358872,28bd2098c6bb39d4162b8cad8f9ecfb5,PennController,19,0,test_sp,NULL,Selector,unnamed-Selector,Selection,social,1748358245208,undefined,698,,social,physical,B,social;physical
1748358872,28bd2098c6bb39d4162b8cad8f9ecfb5,PennController,19,0,test_sp,NULL,PennController,30,_Trial_,End,1748358245209,undefined,698,,social,physical,B,NULL
1748358872,28bd2098c6bb39d4162b8cad8f9ecfb5,PennController,39,0,test_sp,NULL,PennController,50,_Trial_,Start,1748358245209,undefined,1034,,social,physical,B,NULL
1748358872,28bd2098c6bb39d4162b8cad8f9ecfb5,PennController,39,0,test_sp,NULL,PennController,50,_Header_,Start,1748358245209,undefined,1034,,social,physical,B,NULL
1748358872,28bd2098c6bb39d4162b8cad8f9ecfb5,PennController,39,0,test_sp,NULL,PennController,50,_Header_,End,1748358245462,undefined,1034,,social,physical,B,NULL
1748358872,28bd2098c6bb39d4162b8cad8f9ecfb5,PennController,39,0,test_sp,NULL,Selector,unnamed-Selector,Selection,social,1748358247000,undefined,1034,,social,physical,B,social;physical
1748358872,28bd2098c6bb39d4162b8cad8f9ecfb5,PennController,39,0,test_sp,NULL,PennController,50,_Trial_,End,1748358247001,undefined,1034,,social,physical,B,NULL
1748358872,28bd2098c6bb39d4162b8cad8f9ecfb5,PennController,26,0,test_sp,NULL,PennController,37,_Trial_,Start,1748358247001,undefined,1352,,social,physical,B,NULL
1748358872,28bd2098c6bb39d4162b8cad8f9ecfb5,PennController,26,0,test_sp,NULL,PennController,37,_Header_,Start,1748358247001,undefined,1352,,social,physical,B,NULL
1748358872,28bd2098c6bb39d4162b8cad8f9ecfb5,PennController,26,0,test_sp,NULL,PennController,37,_Header_,End,1748358247255,undefined,1352,,social,physical,B,NULL
1748358872,28bd2098c6bb39d4162b8cad8f9ecfb5,PennController,26,0,test_sp,NULL,Selector,unnamed-Selector,Selection,physical,1748358249110,undefined,1352,,social,physical,B,social;physical
1748358872,28bd2098c6bb39d4162b8cad8f9ecfb5,PennController,26,0,test_sp,NULL,PennController,37,_Trial_,End,1748358249111,undefined,1352,,social,physical,B,NULL
1748358872,28bd2098c6bb39d4162b8cad8f9ecfb5,PennController,35,0,test_sp,NULL,PennController,46,_Trial_,Start,1748358249111,undefined,916,,social,physical,B,NULL
1748358872,28bd2098c6bb39d4162b8cad8f9ecfb5,PennController,35,0,test_sp,NULL,PennController,46,_Header_,Start,1748358249111,undefined,916,,social,physical,B,NULL
1748358872,28bd2098c6bb39d4162b8cad8f9ecfb5,PennController,35,0,test_sp,NULL,PennController,46,_Header_,End,1748358249364,undefined,916,,social,physical,B,NULL
1748358872,28bd2098c6bb39d4162b8cad8f9ecfb5,PennController,35,0,test_sp,NULL,Selector,unnamed-Selector,Selection,social,1748358250782,undefined,916,,social,physical,B,social;physical
1748358872,28bd2098c6bb39d4162b8cad8f9ecfb5,PennController,35,0,test_sp,NULL,PennController,46,_Trial_,End,1748358250782,undefined,916,,social,physical,B,NULL
1748358872,28bd2098c6bb39d4162b8cad8f9ecfb5,PennController,15,0,test_sp,NULL,PennController,26,_Trial_,Start,1748358250783,undefined,757,,social,physical,B,NULL
1748358872,28bd2098c6bb39d4162b8cad8f9ecfb5,PennController,15,0,test_sp,NULL,PennController,26,_Header_,Start,1748358250783,undefined,757,,social,physical,B,NULL
1748358872,28bd2098c6bb39d4162b8cad8f9ecfb5,PennController,15,0,test_sp,NULL,PennController,26,_Header_,End,1748358251034,undefined,757,,social,physical,B,NULL
1748358872,28bd2098c6bb39d4162b8cad8f9ecfb5,PennController,15,0,test_sp,NULL,Selector,unnamed-Selector,Selection,social,1748358252292,undefined,757,,social,physical,B,social;physical
1748358872,28bd2098c6bb39d4162b8cad8f9ecfb5,PennController,15,0,test_sp,NULL,PennController,26,_Trial_,End,1748358252293,undefined,757,,social,physical,B,NULL
1748358872,28bd2098c6bb39d4162b8cad8f9ecfb5,PennController,29,0,test_sp,NULL,PennController,40,_Trial_,Start,1748358252294,undefined,896,,social,physical,B,NULL
1748358872,28bd2098c6bb39d4162b8cad8f9ecfb5,PennController,29,0,test_sp,NULL,PennController,40,_Header_,Start,1748358252294,undefined,896,,social,physical,B,NULL
1748358872,28bd2098c6bb39d4162b8cad8f9ecfb5,PennController,29,0,test_sp,NULL,PennController,40,_Header_,End,1748358252546,undefined,896,,social,physical,B,NULL
1748358872,28bd2098c6bb39d4162b8cad8f9ecfb5,PennController,29,0,test_sp,NULL,Selector,unnamed-Selector,Selection,physical,1748358253944,undefined,896,,social,physical,B,social;physical
1748358872,28bd2098c6bb39d4162b8cad8f9ecfb5,PennController,29,0,test_sp,NULL,PennController,40,_Trial_,End,1748358253944,undefined,896,,social,physical,B,NULL
1748358872,28bd2098c6bb39d4162b8cad8f9ecfb5,PennController,14,0,test_sp,NULL,PennController,25,_Trial_,Start,1748358253945,undefined,763,,social,physical,B,NULL
1748358872,28bd2098c6bb39d4162b8cad8f9ecfb5,PennController,14,0,test_sp,NULL,PennController,25,_Header_,Start,1748358253945,undefined,763,,social,physical,B,NULL
1748358872,28bd2098c6bb39d4162b8cad8f9ecfb5,PennController,14,0,test_sp,NULL,PennController,25,_Header_,End,1748358254196,undefined,763,,social,physical,B,NULL
1748358872,28bd2098c6bb39d4162b8cad8f9ecfb5,PennController,14,0,test_sp,NULL,Selector,unnamed-Selector,Selection,social,1748358255461,undefined,763,,social,physical,B,social;physical
1748358872,28bd2098c6bb39d4162b8cad8f9ecfb5,PennController,14,0,test_sp,NULL,PennController,25,_Trial_,End,1748358255462,undefined,763,,social,physical,B,NULL
1748358872,28bd2098c6bb39d4162b8cad8f9ecfb5,PennController,37,0,test_sp,NULL,PennController,48,_Trial_,Start,1748358255463,undefined,755,,social,physical,B,NULL
1748358872,28bd2098c6bb39d4162b8cad8f9ecfb5,PennController,37,0,test_sp,NULL,PennController,48,_Header_,Start,1748358255463,undefined,755,,social,physical,B,NULL
1748358872,28bd2098c6bb39d4162b8cad8f9ecfb5,PennController,37,0,test_sp,NULL,PennController,48,_Header_,End,1748358255716,undefined,755,,social,physical,B,NULL
1748358872,28bd2098c6bb39d4162b8cad8f9ecfb5,PennController,37,0,test_sp,NULL,Selector,unnamed-Selector,Selection,social,1748358256975,undefined,755,,social,physical,B,social;physical
1748358872,28bd2098c6bb39d4162b8cad8f9ecfb5,PennController,37,0,test_sp,NULL,PennController,48,_Trial_,End,1748358256975,undefined,755,,social,physical,B,NULL
1748358872,28bd2098c6bb39d4162b8cad8f9ecfb5,PennController,20,0,test_sp,NULL,PennController,31,_Trial_,Start,1748358256976,undefined,818,,social,physical,B,NULL
1748358872,28bd2098c6bb39d4162b8cad8f9ecfb5,PennController,20,0,test_sp,NULL,PennController,31,_Header_,Start,1748358256976,undefined,818,,social,physical,B,NULL
1748358872,28bd2098c6bb39d4162b8cad8f9ecfb5,PennController,20,0,test_sp,NULL,PennController,31,_Header_,End,1748358257228,undefined,818,,social,physical,B,NULL
1748358872,28bd2098c6bb39d4162b8cad8f9ecfb5,PennController,20,0,test_sp,NULL,Selector,unnamed-Selector,Selection,social,1748358258549,undefined,818,,social,physical,B,social;physical
1748358872,28bd2098c6bb39d4162b8cad8f9ecfb5,PennController,20,0,test_sp,NULL,PennController,31,_Trial_,End,1748358258550,undefined,818,,social,physical,B,NULL
1748358872,28bd2098c6bb39d4162b8cad8f9ecfb5,PennController,21,0,test_sp,NULL,PennController,32,_Trial_,Start,1748358258551,undefined,673,,social,physical,B,NULL
1748358872,28bd2098c6bb39d4162b8cad8f9ecfb5,PennController,21,0,test_sp,NULL,PennController,32,_Header_,Start,1748358258551,undefined,673,,social,physical,B,NULL
1748358872,28bd2098c6bb39d4162b8cad8f9ecfb5,PennController,21,0,test_sp,NULL,PennController,32,_Header_,End,1748358258801,undefined,673,,social,physical,B,NULL
1748358872,28bd2098c6bb39d4162b8cad8f9ecfb5,PennController,21,0,test_sp,NULL,Selector,unnamed-Selector,Selection,social,1748358259976,undefined,673,,social,physical,B,social;physical
1748358872,28bd2098c6bb39d4162b8cad8f9ecfb5,PennController,21,0,test_sp,NULL,PennController,32,_Trial_,End,1748358259977,undefined,673,,social,physical,B,NULL
1748358872,28bd2098c6bb39d4162b8cad8f9ecfb5,PennController,23,0,test_sp,NULL,PennController,34,_Trial_,Start,1748358259977,undefined,624,,social,physical,B,NULL
1748358872,28bd2098c6bb39d4162b8cad8f9ecfb5,PennController,23,0,test_sp,NULL,PennController,34,_Header_,Start,1748358259977,undefined,624,,social,physical,B,NULL
1748358872,28bd2098c6bb39d4162b8cad8f9ecfb5,PennController,23,0,test_sp,NULL,PennController,34,_Header_,End,1748358260227,undefined,624,,social,physical,B,NULL
1748358872,28bd2098c6bb39d4162b8cad8f9ecfb5,PennController,23,0,test_sp,NULL,Selector,unnamed-Selector,Selection,social,1748358261353,undefined,624,,social,physical,B,social;physical
1748358872,28bd2098c6bb39d4162b8cad8f9ecfb5,PennController,23,0,test_sp,NULL,PennController,34,_Trial_,End,1748358261353,undefined,624,,social,physical,B,NULL
1748358872,28bd2098c6bb39d4162b8cad8f9ecfb5,PennController,43,0,test_sp,NULL,PennController,54,_Trial_,Start,1748358261354,undefined,745,,social,physical,B,NULL
1748358872,28bd2098c6bb39d4162b8cad8f9ecfb5,PennController,43,0,test_sp,NULL,PennController,54,_Header_,Start,1748358261354,undefined,745,,social,physical,B,NULL
1748358872,28bd2098c6bb39d4162b8cad8f9ecfb5,PennController,43,0,test_sp,NULL,PennController,54,_Header_,End,1748358261604,undefined,745,,social,physical,B,NULL
1748358872,28bd2098c6bb39d4162b8cad8f9ecfb5,PennController,43,0,test_sp,NULL,Selector,unnamed-Selector,Selection,social,1748358262852,undefined,745,,social,physical,B,social;physical
1748358872,28bd2098c6bb39d4162b8cad8f9ecfb5,PennController,43,0,test_sp,NULL,PennController,54,_Trial_,End,1748358262853,undefined,745,,social,physical,B,NULL
1748358872,28bd2098c6bb39d4162b8cad8f9ecfb5,PennController,42,0,test_sp,NULL,PennController,53,_Trial_,Start,1748358262854,undefined,728,,social,physical,B,NULL
1748358872,28bd2098c6bb39d4162b8cad8f9ecfb5,PennController,42,0,test_sp,NULL,PennController,53,_Header_,Start,1748358262854,undefined,728,,social,physical,B,NULL
1748358872,28bd2098c6bb39d4162b8cad8f9ecfb5,PennController,42,0,test_sp,NULL,PennController,53,_Header_,End,1748358263105,undefined,728,,social,physical,B,NULL
1748358872,28bd2098c6bb39d4162b8cad8f9ecfb5,PennController,42,0,test_sp,NULL,Selector,unnamed-Selector,Selection,social,1748358264335,undefined,728,,social,physical,B,social;physical
1748358872,28bd2098c6bb39d4162b8cad8f9ecfb5,PennController,42,0,test_sp,NULL,PennController,53,_Trial_,End,1748358264336,undefined,728,,social,physical,B,NULL
1748358872,28bd2098c6bb39d4162b8cad8f9ecfb5,PennController,32,0,test_sp,NULL,PennController,43,_Trial_,Start,1748358264337,undefined,909,,social,physical,B,NULL
1748358872,28bd2098c6bb39d4162b8cad8f9ecfb5,PennController,32,0,test_sp,NULL,PennController,43,_Header_,Start,1748358264337,undefined,909,,social,physical,B,NULL
1748358872,28bd2098c6bb39d4162b8cad8f9ecfb5,PennController,32,0,test_sp,NULL,PennController,43,_Header_,End,1748358264589,undefined,909,,social,physical,B,NULL
1748358872,28bd2098c6bb39d4162b8cad8f9ecfb5,PennController,32,0,test_sp,NULL,Selector,unnamed-Selector,Selection,social,1748358266000,undefined,909,,social,physical,B,social;physical
1748358872,28bd2098c6bb39d4162b8cad8f9ecfb5,PennController,32,0,test_sp,NULL,PennController,43,_Trial_,End,1748358266001,undefined,909,,social,physical,B,NULL
1748358872,28bd2098c6bb39d4162b8cad8f9ecfb5,PennController,9,0,test_sp,NULL,PennController,20,_Trial_,Start,1748358266002,undefined,2051,,social,physical,B,NULL
1748358872,28bd2098c6bb39d4162b8cad8f9ecfb5,PennController,9,0,test_sp,NULL,PennController,20,_Header_,Start,1748358266002,undefined,2051,,social,physical,B,NULL
1748358872,28bd2098c6bb39d4162b8cad8f9ecfb5,PennController,9,0,test_sp,NULL,PennController,20,_Header_,End,1748358266256,undefined,2051,,social,physical,B,NULL
1748358872,28bd2098c6bb39d4162b8cad8f9ecfb5,PennController,9,0,test_sp,NULL,Selector,unnamed-Selector,Selection,physical,1748358268807,undefined,2051,,social,physical,B,social;physical
1748358872,28bd2098c6bb39d4162b8cad8f9ecfb5,PennController,9,0,test_sp,NULL,PennController,20,_Trial_,End,1748358268808,undefined,2051,,social,physical,B,NULL
1748358872,28bd2098c6bb39d4162b8cad8f9ecfb5,PennController,6,0,test_sp,NULL,PennController,17,_Trial_,Start,1748358268809,undefined,1573,,social,physical,B,NULL
1748358872,28bd2098c6bb39d4162b8cad8f9ecfb5,PennController,6,0,test_sp,NULL,PennController,17,_Header_,Start,1748358268809,undefined,1573,,social,physical,B,NULL
1748358872,28bd2098c6bb39d4162b8cad8f9ecfb5,PennController,6,0,test_sp,NULL,PennController,17,_Header_,End,1748358269062,undefined,1573,,social,physical,B,NULL
1748358872,28bd2098c6bb39d4162b8cad8f9ecfb5,PennController,6,0,test_sp,NULL,Selector,unnamed-Selector,Selection,social,1748358271137,undefined,1573,,social,physical,B,social;physical
1748358872,28bd2098c6bb39d4162b8cad8f9ecfb5,PennController,6,0,test_sp,NULL,PennController,17,_Trial_,End,1748358271137,undefined,1573,,social,physical,B,NULL
1748358872,28bd2098c6bb39d4162b8cad8f9ecfb5,PennController,17,0,test_sp,NULL,PennController,28,_Trial_,Start,1748358271138,undefined,1323,,social,physical,B,NULL
1748358872,28bd2098c6bb39d4162b8cad8f9ecfb5,PennController,17,0,test_sp,NULL,PennController,28,_Header_,Start,1748358271138,undefined,1323,,social,physical,B,NULL
1748358872,28bd2098c6bb39d4162b8cad8f9ecfb5,PennController,17,0,test_sp,NULL,PennController,28,_Header_,End,1748358271388,undefined,1323,,social,physical,B,NULL
1748358872,28bd2098c6bb39d4162b8cad8f9ecfb5,PennController,17,0,test_sp,NULL,Selector,unnamed-Selector,Selection,social,1748358273211,undefined,1323,,social,physical,B,social;physical
1748358872,28bd2098c6bb39d4162b8cad8f9ecfb5,PennController,17,0,test_sp,NULL,PennController,28,_Trial_,End,1748358273212,undefined,1323,,social,physical,B,NULL
1748358872,28bd2098c6bb39d4162b8cad8f9ecfb5,PennController,4,0,test_sp,NULL,PennController,15,_Trial_,Start,1748358273213,undefined,898,,social,physical,B,NULL
1748358872,28bd2098c6bb39d4162b8cad8f9ecfb5,PennController,4,0,test_sp,NULL,PennController,15,_Header_,Start,1748358273213,undefined,898,,social,physical,B,NULL
1748358872,28bd2098c6bb39d4162b8cad8f9ecfb5,PennController,4,0,test_sp,NULL,PennController,15,_Header_,End,1748358273463,undefined,898,,social,physical,B,NULL
1748358872,28bd2098c6bb39d4162b8cad8f9ecfb5,PennController,4,0,test_sp,NULL,Selector,unnamed-Selector,Selection,physical,1748358274865,undefined,898,,social,physical,B,social;physical
1748358872,28bd2098c6bb39d4162b8cad8f9ecfb5,PennController,4,0,test_sp,NULL,PennController,15,_Trial_,End,1748358274865,undefined,898,,social,physical,B,NULL
1748358872,28bd2098c6bb39d4162b8cad8f9ecfb5,PennController,12,0,test_sp,NULL,PennController,23,_Trial_,Start,1748358274866,undefined,1278,,social,physical,B,NULL
1748358872,28bd2098c6bb39d4162b8cad8f9ecfb5,PennController,12,0,test_sp,NULL,PennController,23,_Header_,Start,1748358274866,undefined,1278,,social,physical,B,NULL
1748358872,28bd2098c6bb39d4162b8cad8f9ecfb5,PennController,12,0,test_sp,NULL,PennController,23,_Header_,End,1748358275119,undefined,1278,,social,physical,B,NULL
1748358872,28bd2098c6bb39d4162b8cad8f9ecfb5,PennController,12,0,test_sp,NULL,Selector,unnamed-Selector,Selection,physical,1748358276899,undefined,1278,,social,physical,B,social;physical
1748358872,28bd2098c6bb39d4162b8cad8f9ecfb5,PennController,12,0,test_sp,NULL,PennController,23,_Trial_,End,1748358276899,undefined,1278,,social,physical,B,NULL
1748358872,28bd2098c6bb39d4162b8cad8f9ecfb5,PennController,7,0,test_sp,NULL,PennController,18,_Trial_,Start,1748358276900,undefined,1385,,social,physical,B,NULL
1748358872,28bd2098c6bb39d4162b8cad8f9ecfb5,PennController,7,0,test_sp,NULL,PennController,18,_Header_,Start,1748358276900,undefined,1385,,social,physical,B,NULL
1748358872,28bd2098c6bb39d4162b8cad8f9ecfb5,PennController,7,0,test_sp,NULL,PennController,18,_Header_,End,1748358277151,undefined,1385,,social,physical,B,NULL
1748358872,28bd2098c6bb39d4162b8cad8f9ecfb5,PennController,7,0,test_sp,NULL,Selector,unnamed-Selector,Selection,physical,1748358279037,undefined,1385,,social,physical,B,social;physical
1748358872,28bd2098c6bb39d4162b8cad8f9ecfb5,PennController,7,0,test_sp,NULL,PennController,18,_Trial_,End,1748358279038,undefined,1385,,social,physical,B,NULL
1748358872,28bd2098c6bb39d4162b8cad8f9ecfb5,PennController,22,0,test_sp,NULL,PennController,33,_Trial_,Start,1748358279039,undefined,992,,social,physical,B,NULL
1748358872,28bd2098c6bb39d4162b8cad8f9ecfb5,PennController,22,0,test_sp,NULL,PennController,33,_Header_,Start,1748358279039,undefined,992,,social,physical,B,NULL
1748358872,28bd2098c6bb39d4162b8cad8f9ecfb5,PennController,22,0,test_sp,NULL,PennController,33,_Header_,End,1748358279291,undefined,992,,social,physical,B,NULL
1748358872,28bd2098c6bb39d4162b8cad8f9ecfb5,PennController,22,0,test_sp,NULL,Selector,unnamed-Selector,Selection,social,1748358280784,undefined,992,,social,physical,B,social;physical
1748358872,28bd2098c6bb39d4162b8cad8f9ecfb5,PennController,22,0,test_sp,NULL,PennController,33,_Trial_,End,1748358280785,undefined,992,,social,physical,B,NULL
1748358872,28bd2098c6bb39d4162b8cad8f9ecfb5,PennController,34,0,test_sp,NULL,PennController,45,_Trial_,Start,1748358280786,undefined,1002,,social,physical,B,NULL
1748358872,28bd2098c6bb39d4162b8cad8f9ecfb5,PennController,34,0,test_sp,NULL,PennController,45,_Header_,Start,1748358280786,undefined,1002,,social,physical,B,NULL
1748358872,28bd2098c6bb39d4162b8cad8f9ecfb5,PennController,34,0,test_sp,NULL,PennController,45,_Header_,End,1748358281039,undefined,1002,,social,physical,B,NULL
1748358872,28bd2098c6bb39d4162b8cad8f9ecfb5,PennController,34,0,test_sp,NULL,Selector,unnamed-Selector,Selection,social,1748358282543,undefined,1002,,social,physical,B,social;physical
1748358872,28bd2098c6bb39d4162b8cad8f9ecfb5,PennController,34,0,test_sp,NULL,PennController,45,_Trial_,End,1748358282544,undefined,1002,,social,physical,B,NULL
1748358872,28bd2098c6bb39d4162b8cad8f9ecfb5,PennController,28,0,test_sp,NULL,PennController,39,_Trial_,Start,1748358282544,undefined,753,,social,physical,B,NULL
1748358872,28bd2098c6bb39d4162b8cad8f9ecfb5,PennController,28,0,test_sp,NULL,PennController,39,_Header_,Start,1748358282544,undefined,753,,social,physical,B,NULL
1748358872,28bd2098c6bb39d4162b8cad8f9ecfb5,PennController,28,0,test_sp,NULL,PennController,39,_Header_,End,1748358282794,undefined,753,,social,physical,B,NULL
1748358872,28bd2098c6bb39d4162b8cad8f9ecfb5,PennController,28,0,test_sp,NULL,Selector,unnamed-Selector,Selection,physical,1748358284049,undefined,753,,social,physical,B,social;physical
1748358872,28bd2098c6bb39d4162b8cad8f9ecfb5,PennController,28,0,test_sp,NULL,PennController,39,_Trial_,End,1748358284050,undefined,753,,social,physical,B,NULL
1748358872,28bd2098c6bb39d4162b8cad8f9ecfb5,PennController,25,0,test_sp,NULL,PennController,36,_Trial_,Start,1748358284051,undefined,960,,social,physical,B,NULL
1748358872,28bd2098c6bb39d4162b8cad8f9ecfb5,PennController,25,0,test_sp,NULL,PennController,36,_Header_,Start,1748358284051,undefined,960,,social,physical,B,NULL
1748358872,28bd2098c6bb39d4162b8cad8f9ecfb5,PennController,25,0,test_sp,NULL,PennController,36,_Header_,End,1748358284303,undefined,960,,social,physical,B,NULL
1748358872,28bd2098c6bb39d4162b8cad8f9ecfb5,PennController,25,0,test_sp,NULL,Selector,unnamed-Selector,Selection,physical,1748358285767,undefined,960,,social,physical,B,social;physical
1748358872,28bd2098c6bb39d4162b8cad8f9ecfb5,PennController,25,0,test_sp,NULL,PennController,36,_Trial_,End,1748358285768,undefined,960,,social,physical,B,NULL
1748358872,28bd2098c6bb39d4162b8cad8f9ecfb5,PennController,41,0,test_sp,NULL,PennController,52,_Trial_,Start,1748358285769,undefined,933,,social,physical,B,NULL
1748358872,28bd2098c6bb39d4162b8cad8f9ecfb5,PennController,41,0,test_sp,NULL,PennController,52,_Header_,Start,1748358285769,undefined,933,,social,physical,B,NULL
1748358872,28bd2098c6bb39d4162b8cad8f9ecfb5,PennController,41,0,test_sp,NULL,PennController,52,_Header_,End,1748358286019,undefined,933,,social,physical,B,NULL
1748358872,28bd2098c6bb39d4162b8cad8f9ecfb5,PennController,41,0,test_sp,NULL,Selector,unnamed-Selector,Selection,social,1748358287455,undefined,933,,social,physical,B,social;physical
1748358872,28bd2098c6bb39d4162b8cad8f9ecfb5,PennController,41,0,test_sp,NULL,PennController,52,_Trial_,End,1748358287456,undefined,933,,social,physical,B,NULL
1748358872,28bd2098c6bb39d4162b8cad8f9ecfb5,PennController,27,0,test_sp,NULL,PennController,38,_Trial_,Start,1748358287457,undefined,1202,,social,physical,B,NULL
1748358872,28bd2098c6bb39d4162b8cad8f9ecfb5,PennController,27,0,test_sp,NULL,PennController,38,_Header_,Start,1748358287457,undefined,1202,,social,physical,B,NULL
1748358872,28bd2098c6bb39d4162b8cad8f9ecfb5,PennController,27,0,test_sp,NULL,PennController,38,_Header_,End,1748358287709,undefined,1202,,social,physical,B,NULL
1748358872,28bd2098c6bb39d4162b8cad8f9ecfb5,PennController,27,0,test_sp,NULL,Selector,unnamed-Selector,Selection,physical,1748358289411,undefined,1202,,social,physical,B,social;physical
1748358872,28bd2098c6bb39d4162b8cad8f9ecfb5,PennController,27,0,test_sp,NULL,PennController,38,_Trial_,End,1748358289412,undefined,1202,,social,physical,B,NULL
1748358872,28bd2098c6bb39d4162b8cad8f9ecfb5,PennController,41,0,test_sp,NULL,PennController,52,_Trial_,Start,1748358289413,undefined,1598,,social,physical,B,NULL
1748358872,28bd2098c6bb39d4162b8cad8f9ecfb5,PennController,41,0,test_sp,NULL,PennController,52,_Header_,Start,1748358289413,undefined,1598,,social,physical,B,NULL
1748358872,28bd2098c6bb39d4162b8cad8f9ecfb5,PennController,41,0,test_sp,NULL,PennController,52,_Header_,End,1748358289663,undefined,1598,,social,physical,B,NULL
1748358872,28bd2098c6bb39d4162b8cad8f9ecfb5,PennController,41,0,test_sp,NULL,Selector,unnamed-Selector,Selection,social,1748358291763,undefined,1598,,social,physical,B,social;physical
1748358872,28bd2098c6bb39d4162b8cad8f9ecfb5,PennController,41,0,test_sp,NULL,PennController,52,_Trial_,End,1748358291763,undefined,1598,,social,physical,B,NULL
1748358872,28bd2098c6bb39d4162b8cad8f9ecfb5,PennController,20,0,test_sp,NULL,PennController,31,_Trial_,Start,1748358291764,undefined,908,,social,physical,B,NULL
1748358872,28bd2098c6bb39d4162b8cad8f9ecfb5,PennController,20,0,test_sp,NULL,PennController,31,_Header_,Start,1748358291764,undefined,908,,social,physical,B,NULL
1748358872,28bd2098c6bb39d4162b8cad8f9ecfb5,PennController,20,0,test_sp,NULL,PennController,31,_Header_,End,1748358292016,undefined,908,,social,physical,B,NULL
1748358872,28bd2098c6bb39d4162b8cad8f9ecfb5,PennController,20,0,test_sp,NULL,Selector,unnamed-Selector,Selection,social,1748358293428,undefined,908,,social,physical,B,social;physical
1748358872,28bd2098c6bb39d4162b8cad8f9ecfb5,PennController,20,0,test_sp,NULL,PennController,31,_Trial_,End,1748358293429,undefined,908,,social,physical,B,NULL
1748358872,28bd2098c6bb39d4162b8cad8f9ecfb5,PennController,28,0,test_sp,NULL,PennController,39,_Trial_,Start,1748358293429,undefined,758,,social,physical,B,NULL
1748358872,28bd2098c6bb39d4162b8cad8f9ecfb5,PennController,28,0,test_sp,NULL,PennController,39,_Header_,Start,1748358293429,undefined,758,,social,physical,B,NULL
1748358872,28bd2098c6bb39d4162b8cad8f9ecfb5,PennController,28,0,test_sp,NULL,PennController,39,_Header_,End,1748358293680,undefined,758,,social,physical,B,NULL
1748358872,28bd2098c6bb39d4162b8cad8f9ecfb5,PennController,28,0,test_sp,NULL,Selector,unnamed-Selector,Selection,physical,1748358294941,undefined,758,,social,physical,B,social;physical
1748358872,28bd2098c6bb39d4162b8cad8f9ecfb5,PennController,28,0,test_sp,NULL,PennController,39,_Trial_,End,1748358294942,undefined,758,,social,physical,B,NULL
1748358872,28bd2098c6bb39d4162b8cad8f9ecfb5,PennController,21,0,test_sp,NULL,PennController,32,_Trial_,Start,1748358294943,undefined,781,,social,physical,B,NULL
1748358872,28bd2098c6bb39d4162b8cad8f9ecfb5,PennController,21,0,test_sp,NULL,PennController,32,_Header_,Start,1748358294943,undefined,781,,social,physical,B,NULL
1748358872,28bd2098c6bb39d4162b8cad8f9ecfb5,PennController,21,0,test_sp,NULL,PennController,32,_Header_,End,1748358295195,undefined,781,,social,physical,B,NULL
1748358872,28bd2098c6bb39d4162b8cad8f9ecfb5,PennController,21,0,test_sp,NULL,Selector,unnamed-Selector,Selection,social,1748358296477,undefined,781,,social,physical,B,social;physical
1748358872,28bd2098c6bb39d4162b8cad8f9ecfb5,PennController,21,0,test_sp,NULL,PennController,32,_Trial_,End,1748358296477,undefined,781,,social,physical,B,NULL
1748358872,28bd2098c6bb39d4162b8cad8f9ecfb5,PennController,23,0,test_sp,NULL,PennController,34,_Trial_,Start,1748358296478,undefined,715,,social,physical,B,NULL
1748358872,28bd2098c6bb39d4162b8cad8f9ecfb5,PennController,23,0,test_sp,NULL,PennController,34,_Header_,Start,1748358296478,undefined,715,,social,physical,B,NULL
1748358872,28bd2098c6bb39d4162b8cad8f9ecfb5,PennController,23,0,test_sp,NULL,PennController,34,_Header_,End,1748358296729,undefined,715,,social,physical,B,NULL
1748358872,28bd2098c6bb39d4162b8cad8f9ecfb5,PennController,23,0,test_sp,NULL,Selector,unnamed-Selector,Selection,social,1748358297949,undefined,715,,social,physical,B,social;physical
1748358872,28bd2098c6bb39d4162b8cad8f9ecfb5,PennController,23,0,test_sp,NULL,PennController,34,_Trial_,End,1748358297949,undefined,715,,social,physical,B,NULL
1748358872,28bd2098c6bb39d4162b8cad8f9ecfb5,PennController,16,0,test_sp,NULL,PennController,27,_Trial_,Start,1748358297950,undefined,682,,social,physical,B,NULL
1748358872,28bd2098c6bb39d4162b8cad8f9ecfb5,PennController,16,0,test_sp,NULL,PennController,27,_Header_,Start,1748358297950,undefined,682,,social,physical,B,NULL
1748358872,28bd2098c6bb39d4162b8cad8f9ecfb5,PennController,16,0,test_sp,NULL,PennController,27,_Header_,End,1748358298201,undefined,682,,social,physical,B,NULL
1748358872,28bd2098c6bb39d4162b8cad8f9ecfb5,PennController,16,0,test_sp,NULL,Selector,unnamed-Selector,Selection,social,1748358299388,undefined,682,,social,physical,B,social;physical
1748358872,28bd2098c6bb39d4162b8cad8f9ecfb5,PennController,16,0,test_sp,NULL,PennController,27,_Trial_,End,1748358299388,undefined,682,,social,physical,B,NULL
1748358872,28bd2098c6bb39d4162b8cad8f9ecfb5,PennController,4,0,test_sp,NULL,PennController,15,_Trial_,Start,1748358299389,undefined,638,,social,physical,B,NULL
1748358872,28bd2098c6bb39d4162b8cad8f9ecfb5,PennController,4,0,test_sp,NULL,PennController,15,_Header_,Start,1748358299389,undefined,638,,social,physical,B,NULL
1748358872,28bd2098c6bb39d4162b8cad8f9ecfb5,PennController,4,0,test_sp,NULL,PennController,15,_Header_,End,1748358299641,undefined,638,,social,physical,B,NULL
1748358872,28bd2098c6bb39d4162b8cad8f9ecfb5,PennController,4,0,test_sp,NULL,Selector,unnamed-Selector,Selection,physical,1748358300780,undefined,638,,social,physical,B,social;physical
1748358872,28bd2098c6bb39d4162b8cad8f9ecfb5,PennController,4,0,test_sp,NULL,PennController,15,_Trial_,End,1748358300781,undefined,638,,social,physical,B,NULL
1748358872,28bd2098c6bb39d4162b8cad8f9ecfb5,PennController,13,0,test_sp,NULL,PennController,24,_Trial_,Start,1748358300782,undefined,1669,,social,physical,B,NULL
1748358872,28bd2098c6bb39d4162b8cad8f9ecfb5,PennController,13,0,test_sp,NULL,PennController,24,_Header_,Start,1748358300782,undefined,1669,,social,physical,B,NULL
1748358872,28bd2098c6bb39d4162b8cad8f9ecfb5,PennController,13,0,test_sp,NULL,PennController,24,_Header_,End,1748358301032,undefined,1669,,social,physical,B,NULL
1748358872,28bd2098c6bb39d4162b8cad8f9ecfb5,PennController,13,0,test_sp,NULL,Selector,unnamed-Selector,Selection,physical,1748358303203,undefined,1669,,social,physical,B,social;physical
1748358872,28bd2098c6bb39d4162b8cad8f9ecfb5,PennController,13,0,test_sp,NULL,PennController,24,_Trial_,End,1748358303204,undefined,1669,,social,physical,B,NULL
1748358872,28bd2098c6bb39d4162b8cad8f9ecfb5,PennController,11,0,test_sp,NULL,PennController,22,_Trial_,Start,1748358303205,undefined,1227,,social,physical,B,NULL
1748358872,28bd2098c6bb39d4162b8cad8f9ecfb5,PennController,11,0,test_sp,NULL,PennController,22,_Header_,Start,1748358303205,undefined,1227,,social,physical,B,NULL
1748358872,28bd2098c6bb39d4162b8cad8f9ecfb5,PennController,11,0,test_sp,NULL,PennController,22,_Header_,End,1748358303459,undefined,1227,,social,physical,B,NULL
1748358872,28bd2098c6bb39d4162b8cad8f9ecfb5,PennController,11,0,test_sp,NULL,Selector,unnamed-Selector,Selection,social,1748358305192,undefined,1227,,social,physical,B,social;physical
1748358872,28bd2098c6bb39d4162b8cad8f9ecfb5,PennController,11,0,test_sp,NULL,PennController,22,_Trial_,End,1748358305193,undefined,1227,,social,physical,B,NULL
1748358872,28bd2098c6bb39d4162b8cad8f9ecfb5,PennController,14,0,test_sp,NULL,PennController,25,_Trial_,Start,1748358305194,undefined,1363,,social,physical,B,NULL
1748358872,28bd2098c6bb39d4162b8cad8f9ecfb5,PennController,14,0,test_sp,NULL,PennController,25,_Header_,Start,1748358305194,undefined,1363,,social,physical,B,NULL
1748358872,28bd2098c6bb39d4162b8cad8f9ecfb5,PennController,14,0,test_sp,NULL,PennController,25,_Header_,End,1748358305445,undefined,1363,,social,physical,B,NULL
1748358872,28bd2098c6bb39d4162b8cad8f9ecfb5,PennController,14,0,test_sp,NULL,Selector,unnamed-Selector,Selection,social,1748358307309,undefined,1363,,social,physical,B,social;physical
1748358872,28bd2098c6bb39d4162b8cad8f9ecfb5,PennController,14,0,test_sp,NULL,PennController,25,_Trial_,End,1748358307310,undefined,1363,,social,physical,B,NULL
1748358872,28bd2098c6bb39d4162b8cad8f9ecfb5,PennController,27,0,test_sp,NULL,PennController,38,_Trial_,Start,1748358307311,undefined,1022,,social,physical,B,NULL
1748358872,28bd2098c6bb39d4162b8cad8f9ecfb5,PennController,27,0,test_sp,NULL,PennController,38,_Header_,Start,1748358307311,undefined,1022,,social,physical,B,NULL
1748358872,28bd2098c6bb39d4162b8cad8f9ecfb5,PennController,27,0,test_sp,NULL,PennController,38,_Header_,End,1748358307561,undefined,1022,,social,physical,B,NULL
1748358872,28bd2098c6bb39d4162b8cad8f9ecfb5,PennController,27,0,test_sp,NULL,Selector,unnamed-Selector,Selection,physical,1748358309085,undefined,1022,,social,physical,B,social;physical
1748358872,28bd2098c6bb39d4162b8cad8f9ecfb5,PennController,27,0,test_sp,NULL,PennController,38,_Trial_,End,1748358309086,undefined,1022,,social,physical,B,NULL
1748358872,28bd2098c6bb39d4162b8cad8f9ecfb5,PennController,22,0,test_sp,NULL,PennController,33,_Trial_,Start,1748358309087,undefined,852,,social,physical,B,NULL
1748358872,28bd2098c6bb39d4162b8cad8f9ecfb5,PennController,22,0,test_sp,NULL,PennController,33,_Header_,Start,1748358309087,undefined,852,,social,physical,B,NULL
1748358872,28bd2098c6bb39d4162b8cad8f9ecfb5,PennController,22,0,test_sp,NULL,PennController,33,_Header_,End,1748358309337,undefined,852,,social,physical,B,NULL
1748358872,28bd2098c6bb39d4162b8cad8f9ecfb5,PennController,22,0,test_sp,NULL,Selector,unnamed-Selector,Selection,social,1748358310695,undefined,852,,social,physical,B,social;physical
1748358872,28bd2098c6bb39d4162b8cad8f9ecfb5,PennController,22,0,test_sp,NULL,PennController,33,_Trial_,End,1748358310695,undefined,852,,social,physical,B,NULL
1748358872,28bd2098c6bb39d4162b8cad8f9ecfb5,PennController,8,0,test_sp,NULL,PennController,19,_Trial_,Start,1748358310696,undefined,1055,,social,physical,B,NULL
1748358872,28bd2098c6bb39d4162b8cad8f9ecfb5,PennController,8,0,test_sp,NULL,PennController,19,_Header_,Start,1748358310696,undefined,1055,,social,physical,B,NULL
1748358872,28bd2098c6bb39d4162b8cad8f9ecfb5,PennController,8,0,test_sp,NULL,PennController,19,_Header_,End,1748358310948,undefined,1055,,social,physical,B,NULL
1748358872,28bd2098c6bb39d4162b8cad8f9ecfb5,PennController,8,0,test_sp,NULL,Selector,unnamed-Selector,Selection,physical,1748358312506,undefined,1055,,social,physical,B,social;physical
1748358872,28bd2098c6bb39d4162b8cad8f9ecfb5,PennController,8,0,test_sp,NULL,PennController,19,_Trial_,End,1748358312507,undefined,1055,,social,physical,B,NULL
1748358872,28bd2098c6bb39d4162b8cad8f9ecfb5,PennController,10,0,test_sp,NULL,PennController,21,_Trial_,Start,1748358312508,undefined,1263,,social,physical,B,NULL
1748358872,28bd2098c6bb39d4162b8cad8f9ecfb5,PennController,10,0,test_sp,NULL,PennController,21,_Header_,Start,1748358312508,undefined,1263,,social,physical,B,NULL
1748358872,28bd2098c6bb39d4162b8cad8f9ecfb5,PennController,10,0,test_sp,NULL,PennController,21,_Header_,End,1748358312762,undefined,1263,,social,physical,B,NULL
1748358872,28bd2098c6bb39d4162b8cad8f9ecfb5,PennController,10,0,test_sp,NULL,Selector,unnamed-Selector,Selection,physical,1748358314525,undefined,1263,,social,physical,B,social;physical
1748358872,28bd2098c6bb39d4162b8cad8f9ecfb5,PennController,10,0,test_sp,NULL,PennController,21,_Trial_,End,1748358314526,undefined,1263,,social,physical,B,NULL
1748358872,28bd2098c6bb39d4162b8cad8f9ecfb5,PennController,5,0,test_sp,NULL,PennController,16,_Trial_,Start,1748358314527,undefined,1275,,social,physical,B,NULL
1748358872,28bd2098c6bb39d4162b8cad8f9ecfb5,PennController,5,0,test_sp,NULL,PennController,16,_Header_,Start,1748358314527,undefined,1275,,social,physical,B,NULL
1748358872,28bd2098c6bb39d4162b8cad8f9ecfb5,PennController,5,0,test_sp,NULL,PennController,16,_Header_,End,1748358314778,undefined,1275,,social,physical,B,NULL
1748358872,28bd2098c6bb39d4162b8cad8f9ecfb5,PennController,5,0,test_sp,NULL,Selector,unnamed-Selector,Selection,social,1748358316559,undefined,1275,,social,physical,B,social;physical
1748358872,28bd2098c6bb39d4162b8cad8f9ecfb5,PennController,5,0,test_sp,NULL,PennController,16,_Trial_,End,1748358316559,undefined,1275,,social,physical,B,NULL
1748358872,28bd2098c6bb39d4162b8cad8f9ecfb5,PennController,6,0,test_sp,NULL,PennController,17,_Trial_,Start,1748358316560,undefined,4021,,social,physical,B,NULL
1748358872,28bd2098c6bb39d4162b8cad8f9ecfb5,PennController,6,0,test_sp,NULL,PennController,17,_Header_,Start,1748358316560,undefined,4021,,social,physical,B,NULL
1748358872,28bd2098c6bb39d4162b8cad8f9ecfb5,PennController,6,0,test_sp,NULL,PennController,17,_Header_,End,1748358316813,undefined,4021,,social,physical,B,NULL
1748358872,28bd2098c6bb39d4162b8cad8f9ecfb5,PennController,6,0,test_sp,NULL,Selector,unnamed-Selector,Selection,physical,1748358321337,undefined,4021,,social,physical,B,social;physical
1748358872,28bd2098c6bb39d4162b8cad8f9ecfb5,PennController,6,0,test_sp,NULL,PennController,17,_Trial_,End,1748358321337,undefined,4021,,social,physical,B,NULL
1748358872,28bd2098c6bb39d4162b8cad8f9ecfb5,PennController,24,0,test_sp,NULL,PennController,35,_Trial_,Start,1748358321338,undefined,1164,,social,physical,B,NULL
1748358872,28bd2098c6bb39d4162b8cad8f9ecfb5,PennController,24,0,test_sp,NULL,PennController,35,_Header_,Start,1748358321338,undefined,1164,,social,physical,B,NULL
1748358872,28bd2098c6bb39d4162b8cad8f9ecfb5,PennController,24,0,test_sp,NULL,PennController,35,_Header_,End,1748358321590,undefined,1164,,social,physical,B,NULL
1748358872,28bd2098c6bb39d4162b8cad8f9ecfb5,PennController,24,0,test_sp,NULL,Selector,unnamed-Selector,Selection,physical,1748358323254,undefined,1164,,social,physical,B,social;physical
1748358872,28bd2098c6bb39d4162b8cad8f9ecfb5,PennController,24,0,test_sp,NULL,PennController,35,_Trial_,End,1748358323255,undefined,1164,,social,physical,B,NULL
1748358872,28bd2098c6bb39d4162b8cad8f9ecfb5,PennController,25,0,test_sp,NULL,PennController,36,_Trial_,Start,1748358323256,undefined,888,,social,physical,B,NULL
1748358872,28bd2098c6bb39d4162b8cad8f9ecfb5,PennController,25,0,test_sp,NULL,PennController,36,_Header_,Start,1748358323256,undefined,888,,social,physical,B,NULL
1748358872,28bd2098c6bb39d4162b8cad8f9ecfb5,PennController,25,0,test_sp,NULL,PennController,36,_Header_,End,1748358323509,undefined,888,,social,physical,B,NULL
1748358872,28bd2098c6bb39d4162b8cad8f9ecfb5,PennController,25,0,test_sp,NULL,Selector,unnamed-Selector,Selection,physical,1748358324902,undefined,888,,social,physical,B,social;physical
1748358872,28bd2098c6bb39d4162b8cad8f9ecfb5,PennController,25,0,test_sp,NULL,PennController,36,_Trial_,End,1748358324903,undefined,888,,social,physical,B,NULL
1748358872,28bd2098c6bb39d4162b8cad8f9ecfb5,PennController,30,0,test_sp,NULL,PennController,41,_Trial_,Start,1748358324903,undefined,1627,,social,physical,B,NULL
1748358872,28bd2098c6bb39d4162b8cad8f9ecfb5,PennController,30,0,test_sp,NULL,PennController,41,_Header_,Start,1748358324903,undefined,1627,,social,physical,B,NULL
1748358872,28bd2098c6bb39d4162b8cad8f9ecfb5,PennController,30,0,test_sp,NULL,PennController,41,_Header_,End,1748358325157,undefined,1627,,social,physical,B,NULL
1748358872,28bd2098c6bb39d4162b8cad8f9ecfb5,PennController,30,0,test_sp,NULL,Selector,unnamed-Selector,Selection,physical,1748358327289,undefined,1627,,social,physical,B,social;physical
1748358872,28bd2098c6bb39d4162b8cad8f9ecfb5,PennController,30,0,test_sp,NULL,PennController,41,_Trial_,End,1748358327289,undefined,1627,,social,physical,B,NULL
1748358872,28bd2098c6bb39d4162b8cad8f9ecfb5,PennController,26,0,test_sp,NULL,PennController,37,_Trial_,Start,1748358327290,undefined,1185,,social,physical,B,NULL
1748358872,28bd2098c6bb39d4162b8cad8f9ecfb5,PennController,26,0,test_sp,NULL,PennController,37,_Header_,Start,1748358327290,undefined,1185,,social,physical,B,NULL
1748358872,28bd2098c6bb39d4162b8cad8f9ecfb5,PennController,26,0,test_sp,NULL,PennController,37,_Header_,End,1748358327541,undefined,1185,,social,physical,B,NULL
1748358872,28bd2098c6bb39d4162b8cad8f9ecfb5,PennController,26,0,test_sp,NULL,Selector,unnamed-Selector,Selection,physical,1748358329228,undefined,1185,,social,physical,B,social;physical
1748358872,28bd2098c6bb39d4162b8cad8f9ecfb5,PennController,26,0,test_sp,NULL,PennController,37,_Trial_,End,1748358329228,undefined,1185,,social,physical,B,NULL
1748358872,28bd2098c6bb39d4162b8cad8f9ecfb5,PennController,38,0,test_sp,NULL,PennController,49,_Trial_,Start,1748358329229,undefined,1645,,social,physical,B,NULL
1748358872,28bd2098c6bb39d4162b8cad8f9ecfb5,PennController,38,0,test_sp,NULL,PennController,49,_Header_,Start,1748358329229,undefined,1645,,social,physical,B,NULL
1748358872,28bd2098c6bb39d4162b8cad8f9ecfb5,PennController,38,0,test_sp,NULL,PennController,49,_Header_,End,1748358329481,undefined,1645,,social,physical,B,NULL
1748358872,28bd2098c6bb39d4162b8cad8f9ecfb5,PennController,38,0,test_sp,NULL,Selector,unnamed-Selector,Selection,social,1748358331627,undefined,1645,,social,physical,B,social;physical
1748358872,28bd2098c6bb39d4162b8cad8f9ecfb5,PennController,38,0,test_sp,NULL,PennController,49,_Trial_,End,1748358331627,undefined,1645,,social,physical,B,NULL
1748358872,28bd2098c6bb39d4162b8cad8f9ecfb5,PennController,43,0,test_sp,NULL,PennController,54,_Trial_,Start,1748358331628,undefined,1185,,social,physical,B,NULL
1748358872,28bd2098c6bb39d4162b8cad8f9ecfb5,PennController,43,0,test_sp,NULL,PennController,54,_Header_,Start,1748358331628,undefined,1185,,social,physical,B,NULL
1748358872,28bd2098c6bb39d4162b8cad8f9ecfb5,PennController,43,0,test_sp,NULL,PennController,54,_Header_,End,1748358331878,undefined,1185,,social,physical,B,NULL
1748358872,28bd2098c6bb39d4162b8cad8f9ecfb5,PennController,43,0,test_sp,NULL,Selector,unnamed-Selector,Selection,social,1748358333564,undefined,1185,,social,physical,B,social;physical
1748358872,28bd2098c6bb39d4162b8cad8f9ecfb5,PennController,43,0,test_sp,NULL,PennController,54,_Trial_,End,1748358333565,undefined,1185,,social,physical,B,NULL
1748358872,28bd2098c6bb39d4162b8cad8f9ecfb5,PennController,37,0,test_sp,NULL,PennController,48,_Trial_,Start,1748358333566,undefined,802,,social,physical,B,NULL
1748358872,28bd2098c6bb39d4162b8cad8f9ecfb5,PennController,37,0,test_sp,NULL,PennController,48,_Header_,Start,1748358333566,undefined,802,,social,physical,B,NULL
1748358872,28bd2098c6bb39d4162b8cad8f9ecfb5,PennController,37,0,test_sp,NULL,PennController,48,_Header_,End,1748358333818,undefined,802,,social,physical,B,NULL
1748358872,28bd2098c6bb39d4162b8cad8f9ecfb5,PennController,37,0,test_sp,NULL,Selector,unnamed-Selector,Selection,social,1748358335124,undefined,802,,social,physical,B,social;physical
1748358872,28bd2098c6bb39d4162b8cad8f9ecfb5,PennController,37,0,test_sp,NULL,PennController,48,_Trial_,End,1748358335124,undefined,802,,social,physical,B,NULL
1748358872,28bd2098c6bb39d4162b8cad8f9ecfb5,PennController,18,0,test_sp,NULL,PennController,29,_Trial_,Start,1748358335125,undefined,679,,social,physical,B,NULL
1748358872,28bd2098c6bb39d4162b8cad8f9ecfb5,PennController,18,0,test_sp,NULL,PennController,29,_Header_,Start,1748358335125,undefined,679,,social,physical,B,NULL
1748358872,28bd2098c6bb39d4162b8cad8f9ecfb5,PennController,18,0,test_sp,NULL,PennController,29,_Header_,End,1748358335378,undefined,679,,social,physical,B,NULL
1748358872,28bd2098c6bb39d4162b8cad8f9ecfb5,PennController,18,0,test_sp,NULL,Selector,unnamed-Selector,Selection,social,1748358336560,undefined,679,,social,physical,B,social;physical
1748358872,28bd2098c6bb39d4162b8cad8f9ecfb5,PennController,18,0,test_sp,NULL,PennController,29,_Trial_,End,1748358336561,undefined,679,,social,physical,B,NULL
1748358872,28bd2098c6bb39d4162b8cad8f9ecfb5,PennController,36,0,test_sp,NULL,PennController,47,_Trial_,Start,1748358336562,undefined,838,,social,physical,B,NULL
1748358872,28bd2098c6bb39d4162b8cad8f9ecfb5,PennController,36,0,test_sp,NULL,PennController,47,_Header_,Start,1748358336562,undefined,838,,social,physical,B,NULL
1748358872,28bd2098c6bb39d4162b8cad8f9ecfb5,PennController,36,0,test_sp,NULL,PennController,47,_Header_,End,1748358336816,undefined,838,,social,physical,B,NULL
1748358872,28bd2098c6bb39d4162b8cad8f9ecfb5,PennController,36,0,test_sp,NULL,Selector,unnamed-Selector,Selection,social,1748358338159,undefined,838,,social,physical,B,social;physical
1748358872,28bd2098c6bb39d4162b8cad8f9ecfb5,PennController,36,0,test_sp,NULL,PennController,47,_Trial_,End,1748358338159,undefined,838,,social,physical,B,NULL
1748358872,28bd2098c6bb39d4162b8cad8f9ecfb5,PennController,12,0,test_sp,NULL,PennController,23,_Trial_,Start,1748358338160,undefined,894,,social,physical,B,NULL
1748358872,28bd2098c6bb39d4162b8cad8f9ecfb5,PennController,12,0,test_sp,NULL,PennController,23,_Header_,Start,1748358338160,undefined,894,,social,physical,B,NULL
1748358872,28bd2098c6bb39d4162b8cad8f9ecfb5,PennController,12,0,test_sp,NULL,PennController,23,_Header_,End,1748358338411,undefined,894,,social,physical,B,NULL
1748358872,28bd2098c6bb39d4162b8cad8f9ecfb5,PennController,12,0,test_sp,NULL,Selector,unnamed-Selector,Selection,physical,1748358339808,undefined,894,,social,physical,B,social;physical
1748358872,28bd2098c6bb39d4162b8cad8f9ecfb5,PennController,12,0,test_sp,NULL,PennController,23,_Trial_,End,1748358339809,undefined,894,,social,physical,B,NULL
1748358872,28bd2098c6bb39d4162b8cad8f9ecfb5,PennController,19,0,test_sp,NULL,PennController,30,_Trial_,Start,1748358339810,undefined,1453,,social,physical,B,NULL
1748358872,28bd2098c6bb39d4162b8cad8f9ecfb5,PennController,19,0,test_sp,NULL,PennController,30,_Header_,Start,1748358339810,undefined,1453,,social,physical,B,NULL
1748358872,28bd2098c6bb39d4162b8cad8f9ecfb5,PennController,19,0,test_sp,NULL,PennController,30,_Header_,End,1748358340060,undefined,1453,,social,physical,B,NULL
1748358872,28bd2098c6bb39d4162b8cad8f9ecfb5,PennController,19,0,test_sp,NULL,Selector,unnamed-Selector,Selection,social,1748358342014,undefined,1453,,social,physical,B,social;physical
1748358872,28bd2098c6bb39d4162b8cad8f9ecfb5,PennController,19,0,test_sp,NULL,PennController,30,_Trial_,End,1748358342015,undefined,1453,,social,physical,B,NULL
1748358872,28bd2098c6bb39d4162b8cad8f9ecfb5,PennController,34,0,test_sp,NULL,PennController,45,_Trial_,Start,1748358342016,undefined,1230,,social,physical,B,NULL
1748358872,28bd2098c6bb39d4162b8cad8f9ecfb5,PennController,34,0,test_sp,NULL,PennController,45,_Header_,Start,1748358342016,undefined,1230,,social,physical,B,NULL
1748358872,28bd2098c6bb39d4162b8cad8f9ecfb5,PennController,34,0,test_sp,NULL,PennController,45,_Header_,End,1748358342269,undefined,1230,,social,physical,B,NULL
1748358872,28bd2098c6bb39d4162b8cad8f9ecfb5,PennController,34,0,test_sp,NULL,Selector,unnamed-Selector,Selection,social,1748358344001,undefined,1230,,social,physical,B,social;physical
1748358872,28bd2098c6bb39d4162b8cad8f9ecfb5,PennController,34,0,test_sp,NULL,PennController,45,_Trial_,End,1748358344002,undefined,1230,,social,physical,B,NULL
1748358872,28bd2098c6bb39d4162b8cad8f9ecfb5,PennController,42,0,test_sp,NULL,PennController,53,_Trial_,Start,1748358344003,undefined,864,,social,physical,B,NULL
1748358872,28bd2098c6bb39d4162b8cad8f9ecfb5,PennController,42,0,test_sp,NULL,PennController,53,_Header_,Start,1748358344003,undefined,864,,social,physical,B,NULL
1748358872,28bd2098c6bb39d4162b8cad8f9ecfb5,PennController,42,0,test_sp,NULL,PennController,53,_Header_,End,1748358344256,undefined,864,,social,physical,B,NULL
1748358872,28bd2098c6bb39d4162b8cad8f9ecfb5,PennController,42,0,test_sp,NULL,Selector,unnamed-Selector,Selection,social,1748358345623,undefined,864,,social,physical,B,social;physical
1748358872,28bd2098c6bb39d4162b8cad8f9ecfb5,PennController,42,0,test_sp,NULL,PennController,53,_Trial_,End,1748358345624,undefined,864,,social,physical,B,NULL
1748358872,28bd2098c6bb39d4162b8cad8f9ecfb5,PennController,9,0,test_sp,NULL,PennController,20,_Trial_,Start,1748358345625,undefined,1038,,social,physical,B,NULL
1748358872,28bd2098c6bb39d4162b8cad8f9ecfb5,PennController,9,0,test_sp,NULL,PennController,20,_Header_,Start,1748358345625,undefined,1038,,social,physical,B,NULL
1748358872,28bd2098c6bb39d4162b8cad8f9ecfb5,PennController,9,0,test_sp,NULL,PennController,20,_Header_,End,1748358345876,undefined,1038,,social,physical,B,NULL
1748358872,28bd2098c6bb39d4162b8cad8f9ecfb5,PennController,9,0,test_sp,NULL,Selector,unnamed-Selector,Selection,physical,1748358347414,undefined,1038,,social,physical,B,social;physical
1748358872,28bd2098c6bb39d4162b8cad8f9ecfb5,PennController,9,0,test_sp,NULL,PennController,20,_Trial_,End,1748358347415,undefined,1038,,social,physical,B,NULL
1748358872,28bd2098c6bb39d4162b8cad8f9ecfb5,PennController,15,0,test_sp,NULL,PennController,26,_Trial_,Start,1748358347416,undefined,1038,,social,physical,B,NULL
1748358872,28bd2098c6bb39d4162b8cad8f9ecfb5,PennController,15,0,test_sp,NULL,PennController,26,_Header_,Start,1748358347416,undefined,1038,,social,physical,B,NULL
1748358872,28bd2098c6bb39d4162b8cad8f9ecfb5,PennController,15,0,test_sp,NULL,PennController,26,_Header_,End,1748358347670,undefined,1038,,social,physical,B,NULL
1748358872,28bd2098c6bb39d4162b8cad8f9ecfb5,PennController,15,0,test_sp,NULL,Selector,unnamed-Selector,Selection,social,1748358349211,undefined,1038,,social,physical,B,social;physical
1748358872,28bd2098c6bb39d4162b8cad8f9ecfb5,PennController,15,0,test_sp,NULL,PennController,26,_Trial_,End,1748358349211,undefined,1038,,social,physical,B,NULL
1748358872,28bd2098c6bb39d4162b8cad8f9ecfb5,PennController,32,0,test_sp,NULL,PennController,43,_Trial_,Start,1748358349212,undefined,1013,,social,physical,B,NULL
1748358872,28bd2098c6bb39d4162b8cad8f9ecfb5,PennController,32,0,test_sp,NULL,PennController,43,_Header_,Start,1748358349212,undefined,1013,,social,physical,B,NULL
1748358872,28bd2098c6bb39d4162b8cad8f9ecfb5,PennController,32,0,test_sp,NULL,PennController,43,_Header_,End,1748358349464,undefined,1013,,social,physical,B,NULL
1748358872,28bd2098c6bb39d4162b8cad8f9ecfb5,PennController,32,0,test_sp,NULL,Selector,unnamed-Selector,Selection,physical,1748358350978,undefined,1013,,social,physical,B,social;physical
1748358872,28bd2098c6bb39d4162b8cad8f9ecfb5,PennController,32,0,test_sp,NULL,PennController,43,_Trial_,End,1748358350979,undefined,1013,,social,physical,B,NULL
1748358872,28bd2098c6bb39d4162b8cad8f9ecfb5,PennController,33,0,test_sp,NULL,PennController,44,_Trial_,Start,1748358350980,undefined,892,,social,physical,B,NULL
1748358872,28bd2098c6bb39d4162b8cad8f9ecfb5,PennController,33,0,test_sp,NULL,PennController,44,_Header_,Start,1748358350980,undefined,892,,social,physical,B,NULL
1748358872,28bd2098c6bb39d4162b8cad8f9ecfb5,PennController,33,0,test_sp,NULL,PennController,44,_Header_,End,1748358351230,undefined,892,,social,physical,B,NULL
1748358872,28bd2098c6bb39d4162b8cad8f9ecfb5,PennController,33,0,test_sp,NULL,Selector,unnamed-Selector,Selection,physical,1748358352625,undefined,892,,social,physical,B,social;physical
1748358872,28bd2098c6bb39d4162b8cad8f9ecfb5,PennController,33,0,test_sp,NULL,PennController,44,_Trial_,End,1748358352625,undefined,892,,social,physical,B,NULL
1748358872,28bd2098c6bb39d4162b8cad8f9ecfb5,PennController,31,0,test_sp,NULL,PennController,42,_Trial_,Start,1748358352626,undefined,1342,,social,physical,B,NULL
1748358872,28bd2098c6bb39d4162b8cad8f9ecfb5,PennController,31,0,test_sp,NULL,PennController,42,_Header_,Start,1748358352626,undefined,1342,,social,physical,B,NULL
1748358872,28bd2098c6bb39d4162b8cad8f9ecfb5,PennController,31,0,test_sp,NULL,PennController,42,_Header_,End,1748358352877,undefined,1342,,social,physical,B,NULL
1748358872,28bd2098c6bb39d4162b8cad8f9ecfb5,PennController,31,0,test_sp,NULL,Selector,unnamed-Selector,Selection,physical,1748358354724,undefined,1342,,social,physical,B,social;physical
1748358872,28bd2098c6bb39d4162b8cad8f9ecfb5,PennController,31,0,test_sp,NULL,PennController,42,_Trial_,End,1748358354725,undefined,1342,,social,physical,B,NULL
1748358872,28bd2098c6bb39d4162b8cad8f9ecfb5,PennController,39,0,test_sp,NULL,PennController,50,_Trial_,Start,1748358354726,undefined,1131,,social,physical,B,NULL
1748358872,28bd2098c6bb39d4162b8cad8f9ecfb5,PennController,39,0,test_sp,NULL,PennController,50,_Header_,Start,1748358354726,undefined,1131,,social,physical,B,NULL
1748358872,28bd2098c6bb39d4162b8cad8f9ecfb5,PennController,39,0,test_sp,NULL,PennController,50,_Header_,End,1748358354980,undefined,1131,,social,physical,B,NULL
1748358872,28bd2098c6bb39d4162b8cad8f9ecfb5,PennController,39,0,test_sp,NULL,Selector,unnamed-Selector,Selection,social,1748358356617,undefined,1131,,social,physical,B,social;physical
1748358872,28bd2098c6bb39d4162b8cad8f9ecfb5,PennController,39,0,test_sp,NULL,PennController,50,_Trial_,End,1748358356618,undefined,1131,,social,physical,B,NULL
1748358872,28bd2098c6bb39d4162b8cad8f9ecfb5,PennController,40,0,test_sp,NULL,PennController,51,_Trial_,Start,1748358356619,undefined,1230,,social,physical,B,NULL
1748358872,28bd2098c6bb39d4162b8cad8f9ecfb5,PennController,40,0,test_sp,NULL,PennController,51,_Header_,Start,1748358356619,undefined,1230,,social,physical,B,NULL
1748358872,28bd2098c6bb39d4162b8cad8f9ecfb5,PennController,40,0,test_sp,NULL,PennController,51,_Header_,End,1748358356872,undefined,1230,,social,physical,B,NULL
1748358872,28bd2098c6bb39d4162b8cad8f9ecfb5,PennController,40,0,test_sp,NULL,Selector,unnamed-Selector,Selection,social,1748358358603,undefined,1230,,social,physical,B,social;physical
1748358872,28bd2098c6bb39d4162b8cad8f9ecfb5,PennController,40,0,test_sp,NULL,PennController,51,_Trial_,End,1748358358604,undefined,1230,,social,physical,B,NULL
1748358872,28bd2098c6bb39d4162b8cad8f9ecfb5,PennController,35,0,test_sp,NULL,PennController,46,_Trial_,Start,1748358358605,undefined,1087,,social,physical,B,NULL
1748358872,28bd2098c6bb39d4162b8cad8f9ecfb5,PennController,35,0,test_sp,NULL,PennController,46,_Header_,Start,1748358358605,undefined,1087,,social,physical,B,NULL
1748358872,28bd2098c6bb39d4162b8cad8f9ecfb5,PennController,35,0,test_sp,NULL,PennController,46,_Header_,End,1748358358858,undefined,1087,,social,physical,B,NULL
1748358872,28bd2098c6bb39d4162b8cad8f9ecfb5,PennController,35,0,test_sp,NULL,Selector,unnamed-Selector,Selection,social,1748358360449,undefined,1087,,social,physical,B,social;physical
1748358872,28bd2098c6bb39d4162b8cad8f9ecfb5,PennController,35,0,test_sp,NULL,PennController,46,_Trial_,End,1748358360450,undefined,1087,,social,physical,B,NULL
1748358872,28bd2098c6bb39d4162b8cad8f9ecfb5,PennController,7,0,test_sp,NULL,PennController,18,_Trial_,Start,1748358360451,undefined,1103,,social,physical,B,NULL
1748358872,28bd2098c6bb39d4162b8cad8f9ecfb5,PennController,7,0,test_sp,NULL,PennController,18,_Header_,Start,1748358360451,undefined,1103,,social,physical,B,NULL
1748358872,28bd2098c6bb39d4162b8cad8f9ecfb5,PennController,7,0,test_sp,NULL,PennController,18,_Header_,End,1748358360705,undefined,1103,,social,physical,B,NULL
1748358872,28bd2098c6bb39d4162b8cad8f9ecfb5,PennController,7,0,test_sp,NULL,Selector,unnamed-Selector,Selection,physical,1748358362312,undefined,1103,,social,physical,B,social;physical
1748358872,28bd2098c6bb39d4162b8cad8f9ecfb5,PennController,7,0,test_sp,NULL,PennController,18,_Trial_,End,1748358362313,undefined,1103,,social,physical,B,NULL
1748358872,28bd2098c6bb39d4162b8cad8f9ecfb5,PennController,17,0,test_sp,NULL,PennController,28,_Trial_,Start,1748358362314,undefined,920,,social,physical,B,NULL
1748358872,28bd2098c6bb39d4162b8cad8f9ecfb5,PennController,17,0,test_sp,NULL,PennController,28,_Header_,Start,1748358362314,undefined,920,,social,physical,B,NULL
1748358872,28bd2098c6bb39d4162b8cad8f9ecfb5,PennController,17,0,test_sp,NULL,PennController,28,_Header_,End,1748358362564,undefined,920,,social,physical,B,NULL
1748358872,28bd2098c6bb39d4162b8cad8f9ecfb5,PennController,17,0,test_sp,NULL,Selector,unnamed-Selector,Selection,social,1748358363985,undefined,920,,social,physical,B,social;physical
1748358872,28bd2098c6bb39d4162b8cad8f9ecfb5,PennController,17,0,test_sp,NULL,PennController,28,_Trial_,End,1748358363986,undefined,920,,social,physical,B,NULL
1748358872,28bd2098c6bb39d4162b8cad8f9ecfb5,PennController,29,0,test_sp,NULL,PennController,40,_Trial_,Start,1748358363987,undefined,895,,social,physical,B,NULL
1748358872,28bd2098c6bb39d4162b8cad8f9ecfb5,PennController,29,0,test_sp,NULL,PennController,40,_Header_,Start,1748358363987,undefined,895,,social,physical,B,NULL
1748358872,28bd2098c6bb39d4162b8cad8f9ecfb5,PennController,29,0,test_sp,NULL,PennController,40,_Header_,End,1748358364239,undefined,895,,social,physical,B,NULL
1748358872,28bd2098c6bb39d4162b8cad8f9ecfb5,PennController,29,0,test_sp,NULL,Selector,unnamed-Selector,Selection,physical,1748358365637,undefined,895,,social,physical,B,social;physical
1748358872,28bd2098c6bb39d4162b8cad8f9ecfb5,PennController,29,0,test_sp,NULL,PennController,40,_Trial_,End,1748358365638,undefined,895,,social,physical,B,NULL
1748358872,28bd2098c6bb39d4162b8cad8f9ecfb5,PennController,21,0,test_sp,NULL,PennController,32,_Trial_,Start,1748358365638,undefined,759,,social,physical,B,NULL
1748358872,28bd2098c6bb39d4162b8cad8f9ecfb5,PennController,21,0,test_sp,NULL,PennController,32,_Header_,Start,1748358365638,undefined,759,,social,physical,B,NULL
1748358872,28bd2098c6bb39d4162b8cad8f9ecfb5,PennController,21,0,test_sp,NULL,PennController,32,_Header_,End,1748358365889,undefined,759,,social,physical,B,NULL
1748358872,28bd2098c6bb39d4162b8cad8f9ecfb5,PennController,21,0,test_sp,NULL,Selector,unnamed-Selector,Selection,social,1748358367150,undefined,759,,social,physical,B,social;physical
1748358872,28bd2098c6bb39d4162b8cad8f9ecfb5,PennController,21,0,test_sp,NULL,PennController,32,_Trial_,End,1748358367151,undefined,759,,social,physical,B,NULL
1748358872,28bd2098c6bb39d4162b8cad8f9ecfb5,PennController,20,0,test_sp,NULL,PennController,31,_Trial_,Start,1748358367152,undefined,1352,,social,physical,B,NULL
1748358872,28bd2098c6bb39d4162b8cad8f9ecfb5,PennController,20,0,test_sp,NULL,PennController,31,_Header_,Start,1748358367152,undefined,1352,,social,physical,B,NULL
1748358872,28bd2098c6bb39d4162b8cad8f9ecfb5,PennController,20,0,test_sp,NULL,PennController,31,_Header_,End,1748358367403,undefined,1352,,social,physical,B,NULL
1748358872,28bd2098c6bb39d4162b8cad8f9ecfb5,PennController,20,0,test_sp,NULL,Selector,unnamed-Selector,Selection,social,1748358369257,undefined,1352,,social,physical,B,social;physical
1748358872,28bd2098c6bb39d4162b8cad8f9ecfb5,PennController,20,0,test_sp,NULL,PennController,31,_Trial_,End,1748358369258,undefined,1352,,social,physical,B,NULL
1748358872,28bd2098c6bb39d4162b8cad8f9ecfb5,PennController,7,0,test_sp,NULL,PennController,18,_Trial_,Start,1748358369259,undefined,821,,social,physical,B,NULL
1748358872,28bd2098c6bb39d4162b8cad8f9ecfb5,PennController,7,0,test_sp,NULL,PennController,18,_Header_,Start,1748358369259,undefined,821,,social,physical,B,NULL
1748358872,28bd2098c6bb39d4162b8cad8f9ecfb5,PennController,7,0,test_sp,NULL,PennController,18,_Header_,End,1748358369511,undefined,821,,social,physical,B,NULL
1748358872,28bd2098c6bb39d4162b8cad8f9ecfb5,PennController,7,0,test_sp,NULL,Selector,unnamed-Selector,Selection,physical,1748358370835,undefined,821,,social,physical,B,social;physical
1748358872,28bd2098c6bb39d4162b8cad8f9ecfb5,PennController,7,0,test_sp,NULL,PennController,18,_Trial_,End,1748358370836,undefined,821,,social,physical,B,NULL
1748358872,28bd2098c6bb39d4162b8cad8f9ecfb5,PennController,18,0,test_sp,NULL,PennController,29,_Trial_,Start,1748358370837,undefined,1160,,social,physical,B,NULL
1748358872,28bd2098c6bb39d4162b8cad8f9ecfb5,PennController,18,0,test_sp,NULL,PennController,29,_Header_,Start,1748358370837,undefined,1160,,social,physical,B,NULL
1748358872,28bd2098c6bb39d4162b8cad8f9ecfb5,PennController,18,0,test_sp,NULL,PennController,29,_Header_,End,1748358371090,undefined,1160,,social,physical,B,NULL
1748358872,28bd2098c6bb39d4162b8cad8f9ecfb5,PennController,18,0,test_sp,NULL,Selector,unnamed-Selector,Selection,social,1748358372754,undefined,1160,,social,physical,B,social;physical
1748358872,28bd2098c6bb39d4162b8cad8f9ecfb5,PennController,18,0,test_sp,NULL,PennController,29,_Trial_,End,1748358372755,undefined,1160,,social,physical,B,NULL
1748358872,28bd2098c6bb39d4162b8cad8f9ecfb5,PennController,17,0,test_sp,NULL,PennController,28,_Trial_,Start,1748358372756,undefined,1279,,social,physical,B,NULL
1748358872,28bd2098c6bb39d4162b8cad8f9ecfb5,PennController,17,0,test_sp,NULL,PennController,28,_Header_,Start,1748358372756,undefined,1279,,social,physical,B,NULL
1748358872,28bd2098c6bb39d4162b8cad8f9ecfb5,PennController,17,0,test_sp,NULL,PennController,28,_Header_,End,1748358373007,undefined,1279,,social,physical,B,NULL
1748358872,28bd2098c6bb39d4162b8cad8f9ecfb5,PennController,17,0,test_sp,NULL,Selector,unnamed-Selector,Selection,social,1748358374788,undefined,1279,,social,physical,B,social;physical
1748358872,28bd2098c6bb39d4162b8cad8f9ecfb5,PennController,17,0,test_sp,NULL,PennController,28,_Trial_,End,1748358374789,undefined,1279,,social,physical,B,NULL
1748358872,28bd2098c6bb39d4162b8cad8f9ecfb5,PennController,12,0,test_sp,NULL,PennController,23,_Trial_,Start,1748358374790,undefined,736,,social,physical,B,NULL
1748358872,28bd2098c6bb39d4162b8cad8f9ecfb5,PennController,12,0,test_sp,NULL,PennController,23,_Header_,Start,1748358374790,undefined,736,,social,physical,B,NULL
1748358872,28bd2098c6bb39d4162b8cad8f9ecfb5,PennController,12,0,test_sp,NULL,PennController,23,_Header_,End,1748358375041,undefined,736,,social,physical,B,NULL
1748358872,28bd2098c6bb39d4162b8cad8f9ecfb5,PennController,12,0,test_sp,NULL,Selector,unnamed-Selector,Selection,physical,1748358376278,undefined,736,,social,physical,B,social;physical
1748358872,28bd2098c6bb39d4162b8cad8f9ecfb5,PennController,12,0,test_sp,NULL,PennController,23,_Trial_,End,1748358376278,undefined,736,,social,physical,B,NULL
1748358872,28bd2098c6bb39d4162b8cad8f9ecfb5,PennController,34,0,test_sp,NULL,PennController,45,_Trial_,Start,1748358376279,undefined,3147,,social,physical,B,NULL
1748358872,28bd2098c6bb39d4162b8cad8f9ecfb5,PennController,34,0,test_sp,NULL,PennController,45,_Header_,Start,1748358376279,undefined,3147,,social,physical,B,NULL
1748358872,28bd2098c6bb39d4162b8cad8f9ecfb5,PennController,34,0,test_sp,NULL,PennController,45,_Header_,End,1748358376531,undefined,3147,,social,physical,B,NULL
1748358872,28bd2098c6bb39d4162b8cad8f9ecfb5,PennController,34,0,test_sp,NULL,Selector,unnamed-Selector,Selection,social,1748358380179,undefined,3147,,social,physical,B,social;physical
1748358872,28bd2098c6bb39d4162b8cad8f9ecfb5,PennController,34,0,test_sp,NULL,PennController,45,_Trial_,End,1748358380180,undefined,3147,,social,physical,B,NULL
1748358872,28bd2098c6bb39d4162b8cad8f9ecfb5,PennController,36,0,test_sp,NULL,PennController,47,_Trial_,Start,1748358380181,undefined,1168,,social,physical,B,NULL
1748358872,28bd2098c6bb39d4162b8cad8f9ecfb5,PennController,36,0,test_sp,NULL,PennController,47,_Header_,Start,1748358380181,undefined,1168,,social,physical,B,NULL
1748358872,28bd2098c6bb39d4162b8cad8f9ecfb5,PennController,36,0,test_sp,NULL,PennController,47,_Header_,End,1748358380431,undefined,1168,,social,physical,B,NULL
1748358872,28bd2098c6bb39d4162b8cad8f9ecfb5,PennController,36,0,test_sp,NULL,Selector,unnamed-Selector,Selection,social,1748358382103,undefined,1168,,social,physical,B,social;physical
1748358872,28bd2098c6bb39d4162b8cad8f9ecfb5,PennController,36,0,test_sp,NULL,PennController,47,_Trial_,End,1748358382103,undefined,1168,,social,physical,B,NULL
1748358872,28bd2098c6bb39d4162b8cad8f9ecfb5,PennController,42,0,test_sp,NULL,PennController,53,_Trial_,Start,1748358382104,undefined,750,,social,physical,B,NULL
1748358872,28bd2098c6bb39d4162b8cad8f9ecfb5,PennController,42,0,test_sp,NULL,PennController,53,_Header_,Start,1748358382104,undefined,750,,social,physical,B,NULL
1748358872,28bd2098c6bb39d4162b8cad8f9ecfb5,PennController,42,0,test_sp,NULL,PennController,53,_Header_,End,1748358382356,undefined,750,,social,physical,B,NULL
1748358872,28bd2098c6bb39d4162b8cad8f9ecfb5,PennController,42,0,test_sp,NULL,Selector,unnamed-Selector,Selection,social,1748358383607,undefined,750,,social,physical,B,social;physical
1748358872,28bd2098c6bb39d4162b8cad8f9ecfb5,PennController,42,0,test_sp,NULL,PennController,53,_Trial_,End,1748358383608,undefined,750,,social,physical,B,NULL
1748358872,28bd2098c6bb39d4162b8cad8f9ecfb5,PennController,5,0,test_sp,NULL,PennController,16,_Trial_,Start,1748358383609,undefined,725,,social,physical,B,NULL
1748358872,28bd2098c6bb39d4162b8cad8f9ecfb5,PennController,5,0,test_sp,NULL,PennController,16,_Header_,Start,1748358383609,undefined,725,,social,physical,B,NULL
1748358872,28bd2098c6bb39d4162b8cad8f9ecfb5,PennController,5,0,test_sp,NULL,PennController,16,_Header_,End,1748358383862,undefined,725,,social,physical,B,NULL
1748358872,28bd2098c6bb39d4162b8cad8f9ecfb5,PennController,5,0,test_sp,NULL,Selector,unnamed-Selector,Selection,physical,1748358385089,undefined,725,,social,physical,B,social;physical
1748358872,28bd2098c6bb39d4162b8cad8f9ecfb5,PennController,5,0,test_sp,NULL,PennController,16,_Trial_,End,1748358385089,undefined,725,,social,physical,B,NULL
1748358872,28bd2098c6bb39d4162b8cad8f9ecfb5,PennController,28,0,test_sp,NULL,PennController,39,_Trial_,Start,1748358385090,undefined,660,,social,physical,B,NULL
1748358872,28bd2098c6bb39d4162b8cad8f9ecfb5,PennController,28,0,test_sp,NULL,PennController,39,_Header_,Start,1748358385090,undefined,660,,social,physical,B,NULL
1748358872,28bd2098c6bb39d4162b8cad8f9ecfb5,PennController,28,0,test_sp,NULL,PennController,39,_Header_,End,1748358385344,undefined,660,,social,physical,B,NULL
