#
# Results on Tue, 27 May 2025 15:51:00 GMT
# USER AGENT: Mozilla/5.0 (Windows NT 10.0; Win64; x64) AppleWebKit/537.36 (KHTML, like Gecko) Chrome/136.0.0.0 Safari/537.36
# Design number was non-random = 0
#
# Columns below this comment are as follows:
# 1. Results reception time.
# 2. MD5 hash of participant's IP address.
# 3. Controller name.
# 4. Order number of item.
# 5. Inner element number.
# 6. Label.
# 7. Latin Square Group.
# 8. PennElementType.
# 9. PennElementName.
# 10. Parameter.
# 11. Value.
# 12. EventTime.
# 13. Comments.
1748361060,c0f4c8f59f9f59844be51d043881ea86,PennController,1,0,welcome,NULL,PennController,0,_Trial_,Start,1748360443073,NULL
1748361060,c0f4c8f59f9f59844be51d043881ea86,PennController,1,0,welcome,NULL,PennController,0,_Header_,Start,1748360443074,NULL
1748361060,c0f4c8f59f9f59844be51d043881ea86,PennController,1,0,welcome,NULL,PennController,0,_Header_,End,1748360443326,NULL
1748361060,c0f4c8f59f9f59844be51d043881ea86,PennController,1,0,welcome,NULL,PennController,0,_Trial_,End,1748360459413,NULL
# 13. ID.
# 14. Comments.
1748361060,c0f4c8f59f9f59844be51d043881ea86,PennController,124,0,consent,NULL,PennController,2,_Trial_,Start,1748360459414,5d53bffa147a7d00015aae5a,NULL
1748361060,c0f4c8f59f9f59844be51d043881ea86,PennController,124,0,consent,NULL,PennController,2,_Header_,Start,1748360459414,5d53bffa147a7d00015aae5a,NULL
1748361060,c0f4c8f59f9f59844be51d043881ea86,PennController,124,0,consent,NULL,PennController,2,_Header_,End,1748360459666,5d53bffa147a7d00015aae5a,NULL
1748361060,c0f4c8f59f9f59844be51d043881ea86,PennController,124,0,consent,NULL,TextInput,ID,Final,5d53bffa147a7d00015aae5a,1748360468606,5d53bffa147a7d00015aae5a,NULL
1748361060,c0f4c8f59f9f59844be51d043881ea86,PennController,124,0,consent,NULL,PennController,2,_Trial_,End,1748360468606,5d53bffa147a7d00015aae5a,NULL
# 13. Comments.
1748361060,c0f4c8f59f9f59844be51d043881ea86,PennController,132,0,instructions1_sp,NULL,PennController,10,_Trial_,Start,1748360468607,NULL
1748361060,c0f4c8f59f9f59844be51d043881ea86,PennController,132,0,instructions1_sp,NULL,PennController,10,_Header_,Start,1748360468607,NULL
1748361060,c0f4c8f59f9f59844be51d043881ea86,PennController,132,0,instructions1_sp,NULL,PennController,10,_Header_,End,1748360468860,NULL
1748361060,c0f4c8f59f9f59844be51d043881ea86,PennController,132,0,instructions1_sp,NULL,PennController,10,_Trial_,End,1748360485124,NULL
1748361060,c0f4c8f59f9f59844be51d043881ea86,PennController,133,0,instructions2_sp,NULL,PennController,11,_Trial_,Start,1748360485125,NULL
1748361060,c0f4c8f59f9f59844be51d043881ea86,PennController,133,0,instructions2_sp,NULL,PennController,11,_Header_,Start,1748360485125,NULL
1748361060,c0f4c8f59f9f59844be51d043881ea86,PennController,133,0,instructions2_sp,NULL,PennController,11,_Header_,End,1748360485377,NULL
1748361060,c0f4c8f59f9f59844be51d043881ea86,PennController,133,0,instructions2_sp,NULL,PennController,11,_Trial_,End,1748360489844,NULL
1748361060,c0f4c8f59f9f59844be51d043881ea86,PennController,128,0,instructions3_hands,NULL,PennController,6,_Trial_,Start,1748360489845,NULL
1748361060,c0f4c8f59f9f59844be51d043881ea86,PennController,128,0,instructions3_hands,NULL,PennController,6,_Header_,Start,1748360489845,NULL
1748361060,c0f4c8f59f9f59844be51d043881ea86,PennController,128,0,instructions3_hands,NULL,PennController,6,_Header_,End,1748360490097,NULL
1748361060,c0f4c8f59f9f59844be51d043881ea86,PennController,128,0,instructions3_hands,NULL,PennController,6,_Trial_,End,1748360495790,NULL
1748361060,c0f4c8f59f9f59844be51d043881ea86,PennController,135,0,practice_intro_sp,NULL,PennController,13,_Trial_,Start,1748360495791,NULL
1748361060,c0f4c8f59f9f59844be51d043881ea86,PennController,135,0,practice_intro_sp,NULL,PennController,13,_Header_,Start,1748360495791,NULL
1748361060,c0f4c8f59f9f59844be51d043881ea86,PennController,135,0,practice_intro_sp,NULL,PennController,13,_Header_,End,1748360496042,NULL
1748361060,c0f4c8f59f9f59844be51d043881ea86,PennController,135,0,practice_intro_sp,NULL,PennController,13,_Trial_,End,1748360497326,NULL
# 13. ID.
# 14. ReactionTime.
# 15. Word.
# 16. selectedKey.
# 17. selectedValue.
# 18. Key_value_F.
# 19. Key_value_J.
# 20. Group.
# 21. Comments.
1748361060,c0f4c8f59f9f59844be51d043881ea86,PennController,93,0,calibrator_sp_feedback,NULL,PennController,104,_Trial_,Start,1748360497326,undefined,1269,comforting,undefined,social,physical,social,A,NULL
1748361060,c0f4c8f59f9f59844be51d043881ea86,PennController,93,0,calibrator_sp_feedback,NULL,PennController,104,_Header_,Start,1748360497326,undefined,1269,comforting,undefined,social,physical,social,A,NULL
1748361060,c0f4c8f59f9f59844be51d043881ea86,PennController,93,0,calibrator_sp_feedback,NULL,PennController,104,_Header_,End,1748360497577,undefined,1269,comforting,undefined,social,physical,social,A,NULL
1748361060,c0f4c8f59f9f59844be51d043881ea86,PennController,93,0,calibrator_sp_feedback,NULL,Selector,Selection,Selection,social,1748360501197,undefined,1269,comforting,undefined,social,physical,social,A,physical;social
1748361060,c0f4c8f59f9f59844be51d043881ea86,PennController,93,0,calibrator_sp_feedback,NULL,PennController,104,_Trial_,End,1748360501353,undefined,1269,comforting,undefined,social,physical,social,A,NULL
1748361060,c0f4c8f59f9f59844be51d043881ea86,PennController,86,0,calibrator_sp_feedback,NULL,PennController,97,_Trial_,Start,1748360501353,undefined,1274,wet,undefined,social,physical,social,A,NULL
1748361060,c0f4c8f59f9f59844be51d043881ea86,PennController,86,0,calibrator_sp_feedback,NULL,PennController,97,_Header_,Start,1748360501353,undefined,1274,wet,undefined,social,physical,social,A,NULL
1748361060,c0f4c8f59f9f59844be51d043881ea86,PennController,86,0,calibrator_sp_feedback,NULL,PennController,97,_Header_,End,1748360501607,undefined,1274,wet,undefined,social,physical,social,A,NULL
1748361060,c0f4c8f59f9f59844be51d043881ea86,PennController,86,0,calibrator_sp_feedback,NULL,Selector,Selection,Selection,physical,1748360503381,undefined,1274,wet,undefined,social,physical,social,A,physical;social
1748361060,c0f4c8f59f9f59844be51d043881ea86,PennController,86,0,calibrator_sp_feedback,NULL,PennController,97,_Trial_,End,1748360505386,undefined,1274,wet,undefined,social,physical,social,A,NULL
1748361060,c0f4c8f59f9f59844be51d043881ea86,PennController,85,0,calibrator_sp_feedback,NULL,PennController,96,_Trial_,Start,1748360505386,undefined,995,metallic,undefined,social,physical,social,A,NULL
1748361060,c0f4c8f59f9f59844be51d043881ea86,PennController,85,0,calibrator_sp_feedback,NULL,PennController,96,_Header_,Start,1748360505386,undefined,995,metallic,undefined,social,physical,social,A,NULL
1748361060,c0f4c8f59f9f59844be51d043881ea86,PennController,85,0,calibrator_sp_feedback,NULL,PennController,96,_Header_,End,1748360505636,undefined,995,metallic,undefined,social,physical,social,A,NULL
1748361060,c0f4c8f59f9f59844be51d043881ea86,PennController,85,0,calibrator_sp_feedback,NULL,Selector,Selection,Selection,physical,1748360507134,undefined,995,metallic,undefined,social,physical,social,A,physical;social
1748361060,c0f4c8f59f9f59844be51d043881ea86,PennController,85,0,calibrator_sp_feedback,NULL,PennController,96,_Trial_,End,1748360509138,undefined,995,metallic,undefined,social,physical,social,A,NULL
1748361060,c0f4c8f59f9f59844be51d043881ea86,PennController,91,0,calibrator_sp_feedback,NULL,PennController,102,_Trial_,Start,1748360509138,undefined,1397,aloof,undefined,social,physical,social,A,NULL
1748361060,c0f4c8f59f9f59844be51d043881ea86,PennController,91,0,calibrator_sp_feedback,NULL,PennController,102,_Header_,Start,1748360509138,undefined,1397,aloof,undefined,social,physical,social,A,NULL
1748361060,c0f4c8f59f9f59844be51d043881ea86,PennController,91,0,calibrator_sp_feedback,NULL,PennController,102,_Header_,End,1748360509388,undefined,1397,aloof,undefined,social,physical,social,A,NULL
1748361060,c0f4c8f59f9f59844be51d043881ea86,PennController,91,0,calibrator_sp_feedback,NULL,Selector,Selection,Selection,social,1748360511285,undefined,1397,aloof,undefined,social,physical,social,A,physical;social
1748361060,c0f4c8f59f9f59844be51d043881ea86,PennController,91,0,calibrator_sp_feedback,NULL,PennController,102,_Trial_,End,1748360513671,undefined,1397,aloof,undefined,social,physical,social,A,NULL
1748361060,c0f4c8f59f9f59844be51d043881ea86,PennController,90,0,calibrator_sp_feedback,NULL,PennController,101,_Trial_,Start,1748360513672,undefined,1535,diplomatic,undefined,social,physical,social,A,NULL
1748361060,c0f4c8f59f9f59844be51d043881ea86,PennController,90,0,calibrator_sp_feedback,NULL,PennController,101,_Header_,Start,1748360513672,undefined,1535,diplomatic,undefined,social,physical,social,A,NULL
1748361060,c0f4c8f59f9f59844be51d043881ea86,PennController,90,0,calibrator_sp_feedback,NULL,PennController,101,_Header_,End,1748360513923,undefined,1535,diplomatic,undefined,social,physical,social,A,NULL
1748361060,c0f4c8f59f9f59844be51d043881ea86,PennController,90,0,calibrator_sp_feedback,NULL,Selector,Selection,Selection,social,1748360515957,undefined,1535,diplomatic,undefined,social,physical,social,A,physical;social
1748361060,c0f4c8f59f9f59844be51d043881ea86,PennController,90,0,calibrator_sp_feedback,NULL,PennController,101,_Trial_,End,1748360517961,undefined,1535,diplomatic,undefined,social,physical,social,A,NULL
1748361060,c0f4c8f59f9f59844be51d043881ea86,PennController,87,0,calibrator_sp_feedback,NULL,PennController,98,_Trial_,Start,1748360517961,undefined,2116,frozen,undefined,social,physical,social,A,NULL
1748361060,c0f4c8f59f9f59844be51d043881ea86,PennController,87,0,calibrator_sp_feedback,NULL,PennController,98,_Header_,Start,1748360517961,undefined,2116,frozen,undefined,social,physical,social,A,NULL
1748361060,c0f4c8f59f9f59844be51d043881ea86,PennController,87,0,calibrator_sp_feedback,NULL,PennController,98,_Header_,End,1748360518214,undefined,2116,frozen,undefined,social,physical,social,A,NULL
1748361060,c0f4c8f59f9f59844be51d043881ea86,PennController,87,0,calibrator_sp_feedback,NULL,Selector,Selection,Selection,physical,1748360520829,undefined,2116,frozen,undefined,social,physical,social,A,physical;social
1748361060,c0f4c8f59f9f59844be51d043881ea86,PennController,87,0,calibrator_sp_feedback,NULL,PennController,98,_Trial_,End,1748360522831,undefined,2116,frozen,undefined,social,physical,social,A,NULL
1748361060,c0f4c8f59f9f59844be51d043881ea86,PennController,84,0,calibrator_sp_feedback,NULL,PennController,95,_Trial_,Start,1748360522832,undefined,981,triangular,undefined,social,physical,social,A,NULL
1748361060,c0f4c8f59f9f59844be51d043881ea86,PennController,84,0,calibrator_sp_feedback,NULL,PennController,95,_Header_,Start,1748360522832,undefined,981,triangular,undefined,social,physical,social,A,NULL
1748361060,c0f4c8f59f9f59844be51d043881ea86,PennController,84,0,calibrator_sp_feedback,NULL,PennController,95,_Header_,End,1748360523083,undefined,981,triangular,undefined,social,physical,social,A,NULL
1748361060,c0f4c8f59f9f59844be51d043881ea86,PennController,84,0,calibrator_sp_feedback,NULL,Selector,Selection,Selection,physical,1748360524565,undefined,981,triangular,undefined,social,physical,social,A,physical;social
1748361060,c0f4c8f59f9f59844be51d043881ea86,PennController,84,0,calibrator_sp_feedback,NULL,PennController,95,_Trial_,End,1748360526569,undefined,981,triangular,undefined,social,physical,social,A,NULL
1748361060,c0f4c8f59f9f59844be51d043881ea86,PennController,92,0,calibrator_sp_feedback,NULL,PennController,103,_Trial_,Start,1748360526569,undefined,896,overrated,undefined,social,physical,social,A,NULL
1748361060,c0f4c8f59f9f59844be51d043881ea86,PennController,92,0,calibrator_sp_feedback,NULL,PennController,103,_Header_,Start,1748360526569,undefined,896,overrated,undefined,social,physical,social,A,NULL
1748361060,c0f4c8f59f9f59844be51d043881ea86,PennController,92,0,calibrator_sp_feedback,NULL,PennController,103,_Header_,End,1748360526823,undefined,896,overrated,undefined,social,physical,social,A,NULL
1748361060,c0f4c8f59f9f59844be51d043881ea86,PennController,92,0,calibrator_sp_feedback,NULL,Selector,Selection,Selection,social,1748360528221,undefined,896,overrated,undefined,social,physical,social,A,physical;social
1748361060,c0f4c8f59f9f59844be51d043881ea86,PennController,92,0,calibrator_sp_feedback,NULL,PennController,103,_Trial_,End,1748360530223,undefined,896,overrated,undefined,social,physical,social,A,NULL
1748361060,c0f4c8f59f9f59844be51d043881ea86,PennController,88,0,calibrator_sp_feedback,NULL,PennController,99,_Trial_,Start,1748360530224,undefined,880,round,undefined,social,physical,social,A,NULL
1748361060,c0f4c8f59f9f59844be51d043881ea86,PennController,88,0,calibrator_sp_feedback,NULL,PennController,99,_Header_,Start,1748360530224,undefined,880,round,undefined,social,physical,social,A,NULL
1748361060,c0f4c8f59f9f59844be51d043881ea86,PennController,88,0,calibrator_sp_feedback,NULL,PennController,99,_Header_,End,1748360530477,undefined,880,round,undefined,social,physical,social,A,NULL
1748361060,c0f4c8f59f9f59844be51d043881ea86,PennController,88,0,calibrator_sp_feedback,NULL,Selector,Selection,Selection,physical,1748360531861,undefined,880,round,undefined,social,physical,social,A,physical;social
1748361060,c0f4c8f59f9f59844be51d043881ea86,PennController,88,0,calibrator_sp_feedback,NULL,PennController,99,_Trial_,End,1748360533864,undefined,880,round,undefined,social,physical,social,A,NULL
1748361060,c0f4c8f59f9f59844be51d043881ea86,PennController,89,0,calibrator_sp_feedback,NULL,PennController,100,_Trial_,Start,1748360533864,undefined,1243,loyal,undefined,social,physical,social,A,NULL
1748361060,c0f4c8f59f9f59844be51d043881ea86,PennController,89,0,calibrator_sp_feedback,NULL,PennController,100,_Header_,Start,1748360533864,undefined,1243,loyal,undefined,social,physical,social,A,NULL
1748361060,c0f4c8f59f9f59844be51d043881ea86,PennController,89,0,calibrator_sp_feedback,NULL,PennController,100,_Header_,End,1748360534117,undefined,1243,loyal,undefined,social,physical,social,A,NULL
1748361060,c0f4c8f59f9f59844be51d043881ea86,PennController,89,0,calibrator_sp_feedback,NULL,Selector,Selection,Selection,social,1748360535861,undefined,1243,loyal,undefined,social,physical,social,A,physical;social
1748361060,c0f4c8f59f9f59844be51d043881ea86,PennController,89,0,calibrator_sp_feedback,NULL,PennController,100,_Trial_,End,1748360537865,undefined,1243,loyal,undefined,social,physical,social,A,NULL
# 16. Key_value_F.
# 17. Key_value_J.
# 18. Group.
# 19. Comments.
1748361060,c0f4c8f59f9f59844be51d043881ea86,PennController,100,0,calibrator_sp_no_feedback,NULL,PennController,111,_Trial_,Start,1748360537865,undefined,916,diplomatic,physical,social,A,NULL
1748361060,c0f4c8f59f9f59844be51d043881ea86,PennController,100,0,calibrator_sp_no_feedback,NULL,PennController,111,_Header_,Start,1748360537865,undefined,916,diplomatic,physical,social,A,NULL
1748361060,c0f4c8f59f9f59844be51d043881ea86,PennController,100,0,calibrator_sp_no_feedback,NULL,PennController,111,_Header_,End,1748360538116,undefined,916,diplomatic,physical,social,A,NULL
1748361060,c0f4c8f59f9f59844be51d043881ea86,PennController,100,0,calibrator_sp_no_feedback,NULL,Selector,unnamed-Selector,Selection,social,1748360539533,undefined,916,diplomatic,physical,social,A,physical;social
1748361060,c0f4c8f59f9f59844be51d043881ea86,PennController,100,0,calibrator_sp_no_feedback,NULL,PennController,111,_Trial_,End,1748360539534,undefined,916,diplomatic,physical,social,A,NULL
1748361060,c0f4c8f59f9f59844be51d043881ea86,PennController,102,0,calibrator_sp_no_feedback,NULL,PennController,113,_Trial_,Start,1748360539534,undefined,1006,overrated,physical,social,A,NULL
1748361060,c0f4c8f59f9f59844be51d043881ea86,PennController,102,0,calibrator_sp_no_feedback,NULL,PennController,113,_Header_,Start,1748360539534,undefined,1006,overrated,physical,social,A,NULL
1748361060,c0f4c8f59f9f59844be51d043881ea86,PennController,102,0,calibrator_sp_no_feedback,NULL,PennController,113,_Header_,End,1748360539787,undefined,1006,overrated,physical,social,A,NULL
1748361060,c0f4c8f59f9f59844be51d043881ea86,PennController,102,0,calibrator_sp_no_feedback,NULL,Selector,unnamed-Selector,Selection,social,1748360541293,undefined,1006,overrated,physical,social,A,physical;social
1748361060,c0f4c8f59f9f59844be51d043881ea86,PennController,102,0,calibrator_sp_no_feedback,NULL,PennController,113,_Trial_,End,1748360541294,undefined,1006,overrated,physical,social,A,NULL
1748361060,c0f4c8f59f9f59844be51d043881ea86,PennController,96,0,calibrator_sp_no_feedback,NULL,PennController,107,_Trial_,Start,1748360541294,undefined,911,wet,physical,social,A,NULL
1748361060,c0f4c8f59f9f59844be51d043881ea86,PennController,96,0,calibrator_sp_no_feedback,NULL,PennController,107,_Header_,Start,1748360541294,undefined,911,wet,physical,social,A,NULL
1748361060,c0f4c8f59f9f59844be51d043881ea86,PennController,96,0,calibrator_sp_no_feedback,NULL,PennController,107,_Header_,End,1748360541546,undefined,911,wet,physical,social,A,NULL
1748361060,c0f4c8f59f9f59844be51d043881ea86,PennController,96,0,calibrator_sp_no_feedback,NULL,Selector,unnamed-Selector,Selection,physical,1748360542957,undefined,911,wet,physical,social,A,physical;social
1748361060,c0f4c8f59f9f59844be51d043881ea86,PennController,96,0,calibrator_sp_no_feedback,NULL,PennController,107,_Trial_,End,1748360542958,undefined,911,wet,physical,social,A,NULL
1748361060,c0f4c8f59f9f59844be51d043881ea86,PennController,101,0,calibrator_sp_no_feedback,NULL,PennController,112,_Trial_,Start,1748360542958,undefined,799,aloof,physical,social,A,NULL
1748361060,c0f4c8f59f9f59844be51d043881ea86,PennController,101,0,calibrator_sp_no_feedback,NULL,PennController,112,_Header_,Start,1748360542958,undefined,799,aloof,physical,social,A,NULL
1748361060,c0f4c8f59f9f59844be51d043881ea86,PennController,101,0,calibrator_sp_no_feedback,NULL,PennController,112,_Header_,End,1748360543208,undefined,799,aloof,physical,social,A,NULL
1748361060,c0f4c8f59f9f59844be51d043881ea86,PennController,101,0,calibrator_sp_no_feedback,NULL,Selector,unnamed-Selector,Selection,social,1748360544509,undefined,799,aloof,physical,social,A,physical;social
1748361060,c0f4c8f59f9f59844be51d043881ea86,PennController,101,0,calibrator_sp_no_feedback,NULL,PennController,112,_Trial_,End,1748360544510,undefined,799,aloof,physical,social,A,NULL
1748361060,c0f4c8f59f9f59844be51d043881ea86,PennController,98,0,calibrator_sp_no_feedback,NULL,PennController,109,_Trial_,Start,1748360544510,undefined,678,round,physical,social,A,NULL
1748361060,c0f4c8f59f9f59844be51d043881ea86,PennController,98,0,calibrator_sp_no_feedback,NULL,PennController,109,_Header_,Start,1748360544510,undefined,678,round,physical,social,A,NULL
1748361060,c0f4c8f59f9f59844be51d043881ea86,PennController,98,0,calibrator_sp_no_feedback,NULL,PennController,109,_Header_,End,1748360544762,undefined,678,round,physical,social,A,NULL
1748361060,c0f4c8f59f9f59844be51d043881ea86,PennController,98,0,calibrator_sp_no_feedback,NULL,Selector,unnamed-Selector,Selection,physical,1748360545941,undefined,678,round,physical,social,A,physical;social
1748361060,c0f4c8f59f9f59844be51d043881ea86,PennController,98,0,calibrator_sp_no_feedback,NULL,PennController,109,_Trial_,End,1748360545942,undefined,678,round,physical,social,A,NULL
1748361060,c0f4c8f59f9f59844be51d043881ea86,PennController,95,0,calibrator_sp_no_feedback,NULL,PennController,106,_Trial_,Start,1748360545942,undefined,640,metallic,physical,social,A,NULL
1748361060,c0f4c8f59f9f59844be51d043881ea86,PennController,95,0,calibrator_sp_no_feedback,NULL,PennController,106,_Header_,Start,1748360545942,undefined,640,metallic,physical,social,A,NULL
1748361060,c0f4c8f59f9f59844be51d043881ea86,PennController,95,0,calibrator_sp_no_feedback,NULL,PennController,106,_Header_,End,1748360546197,undefined,640,metallic,physical,social,A,NULL
1748361060,c0f4c8f59f9f59844be51d043881ea86,PennController,95,0,calibrator_sp_no_feedback,NULL,Selector,unnamed-Selector,Selection,physical,1748360547341,undefined,640,metallic,physical,social,A,physical;social
1748361060,c0f4c8f59f9f59844be51d043881ea86,PennController,95,0,calibrator_sp_no_feedback,NULL,PennController,106,_Trial_,End,1748360547342,undefined,640,metallic,physical,social,A,NULL
1748361060,c0f4c8f59f9f59844be51d043881ea86,PennController,99,0,calibrator_sp_no_feedback,NULL,PennController,110,_Trial_,Start,1748360547342,undefined,634,loyal,physical,social,A,NULL
1748361060,c0f4c8f59f9f59844be51d043881ea86,PennController,99,0,calibrator_sp_no_feedback,NULL,PennController,110,_Header_,Start,1748360547342,undefined,634,loyal,physical,social,A,NULL
1748361060,c0f4c8f59f9f59844be51d043881ea86,PennController,99,0,calibrator_sp_no_feedback,NULL,PennController,110,_Header_,End,1748360547595,undefined,634,loyal,physical,social,A,NULL
1748361060,c0f4c8f59f9f59844be51d043881ea86,PennController,99,0,calibrator_sp_no_feedback,NULL,Selector,unnamed-Selector,Selection,social,1748360548733,undefined,634,loyal,physical,social,A,physical;social
1748361060,c0f4c8f59f9f59844be51d043881ea86,PennController,99,0,calibrator_sp_no_feedback,NULL,PennController,110,_Trial_,End,1748360548734,undefined,634,loyal,physical,social,A,NULL
1748361060,c0f4c8f59f9f59844be51d043881ea86,PennController,97,0,calibrator_sp_no_feedback,NULL,PennController,108,_Trial_,Start,1748360548734,undefined,964,frozen,physical,social,A,NULL
1748361060,c0f4c8f59f9f59844be51d043881ea86,PennController,97,0,calibrator_sp_no_feedback,NULL,PennController,108,_Header_,Start,1748360548734,undefined,964,frozen,physical,social,A,NULL
1748361060,c0f4c8f59f9f59844be51d043881ea86,PennController,97,0,calibrator_sp_no_feedback,NULL,PennController,108,_Header_,End,1748360548987,undefined,964,frozen,physical,social,A,NULL
1748361060,c0f4c8f59f9f59844be51d043881ea86,PennController,97,0,calibrator_sp_no_feedback,NULL,Selector,unnamed-Selector,Selection,physical,1748360550453,undefined,964,frozen,physical,social,A,physical;social
1748361060,c0f4c8f59f9f59844be51d043881ea86,PennController,97,0,calibrator_sp_no_feedback,NULL,PennController,108,_Trial_,End,1748360550454,undefined,964,frozen,physical,social,A,NULL
1748361060,c0f4c8f59f9f59844be51d043881ea86,PennController,103,0,calibrator_sp_no_feedback,NULL,PennController,114,_Trial_,Start,1748360550454,undefined,640,comforting,physical,social,A,NULL
1748361060,c0f4c8f59f9f59844be51d043881ea86,PennController,103,0,calibrator_sp_no_feedback,NULL,PennController,114,_Header_,Start,1748360550454,undefined,640,comforting,physical,social,A,NULL
1748361060,c0f4c8f59f9f59844be51d043881ea86,PennController,103,0,calibrator_sp_no_feedback,NULL,PennController,114,_Header_,End,1748360550704,undefined,640,comforting,physical,social,A,NULL
1748361060,c0f4c8f59f9f59844be51d043881ea86,PennController,103,0,calibrator_sp_no_feedback,NULL,Selector,unnamed-Selector,Selection,social,1748360551845,undefined,640,comforting,physical,social,A,physical;social
1748361060,c0f4c8f59f9f59844be51d043881ea86,PennController,103,0,calibrator_sp_no_feedback,NULL,PennController,114,_Trial_,End,1748360551846,undefined,640,comforting,physical,social,A,NULL
1748361060,c0f4c8f59f9f59844be51d043881ea86,PennController,94,0,calibrator_sp_no_feedback,NULL,PennController,105,_Trial_,Start,1748360551847,undefined,803,triangular,physical,social,A,NULL
1748361060,c0f4c8f59f9f59844be51d043881ea86,PennController,94,0,calibrator_sp_no_feedback,NULL,PennController,105,_Header_,Start,1748360551847,undefined,803,triangular,physical,social,A,NULL
1748361060,c0f4c8f59f9f59844be51d043881ea86,PennController,94,0,calibrator_sp_no_feedback,NULL,PennController,105,_Header_,End,1748360552099,undefined,803,triangular,physical,social,A,NULL
1748361060,c0f4c8f59f9f59844be51d043881ea86,PennController,94,0,calibrator_sp_no_feedback,NULL,Selector,unnamed-Selector,Selection,physical,1748360553406,undefined,803,triangular,physical,social,A,physical;social
1748361060,c0f4c8f59f9f59844be51d043881ea86,PennController,94,0,calibrator_sp_no_feedback,NULL,PennController,105,_Trial_,End,1748360553407,undefined,803,triangular,physical,social,A,NULL
# 13. Comments.
1748361060,c0f4c8f59f9f59844be51d043881ea86,PennController,136,0,endinstructions_sp,NULL,PennController,14,_Trial_,Start,1748360553407,NULL
1748361060,c0f4c8f59f9f59844be51d043881ea86,PennController,136,0,endinstructions_sp,NULL,PennController,14,_Header_,Start,1748360553407,NULL
1748361060,c0f4c8f59f9f59844be51d043881ea86,PennController,136,0,endinstructions_sp,NULL,PennController,14,_Header_,End,1748360553660,NULL
1748361060,c0f4c8f59f9f59844be51d043881ea86,PennController,136,0,endinstructions_sp,NULL,PennController,14,_Trial_,End,1748360557743,NULL
# 13. ID.
# 14. ReactionTime.
# 15. Word.
# 16. Key_value_F.
# 17. Key_value_J.
# 18. Group.
# 19. Comments.
1748361060,c0f4c8f59f9f59844be51d043881ea86,PennController,43,0,test_sp,NULL,PennController,54,_Trial_,Start,1748360557743,undefined,799,hateful,physical,social,A,NULL
1748361060,c0f4c8f59f9f59844be51d043881ea86,PennController,43,0,test_sp,NULL,PennController,54,_Header_,Start,1748360557743,undefined,799,hateful,physical,social,A,NULL
1748361060,c0f4c8f59f9f59844be51d043881ea86,PennController,43,0,test_sp,NULL,PennController,54,_Header_,End,1748360557993,undefined,799,hateful,physical,social,A,NULL
1748361060,c0f4c8f59f9f59844be51d043881ea86,PennController,43,0,test_sp,NULL,Selector,unnamed-Selector,Selection,social,1748360559294,undefined,799,hateful,physical,social,A,physical;social
1748361060,c0f4c8f59f9f59844be51d043881ea86,PennController,43,0,test_sp,NULL,PennController,54,_Trial_,End,1748360559295,undefined,799,hateful,physical,social,A,NULL
1748361060,c0f4c8f59f9f59844be51d043881ea86,PennController,14,0,test_sp,NULL,PennController,25,_Trial_,Start,1748360559295,undefined,823,brotherly,physical,social,A,NULL
1748361060,c0f4c8f59f9f59844be51d043881ea86,PennController,14,0,test_sp,NULL,PennController,25,_Header_,Start,1748360559295,undefined,823,brotherly,physical,social,A,NULL
1748361060,c0f4c8f59f9f59844be51d043881ea86,PennController,14,0,test_sp,NULL,PennController,25,_Header_,End,1748360559546,undefined,823,brotherly,physical,social,A,NULL
1748361060,c0f4c8f59f9f59844be51d043881ea86,PennController,14,0,test_sp,NULL,Selector,unnamed-Selector,Selection,social,1748360560870,undefined,823,brotherly,physical,social,A,physical;social
1748361060,c0f4c8f59f9f59844be51d043881ea86,PennController,14,0,test_sp,NULL,PennController,25,_Trial_,End,1748360560871,undefined,823,brotherly,physical,social,A,NULL
1748361060,c0f4c8f59f9f59844be51d043881ea86,PennController,11,0,test_sp,NULL,PennController,22,_Trial_,Start,1748360560872,undefined,1139,seasick,physical,social,A,NULL
1748361060,c0f4c8f59f9f59844be51d043881ea86,PennController,11,0,test_sp,NULL,PennController,22,_Header_,Start,1748360560872,undefined,1139,seasick,physical,social,A,NULL
1748361060,c0f4c8f59f9f59844be51d043881ea86,PennController,11,0,test_sp,NULL,PennController,22,_Header_,End,1748360561123,undefined,1139,seasick,physical,social,A,NULL
1748361060,c0f4c8f59f9f59844be51d043881ea86,PennController,11,0,test_sp,NULL,Selector,unnamed-Selector,Selection,physical,1748360562766,undefined,1139,seasick,physical,social,A,physical;social
1748361060,c0f4c8f59f9f59844be51d043881ea86,PennController,11,0,test_sp,NULL,PennController,22,_Trial_,End,1748360562767,undefined,1139,seasick,physical,social,A,NULL
1748361060,c0f4c8f59f9f59844be51d043881ea86,PennController,38,0,test_sp,NULL,PennController,49,_Trial_,Start,1748360562767,undefined,1337,racist,physical,social,A,NULL
1748361060,c0f4c8f59f9f59844be51d043881ea86,PennController,38,0,test_sp,NULL,PennController,49,_Header_,Start,1748360562767,undefined,1337,racist,physical,social,A,NULL
1748361060,c0f4c8f59f9f59844be51d043881ea86,PennController,38,0,test_sp,NULL,PennController,49,_Header_,End,1748360563017,undefined,1337,racist,physical,social,A,NULL
1748361060,c0f4c8f59f9f59844be51d043881ea86,PennController,38,0,test_sp,NULL,Selector,unnamed-Selector,Selection,social,1748360564854,undefined,1337,racist,physical,social,A,physical;social
1748361060,c0f4c8f59f9f59844be51d043881ea86,PennController,38,0,test_sp,NULL,PennController,49,_Trial_,End,1748360564855,undefined,1337,racist,physical,social,A,NULL
1748361060,c0f4c8f59f9f59844be51d043881ea86,PennController,42,0,test_sp,NULL,PennController,53,_Trial_,Start,1748360564855,undefined,1072,infuriating,physical,social,A,NULL
1748361060,c0f4c8f59f9f59844be51d043881ea86,PennController,42,0,test_sp,NULL,PennController,53,_Header_,Start,1748360564855,undefined,1072,infuriating,physical,social,A,NULL
1748361060,c0f4c8f59f9f59844be51d043881ea86,PennController,42,0,test_sp,NULL,PennController,53,_Header_,End,1748360565105,undefined,1072,infuriating,physical,social,A,NULL
1748361060,c0f4c8f59f9f59844be51d043881ea86,PennController,42,0,test_sp,NULL,Selector,unnamed-Selector,Selection,social,1748360566678,undefined,1072,infuriating,physical,social,A,physical;social
1748361060,c0f4c8f59f9f59844be51d043881ea86,PennController,42,0,test_sp,NULL,PennController,53,_Trial_,End,1748360566679,undefined,1072,infuriating,physical,social,A,NULL
1748361060,c0f4c8f59f9f59844be51d043881ea86,PennController,5,0,test_sp,NULL,PennController,16,_Trial_,Start,1748360566679,undefined,1636,nauseous,physical,social,A,NULL
1748361060,c0f4c8f59f9f59844be51d043881ea86,PennController,5,0,test_sp,NULL,PennController,16,_Header_,Start,1748360566679,undefined,1636,nauseous,physical,social,A,NULL
1748361060,c0f4c8f59f9f59844be51d043881ea86,PennController,5,0,test_sp,NULL,PennController,16,_Header_,End,1748360566933,undefined,1636,nauseous,physical,social,A,NULL
1748361060,c0f4c8f59f9f59844be51d043881ea86,PennController,5,0,test_sp,NULL,Selector,unnamed-Selector,Selection,physical,1748360569070,undefined,1636,nauseous,physical,social,A,physical;social
1748361060,c0f4c8f59f9f59844be51d043881ea86,PennController,5,0,test_sp,NULL,PennController,16,_Trial_,End,1748360569071,undefined,1636,nauseous,physical,social,A,NULL
1748361060,c0f4c8f59f9f59844be51d043881ea86,PennController,13,0,test_sp,NULL,PennController,24,_Trial_,Start,1748360569071,undefined,985,smelly,physical,social,A,NULL
1748361060,c0f4c8f59f9f59844be51d043881ea86,PennController,13,0,test_sp,NULL,PennController,24,_Header_,Start,1748360569071,undefined,985,smelly,physical,social,A,NULL
1748361060,c0f4c8f59f9f59844be51d043881ea86,PennController,13,0,test_sp,NULL,PennController,24,_Header_,End,1748360569325,undefined,985,smelly,physical,social,A,NULL
1748361060,c0f4c8f59f9f59844be51d043881ea86,PennController,13,0,test_sp,NULL,Selector,unnamed-Selector,Selection,social,1748360570814,undefined,985,smelly,physical,social,A,physical;social
1748361060,c0f4c8f59f9f59844be51d043881ea86,PennController,13,0,test_sp,NULL,PennController,24,_Trial_,End,1748360570815,undefined,985,smelly,physical,social,A,NULL
1748361060,c0f4c8f59f9f59844be51d043881ea86,PennController,32,0,test_sp,NULL,PennController,43,_Trial_,Start,1748360570815,undefined,1571,radiant,physical,social,A,NULL
1748361060,c0f4c8f59f9f59844be51d043881ea86,PennController,32,0,test_sp,NULL,PennController,43,_Header_,Start,1748360570815,undefined,1571,radiant,physical,social,A,NULL
1748361060,c0f4c8f59f9f59844be51d043881ea86,PennController,32,0,test_sp,NULL,PennController,43,_Header_,End,1748360571069,undefined,1571,radiant,physical,social,A,NULL
1748361060,c0f4c8f59f9f59844be51d043881ea86,PennController,32,0,test_sp,NULL,Selector,unnamed-Selector,Selection,social,1748360573142,undefined,1571,radiant,physical,social,A,physical;social
1748361060,c0f4c8f59f9f59844be51d043881ea86,PennController,32,0,test_sp,NULL,PennController,43,_Trial_,End,1748360573143,undefined,1571,radiant,physical,social,A,NULL
1748361060,c0f4c8f59f9f59844be51d043881ea86,PennController,24,0,test_sp,NULL,PennController,35,_Trial_,Start,1748360573143,undefined,1195,fluffy,physical,social,A,NULL
1748361060,c0f4c8f59f9f59844be51d043881ea86,PennController,24,0,test_sp,NULL,PennController,35,_Header_,Start,1748360573143,undefined,1195,fluffy,physical,social,A,NULL
1748361060,c0f4c8f59f9f59844be51d043881ea86,PennController,24,0,test_sp,NULL,PennController,35,_Header_,End,1748360573396,undefined,1195,fluffy,physical,social,A,NULL
1748361060,c0f4c8f59f9f59844be51d043881ea86,PennController,24,0,test_sp,NULL,Selector,unnamed-Selector,Selection,physical,1748360575094,undefined,1195,fluffy,physical,social,A,physical;social
1748361060,c0f4c8f59f9f59844be51d043881ea86,PennController,24,0,test_sp,NULL,PennController,35,_Trial_,End,1748360575095,undefined,1195,fluffy,physical,social,A,NULL
1748361060,c0f4c8f59f9f59844be51d043881ea86,PennController,41,0,test_sp,NULL,PennController,52,_Trial_,Start,1748360575095,undefined,1313,stingy,physical,social,A,NULL
1748361060,c0f4c8f59f9f59844be51d043881ea86,PennController,41,0,test_sp,NULL,PennController,52,_Header_,Start,1748360575095,undefined,1313,stingy,physical,social,A,NULL
1748361060,c0f4c8f59f9f59844be51d043881ea86,PennController,41,0,test_sp,NULL,PennController,52,_Header_,End,1748360575345,undefined,1313,stingy,physical,social,A,NULL
1748361060,c0f4c8f59f9f59844be51d043881ea86,PennController,41,0,test_sp,NULL,Selector,unnamed-Selector,Selection,social,1748360577158,undefined,1313,stingy,physical,social,A,physical;social
1748361060,c0f4c8f59f9f59844be51d043881ea86,PennController,41,0,test_sp,NULL,PennController,52,_Trial_,End,1748360577159,undefined,1313,stingy,physical,social,A,NULL
1748361060,c0f4c8f59f9f59844be51d043881ea86,PennController,19,0,test_sp,NULL,PennController,30,_Trial_,Start,1748360577159,undefined,747,hilarious,physical,social,A,NULL
1748361060,c0f4c8f59f9f59844be51d043881ea86,PennController,19,0,test_sp,NULL,PennController,30,_Header_,Start,1748360577159,undefined,747,hilarious,physical,social,A,NULL
1748361060,c0f4c8f59f9f59844be51d043881ea86,PennController,19,0,test_sp,NULL,PennController,30,_Header_,End,1748360577412,undefined,747,hilarious,physical,social,A,NULL
1748361060,c0f4c8f59f9f59844be51d043881ea86,PennController,19,0,test_sp,NULL,Selector,unnamed-Selector,Selection,social,1748360578662,undefined,747,hilarious,physical,social,A,physical;social
1748361060,c0f4c8f59f9f59844be51d043881ea86,PennController,19,0,test_sp,NULL,PennController,30,_Trial_,End,1748360578663,undefined,747,hilarious,physical,social,A,NULL
1748361060,c0f4c8f59f9f59844be51d043881ea86,PennController,16,0,test_sp,NULL,PennController,27,_Trial_,Start,1748360578663,undefined,1027,cheerful,physical,social,A,NULL
1748361060,c0f4c8f59f9f59844be51d043881ea86,PennController,16,0,test_sp,NULL,PennController,27,_Header_,Start,1748360578663,undefined,1027,cheerful,physical,social,A,NULL
1748361060,c0f4c8f59f9f59844be51d043881ea86,PennController,16,0,test_sp,NULL,PennController,27,_Header_,End,1748360578914,undefined,1027,cheerful,physical,social,A,NULL
1748361060,c0f4c8f59f9f59844be51d043881ea86,PennController,16,0,test_sp,NULL,Selector,unnamed-Selector,Selection,social,1748360580446,undefined,1027,cheerful,physical,social,A,physical;social
1748361060,c0f4c8f59f9f59844be51d043881ea86,PennController,16,0,test_sp,NULL,PennController,27,_Trial_,End,1748360580447,undefined,1027,cheerful,physical,social,A,NULL
1748361060,c0f4c8f59f9f59844be51d043881ea86,PennController,26,0,test_sp,NULL,PennController,37,_Trial_,Start,1748360580447,undefined,1069,blooming,physical,social,A,NULL
1748361060,c0f4c8f59f9f59844be51d043881ea86,PennController,26,0,test_sp,NULL,PennController,37,_Header_,Start,1748360580447,undefined,1069,blooming,physical,social,A,NULL
1748361060,c0f4c8f59f9f59844be51d043881ea86,PennController,26,0,test_sp,NULL,PennController,37,_Header_,End,1748360580700,undefined,1069,blooming,physical,social,A,NULL
1748361060,c0f4c8f59f9f59844be51d043881ea86,PennController,26,0,test_sp,NULL,Selector,unnamed-Selector,Selection,physical,1748360582270,undefined,1069,blooming,physical,social,A,physical;social
1748361060,c0f4c8f59f9f59844be51d043881ea86,PennController,26,0,test_sp,NULL,PennController,37,_Trial_,End,1748360582271,undefined,1069,blooming,physical,social,A,NULL
1748361060,c0f4c8f59f9f59844be51d043881ea86,PennController,7,0,test_sp,NULL,PennController,18,_Trial_,Start,1748360582272,undefined,828,comatose,physical,social,A,NULL
1748361060,c0f4c8f59f9f59844be51d043881ea86,PennController,7,0,test_sp,NULL,PennController,18,_Header_,Start,1748360582272,undefined,828,comatose,physical,social,A,NULL
1748361060,c0f4c8f59f9f59844be51d043881ea86,PennController,7,0,test_sp,NULL,PennController,18,_Header_,End,1748360582524,undefined,828,comatose,physical,social,A,NULL
1748361060,c0f4c8f59f9f59844be51d043881ea86,PennController,7,0,test_sp,NULL,Selector,unnamed-Selector,Selection,physical,1748360583854,undefined,828,comatose,physical,social,A,physical;social
1748361060,c0f4c8f59f9f59844be51d043881ea86,PennController,7,0,test_sp,NULL,PennController,18,_Trial_,End,1748360583855,undefined,828,comatose,physical,social,A,NULL
1748361060,c0f4c8f59f9f59844be51d043881ea86,PennController,8,0,test_sp,NULL,PennController,19,_Trial_,Start,1748360583855,undefined,628,obese,physical,social,A,NULL
1748361060,c0f4c8f59f9f59844be51d043881ea86,PennController,8,0,test_sp,NULL,PennController,19,_Header_,Start,1748360583855,undefined,628,obese,physical,social,A,NULL
1748361060,c0f4c8f59f9f59844be51d043881ea86,PennController,8,0,test_sp,NULL,PennController,19,_Header_,End,1748360584107,undefined,628,obese,physical,social,A,NULL
1748361060,c0f4c8f59f9f59844be51d043881ea86,PennController,8,0,test_sp,NULL,Selector,unnamed-Selector,Selection,physical,1748360585238,undefined,628,obese,physical,social,A,physical;social
1748361060,c0f4c8f59f9f59844be51d043881ea86,PennController,8,0,test_sp,NULL,PennController,19,_Trial_,End,1748360585239,undefined,628,obese,physical,social,A,NULL
1748361060,c0f4c8f59f9f59844be51d043881ea86,PennController,15,0,test_sp,NULL,PennController,26,_Trial_,Start,1748360585239,undefined,1213,joyful,physical,social,A,NULL
1748361060,c0f4c8f59f9f59844be51d043881ea86,PennController,15,0,test_sp,NULL,PennController,26,_Header_,Start,1748360585239,undefined,1213,joyful,physical,social,A,NULL
1748361060,c0f4c8f59f9f59844be51d043881ea86,PennController,15,0,test_sp,NULL,PennController,26,_Header_,End,1748360585491,undefined,1213,joyful,physical,social,A,NULL
1748361060,c0f4c8f59f9f59844be51d043881ea86,PennController,15,0,test_sp,NULL,Selector,unnamed-Selector,Selection,social,1748360587206,undefined,1213,joyful,physical,social,A,physical;social
1748361060,c0f4c8f59f9f59844be51d043881ea86,PennController,15,0,test_sp,NULL,PennController,26,_Trial_,End,1748360587207,undefined,1213,joyful,physical,social,A,NULL
1748361060,c0f4c8f59f9f59844be51d043881ea86,PennController,34,0,test_sp,NULL,PennController,45,_Trial_,Start,1748360587208,undefined,796,insulting,physical,social,A,NULL
1748361060,c0f4c8f59f9f59844be51d043881ea86,PennController,34,0,test_sp,NULL,PennController,45,_Header_,Start,1748360587208,undefined,796,insulting,physical,social,A,NULL
1748361060,c0f4c8f59f9f59844be51d043881ea86,PennController,34,0,test_sp,NULL,PennController,45,_Header_,End,1748360587460,undefined,796,insulting,physical,social,A,NULL
1748361060,c0f4c8f59f9f59844be51d043881ea86,PennController,34,0,test_sp,NULL,Selector,unnamed-Selector,Selection,social,1748360588758,undefined,796,insulting,physical,social,A,physical;social
1748361060,c0f4c8f59f9f59844be51d043881ea86,PennController,34,0,test_sp,NULL,PennController,45,_Trial_,End,1748360588759,undefined,796,insulting,physical,social,A,NULL
1748361060,c0f4c8f59f9f59844be51d043881ea86,PennController,33,0,test_sp,NULL,PennController,44,_Trial_,Start,1748360588759,undefined,857,newborn,physical,social,A,NULL
1748361060,c0f4c8f59f9f59844be51d043881ea86,PennController,33,0,test_sp,NULL,PennController,44,_Header_,Start,1748360588759,undefined,857,newborn,physical,social,A,NULL
1748361060,c0f4c8f59f9f59844be51d043881ea86,PennController,33,0,test_sp,NULL,PennController,44,_Header_,End,1748360589012,undefined,857,newborn,physical,social,A,NULL
1748361060,c0f4c8f59f9f59844be51d043881ea86,PennController,33,0,test_sp,NULL,Selector,unnamed-Selector,Selection,social,1748360590374,undefined,857,newborn,physical,social,A,physical;social
1748361060,c0f4c8f59f9f59844be51d043881ea86,PennController,33,0,test_sp,NULL,PennController,44,_Trial_,End,1748360590375,undefined,857,newborn,physical,social,A,NULL
1748361060,c0f4c8f59f9f59844be51d043881ea86,PennController,30,0,test_sp,NULL,PennController,41,_Trial_,Start,1748360590375,undefined,2294,nutritious,physical,social,A,NULL
1748361060,c0f4c8f59f9f59844be51d043881ea86,PennController,30,0,test_sp,NULL,PennController,41,_Header_,Start,1748360590375,undefined,2294,nutritious,physical,social,A,NULL
1748361060,c0f4c8f59f9f59844be51d043881ea86,PennController,30,0,test_sp,NULL,PennController,41,_Header_,End,1748360590626,undefined,2294,nutritious,physical,social,A,NULL
1748361060,c0f4c8f59f9f59844be51d043881ea86,PennController,30,0,test_sp,NULL,Selector,unnamed-Selector,Selection,physical,1748360593422,undefined,2294,nutritious,physical,social,A,physical;social
1748361060,c0f4c8f59f9f59844be51d043881ea86,PennController,30,0,test_sp,NULL,PennController,41,_Trial_,End,1748360593423,undefined,2294,nutritious,physical,social,A,NULL
1748361060,c0f4c8f59f9f59844be51d043881ea86,PennController,6,0,test_sp,NULL,PennController,17,_Trial_,Start,1748360593423,undefined,967,excruciating,physical,social,A,NULL
1748361060,c0f4c8f59f9f59844be51d043881ea86,PennController,6,0,test_sp,NULL,PennController,17,_Header_,Start,1748360593423,undefined,967,excruciating,physical,social,A,NULL
1748361060,c0f4c8f59f9f59844be51d043881ea86,PennController,6,0,test_sp,NULL,PennController,17,_Header_,End,1748360593673,undefined,967,excruciating,physical,social,A,NULL
1748361060,c0f4c8f59f9f59844be51d043881ea86,PennController,6,0,test_sp,NULL,Selector,unnamed-Selector,Selection,physical,1748360595142,undefined,967,excruciating,physical,social,A,physical;social
1748361060,c0f4c8f59f9f59844be51d043881ea86,PennController,6,0,test_sp,NULL,PennController,17,_Trial_,End,1748360595143,undefined,967,excruciating,physical,social,A,NULL
1748361060,c0f4c8f59f9f59844be51d043881ea86,PennController,21,0,test_sp,NULL,PennController,32,_Trial_,Start,1748360595143,undefined,1029,dependable,physical,social,A,NULL
1748361060,c0f4c8f59f9f59844be51d043881ea86,PennController,21,0,test_sp,NULL,PennController,32,_Header_,Start,1748360595143,undefined,1029,dependable,physical,social,A,NULL
1748361060,c0f4c8f59f9f59844be51d043881ea86,PennController,21,0,test_sp,NULL,PennController,32,_Header_,End,1748360595396,undefined,1029,dependable,physical,social,A,NULL
1748361060,c0f4c8f59f9f59844be51d043881ea86,PennController,21,0,test_sp,NULL,Selector,unnamed-Selector,Selection,social,1748360596926,undefined,1029,dependable,physical,social,A,physical;social
1748361060,c0f4c8f59f9f59844be51d043881ea86,PennController,21,0,test_sp,NULL,PennController,32,_Trial_,End,1748360596927,undefined,1029,dependable,physical,social,A,NULL
1748361060,c0f4c8f59f9f59844be51d043881ea86,PennController,9,0,test_sp,NULL,PennController,20,_Trial_,Start,1748360596927,undefined,803,lifeless,physical,social,A,NULL
1748361060,c0f4c8f59f9f59844be51d043881ea86,PennController,9,0,test_sp,NULL,PennController,20,_Header_,Start,1748360596927,undefined,803,lifeless,physical,social,A,NULL
1748361060,c0f4c8f59f9f59844be51d043881ea86,PennController,9,0,test_sp,NULL,PennController,20,_Header_,End,1748360597182,undefined,803,lifeless,physical,social,A,NULL
1748361060,c0f4c8f59f9f59844be51d043881ea86,PennController,9,0,test_sp,NULL,Selector,unnamed-Selector,Selection,social,1748360598486,undefined,803,lifeless,physical,social,A,physical;social
1748361060,c0f4c8f59f9f59844be51d043881ea86,PennController,9,0,test_sp,NULL,PennController,20,_Trial_,End,1748360598487,undefined,803,lifeless,physical,social,A,NULL
1748361060,c0f4c8f59f9f59844be51d043881ea86,PennController,10,0,test_sp,NULL,PennController,21,_Trial_,Start,1748360598487,undefined,1412,rancid,physical,social,A,NULL
1748361060,c0f4c8f59f9f59844be51d043881ea86,PennController,10,0,test_sp,NULL,PennController,21,_Header_,Start,1748360598487,undefined,1412,rancid,physical,social,A,NULL
1748361060,c0f4c8f59f9f59844be51d043881ea86,PennController,10,0,test_sp,NULL,PennController,21,_Header_,End,1748360598739,undefined,1412,rancid,physical,social,A,NULL
1748361060,c0f4c8f59f9f59844be51d043881ea86,PennController,10,0,test_sp,NULL,Selector,unnamed-Selector,Selection,physical,1748360600654,undefined,1412,rancid,physical,social,A,physical;social
1748361060,c0f4c8f59f9f59844be51d043881ea86,PennController,10,0,test_sp,NULL,PennController,21,_Trial_,End,1748360600655,undefined,1412,rancid,physical,social,A,NULL
1748361060,c0f4c8f59f9f59844be51d043881ea86,PennController,27,0,test_sp,NULL,PennController,38,_Trial_,Start,1748360600655,undefined,852,floral,physical,social,A,NULL
1748361060,c0f4c8f59f9f59844be51d043881ea86,PennController,27,0,test_sp,NULL,PennController,38,_Header_,Start,1748360600655,undefined,852,floral,physical,social,A,NULL
1748361060,c0f4c8f59f9f59844be51d043881ea86,PennController,27,0,test_sp,NULL,PennController,38,_Header_,End,1748360600906,undefined,852,floral,physical,social,A,NULL
1748361060,c0f4c8f59f9f59844be51d043881ea86,PennController,27,0,test_sp,NULL,Selector,unnamed-Selector,Selection,physical,1748360602262,undefined,852,floral,physical,social,A,physical;social
1748361060,c0f4c8f59f9f59844be51d043881ea86,PennController,27,0,test_sp,NULL,PennController,38,_Trial_,End,1748360602263,undefined,852,floral,physical,social,A,NULL
1748361060,c0f4c8f59f9f59844be51d043881ea86,PennController,37,0,test_sp,NULL,PennController,48,_Trial_,Start,1748360602263,undefined,1086,heartbroken,physical,social,A,NULL
1748361060,c0f4c8f59f9f59844be51d043881ea86,PennController,37,0,test_sp,NULL,PennController,48,_Header_,Start,1748360602263,undefined,1086,heartbroken,physical,social,A,NULL
1748361060,c0f4c8f59f9f59844be51d043881ea86,PennController,37,0,test_sp,NULL,PennController,48,_Header_,End,1748360602514,undefined,1086,heartbroken,physical,social,A,NULL
1748361060,c0f4c8f59f9f59844be51d043881ea86,PennController,37,0,test_sp,NULL,Selector,unnamed-Selector,Selection,social,1748360604102,undefined,1086,heartbroken,physical,social,A,physical;social
1748361060,c0f4c8f59f9f59844be51d043881ea86,PennController,37,0,test_sp,NULL,PennController,48,_Trial_,End,1748360604103,undefined,1086,heartbroken,physical,social,A,NULL
1748361060,c0f4c8f59f9f59844be51d043881ea86,PennController,35,0,test_sp,NULL,PennController,46,_Trial_,Start,1748360604103,undefined,1504,greedy,physical,social,A,NULL
1748361060,c0f4c8f59f9f59844be51d043881ea86,PennController,35,0,test_sp,NULL,PennController,46,_Header_,Start,1748360604103,undefined,1504,greedy,physical,social,A,NULL
1748361060,c0f4c8f59f9f59844be51d043881ea86,PennController,35,0,test_sp,NULL,PennController,46,_Header_,End,1748360604354,undefined,1504,greedy,physical,social,A,NULL
1748361060,c0f4c8f59f9f59844be51d043881ea86,PennController,35,0,test_sp,NULL,Selector,unnamed-Selector,Selection,social,1748360606358,undefined,1504,greedy,physical,social,A,physical;social
1748361060,c0f4c8f59f9f59844be51d043881ea86,PennController,35,0,test_sp,NULL,PennController,46,_Trial_,End,1748360606359,undefined,1504,greedy,physical,social,A,NULL
1748361060,c0f4c8f59f9f59844be51d043881ea86,PennController,22,0,test_sp,NULL,PennController,33,_Trial_,Start,1748360606359,undefined,751,courageous,physical,social,A,NULL
1748361060,c0f4c8f59f9f59844be51d043881ea86,PennController,22,0,test_sp,NULL,PennController,33,_Header_,Start,1748360606359,undefined,751,courageous,physical,social,A,NULL
1748361060,c0f4c8f59f9f59844be51d043881ea86,PennController,22,0,test_sp,NULL,PennController,33,_Header_,End,1748360606609,undefined,751,courageous,physical,social,A,NULL
1748361060,c0f4c8f59f9f59844be51d043881ea86,PennController,22,0,test_sp,NULL,Selector,unnamed-Selector,Selection,social,1748360607862,undefined,751,courageous,physical,social,A,physical;social
1748361060,c0f4c8f59f9f59844be51d043881ea86,PennController,22,0,test_sp,NULL,PennController,33,_Trial_,End,1748360607863,undefined,751,courageous,physical,social,A,NULL
1748361060,c0f4c8f59f9f59844be51d043881ea86,PennController,31,0,test_sp,NULL,PennController,42,_Trial_,Start,1748360607863,undefined,1195,homemade,physical,social,A,NULL
1748361060,c0f4c8f59f9f59844be51d043881ea86,PennController,31,0,test_sp,NULL,PennController,42,_Header_,Start,1748360607863,undefined,1195,homemade,physical,social,A,NULL
1748361060,c0f4c8f59f9f59844be51d043881ea86,PennController,31,0,test_sp,NULL,PennController,42,_Header_,End,1748360608116,undefined,1195,homemade,physical,social,A,NULL
1748361060,c0f4c8f59f9f59844be51d043881ea86,PennController,31,0,test_sp,NULL,Selector,unnamed-Selector,Selection,physical,1748360609814,undefined,1195,homemade,physical,social,A,physical;social
1748361060,c0f4c8f59f9f59844be51d043881ea86,PennController,31,0,test_sp,NULL,PennController,42,_Trial_,End,1748360609815,undefined,1195,homemade,physical,social,A,NULL
1748361060,c0f4c8f59f9f59844be51d043881ea86,PennController,36,0,test_sp,NULL,PennController,47,_Trial_,Start,1748360609815,undefined,1125,grumpy,physical,social,A,NULL
1748361060,c0f4c8f59f9f59844be51d043881ea86,PennController,36,0,test_sp,NULL,PennController,47,_Header_,Start,1748360609815,undefined,1125,grumpy,physical,social,A,NULL
1748361060,c0f4c8f59f9f59844be51d043881ea86,PennController,36,0,test_sp,NULL,PennController,47,_Header_,End,1748360610068,undefined,1125,grumpy,physical,social,A,NULL
1748361060,c0f4c8f59f9f59844be51d043881ea86,PennController,36,0,test_sp,NULL,Selector,unnamed-Selector,Selection,social,1748360611694,undefined,1125,grumpy,physical,social,A,physical;social
1748361060,c0f4c8f59f9f59844be51d043881ea86,PennController,36,0,test_sp,NULL,PennController,47,_Trial_,End,1748360611695,undefined,1125,grumpy,physical,social,A,NULL
1748361060,c0f4c8f59f9f59844be51d043881ea86,PennController,20,0,test_sp,NULL,PennController,31,_Trial_,Start,1748360611695,undefined,773,selfless,physical,social,A,NULL
1748361060,c0f4c8f59f9f59844be51d043881ea86,PennController,20,0,test_sp,NULL,PennController,31,_Header_,Start,1748360611695,undefined,773,selfless,physical,social,A,NULL
1748361060,c0f4c8f59f9f59844be51d043881ea86,PennController,20,0,test_sp,NULL,PennController,31,_Header_,End,1748360611947,undefined,773,selfless,physical,social,A,NULL
1748361060,c0f4c8f59f9f59844be51d043881ea86,PennController,20,0,test_sp,NULL,Selector,unnamed-Selector,Selection,social,1748360613223,undefined,773,selfless,physical,social,A,physical;social
1748361060,c0f4c8f59f9f59844be51d043881ea86,PennController,20,0,test_sp,NULL,PennController,31,_Trial_,End,1748360613224,undefined,773,selfless,physical,social,A,NULL
1748361060,c0f4c8f59f9f59844be51d043881ea86,PennController,4,0,test_sp,NULL,PennController,15,_Trial_,Start,1748360613224,undefined,709,moldy,physical,social,A,NULL
1748361060,c0f4c8f59f9f59844be51d043881ea86,PennController,4,0,test_sp,NULL,PennController,15,_Header_,Start,1748360613224,undefined,709,moldy,physical,social,A,NULL
1748361060,c0f4c8f59f9f59844be51d043881ea86,PennController,4,0,test_sp,NULL,PennController,15,_Header_,End,1748360613476,undefined,709,moldy,physical,social,A,NULL
1748361060,c0f4c8f59f9f59844be51d043881ea86,PennController,4,0,test_sp,NULL,Selector,unnamed-Selector,Selection,physical,1748360614687,undefined,709,moldy,physical,social,A,physical;social
1748361060,c0f4c8f59f9f59844be51d043881ea86,PennController,4,0,test_sp,NULL,PennController,15,_Trial_,End,1748360614687,undefined,709,moldy,physical,social,A,NULL
1748361060,c0f4c8f59f9f59844be51d043881ea86,PennController,23,0,test_sp,NULL,PennController,34,_Trial_,Start,1748360614688,undefined,782,witty,physical,social,A,NULL
1748361060,c0f4c8f59f9f59844be51d043881ea86,PennController,23,0,test_sp,NULL,PennController,34,_Header_,Start,1748360614688,undefined,782,witty,physical,social,A,NULL
1748361060,c0f4c8f59f9f59844be51d043881ea86,PennController,23,0,test_sp,NULL,PennController,34,_Header_,End,1748360614938,undefined,782,witty,physical,social,A,NULL
1748361060,c0f4c8f59f9f59844be51d043881ea86,PennController,23,0,test_sp,NULL,Selector,unnamed-Selector,Selection,social,1748360616223,undefined,782,witty,physical,social,A,physical;social
1748361060,c0f4c8f59f9f59844be51d043881ea86,PennController,23,0,test_sp,NULL,PennController,34,_Trial_,End,1748360616223,undefined,782,witty,physical,social,A,NULL
1748361060,c0f4c8f59f9f59844be51d043881ea86,PennController,40,0,test_sp,NULL,PennController,51,_Trial_,Start,1748360616224,undefined,862,humiliating,physical,social,A,NULL
1748361060,c0f4c8f59f9f59844be51d043881ea86,PennController,40,0,test_sp,NULL,PennController,51,_Header_,Start,1748360616224,undefined,862,humiliating,physical,social,A,NULL
1748361060,c0f4c8f59f9f59844be51d043881ea86,PennController,40,0,test_sp,NULL,PennController,51,_Header_,End,1748360616476,undefined,862,humiliating,physical,social,A,NULL
1748361060,c0f4c8f59f9f59844be51d043881ea86,PennController,40,0,test_sp,NULL,Selector,unnamed-Selector,Selection,social,1748360617839,undefined,862,humiliating,physical,social,A,physical;social
1748361060,c0f4c8f59f9f59844be51d043881ea86,PennController,40,0,test_sp,NULL,PennController,51,_Trial_,End,1748360617839,undefined,862,humiliating,physical,social,A,NULL
1748361060,c0f4c8f59f9f59844be51d043881ea86,PennController,17,0,test_sp,NULL,PennController,28,_Trial_,Start,1748360617840,undefined,822,easygoing,physical,social,A,NULL
1748361060,c0f4c8f59f9f59844be51d043881ea86,PennController,17,0,test_sp,NULL,PennController,28,_Header_,Start,1748360617840,undefined,822,easygoing,physical,social,A,NULL
1748361060,c0f4c8f59f9f59844be51d043881ea86,PennController,17,0,test_sp,NULL,PennController,28,_Header_,End,1748360618090,undefined,822,easygoing,physical,social,A,NULL
1748361060,c0f4c8f59f9f59844be51d043881ea86,PennController,17,0,test_sp,NULL,Selector,unnamed-Selector,Selection,social,1748360619415,undefined,822,easygoing,physical,social,A,physical;social
1748361060,c0f4c8f59f9f59844be51d043881ea86,PennController,17,0,test_sp,NULL,PennController,28,_Trial_,End,1748360619416,undefined,822,easygoing,physical,social,A,NULL
1748361060,c0f4c8f59f9f59844be51d043881ea86,PennController,28,0,test_sp,NULL,PennController,39,_Trial_,Start,1748360619416,undefined,606,oceanic,physical,social,A,NULL
1748361060,c0f4c8f59f9f59844be51d043881ea86,PennController,28,0,test_sp,NULL,PennController,39,_Header_,Start,1748360619416,undefined,606,oceanic,physical,social,A,NULL
1748361060,c0f4c8f59f9f59844be51d043881ea86,PennController,28,0,test_sp,NULL,PennController,39,_Header_,End,1748360619668,undefined,606,oceanic,physical,social,A,NULL
1748361060,c0f4c8f59f9f59844be51d043881ea86,PennController,28,0,test_sp,NULL,Selector,unnamed-Selector,Selection,physical,1748360620775,undefined,606,oceanic,physical,social,A,physical;social
1748361060,c0f4c8f59f9f59844be51d043881ea86,PennController,28,0,test_sp,NULL,PennController,39,_Trial_,End,1748360620775,undefined,606,oceanic,physical,social,A,NULL
1748361060,c0f4c8f59f9f59844be51d043881ea86,PennController,39,0,test_sp,NULL,PennController,50,_Trial_,Start,1748360620776,undefined,805,dreaded,physical,social,A,NULL
1748361060,c0f4c8f59f9f59844be51d043881ea86,PennController,39,0,test_sp,NULL,PennController,50,_Header_,Start,1748360620776,undefined,805,dreaded,physical,social,A,NULL
1748361060,c0f4c8f59f9f59844be51d043881ea86,PennController,39,0,test_sp,NULL,PennController,50,_Header_,End,1748360621027,undefined,805,dreaded,physical,social,A,NULL
1748361060,c0f4c8f59f9f59844be51d043881ea86,PennController,39,0,test_sp,NULL,Selector,unnamed-Selector,Selection,social,1748360622335,undefined,805,dreaded,physical,social,A,physical;social
1748361060,c0f4c8f59f9f59844be51d043881ea86,PennController,39,0,test_sp,NULL,PennController,50,_Trial_,End,1748360622335,undefined,805,dreaded,physical,social,A,NULL
1748361060,c0f4c8f59f9f59844be51d043881ea86,PennController,25,0,test_sp,NULL,PennController,36,_Trial_,Start,1748360622336,undefined,781,sunny,physical,social,A,NULL
1748361060,c0f4c8f59f9f59844be51d043881ea86,PennController,25,0,test_sp,NULL,PennController,36,_Header_,Start,1748360622336,undefined,781,sunny,physical,social,A,NULL
1748361060,c0f4c8f59f9f59844be51d043881ea86,PennController,25,0,test_sp,NULL,PennController,36,_Header_,End,1748360622586,undefined,781,sunny,physical,social,A,NULL
1748361060,c0f4c8f59f9f59844be51d043881ea86,PennController,25,0,test_sp,NULL,Selector,unnamed-Selector,Selection,physical,1748360623871,undefined,781,sunny,physical,social,A,physical;social
1748361060,c0f4c8f59f9f59844be51d043881ea86,PennController,25,0,test_sp,NULL,PennController,36,_Trial_,End,1748360623872,undefined,781,sunny,physical,social,A,NULL
1748361060,c0f4c8f59f9f59844be51d043881ea86,PennController,29,0,test_sp,NULL,PennController,40,_Trial_,Start,1748360623872,undefined,781,decorative,physical,social,A,NULL
1748361060,c0f4c8f59f9f59844be51d043881ea86,PennController,29,0,test_sp,NULL,PennController,40,_Header_,Start,1748360623872,undefined,781,decorative,physical,social,A,NULL
1748361060,c0f4c8f59f9f59844be51d043881ea86,PennController,29,0,test_sp,NULL,PennController,40,_Header_,End,1748360624123,undefined,781,decorative,physical,social,A,NULL
1748361060,c0f4c8f59f9f59844be51d043881ea86,PennController,29,0,test_sp,NULL,Selector,unnamed-Selector,Selection,physical,1748360625407,undefined,781,decorative,physical,social,A,physical;social
1748361060,c0f4c8f59f9f59844be51d043881ea86,PennController,29,0,test_sp,NULL,PennController,40,_Trial_,End,1748360625407,undefined,781,decorative,physical,social,A,NULL
1748361060,c0f4c8f59f9f59844be51d043881ea86,PennController,18,0,test_sp,NULL,PennController,29,_Trial_,Start,1748360625408,undefined,711,carefree,physical,social,A,NULL
1748361060,c0f4c8f59f9f59844be51d043881ea86,PennController,18,0,test_sp,NULL,PennController,29,_Header_,Start,1748360625408,undefined,711,carefree,physical,social,A,NULL
1748361060,c0f4c8f59f9f59844be51d043881ea86,PennController,18,0,test_sp,NULL,PennController,29,_Header_,End,1748360625659,undefined,711,carefree,physical,social,A,NULL
1748361060,c0f4c8f59f9f59844be51d043881ea86,PennController,18,0,test_sp,NULL,Selector,unnamed-Selector,Selection,social,1748360626871,undefined,711,carefree,physical,social,A,physical;social
1748361060,c0f4c8f59f9f59844be51d043881ea86,PennController,18,0,test_sp,NULL,PennController,29,_Trial_,End,1748360626872,undefined,711,carefree,physical,social,A,NULL
1748361060,c0f4c8f59f9f59844be51d043881ea86,PennController,12,0,test_sp,NULL,PennController,23,_Trial_,Start,1748360626872,undefined,942,itchy,physical,social,A,NULL
1748361060,c0f4c8f59f9f59844be51d043881ea86,PennController,12,0,test_sp,NULL,PennController,23,_Header_,Start,1748360626872,undefined,942,itchy,physical,social,A,NULL
1748361060,c0f4c8f59f9f59844be51d043881ea86,PennController,12,0,test_sp,NULL,PennController,23,_Header_,End,1748360627122,undefined,942,itchy,physical,social,A,NULL
1748361060,c0f4c8f59f9f59844be51d043881ea86,PennController,12,0,test_sp,NULL,Selector,unnamed-Selector,Selection,physical,1748360628567,undefined,942,itchy,physical,social,A,physical;social
1748361060,c0f4c8f59f9f59844be51d043881ea86,PennController,12,0,test_sp,NULL,PennController,23,_Trial_,End,1748360628568,undefined,942,itchy,physical,social,A,NULL
1748361060,c0f4c8f59f9f59844be51d043881ea86,PennController,36,0,test_sp,NULL,PennController,47,_Trial_,Start,1748360628568,undefined,609,grumpy,physical,social,A,NULL
1748361060,c0f4c8f59f9f59844be51d043881ea86,PennController,36,0,test_sp,NULL,PennController,47,_Header_,Start,1748360628568,undefined,609,grumpy,physical,social,A,NULL
1748361060,c0f4c8f59f9f59844be51d043881ea86,PennController,36,0,test_sp,NULL,PennController,47,_Header_,End,1748360628818,undefined,609,grumpy,physical,social,A,NULL
1748361060,c0f4c8f59f9f59844be51d043881ea86,PennController,36,0,test_sp,NULL,Selector,unnamed-Selector,Selection,physical,1748360629927,undefined,609,grumpy,physical,social,A,physical;social
1748361060,c0f4c8f59f9f59844be51d043881ea86,PennController,36,0,test_sp,NULL,PennController,47,_Trial_,End,1748360629928,undefined,609,grumpy,physical,social,A,NULL
1748361060,c0f4c8f59f9f59844be51d043881ea86,PennController,6,0,test_sp,NULL,PennController,17,_Trial_,Start,1748360629928,undefined,1000,excruciating,physical,social,A,NULL
1748361060,c0f4c8f59f9f59844be51d043881ea86,PennController,6,0,test_sp,NULL,PennController,17,_Header_,Start,1748360629928,undefined,1000,excruciating,physical,social,A,NULL
1748361060,c0f4c8f59f9f59844be51d043881ea86,PennController,6,0,test_sp,NULL,PennController,17,_Header_,End,1748360630178,undefined,1000,excruciating,physical,social,A,NULL
1748361060,c0f4c8f59f9f59844be51d043881ea86,PennController,6,0,test_sp,NULL,Selector,unnamed-Selector,Selection,social,1748360631679,undefined,1000,excruciating,physical,social,A,physical;social
1748361060,c0f4c8f59f9f59844be51d043881ea86,PennController,6,0,test_sp,NULL,PennController,17,_Trial_,End,1748360631680,undefined,1000,excruciating,physical,social,A,NULL
1748361060,c0f4c8f59f9f59844be51d043881ea86,PennController,34,0,test_sp,NULL,PennController,45,_Trial_,Start,1748360631680,undefined,867,insulting,physical,social,A,NULL
1748361060,c0f4c8f59f9f59844be51d043881ea86,PennController,34,0,test_sp,NULL,PennController,45,_Header_,Start,1748360631680,undefined,867,insulting,physical,social,A,NULL
1748361060,c0f4c8f59f9f59844be51d043881ea86,PennController,34,0,test_sp,NULL,PennController,45,_Header_,End,1748360631932,undefined,867,insulting,physical,social,A,NULL
1748361060,c0f4c8f59f9f59844be51d043881ea86,PennController,34,0,test_sp,NULL,Selector,unnamed-Selector,Selection,social,1748360633303,undefined,867,insulting,physical,social,A,physical;social
1748361060,c0f4c8f59f9f59844be51d043881ea86,PennController,34,0,test_sp,NULL,PennController,45,_Trial_,End,1748360633303,undefined,867,insulting,physical,social,A,NULL
1748361060,c0f4c8f59f9f59844be51d043881ea86,PennController,25,0,test_sp,NULL,PennController,36,_Trial_,Start,1748360633304,undefined,789,sunny,physical,social,A,NULL
1748361060,c0f4c8f59f9f59844be51d043881ea86,PennController,25,0,test_sp,NULL,PennController,36,_Header_,Start,1748360633304,undefined,789,sunny,physical,social,A,NULL
1748361060,c0f4c8f59f9f59844be51d043881ea86,PennController,25,0,test_sp,NULL,PennController,36,_Header_,End,1748360633556,undefined,789,sunny,physical,social,A,NULL
1748361060,c0f4c8f59f9f59844be51d043881ea86,PennController,25,0,test_sp,NULL,Selector,unnamed-Selector,Selection,physical,1748360634847,undefined,789,sunny,physical,social,A,physical;social
1748361060,c0f4c8f59f9f59844be51d043881ea86,PennController,25,0,test_sp,NULL,PennController,36,_Trial_,End,1748360634847,undefined,789,sunny,physical,social,A,NULL
1748361060,c0f4c8f59f9f59844be51d043881ea86,PennController,35,0,test_sp,NULL,PennController,46,_Trial_,Start,1748360634848,undefined,934,greedy,physical,social,A,NULL
1748361060,c0f4c8f59f9f59844be51d043881ea86,PennController,35,0,test_sp,NULL,PennController,46,_Header_,Start,1748360634848,undefined,934,greedy,physical,social,A,NULL
1748361060,c0f4c8f59f9f59844be51d043881ea86,PennController,35,0,test_sp,NULL,PennController,46,_Header_,End,1748360635098,undefined,934,greedy,physical,social,A,NULL
1748361060,c0f4c8f59f9f59844be51d043881ea86,PennController,35,0,test_sp,NULL,Selector,unnamed-Selector,Selection,social,1748360636535,undefined,934,greedy,physical,social,A,physical;social
1748361060,c0f4c8f59f9f59844be51d043881ea86,PennController,35,0,test_sp,NULL,PennController,46,_Trial_,End,1748360636536,undefined,934,greedy,physical,social,A,NULL
1748361060,c0f4c8f59f9f59844be51d043881ea86,PennController,11,0,test_sp,NULL,PennController,22,_Trial_,Start,1748360636536,undefined,859,seasick,physical,social,A,NULL
1748361060,c0f4c8f59f9f59844be51d043881ea86,PennController,11,0,test_sp,NULL,PennController,22,_Header_,Start,1748360636536,undefined,859,seasick,physical,social,A,NULL
1748361060,c0f4c8f59f9f59844be51d043881ea86,PennController,11,0,test_sp,NULL,PennController,22,_Header_,End,1748360636789,undefined,859,seasick,physical,social,A,NULL
1748361060,c0f4c8f59f9f59844be51d043881ea86,PennController,11,0,test_sp,NULL,Selector,unnamed-Selector,Selection,physical,1748360638151,undefined,859,seasick,physical,social,A,physical;social
1748361060,c0f4c8f59f9f59844be51d043881ea86,PennController,11,0,test_sp,NULL,PennController,22,_Trial_,End,1748360638151,undefined,859,seasick,physical,social,A,NULL
1748361060,c0f4c8f59f9f59844be51d043881ea86,PennController,13,0,test_sp,NULL,PennController,24,_Trial_,Start,1748360638152,undefined,741,smelly,physical,social,A,NULL
1748361060,c0f4c8f59f9f59844be51d043881ea86,PennController,13,0,test_sp,NULL,PennController,24,_Header_,Start,1748360638152,undefined,741,smelly,physical,social,A,NULL
1748361060,c0f4c8f59f9f59844be51d043881ea86,PennController,13,0,test_sp,NULL,PennController,24,_Header_,End,1748360638402,undefined,741,smelly,physical,social,A,NULL
1748361060,c0f4c8f59f9f59844be51d043881ea86,PennController,13,0,test_sp,NULL,Selector,unnamed-Selector,Selection,physical,1748360639647,undefined,741,smelly,physical,social,A,physical;social
1748361060,c0f4c8f59f9f59844be51d043881ea86,PennController,13,0,test_sp,NULL,PennController,24,_Trial_,End,1748360639647,undefined,741,smelly,physical,social,A,NULL
1748361060,c0f4c8f59f9f59844be51d043881ea86,PennController,16,0,test_sp,NULL,PennController,27,_Trial_,Start,1748360639648,undefined,752,cheerful,physical,social,A,NULL
1748361060,c0f4c8f59f9f59844be51d043881ea86,PennController,16,0,test_sp,NULL,PennController,27,_Header_,Start,1748360639648,undefined,752,cheerful,physical,social,A,NULL
1748361060,c0f4c8f59f9f59844be51d043881ea86,PennController,16,0,test_sp,NULL,PennController,27,_Header_,End,1748360639898,undefined,752,cheerful,physical,social,A,NULL
1748361060,c0f4c8f59f9f59844be51d043881ea86,PennController,16,0,test_sp,NULL,Selector,unnamed-Selector,Selection,social,1748360641151,undefined,752,cheerful,physical,social,A,physical;social
1748361060,c0f4c8f59f9f59844be51d043881ea86,PennController,16,0,test_sp,NULL,PennController,27,_Trial_,End,1748360641152,undefined,752,cheerful,physical,social,A,NULL
1748361060,c0f4c8f59f9f59844be51d043881ea86,PennController,43,0,test_sp,NULL,PennController,54,_Trial_,Start,1748360641152,undefined,607,hateful,physical,social,A,NULL
1748361060,c0f4c8f59f9f59844be51d043881ea86,PennController,43,0,test_sp,NULL,PennController,54,_Header_,Start,1748360641152,undefined,607,hateful,physical,social,A,NULL
1748361060,c0f4c8f59f9f59844be51d043881ea86,PennController,43,0,test_sp,NULL,PennController,54,_Header_,End,1748360641403,undefined,607,hateful,physical,social,A,NULL
1748361060,c0f4c8f59f9f59844be51d043881ea86,PennController,43,0,test_sp,NULL,Selector,unnamed-Selector,Selection,social,1748360642511,undefined,607,hateful,physical,social,A,physical;social
1748361060,c0f4c8f59f9f59844be51d043881ea86,PennController,43,0,test_sp,NULL,PennController,54,_Trial_,End,1748360642512,undefined,607,hateful,physical,social,A,NULL
1748361060,c0f4c8f59f9f59844be51d043881ea86,PennController,19,0,test_sp,NULL,PennController,30,_Trial_,Start,1748360642512,undefined,679,hilarious,physical,social,A,NULL
1748361060,c0f4c8f59f9f59844be51d043881ea86,PennController,19,0,test_sp,NULL,PennController,30,_Header_,Start,1748360642512,undefined,679,hilarious,physical,social,A,NULL
1748361060,c0f4c8f59f9f59844be51d043881ea86,PennController,19,0,test_sp,NULL,PennController,30,_Header_,End,1748360642763,undefined,679,hilarious,physical,social,A,NULL
1748361060,c0f4c8f59f9f59844be51d043881ea86,PennController,19,0,test_sp,NULL,Selector,unnamed-Selector,Selection,social,1748360643943,undefined,679,hilarious,physical,social,A,physical;social
1748361060,c0f4c8f59f9f59844be51d043881ea86,PennController,19,0,test_sp,NULL,PennController,30,_Trial_,End,1748360643943,undefined,679,hilarious,physical,social,A,NULL
1748361060,c0f4c8f59f9f59844be51d043881ea86,PennController,20,0,test_sp,NULL,PennController,31,_Trial_,Start,1748360643944,undefined,759,selfless,physical,social,A,NULL
1748361060,c0f4c8f59f9f59844be51d043881ea86,PennController,20,0,test_sp,NULL,PennController,31,_Header_,Start,1748360643944,undefined,759,selfless,physical,social,A,NULL
1748361060,c0f4c8f59f9f59844be51d043881ea86,PennController,20,0,test_sp,NULL,PennController,31,_Header_,End,1748360644196,undefined,759,selfless,physical,social,A,NULL
1748361060,c0f4c8f59f9f59844be51d043881ea86,PennController,20,0,test_sp,NULL,Selector,unnamed-Selector,Selection,social,1748360645455,undefined,759,selfless,physical,social,A,physical;social
1748361060,c0f4c8f59f9f59844be51d043881ea86,PennController,20,0,test_sp,NULL,PennController,31,_Trial_,End,1748360645456,undefined,759,selfless,physical,social,A,NULL
1748361060,c0f4c8f59f9f59844be51d043881ea86,PennController,23,0,test_sp,NULL,PennController,34,_Trial_,Start,1748360645456,undefined,1076,witty,physical,social,A,NULL
1748361060,c0f4c8f59f9f59844be51d043881ea86,PennController,23,0,test_sp,NULL,PennController,34,_Header_,Start,1748360645456,undefined,1076,witty,physical,social,A,NULL
1748361060,c0f4c8f59f9f59844be51d043881ea86,PennController,23,0,test_sp,NULL,PennController,34,_Header_,End,1748360645709,undefined,1076,witty,physical,social,A,NULL
1748361060,c0f4c8f59f9f59844be51d043881ea86,PennController,23,0,test_sp,NULL,Selector,unnamed-Selector,Selection,social,1748360647287,undefined,1076,witty,physical,social,A,physical;social
1748361060,c0f4c8f59f9f59844be51d043881ea86,PennController,23,0,test_sp,NULL,PennController,34,_Trial_,End,1748360647287,undefined,1076,witty,physical,social,A,NULL
1748361060,c0f4c8f59f9f59844be51d043881ea86,PennController,10,0,test_sp,NULL,PennController,21,_Trial_,Start,1748360647288,undefined,667,rancid,physical,social,A,NULL
1748361060,c0f4c8f59f9f59844be51d043881ea86,PennController,10,0,test_sp,NULL,PennController,21,_Header_,Start,1748360647288,undefined,667,rancid,physical,social,A,NULL
1748361060,c0f4c8f59f9f59844be51d043881ea86,PennController,10,0,test_sp,NULL,PennController,21,_Header_,End,1748360647541,undefined,667,rancid,physical,social,A,NULL
1748361060,c0f4c8f59f9f59844be51d043881ea86,PennController,10,0,test_sp,NULL,Selector,unnamed-Selector,Selection,physical,1748360648711,undefined,667,rancid,physical,social,A,physical;social
1748361060,c0f4c8f59f9f59844be51d043881ea86,PennController,10,0,test_sp,NULL,PennController,21,_Trial_,End,1748360648712,undefined,667,rancid,physical,social,A,NULL
1748361060,c0f4c8f59f9f59844be51d043881ea86,PennController,37,0,test_sp,NULL,PennController,48,_Trial_,Start,1748360648712,undefined,784,heartbroken,physical,social,A,NULL
1748361060,c0f4c8f59f9f59844be51d043881ea86,PennController,37,0,test_sp,NULL,PennController,48,_Header_,Start,1748360648712,undefined,784,heartbroken,physical,social,A,NULL
1748361060,c0f4c8f59f9f59844be51d043881ea86,PennController,37,0,test_sp,NULL,PennController,48,_Header_,End,1748360648963,undefined,784,heartbroken,physical,social,A,NULL
1748361060,c0f4c8f59f9f59844be51d043881ea86,PennController,37,0,test_sp,NULL,Selector,unnamed-Selector,Selection,social,1748360650247,undefined,784,heartbroken,physical,social,A,physical;social
1748361060,c0f4c8f59f9f59844be51d043881ea86,PennController,37,0,test_sp,NULL,PennController,48,_Trial_,End,1748360650248,undefined,784,heartbroken,physical,social,A,NULL
1748361060,c0f4c8f59f9f59844be51d043881ea86,PennController,14,0,test_sp,NULL,PennController,25,_Trial_,Start,1748360650248,undefined,734,brotherly,physical,social,A,NULL
1748361060,c0f4c8f59f9f59844be51d043881ea86,PennController,14,0,test_sp,NULL,PennController,25,_Header_,Start,1748360650248,undefined,734,brotherly,physical,social,A,NULL
1748361060,c0f4c8f59f9f59844be51d043881ea86,PennController,14,0,test_sp,NULL,PennController,25,_Header_,End,1748360650501,undefined,734,brotherly,physical,social,A,NULL
1748361060,c0f4c8f59f9f59844be51d043881ea86,PennController,14,0,test_sp,NULL,Selector,unnamed-Selector,Selection,physical,1748360651735,undefined,734,brotherly,physical,social,A,physical;social
1748361060,c0f4c8f59f9f59844be51d043881ea86,PennController,14,0,test_sp,NULL,PennController,25,_Trial_,End,1748360651736,undefined,734,brotherly,physical,social,A,NULL
1748361060,c0f4c8f59f9f59844be51d043881ea86,PennController,31,0,test_sp,NULL,PennController,42,_Trial_,Start,1748360651736,undefined,941,homemade,physical,social,A,NULL
1748361060,c0f4c8f59f9f59844be51d043881ea86,PennController,31,0,test_sp,NULL,PennController,42,_Header_,Start,1748360651736,undefined,941,homemade,physical,social,A,NULL
1748361060,c0f4c8f59f9f59844be51d043881ea86,PennController,31,0,test_sp,NULL,PennController,42,_Header_,End,1748360651988,undefined,941,homemade,physical,social,A,NULL
1748361060,c0f4c8f59f9f59844be51d043881ea86,PennController,31,0,test_sp,NULL,Selector,unnamed-Selector,Selection,physical,1748360653431,undefined,941,homemade,physical,social,A,physical;social
1748361060,c0f4c8f59f9f59844be51d043881ea86,PennController,31,0,test_sp,NULL,PennController,42,_Trial_,End,1748360653432,undefined,941,homemade,physical,social,A,NULL
1748361060,c0f4c8f59f9f59844be51d043881ea86,PennController,15,0,test_sp,NULL,PennController,26,_Trial_,Start,1748360653432,undefined,888,joyful,physical,social,A,NULL
1748361060,c0f4c8f59f9f59844be51d043881ea86,PennController,15,0,test_sp,NULL,PennController,26,_Header_,Start,1748360653432,undefined,888,joyful,physical,social,A,NULL
1748361060,c0f4c8f59f9f59844be51d043881ea86,PennController,15,0,test_sp,NULL,PennController,26,_Header_,End,1748360653682,undefined,888,joyful,physical,social,A,NULL
1748361060,c0f4c8f59f9f59844be51d043881ea86,PennController,15,0,test_sp,NULL,Selector,unnamed-Selector,Selection,social,1748360655071,undefined,888,joyful,physical,social,A,physical;social
1748361060,c0f4c8f59f9f59844be51d043881ea86,PennController,15,0,test_sp,NULL,PennController,26,_Trial_,End,1748360655071,undefined,888,joyful,physical,social,A,NULL
1748361060,c0f4c8f59f9f59844be51d043881ea86,PennController,4,0,test_sp,NULL,PennController,15,_Trial_,Start,1748360655072,undefined,728,moldy,physical,social,A,NULL
1748361060,c0f4c8f59f9f59844be51d043881ea86,PennController,4,0,test_sp,NULL,PennController,15,_Header_,Start,1748360655072,undefined,728,moldy,physical,social,A,NULL
1748361060,c0f4c8f59f9f59844be51d043881ea86,PennController,4,0,test_sp,NULL,PennController,15,_Header_,End,1748360655322,undefined,728,moldy,physical,social,A,NULL
1748361060,c0f4c8f59f9f59844be51d043881ea86,PennController,4,0,test_sp,NULL,Selector,unnamed-Selector,Selection,physical,1748360656551,undefined,728,moldy,physical,social,A,physical;social
1748361060,c0f4c8f59f9f59844be51d043881ea86,PennController,4,0,test_sp,NULL,PennController,15,_Trial_,End,1748360656551,undefined,728,moldy,physical,social,A,NULL
1748361060,c0f4c8f59f9f59844be51d043881ea86,PennController,24,0,test_sp,NULL,PennController,35,_Trial_,Start,1748360656552,undefined,1079,fluffy,physical,social,A,NULL
1748361060,c0f4c8f59f9f59844be51d043881ea86,PennController,24,0,test_sp,NULL,PennController,35,_Header_,Start,1748360656552,undefined,1079,fluffy,physical,social,A,NULL
1748361060,c0f4c8f59f9f59844be51d043881ea86,PennController,24,0,test_sp,NULL,PennController,35,_Header_,End,1748360656804,undefined,1079,fluffy,physical,social,A,NULL
1748361060,c0f4c8f59f9f59844be51d043881ea86,PennController,24,0,test_sp,NULL,Selector,unnamed-Selector,Selection,physical,1748360658383,undefined,1079,fluffy,physical,social,A,physical;social
1748361060,c0f4c8f59f9f59844be51d043881ea86,PennController,24,0,test_sp,NULL,PennController,35,_Trial_,End,1748360658384,undefined,1079,fluffy,physical,social,A,NULL
1748361060,c0f4c8f59f9f59844be51d043881ea86,PennController,18,0,test_sp,NULL,PennController,29,_Trial_,Start,1748360658384,undefined,735,carefree,physical,social,A,NULL
1748361060,c0f4c8f59f9f59844be51d043881ea86,PennController,18,0,test_sp,NULL,PennController,29,_Header_,Start,1748360658384,undefined,735,carefree,physical,social,A,NULL
1748361060,c0f4c8f59f9f59844be51d043881ea86,PennController,18,0,test_sp,NULL,PennController,29,_Header_,End,1748360658634,undefined,735,carefree,physical,social,A,NULL
1748361060,c0f4c8f59f9f59844be51d043881ea86,PennController,18,0,test_sp,NULL,Selector,unnamed-Selector,Selection,social,1748360659871,undefined,735,carefree,physical,social,A,physical;social
1748361060,c0f4c8f59f9f59844be51d043881ea86,PennController,18,0,test_sp,NULL,PennController,29,_Trial_,End,1748360659872,undefined,735,carefree,physical,social,A,NULL
1748361060,c0f4c8f59f9f59844be51d043881ea86,PennController,42,0,test_sp,NULL,PennController,53,_Trial_,Start,1748360659872,undefined,1099,infuriating,physical,social,A,NULL
1748361060,c0f4c8f59f9f59844be51d043881ea86,PennController,42,0,test_sp,NULL,PennController,53,_Header_,Start,1748360659872,undefined,1099,infuriating,physical,social,A,NULL
1748361060,c0f4c8f59f9f59844be51d043881ea86,PennController,42,0,test_sp,NULL,PennController,53,_Header_,End,1748360660124,undefined,1099,infuriating,physical,social,A,NULL
1748361060,c0f4c8f59f9f59844be51d043881ea86,PennController,42,0,test_sp,NULL,Selector,unnamed-Selector,Selection,social,1748360661727,undefined,1099,infuriating,physical,social,A,physical;social
1748361060,c0f4c8f59f9f59844be51d043881ea86,PennController,42,0,test_sp,NULL,PennController,53,_Trial_,End,1748360661727,undefined,1099,infuriating,physical,social,A,NULL
1748361060,c0f4c8f59f9f59844be51d043881ea86,PennController,32,0,test_sp,NULL,PennController,43,_Trial_,Start,1748360661728,undefined,1113,radiant,physical,social,A,NULL
1748361060,c0f4c8f59f9f59844be51d043881ea86,PennController,32,0,test_sp,NULL,PennController,43,_Header_,Start,1748360661728,undefined,1113,radiant,physical,social,A,NULL
1748361060,c0f4c8f59f9f59844be51d043881ea86,PennController,32,0,test_sp,NULL,PennController,43,_Header_,End,1748360661978,undefined,1113,radiant,physical,social,A,NULL
1748361060,c0f4c8f59f9f59844be51d043881ea86,PennController,32,0,test_sp,NULL,Selector,unnamed-Selector,Selection,physical,1748360663591,undefined,1113,radiant,physical,social,A,physical;social
1748361060,c0f4c8f59f9f59844be51d043881ea86,PennController,32,0,test_sp,NULL,PennController,43,_Trial_,End,1748360663592,undefined,1113,radiant,physical,social,A,NULL
1748361060,c0f4c8f59f9f59844be51d043881ea86,PennController,26,0,test_sp,NULL,PennController,37,_Trial_,Start,1748360663593,undefined,959,blooming,physical,social,A,NULL
1748361060,c0f4c8f59f9f59844be51d043881ea86,PennController,26,0,test_sp,NULL,PennController,37,_Header_,Start,1748360663593,undefined,959,blooming,physical,social,A,NULL
1748361060,c0f4c8f59f9f59844be51d043881ea86,PennController,26,0,test_sp,NULL,PennController,37,_Header_,End,1748360663843,undefined,959,blooming,physical,social,A,NULL
1748361060,c0f4c8f59f9f59844be51d043881ea86,PennController,26,0,test_sp,NULL,Selector,unnamed-Selector,Selection,physical,1748360665303,undefined,959,blooming,physical,social,A,physical;social
1748361060,c0f4c8f59f9f59844be51d043881ea86,PennController,26,0,test_sp,NULL,PennController,37,_Trial_,End,1748360665304,undefined,959,blooming,physical,social,A,NULL
1748361060,c0f4c8f59f9f59844be51d043881ea86,PennController,29,0,test_sp,NULL,PennController,40,_Trial_,Start,1748360665304,undefined,893,decorative,physical,social,A,NULL
1748361060,c0f4c8f59f9f59844be51d043881ea86,PennController,29,0,test_sp,NULL,PennController,40,_Header_,Start,1748360665304,undefined,893,decorative,physical,social,A,NULL
1748361060,c0f4c8f59f9f59844be51d043881ea86,PennController,29,0,test_sp,NULL,PennController,40,_Header_,End,1748360665556,undefined,893,decorative,physical,social,A,NULL
1748361060,c0f4c8f59f9f59844be51d043881ea86,PennController,29,0,test_sp,NULL,Selector,unnamed-Selector,Selection,physical,1748360666951,undefined,893,decorative,physical,social,A,physical;social
1748361060,c0f4c8f59f9f59844be51d043881ea86,PennController,29,0,test_sp,NULL,PennController,40,_Trial_,End,1748360666952,undefined,893,decorative,physical,social,A,NULL
1748361060,c0f4c8f59f9f59844be51d043881ea86,PennController,30,0,test_sp,NULL,PennController,41,_Trial_,Start,1748360666952,undefined,846,nutritious,physical,social,A,NULL
1748361060,c0f4c8f59f9f59844be51d043881ea86,PennController,30,0,test_sp,NULL,PennController,41,_Header_,Start,1748360666952,undefined,846,nutritious,physical,social,A,NULL
1748361060,c0f4c8f59f9f59844be51d043881ea86,PennController,30,0,test_sp,NULL,PennController,41,_Header_,End,1748360667204,undefined,846,nutritious,physical,social,A,NULL
1748361060,c0f4c8f59f9f59844be51d043881ea86,PennController,30,0,test_sp,NULL,Selector,unnamed-Selector,Selection,social,1748360668551,undefined,846,nutritious,physical,social,A,physical;social
1748361060,c0f4c8f59f9f59844be51d043881ea86,PennController,30,0,test_sp,NULL,PennController,41,_Trial_,End,1748360668552,undefined,846,nutritious,physical,social,A,NULL
1748361060,c0f4c8f59f9f59844be51d043881ea86,PennController,27,0,test_sp,NULL,PennController,38,_Trial_,Start,1748360668552,undefined,917,floral,physical,social,A,NULL
1748361060,c0f4c8f59f9f59844be51d043881ea86,PennController,27,0,test_sp,NULL,PennController,38,_Header_,Start,1748360668552,undefined,917,floral,physical,social,A,NULL
1748361060,c0f4c8f59f9f59844be51d043881ea86,PennController,27,0,test_sp,NULL,PennController,38,_Header_,End,1748360668803,undefined,917,floral,physical,social,A,NULL
1748361060,c0f4c8f59f9f59844be51d043881ea86,PennController,27,0,test_sp,NULL,Selector,unnamed-Selector,Selection,physical,1748360670223,undefined,917,floral,physical,social,A,physical;social
1748361060,c0f4c8f59f9f59844be51d043881ea86,PennController,27,0,test_sp,NULL,PennController,38,_Trial_,End,1748360670224,undefined,917,floral,physical,social,A,NULL
1748361060,c0f4c8f59f9f59844be51d043881ea86,PennController,38,0,test_sp,NULL,PennController,49,_Trial_,Start,1748360670224,undefined,2092,racist,physical,social,A,NULL
1748361060,c0f4c8f59f9f59844be51d043881ea86,PennController,38,0,test_sp,NULL,PennController,49,_Header_,Start,1748360670224,undefined,2092,racist,physical,social,A,NULL
1748361060,c0f4c8f59f9f59844be51d043881ea86,PennController,38,0,test_sp,NULL,PennController,49,_Header_,End,1748360670476,undefined,2092,racist,physical,social,A,NULL
1748361060,c0f4c8f59f9f59844be51d043881ea86,PennController,38,0,test_sp,NULL,Selector,unnamed-Selector,Selection,social,1748360673072,undefined,2092,racist,physical,social,A,physical;social
1748361060,c0f4c8f59f9f59844be51d043881ea86,PennController,38,0,test_sp,NULL,PennController,49,_Trial_,End,1748360673072,undefined,2092,racist,physical,social,A,NULL
1748361060,c0f4c8f59f9f59844be51d043881ea86,PennController,9,0,test_sp,NULL,PennController,20,_Trial_,Start,1748360673073,undefined,1071,lifeless,physical,social,A,NULL
1748361060,c0f4c8f59f9f59844be51d043881ea86,PennController,9,0,test_sp,NULL,PennController,20,_Header_,Start,1748360673073,undefined,1071,lifeless,physical,social,A,NULL
1748361060,c0f4c8f59f9f59844be51d043881ea86,PennController,9,0,test_sp,NULL,PennController,20,_Header_,End,1748360673323,undefined,1071,lifeless,physical,social,A,NULL
1748361060,c0f4c8f59f9f59844be51d043881ea86,PennController,9,0,test_sp,NULL,Selector,unnamed-Selector,Selection,physical,1748360674896,undefined,1071,lifeless,physical,social,A,physical;social
1748361060,c0f4c8f59f9f59844be51d043881ea86,PennController,9,0,test_sp,NULL,PennController,20,_Trial_,End,1748360674896,undefined,1071,lifeless,physical,social,A,NULL
1748361060,c0f4c8f59f9f59844be51d043881ea86,PennController,33,0,test_sp,NULL,PennController,44,_Trial_,Start,1748360674897,undefined,1350,newborn,physical,social,A,NULL
1748361060,c0f4c8f59f9f59844be51d043881ea86,PennController,33,0,test_sp,NULL,PennController,44,_Header_,Start,1748360674897,undefined,1350,newborn,physical,social,A,NULL
1748361060,c0f4c8f59f9f59844be51d043881ea86,PennController,33,0,test_sp,NULL,PennController,44,_Header_,End,1748360675147,undefined,1350,newborn,physical,social,A,NULL
1748361060,c0f4c8f59f9f59844be51d043881ea86,PennController,33,0,test_sp,NULL,Selector,unnamed-Selector,Selection,social,1748360677000,undefined,1350,newborn,physical,social,A,physical;social
1748361060,c0f4c8f59f9f59844be51d043881ea86,PennController,33,0,test_sp,NULL,PennController,44,_Trial_,End,1748360677000,undefined,1350,newborn,physical,social,A,NULL
1748361060,c0f4c8f59f9f59844be51d043881ea86,PennController,17,0,test_sp,NULL,PennController,28,_Trial_,Start,1748360677001,undefined,939,easygoing,physical,social,A,NULL
1748361060,c0f4c8f59f9f59844be51d043881ea86,PennController,17,0,test_sp,NULL,PennController,28,_Header_,Start,1748360677001,undefined,939,easygoing,physical,social,A,NULL
1748361060,c0f4c8f59f9f59844be51d043881ea86,PennController,17,0,test_sp,NULL,PennController,28,_Header_,End,1748360677253,undefined,939,easygoing,physical,social,A,NULL
1748361060,c0f4c8f59f9f59844be51d043881ea86,PennController,17,0,test_sp,NULL,Selector,unnamed-Selector,Selection,social,1748360678696,undefined,939,easygoing,physical,social,A,physical;social
1748361060,c0f4c8f59f9f59844be51d043881ea86,PennController,17,0,test_sp,NULL,PennController,28,_Trial_,End,1748360678696,undefined,939,easygoing,physical,social,A,NULL
1748361060,c0f4c8f59f9f59844be51d043881ea86,PennController,7,0,test_sp,NULL,PennController,18,_Trial_,Start,1748360678697,undefined,805,comatose,physical,social,A,NULL
1748361060,c0f4c8f59f9f59844be51d043881ea86,PennController,7,0,test_sp,NULL,PennController,18,_Header_,Start,1748360678697,undefined,805,comatose,physical,social,A,NULL
1748361060,c0f4c8f59f9f59844be51d043881ea86,PennController,7,0,test_sp,NULL,PennController,18,_Header_,End,1748360678947,undefined,805,comatose,physical,social,A,NULL
1748361060,c0f4c8f59f9f59844be51d043881ea86,PennController,7,0,test_sp,NULL,Selector,unnamed-Selector,Selection,physical,1748360680256,undefined,805,comatose,physical,social,A,physical;social
1748361060,c0f4c8f59f9f59844be51d043881ea86,PennController,7,0,test_sp,NULL,PennController,18,_Trial_,End,1748360680256,undefined,805,comatose,physical,social,A,NULL
1748361060,c0f4c8f59f9f59844be51d043881ea86,PennController,12,0,test_sp,NULL,PennController,23,_Trial_,Start,1748360680257,undefined,778,itchy,physical,social,A,NULL
1748361060,c0f4c8f59f9f59844be51d043881ea86,PennController,12,0,test_sp,NULL,PennController,23,_Header_,Start,1748360680257,undefined,778,itchy,physical,social,A,NULL
1748361060,c0f4c8f59f9f59844be51d043881ea86,PennController,12,0,test_sp,NULL,PennController,23,_Header_,End,1748360680510,undefined,778,itchy,physical,social,A,NULL
1748361060,c0f4c8f59f9f59844be51d043881ea86,PennController,12,0,test_sp,NULL,Selector,unnamed-Selector,Selection,physical,1748360681792,undefined,778,itchy,physical,social,A,physical;social
1748361060,c0f4c8f59f9f59844be51d043881ea86,PennController,12,0,test_sp,NULL,PennController,23,_Trial_,End,1748360681792,undefined,778,itchy,physical,social,A,NULL
1748361060,c0f4c8f59f9f59844be51d043881ea86,PennController,22,0,test_sp,NULL,PennController,33,_Trial_,Start,1748360681793,undefined,1227,courageous,physical,social,A,NULL
1748361060,c0f4c8f59f9f59844be51d043881ea86,PennController,22,0,test_sp,NULL,PennController,33,_Header_,Start,1748360681793,undefined,1227,courageous,physical,social,A,NULL
1748361060,c0f4c8f59f9f59844be51d043881ea86,PennController,22,0,test_sp,NULL,PennController,33,_Header_,End,1748360682044,undefined,1227,courageous,physical,social,A,NULL
1748361060,c0f4c8f59f9f59844be51d043881ea86,PennController,22,0,test_sp,NULL,Selector,unnamed-Selector,Selection,social,1748360683776,undefined,1227,courageous,physical,social,A,physical;social
1748361060,c0f4c8f59f9f59844be51d043881ea86,PennController,22,0,test_sp,NULL,PennController,33,_Trial_,End,1748360683776,undefined,1227,courageous,physical,social,A,NULL
1748361060,c0f4c8f59f9f59844be51d043881ea86,PennController,28,0,test_sp,NULL,PennController,39,_Trial_,Start,1748360683777,undefined,712,oceanic,physical,social,A,NULL
1748361060,c0f4c8f59f9f59844be51d043881ea86,PennController,28,0,test_sp,NULL,PennController,39,_Header_,Start,1748360683777,undefined,712,oceanic,physical,social,A,NULL
1748361060,c0f4c8f59f9f59844be51d043881ea86,PennController,28,0,test_sp,NULL,PennController,39,_Header_,End,1748360684028,undefined,712,oceanic,physical,social,A,NULL
1748361060,c0f4c8f59f9f59844be51d043881ea86,PennController,28,0,test_sp,NULL,Selector,unnamed-Selector,Selection,physical,1748360685240,undefined,712,oceanic,physical,social,A,physical;social
1748361060,c0f4c8f59f9f59844be51d043881ea86,PennController,28,0,test_sp,NULL,PennController,39,_Trial_,End,1748360685240,undefined,712,oceanic,physical,social,A,NULL
1748361060,c0f4c8f59f9f59844be51d043881ea86,PennController,40,0,test_sp,NULL,PennController,51,_Trial_,Start,1748360685241,undefined,785,humiliating,physical,social,A,NULL
1748361060,c0f4c8f59f9f59844be51d043881ea86,PennController,40,0,test_sp,NULL,PennController,51,_Header_,Start,1748360685241,undefined,785,humiliating,physical,social,A,NULL
1748361060,c0f4c8f59f9f59844be51d043881ea86,PennController,40,0,test_sp,NULL,PennController,51,_Header_,End,1748360685494,undefined,785,humiliating,physical,social,A,NULL
1748361060,c0f4c8f59f9f59844be51d043881ea86,PennController,40,0,test_sp,NULL,Selector,unnamed-Selector,Selection,social,1748360686784,undefined,785,humiliating,physical,social,A,physical;social
1748361060,c0f4c8f59f9f59844be51d043881ea86,PennController,40,0,test_sp,NULL,PennController,51,_Trial_,End,1748360686784,undefined,785,humiliating,physical,social,A,NULL
1748361060,c0f4c8f59f9f59844be51d043881ea86,PennController,8,0,test_sp,NULL,PennController,19,_Trial_,Start,1748360686785,undefined,647,obese,physical,social,A,NULL
1748361060,c0f4c8f59f9f59844be51d043881ea86,PennController,8,0,test_sp,NULL,PennController,19,_Header_,Start,1748360686785,undefined,647,obese,physical,social,A,NULL
1748361060,c0f4c8f59f9f59844be51d043881ea86,PennController,8,0,test_sp,NULL,PennController,19,_Header_,End,1748360687035,undefined,647,obese,physical,social,A,NULL
1748361060,c0f4c8f59f9f59844be51d043881ea86,PennController,8,0,test_sp,NULL,Selector,unnamed-Selector,Selection,physical,1748360688184,undefined,647,obese,physical,social,A,physical;social
1748361060,c0f4c8f59f9f59844be51d043881ea86,PennController,8,0,test_sp,NULL,PennController,19,_Trial_,End,1748360688184,undefined,647,obese,physical,social,A,NULL
1748361060,c0f4c8f59f9f59844be51d043881ea86,PennController,5,0,test_sp,NULL,PennController,16,_Trial_,Start,1748360688185,undefined,871,nauseous,physical,social,A,NULL
1748361060,c0f4c8f59f9f59844be51d043881ea86,PennController,5,0,test_sp,NULL,PennController,16,_Header_,Start,1748360688185,undefined,871,nauseous,physical,social,A,NULL
1748361060,c0f4c8f59f9f59844be51d043881ea86,PennController,5,0,test_sp,NULL,PennController,16,_Header_,End,1748360688435,undefined,871,nauseous,physical,social,A,NULL
1748361060,c0f4c8f59f9f59844be51d043881ea86,PennController,5,0,test_sp,NULL,Selector,unnamed-Selector,Selection,physical,1748360689808,undefined,871,nauseous,physical,social,A,physical;social
1748361060,c0f4c8f59f9f59844be51d043881ea86,PennController,5,0,test_sp,NULL,PennController,16,_Trial_,End,1748360689808,undefined,871,nauseous,physical,social,A,NULL
1748361060,c0f4c8f59f9f59844be51d043881ea86,PennController,21,0,test_sp,NULL,PennController,32,_Trial_,Start,1748360689809,undefined,990,dependable,physical,social,A,NULL
1748361060,c0f4c8f59f9f59844be51d043881ea86,PennController,21,0,test_sp,NULL,PennController,32,_Header_,Start,1748360689809,undefined,990,dependable,physical,social,A,NULL
1748361060,c0f4c8f59f9f59844be51d043881ea86,PennController,21,0,test_sp,NULL,PennController,32,_Header_,End,1748360690061,undefined,990,dependable,physical,social,A,NULL
1748361060,c0f4c8f59f9f59844be51d043881ea86,PennController,21,0,test_sp,NULL,Selector,unnamed-Selector,Selection,social,1748360691552,undefined,990,dependable,physical,social,A,physical;social
1748361060,c0f4c8f59f9f59844be51d043881ea86,PennController,21,0,test_sp,NULL,PennController,32,_Trial_,End,1748360691552,undefined,990,dependable,physical,social,A,NULL
1748361060,c0f4c8f59f9f59844be51d043881ea86,PennController,39,0,test_sp,NULL,PennController,50,_Trial_,Start,1748360691553,undefined,1035,dreaded,physical,social,A,NULL
1748361060,c0f4c8f59f9f59844be51d043881ea86,PennController,39,0,test_sp,NULL,PennController,50,_Header_,Start,1748360691553,undefined,1035,dreaded,physical,social,A,NULL
1748361060,c0f4c8f59f9f59844be51d043881ea86,PennController,39,0,test_sp,NULL,PennController,50,_Header_,End,1748360691806,undefined,1035,dreaded,physical,social,A,NULL
1748361060,c0f4c8f59f9f59844be51d043881ea86,PennController,39,0,test_sp,NULL,Selector,unnamed-Selector,Selection,social,1748360693344,undefined,1035,dreaded,physical,social,A,physical;social
1748361060,c0f4c8f59f9f59844be51d043881ea86,PennController,39,0,test_sp,NULL,PennController,50,_Trial_,End,1748360693344,undefined,1035,dreaded,physical,social,A,NULL
1748361060,c0f4c8f59f9f59844be51d043881ea86,PennController,41,0,test_sp,NULL,PennController,52,_Trial_,Start,1748360693344,undefined,1126,stingy,physical,social,A,NULL
1748361060,c0f4c8f59f9f59844be51d043881ea86,PennController,41,0,test_sp,NULL,PennController,52,_Header_,Start,1748360693344,undefined,1126,stingy,physical,social,A,NULL
1748361060,c0f4c8f59f9f59844be51d043881ea86,PennController,41,0,test_sp,NULL,PennController,52,_Header_,End,1748360693597,undefined,1126,stingy,physical,social,A,NULL
1748361060,c0f4c8f59f9f59844be51d043881ea86,PennController,41,0,test_sp,NULL,Selector,unnamed-Selector,Selection,social,1748360695224,undefined,1126,stingy,physical,social,A,physical;social
1748361060,c0f4c8f59f9f59844be51d043881ea86,PennController,41,0,test_sp,NULL,PennController,52,_Trial_,End,1748360695224,undefined,1126,stingy,physical,social,A,NULL
1748361060,c0f4c8f59f9f59844be51d043881ea86,PennController,28,0,test_sp,NULL,PennController,39,_Trial_,Start,1748360695225,undefined,773,oceanic,physical,social,A,NULL
1748361060,c0f4c8f59f9f59844be51d043881ea86,PennController,28,0,test_sp,NULL,PennController,39,_Header_,Start,1748360695225,undefined,773,oceanic,physical,social,A,NULL
1748361060,c0f4c8f59f9f59844be51d043881ea86,PennController,28,0,test_sp,NULL,PennController,39,_Header_,End,1748360695477,undefined,773,oceanic,physical,social,A,NULL
1748361060,c0f4c8f59f9f59844be51d043881ea86,PennController,28,0,test_sp,NULL,Selector,unnamed-Selector,Selection,physical,1748360696752,undefined,773,oceanic,physical,social,A,physical;social
1748361060,c0f4c8f59f9f59844be51d043881ea86,PennController,28,0,test_sp,NULL,PennController,39,_Trial_,End,1748360696752,undefined,773,oceanic,physical,social,A,NULL
1748361060,c0f4c8f59f9f59844be51d043881ea86,PennController,32,0,test_sp,NULL,PennController,43,_Trial_,Start,1748360696753,undefined,628,radiant,physical,social,A,NULL
1748361060,c0f4c8f59f9f59844be51d043881ea86,PennController,32,0,test_sp,NULL,PennController,43,_Header_,Start,1748360696753,undefined,628,radiant,physical,social,A,NULL
1748361060,c0f4c8f59f9f59844be51d043881ea86,PennController,32,0,test_sp,NULL,PennController,43,_Header_,End,1748360697005,undefined,628,radiant,physical,social,A,NULL
1748361060,c0f4c8f59f9f59844be51d043881ea86,PennController,32,0,test_sp,NULL,Selector,unnamed-Selector,Selection,physical,1748360698136,undefined,628,radiant,physical,social,A,physical;social
1748361060,c0f4c8f59f9f59844be51d043881ea86,PennController,32,0,test_sp,NULL,PennController,43,_Trial_,End,1748360698136,undefined,628,radiant,physical,social,A,NULL
1748361060,c0f4c8f59f9f59844be51d043881ea86,PennController,6,0,test_sp,NULL,PennController,17,_Trial_,Start,1748360698137,undefined,805,excruciating,physical,social,A,NULL
1748361060,c0f4c8f59f9f59844be51d043881ea86,PennController,6,0,test_sp,NULL,PennController,17,_Header_,Start,1748360698137,undefined,805,excruciating,physical,social,A,NULL
1748361060,c0f4c8f59f9f59844be51d043881ea86,PennController,6,0,test_sp,NULL,PennController,17,_Header_,End,1748360698390,undefined,805,excruciating,physical,social,A,NULL
1748361060,c0f4c8f59f9f59844be51d043881ea86,PennController,6,0,test_sp,NULL,Selector,unnamed-Selector,Selection,social,1748360699696,undefined,805,excruciating,physical,social,A,physical;social
1748361060,c0f4c8f59f9f59844be51d043881ea86,PennController,6,0,test_sp,NULL,PennController,17,_Trial_,End,1748360699696,undefined,805,excruciating,physical,social,A,NULL
1748361060,c0f4c8f59f9f59844be51d043881ea86,PennController,40,0,test_sp,NULL,PennController,51,_Trial_,Start,1748360699697,undefined,691,humiliating,physical,social,A,NULL
1748361060,c0f4c8f59f9f59844be51d043881ea86,PennController,40,0,test_sp,NULL,PennController,51,_Header_,Start,1748360699697,undefined,691,humiliating,physical,social,A,NULL
1748361060,c0f4c8f59f9f59844be51d043881ea86,PennController,40,0,test_sp,NULL,PennController,51,_Header_,End,1748360699948,undefined,691,humiliating,physical,social,A,NULL
1748361060,c0f4c8f59f9f59844be51d043881ea86,PennController,40,0,test_sp,NULL,Selector,unnamed-Selector,Selection,social,1748360701144,undefined,691,humiliating,physical,social,A,physical;social
1748361060,c0f4c8f59f9f59844be51d043881ea86,PennController,40,0,test_sp,NULL,PennController,51,_Trial_,End,1748360701144,undefined,691,humiliating,physical,social,A,NULL
1748361060,c0f4c8f59f9f59844be51d043881ea86,PennController,36,0,test_sp,NULL,PennController,47,_Trial_,Start,1748360701145,undefined,621,grumpy,physical,social,A,NULL
1748361060,c0f4c8f59f9f59844be51d043881ea86,PennController,36,0,test_sp,NULL,PennController,47,_Header_,Start,1748360701145,undefined,621,grumpy,physical,social,A,NULL
1748361060,c0f4c8f59f9f59844be51d043881ea86,PennController,36,0,test_sp,NULL,PennController,47,_Header_,End,1748360701398,undefined,621,grumpy,physical,social,A,NULL
1748361060,c0f4c8f59f9f59844be51d043881ea86,PennController,36,0,test_sp,NULL,Selector,unnamed-Selector,Selection,social,1748360702520,undefined,621,grumpy,physical,social,A,physical;social
1748361060,c0f4c8f59f9f59844be51d043881ea86,PennController,36,0,test_sp,NULL,PennController,47,_Trial_,End,1748360702520,undefined,621,grumpy,physical,social,A,NULL
1748361060,c0f4c8f59f9f59844be51d043881ea86,PennController,7,0,test_sp,NULL,PennController,18,_Trial_,Start,1748360702521,undefined,757,comatose,physical,social,A,NULL
1748361060,c0f4c8f59f9f59844be51d043881ea86,PennController,7,0,test_sp,NULL,PennController,18,_Header_,Start,1748360702521,undefined,757,comatose,physical,social,A,NULL
1748361060,c0f4c8f59f9f59844be51d043881ea86,PennController,7,0,test_sp,NULL,PennController,18,_Header_,End,1748360702774,undefined,757,comatose,physical,social,A,NULL
1748361060,c0f4c8f59f9f59844be51d043881ea86,PennController,7,0,test_sp,NULL,Selector,unnamed-Selector,Selection,physical,1748360704032,undefined,757,comatose,physical,social,A,physical;social
1748361060,c0f4c8f59f9f59844be51d043881ea86,PennController,7,0,test_sp,NULL,PennController,18,_Trial_,End,1748360704032,undefined,757,comatose,physical,social,A,NULL
1748361060,c0f4c8f59f9f59844be51d043881ea86,PennController,9,0,test_sp,NULL,PennController,20,_Trial_,Start,1748360704032,undefined,550,lifeless,physical,social,A,NULL
1748361060,c0f4c8f59f9f59844be51d043881ea86,PennController,9,0,test_sp,NULL,PennController,20,_Header_,Start,1748360704032,undefined,550,lifeless,physical,social,A,NULL
1748361060,c0f4c8f59f9f59844be51d043881ea86,PennController,9,0,test_sp,NULL,PennController,20,_Header_,End,1748360704285,undefined,550,lifeless,physical,social,A,NULL
1748361060,c0f4c8f59f9f59844be51d043881ea86,PennController,9,0,test_sp,NULL,Selector,unnamed-Selector,Selection,physical,1748360705336,undefined,550,lifeless,physical,social,A,physical;social
