"","ID.true","Word","Label","ConcValCombo","Task","BlockOrder","Group","Response","Accuracy","EventTime","Value","RT","ReactionTime","Key_value_F","Key_value_J","Comments","LogReactionTime","LogRT","TrialNumber"
"1","5d100e740277ff00152f7562","sunny","test_sp","physical-positive","SocPhys","SV","","physical",1,1748361173225,"physical",2118.16666666667,2503,"A","physical;social","",7.82524529143177,7.65830621365401,1
"2","5d100e740277ff00152f7562","racist","test_sp","social-negative","SocPhys","SV","","social",1,1748361175734,"social",1631.66666666667,1752,"A","physical;social","",7.46851327149634,7.3973572662965,2
"3","5d100e740277ff00152f7562","brotherly","test_sp","social-positive","SocPhys","SV","","social",1,1748361178017,"social",2015.33333333333,1530,"A","physical;social","",7.33302301438648,7.60853988667129,3
"4","5d100e740277ff00152f7562","carefree","test_sp","social-positive","SocPhys","SV","","social",1,1748361179711,"social",1509.83333333333,936,"A","physical;social","",6.84161547647759,7.31975454844123,4
"5","5d100e740277ff00152f7562","floral","test_sp","physical-positive","SocPhys","SV","","physical",1,1748361182449,"physical",1779.16666666667,1979,"A","physical;social","",7.59034694560257,7.48390036886877,5
"6","5d100e740277ff00152f7562","infuriating","test_sp","social-negative","SocPhys","SV","","social",1,1748361185497,"social",2008,2292,"A","physical;social","",7.73718007783463,7.60489448081162,6
"7","5d100e740277ff00152f7562","blooming","test_sp","physical-positive","SocPhys","SV","","physical",1,1748361188998,"physical",1846.91666666667,2742,"A","physical;social","",7.91644286012226,7.52127286097167,7
"8","5d100e740277ff00152f7562","heartbroken","test_sp","social-negative","SocPhys","SV","","social",1,1748361191633,"social",3275.16666666667,1874,"A","physical;social","",7.53583046279837,8.09412403735971,8
"9","5d100e740277ff00152f7562","moldy","test_sp","physical-negative","SocPhys","SV","","physical",1,1748361193865,"physical",1833.66666666667,1473,"A","physical;social","",7.29505641646263,7.51407288420735,9
"10","5d100e740277ff00152f7562","fluffy","test_sp","physical-positive","SocPhys","SV","","physical",1,1748361196866,"physical",2647.83333333333,2244,"A","physical;social","",7.71601526664259,7.88149697449197,10
"11","5d100e740277ff00152f7562","nutritious","test_sp","physical-positive","SocPhys","SV","","physical",1,1748361199281,"physical",2397.83333333333,1658,"A","physical;social","",7.41336733569524,7.78232083080898,11
"12","5d100e740277ff00152f7562","greedy","test_sp","social-negative","SocPhys","SV","","social",1,1748361201592,"social",2140,1551,"A","physical;social","",7.34665516317654,7.6685611080159,12
"13","5d100e740277ff00152f7562","easygoing","test_sp","social-positive","SocPhys","SV","","social",1,1748361203744,"social",1670.16666666667,1394,"A","physical;social","",7.23993259132047,7.42067870083027,13
"14","5d100e740277ff00152f7562","dependable","test_sp","social-positive","SocPhys","SV","","social",1,1748361206353,"social",2077.66666666667,1848,"A","physical;social","",7.52185925220163,7.63900074814074,14
"15","5d100e740277ff00152f7562","nauseous","test_sp","physical-negative","SocPhys","SV","","physical",1,1748361209936,"physical",2361.83333333333,2825,"A","physical;social","",7.94626364358054,7.76719343259682,15
"16","5d100e740277ff00152f7562","excruciating","test_sp","physical-negative","SocPhys","SV","","physical",1,1748361212785,"physical",2383.5,2091,"A","physical;social","",7.64539769942863,7.77632527464488,16
"17","5d100e740277ff00152f7562","lifeless","test_sp","physical-negative","SocPhys","SV","","physical",1,1748361215736,"physical",2004.66666666667,2196,"A","physical;social","",7.69439280262942,7.60323307488036,17
"18","5d100e740277ff00152f7562","comatose","test_sp","physical-negative","SocPhys","SV","","physical",1,1748361217672,"physical",2613.33333333333,1178,"A","physical;social","",7.07157336421153,7.86838182467634,18
"19","5d100e740277ff00152f7562","stingy","test_sp","social-negative","SocPhys","SV","","social",1,1748361220375,"social",2207.33333333333,1944,"A","physical;social","",7.57250298502038,7.69954042943908,19
"20","5d100e740277ff00152f7562","joyful","test_sp","social-positive","SocPhys","SV","","social",1,1748361222120,"social",1857.33333333333,985,"A","physical;social","",6.89264164117209,7.52689704623159,20
"21","5d100e740277ff00152f7562","hateful","test_sp","social-negative","SocPhys","SV","","social",1,1748361224385,"social",2714.66666666667,1502,"A","physical;social","",7.31455283232408,7.90642445012219,21
"22","5d100e740277ff00152f7562","courageous","test_sp","social-positive","SocPhys","SV","","social",1,1748361226239,"social",1554.5,1095,"A","physical;social","",6.9985096422506,7.34890922949881,22
"23","5d100e740277ff00152f7562","grumpy","test_sp","social-negative","SocPhys","SV","","social",1,1748361228294,"social",1657.83333333333,1298,"A","physical;social","",7.16857989726403,7.41326680792436,23
"24","5d100e740277ff00152f7562","obese","test_sp","physical-negative","SocPhys","SV","","physical",1,1748361229920,"physical",1835.83333333333,866,"A","physical;social","",6.76388490856244,7.51525379000839,24
"25","5d100e740277ff00152f7562","humiliating","test_sp","social-negative","SocPhys","SV","","social",1,1748361232031,"social",2045.33333333333,1357,"A","physical;social","",7.21303165983487,7.62331605437898,25
"26","5d100e740277ff00152f7562","decorative","test_sp","physical-positive","SocPhys","SV","","physical",1,1748361234161,"physical",2660.33333333333,1370,"A","physical;social","",7.22256601882217,7.8862067072079,26
"27","5d100e740277ff00152f7562","rancid","test_sp","physical-negative","SocPhys","SV","","physical",1,1748361236264,"physical",2066.83333333333,1345,"A","physical;social","",7.20414929203594,7.63377292427472,27
"28","5d100e740277ff00152f7562","smelly","test_sp","physical-negative","SocPhys","SV","","physical",1,1748361239937,"physical",2398,2915,"A","physical;social","",7.97762509878459,7.78239033558746,28
"29","5d100e740277ff00152f7562","seasick","test_sp","physical-negative","SocPhys","SV","","physical",1,1748361242423,"physical",2215.33333333333,1724,"A","physical;social","",7.45240245122364,7.70315816024643,29
"30","5d100e740277ff00152f7562","oceanic","test_sp","physical-positive","SocPhys","SV","","physical",1,1748361245031,"physical",1840,1849,"A","physical;social","",7.52240023138712,7.51752085060303,30
"31","5d100e740277ff00152f7562","witty","test_sp","social-positive","SocPhys","SV","","social",1,1748361246850,"social",1820.83333333333,1060,"A","physical;social","",6.96602418710611,7.50704955073574,31
"32","5d100e740277ff00152f7562","newborn","test_sp","physical-positive","SocPhys","SV","","physical",1,1748361249190,"physical",2154.16666666667,1579,"A","physical;social","",7.36454701425564,7.67515923014857,32
"33","5d100e740277ff00152f7562","selfless","test_sp","social-positive","SocPhys","SV","","social",1,1748361251208,"social",1857.5,1262,"A","physical;social","",7.14045304310116,7.52698677659191,33
"34","5d100e740277ff00152f7562","homemade","test_sp","physical-positive","SocPhys","SV","","physical",1,1748361253640,"physical",2102.33333333333,1674,"A","physical;social","",7.42297125104942,7.65080311799554,34
"35","5d100e740277ff00152f7562","itchy","test_sp","physical-negative","SocPhys","SV","","physical",1,1748361255888,"physical",2019.33333333333,1490,"A","physical;social","",7.30653139893951,7.61052270291907,35
"36","5d100e740277ff00152f7562","dreaded","test_sp","social-negative","SocPhys","SV","","social",1,1748361258760,"social",1980.5,2116,"A","physical;social","",7.65728279297819,7.59110461706197,36
"37","5d100e740277ff00152f7562","radiant","test_sp","physical-positive","SocPhys","SV","","social",0,1748361263224,"social",3295.16666666667,3709,"A","physical;social","",8.21851757748959,8.10021202734683,37
"38","5d100e740277ff00152f7562","cheerful","test_sp","social-positive","SocPhys","SV","","social",1,1748361265224,"social",1582,1240,"A","physical;social","",7.12286665859908,7.3664451483276,38
"39","5d100e740277ff00152f7562","hilarious","test_sp","social-positive","SocPhys","SV","","social",1,1748361267561,"social",2016.5,1580,"A","physical;social","",7.36518012602101,7.60911861431342,39
"40","5d100e740277ff00152f7562","insulting","test_sp","social-negative","SocPhys","SV","","social",1,1748361269233,"social",1863.66666666667,913,"A","physical;social","",6.81673588059497,7.53030115235854,40
"41","5d100e740277ff00152f7562","blooming","test_sp","physical-positive","SocPhys","SV","","physical",1,1748361271056,"physical",1846.91666666667,1066,"A","physical;social","",6.97166860472579,7.52127286097167,41
"42","5d100e740277ff00152f7562","dependable","test_sp","social-positive","SocPhys","SV","","social",1,1748361272714,"social",2077.66666666667,897,"A","physical;social","",6.7990558620588,7.63900074814074,42
"43","5d100e740277ff00152f7562","rancid","test_sp","physical-negative","SocPhys","SV","","physical",1,1748361274320,"physical",2066.83333333333,849,"A","physical;social","",6.74405918631135,7.63377292427472,43
"44","5d100e740277ff00152f7562","insulting","test_sp","social-negative","SocPhys","SV","","social",1,1748361277337,"social",1863.66666666667,2258,"A","physical;social","",7.72223474470961,7.53030115235854,44
"45","5d100e740277ff00152f7562","homemade","test_sp","physical-positive","SocPhys","SV","","physical",1,1748361278879,"physical",2102.33333333333,785,"A","physical;social","",6.66568371778241,7.65080311799554,45
"46","5d100e740277ff00152f7562","easygoing","test_sp","social-positive","SocPhys","SV","","social",1,1748361280361,"social",1670.16666666667,725,"A","physical;social","",6.58617165485467,7.42067870083027,46
"47","5d100e740277ff00152f7562","heartbroken","test_sp","social-negative","SocPhys","SV","","social",1,1748361282407,"social",3275.16666666667,1285,"A","physical;social","",7.15851399732932,8.09412403735971,47
"48","5d100e740277ff00152f7562","fluffy","test_sp","physical-positive","SocPhys","SV","","physical",1,1748361286760,"physical",2647.83333333333,3597,"A","physical;social","",8.18785544369562,7.88149697449197,48
"49","5d100e740277ff00152f7562","joyful","test_sp","social-positive","SocPhys","SV","","social",1,1748361289778,"social",1857.33333333333,2257,"A","physical;social","",7.72179177681754,7.52689704623159,49
"50","5d100e740277ff00152f7562","sunny","test_sp","physical-positive","SocPhys","SV","","physical",1,1748361292647,"physical",2118.16666666667,2114,"A","physical;social","",7.65633716643018,7.65830621365401,50
"51","5d100e740277ff00152f7562","dreaded","test_sp","social-negative","SocPhys","SV","","social",1,1748361295098,"social",1980.5,1697,"A","physical;social","",7.43661726523423,7.59110461706197,51
"52","5d100e740277ff00152f7562","newborn","test_sp","physical-positive","SocPhys","SV","","physical",1,1748361296585,"physical",2154.16666666667,726,"A","physical;social","",6.5875500148248,7.67515923014857,52
"53","5d100e740277ff00152f7562","hilarious","test_sp","social-positive","SocPhys","SV","","social",1,1748361298112,"social",2016.5,769,"A","physical;social","",6.64509096950564,7.60911861431342,53
"54","5d100e740277ff00152f7562","nutritious","test_sp","physical-positive","SocPhys","SV","","physical",1,1748361301682,"physical",2397.83333333333,2809,"A","physical;social","",7.94058382710424,7.78232083080898,54
"55","5d100e740277ff00152f7562","radiant","test_sp","physical-positive","SocPhys","SV","","social",0,1748361306472,"social",3295.16666666667,4027,"A","physical;social","",8.30077696085145,8.10021202734683,55
"56","5d100e740277ff00152f7562","oceanic","test_sp","physical-positive","SocPhys","SV","","physical",1,1748361308439,"physical",1840,1209,"A","physical;social","",7.09754885061479,7.51752085060303,56
"57","5d100e740277ff00152f7562","floral","test_sp","physical-positive","SocPhys","SV","","physical",1,1748361310449,"physical",1779.16666666667,1250,"A","physical;social","",7.13089883029635,7.48390036886877,57
"58","5d100e740277ff00152f7562","witty","test_sp","social-positive","SocPhys","SV","","social",1,1748361311966,"social",1820.83333333333,760,"A","physical;social","",6.63331843328038,7.50704955073574,58
"59","5d100e740277ff00152f7562","seasick","test_sp","physical-negative","SocPhys","SV","","physical",1,1748361313736,"physical",2215.33333333333,1011,"A","physical;social","",6.91869521902047,7.70315816024643,59
"60","5d100e740277ff00152f7562","moldy","test_sp","physical-negative","SocPhys","SV","","physical",1,1748361315529,"physical",1833.66666666667,1037,"A","physical;social","",6.94408720822953,7.51407288420735,60
"61","5d100e740277ff00152f7562","grumpy","test_sp","social-negative","SocPhys","SV","","social",1,1748361317202,"social",1657.83333333333,917,"A","physical;social","",6.82110747225646,7.41326680792436,61
"62","5d100e740277ff00152f7562","hateful","test_sp","social-negative","SocPhys","SV","","social",1,1748361318689,"social",2714.66666666667,727,"A","physical;social","",6.58892647753352,7.90642445012219,62
"63","5d100e740277ff00152f7562","cheerful","test_sp","social-positive","SocPhys","SV","","social",1,1748361320190,"social",1582,747,"A","physical;social","",6.61606518513282,7.3664451483276,63
"64","5d100e740277ff00152f7562","lifeless","test_sp","physical-negative","SocPhys","SV","","physical",1,1748361322575,"physical",2004.66666666667,1627,"A","physical;social","",7.39449310721904,7.60323307488036,64
"65","5d100e740277ff00152f7562","selfless","test_sp","social-positive","SocPhys","SV","","social",1,1748361324971,"social",1857.5,1639,"A","physical;social","",7.40184157874383,7.52698677659191,65
"66","5d100e740277ff00152f7562","decorative","test_sp","physical-positive","SocPhys","SV","","physical",1,1748361326920,"physical",2660.33333333333,1186,"A","physical;social","",7.07834157955767,7.8862067072079,66
"67","5d100e740277ff00152f7562","stingy","test_sp","social-negative","SocPhys","SV","","social",1,1748361329047,"social",2207.33333333333,1372,"A","physical;social","",7.22402480828583,7.69954042943908,67
"68","5d100e740277ff00152f7562","humiliating","test_sp","social-negative","SocPhys","SV","","social",1,1748361331031,"social",2045.33333333333,1227,"A","physical;social","",7.11232744471091,7.62331605437898,68
"69","5d100e740277ff00152f7562","itchy","test_sp","physical-negative","SocPhys","SV","","physical",1,1748361333064,"physical",2019.33333333333,1278,"A","physical;social","",7.15305163493748,7.61052270291907,69
"70","5d100e740277ff00152f7562","greedy","test_sp","social-negative","SocPhys","SV","","social",1,1748361335024,"social",2140,1205,"A","physical;social","",7.09423484592476,7.6685611080159,70
"71","5d100e740277ff00152f7562","infuriating","test_sp","social-negative","SocPhys","SV","","social",1,1748361337482,"social",2008,1703,"A","physical;social","",7.44014668066269,7.60489448081162,71
"72","5d100e740277ff00152f7562","courageous","test_sp","social-positive","SocPhys","SV","","social",1,1748361338870,"social",1554.5,629,"A","physical;social","",6.44413125670044,7.34890922949881,72
"73","5d100e740277ff00152f7562","carefree","test_sp","social-positive","SocPhys","SV","","social",1,1748361340455,"social",1509.83333333333,833,"A","physical;social","",6.72503364216684,7.31975454844123,73
"74","5d100e740277ff00152f7562","comatose","test_sp","physical-negative","SocPhys","SV","","physical",1,1748361341990,"physical",2613.33333333333,774,"A","physical;social","",6.65157187358973,7.86838182467634,74
"75","5d100e740277ff00152f7562","excruciating","test_sp","physical-negative","SocPhys","SV","","social",0,1748361343594,"social",2383.5,849,"A","physical;social","",6.74405918631135,7.77632527464488,75
"76","5d100e740277ff00152f7562","nauseous","test_sp","physical-negative","SocPhys","SV","","physical",1,1748361345386,"physical",2361.83333333333,1036,"A","physical;social","",6.94312242281943,7.76719343259682,76
"77","5d100e740277ff00152f7562","brotherly","test_sp","social-positive","SocPhys","SV","","social",1,1748361347881,"social",2015.33333333333,1735,"A","physical;social","",7.45876269238096,7.60853988667129,77
"78","5d100e740277ff00152f7562","obese","test_sp","physical-negative","SocPhys","SV","","physical",1,1748361349336,"physical",1835.83333333333,693,"A","physical;social","",6.5410299991899,7.51525379000839,78
"79","5d100e740277ff00152f7562","racist","test_sp","social-negative","SocPhys","SV","","social",1,1748361350982,"social",1631.66666666667,890,"A","physical;social","",6.79122146272619,7.3973572662965,79
"80","5d100e740277ff00152f7562","smelly","test_sp","physical-negative","SocPhys","SV","","physical",1,1748361354047,"physical",2398,2306,"A","physical;social","",7.743269700829,7.78239033558746,80
"81","5d100e740277ff00152f7562","radiant","test_sp","physical-positive","SocPhys","SV","","social",0,1748361359457,"social",3295.16666666667,4648,"A","physical;social","",8.44419229853175,8.10021202734683,81
"82","5d100e740277ff00152f7562","itchy","test_sp","physical-negative","SocPhys","SV","","physical",1,1748361361039,"physical",2019.33333333333,825,"A","physical;social","",6.71538338633468,7.61052270291907,82
"83","5d100e740277ff00152f7562","selfless","test_sp","social-positive","SocPhys","SV","","social",1,1748361362447,"social",1857.5,655,"A","physical;social","",6.48463523563525,7.52698677659191,83
"84","5d100e740277ff00152f7562","homemade","test_sp","physical-positive","SocPhys","SV","","physical",1,1748361366745,"physical",2102.33333333333,3537,"A","physical;social","",8.17103418920548,7.65080311799554,84
"85","5d100e740277ff00152f7562","blooming","test_sp","physical-positive","SocPhys","SV","","physical",1,1748361368233,"physical",1846.91666666667,728,"A","physical;social","",6.59030104819669,7.52127286097167,85
"86","5d100e740277ff00152f7562","nauseous","test_sp","physical-negative","SocPhys","SV","","physical",1,1748361369921,"physical",2361.83333333333,930,"A","physical;social","",6.8351845861473,7.76719343259682,86
"87","5d100e740277ff00152f7562","sunny","test_sp","physical-positive","SocPhys","SV","","social",0,1748361371353,"social",2118.16666666667,677,"A","physical;social","",6.51767127291227,7.65830621365401,87
"88","5d100e740277ff00152f7562","nutritious","test_sp","physical-positive","SocPhys","SV","","physical",1,1748361373897,"physical",2397.83333333333,1786,"A","physical;social","",7.48773376143644,7.78232083080898,88
"89","5d100e740277ff00152f7562","joyful","test_sp","social-positive","SocPhys","SV","","social",1,1748361375266,"social",1857.33333333333,610,"A","physical;social","",6.41345895716736,7.52689704623159,89
"90","5d100e740277ff00152f7562","fluffy","test_sp","physical-positive","SocPhys","SV","","physical",1,1748361378561,"physical",2647.83333333333,2536,"A","physical;social","",7.83834331555712,7.88149697449197,90
"91","5d100e740277ff00152f7562","brotherly","test_sp","social-positive","SocPhys","SV","","social",1,1748361379974,"social",2015.33333333333,652,"A","physical;social","",6.48004456192665,7.60853988667129,91
"92","5d100e740277ff00152f7562","lifeless","test_sp","physical-negative","SocPhys","SV","","physical",1,1748361381424,"physical",2004.66666666667,694,"A","physical;social","",6.5424719605068,7.60323307488036,92
"93","5d100e740277ff00152f7562","newborn","test_sp","physical-positive","SocPhys","SV","","physical",1,1748361382784,"physical",2154.16666666667,607,"A","physical;social","",6.4085287910595,7.67515923014857,93
"94","5d100e740277ff00152f7562","stingy","test_sp","social-negative","SocPhys","SV","","social",1,1748361384664,"social",2207.33333333333,1121,"A","physical;social","",7.02197642307216,7.69954042943908,94
"95","5d100e740277ff00152f7562","carefree","test_sp","social-positive","SocPhys","SV","","social",1,1748361386001,"social",1509.83333333333,583,"A","physical;social","",6.36818718635049,7.31975454844123,95
"96","5d100e740277ff00152f7562","racist","test_sp","social-negative","SocPhys","SV","","social",1,1748361387585,"social",1631.66666666667,826,"A","physical;social","",6.71659477352098,7.3973572662965,96
"97","5d100e740277ff00152f7562","heartbroken","test_sp","social-negative","SocPhys","SV","","physical",0,1748361394257,"physical",3275.16666666667,5915,"A","physical;social","",8.68524677641249,8.09412403735971,97
"98","5d100e740277ff00152f7562","excruciating","test_sp","physical-negative","SocPhys","SV","","physical",1,1748361397386,"physical",2383.5,2370,"A","physical;social","",7.77064523412918,7.77632527464488,98
"99","5d100e740277ff00152f7562","witty","test_sp","social-positive","SocPhys","SV","","social",1,1748361400603,"social",1820.83333333333,2458,"A","physical;social","",7.80710329012598,7.50704955073574,99
"100","5d100e740277ff00152f7562","decorative","test_sp","physical-positive","SocPhys","SV","","physical",1,1748361404889,"physical",2660.33333333333,3523,"A","physical;social","",8.16706817834124,7.8862067072079,100
"101","5d100e740277ff00152f7562","easygoing","test_sp","social-positive","SocPhys","SV","","social",1,1748361406425,"social",1670.16666666667,780,"A","physical;social","",6.65929391968364,7.42067870083027,101
"102","5d100e740277ff00152f7562","floral","test_sp","physical-positive","SocPhys","SV","","physical",1,1748361407815,"physical",1779.16666666667,633,"A","physical;social","",6.45047042214418,7.48390036886877,102
"103","5d100e740277ff00152f7562","obese","test_sp","physical-negative","SocPhys","SV","","physical",1,1748361409472,"physical",1835.83333333333,898,"A","physical;social","",6.8001700683022,7.51525379000839,103
"104","5d100e740277ff00152f7562","rancid","test_sp","physical-negative","SocPhys","SV","","physical",1,1748361413191,"physical",2066.83333333333,2963,"A","physical;social","",7.99395754757357,7.63377292427472,104
"105","5d100e740277ff00152f7562","comatose","test_sp","physical-negative","SocPhys","SV","","physical",1,1748361418345,"physical",2613.33333333333,4394,"A","physical;social","",8.38799525294456,7.86838182467634,105
"106","5d100e740277ff00152f7562","dependable","test_sp","social-positive","SocPhys","SV","","social",1,1748361422030,"social",2077.66666666667,2924,"A","physical;social","",7.98070782086967,7.63900074814074,106
"107","5d100e740277ff00152f7562","insulting","test_sp","social-negative","SocPhys","SV","","social",1,1748361423721,"social",1863.66666666667,932,"A","physical;social","",6.83733281468559,7.53030115235854,107
"108","5d100e740277ff00152f7562","grumpy","test_sp","social-negative","SocPhys","SV","","social",1,1748361425176,"social",1657.83333333333,694,"A","physical;social","",6.5424719605068,7.41326680792436,108
"109","5d100e740277ff00152f7562","oceanic","test_sp","physical-positive","SocPhys","SV","","physical",1,1748361426657,"physical",1840,720,"A","physical;social","",6.5792512120101,7.51752085060303,109
"110","5d100e740277ff00152f7562","greedy","test_sp","social-negative","SocPhys","SV","","social",1,1748361428297,"social",2140,881,"A","physical;social","",6.78105762593618,7.6685611080159,110
"111","5d100e740277ff00152f7562","humiliating","test_sp","social-negative","SocPhys","SV","","social",1,1748361429818,"social",2045.33333333333,762,"A","physical;social","",6.63594655568665,7.62331605437898,111
"112","5d100e740277ff00152f7562","courageous","test_sp","social-positive","SocPhys","SV","","social",1,1748361431376,"social",1554.5,801,"A","physical;social","",6.68586094706836,7.34890922949881,112
"113","5d100e740277ff00152f7562","seasick","test_sp","physical-negative","SocPhys","SV","","physical",1,1748361433667,"physical",2215.33333333333,1531,"A","physical;social","",7.33367639565768,7.70315816024643,113
"114","5d100e740277ff00152f7562","cheerful","test_sp","social-positive","SocPhys","SV","","social",1,1748361435063,"social",1582,639,"A","physical;social","",6.45990445437753,7.3664451483276,114
"115","5d100e740277ff00152f7562","smelly","test_sp","physical-negative","SocPhys","SV","","physical",1,1748361437337,"physical",2398,1512,"A","physical;social","",7.32118855673948,7.78239033558746,115
"116","5d100e740277ff00152f7562","dreaded","test_sp","social-negative","SocPhys","SV","","social",1,1748361438817,"social",1980.5,722,"A","physical;social","",6.58202513889283,7.59110461706197,116
"117","5d100e740277ff00152f7562","hateful","test_sp","social-negative","SocPhys","SV","","social",1,1748361444898,"social",2714.66666666667,5325,"A","physical;social","",8.58016799057763,7.90642445012219,117
"118","5d100e740277ff00152f7562","infuriating","test_sp","social-negative","SocPhys","SV","","social",1,1748361446488,"social",2008,829,"A","physical;social","",6.7202201551353,7.60489448081162,118
"119","5d100e740277ff00152f7562","hilarious","test_sp","social-positive","SocPhys","SV","","social",1,1748361449015,"social",2016.5,1768,"A","physical;social","",7.47760424319759,7.60911861431342,119
"120","5d100e740277ff00152f7562","moldy","test_sp","physical-negative","SocPhys","SV","","physical",1,1748361450537,"physical",1833.66666666667,762,"A","physical;social","",6.63594655568665,7.51407288420735,120
"121","5d100e740277ff00152f7562","insulting","test_val","social-negative","Valence","SV","","negative",1,1748361537402,"negative",1863.66666666667,1069,"A","positive;negative","",6.97447891102505,7.53030115235854,121
"122","5d100e740277ff00152f7562","moldy","test_val","physical-negative","Valence","SV","","negative",1,1748361539097,"negative",1833.66666666667,935,"A","positive;negative","",6.84054652928869,7.51407288420735,122
"123","5d100e740277ff00152f7562","comatose","test_val","physical-negative","Valence","SV","","negative",1,1748361540938,"negative",2613.33333333333,1079,"A","positive;negative","",6.98378996525813,7.86838182467634,123
"124","5d100e740277ff00152f7562","courageous","test_val","social-positive","Valence","SV","","positive",1,1748361542385,"positive",1554.5,689,"A","positive;negative","",6.53524127101366,7.34890922949881,124
"125","5d100e740277ff00152f7562","grumpy","test_val","social-negative","Valence","SV","","negative",1,1748361543834,"negative",1657.83333333333,690,"A","positive;negative","",6.5366915975913,7.41326680792436,125
"126","5d100e740277ff00152f7562","blooming","test_val","physical-positive","Valence","SV","","positive",1,1748361545272,"positive",1846.91666666667,676,"A","positive;negative","",6.51619307604296,7.52127286097167,126
"127","5d100e740277ff00152f7562","joyful","test_val","social-positive","Valence","SV","","positive",1,1748361546994,"positive",1857.33333333333,964,"A","positive;negative","",6.87109129461055,7.52689704623159,127
"128","5d100e740277ff00152f7562","infuriating","test_val","social-negative","Valence","SV","","negative",1,1748361548544,"negative",2008,789,"A","positive;negative","",6.67076632084587,7.60489448081162,128
"129","5d100e740277ff00152f7562","selfless","test_val","social-positive","Valence","SV","","positive",1,1748361550681,"positive",1857.5,1376,"A","positive;negative","",7.22693601849329,7.52698677659191,129
"130","5d100e740277ff00152f7562","hilarious","test_val","social-positive","Valence","SV","","positive",1,1748361552312,"positive",2016.5,874,"A","positive;negative","",6.77308037565554,7.60911861431342,130
"131","5d100e740277ff00152f7562","itchy","test_val","physical-negative","Valence","SV","","negative",1,1748361555538,"negative",2019.33333333333,2473,"A","positive;negative","",7.81318726752142,7.61052270291907,131
"132","5d100e740277ff00152f7562","dependable","test_val","social-positive","Valence","SV","","positive",1,1748361557008,"positive",2077.66666666667,715,"A","positive;negative","",6.57228254269401,7.63900074814074,132
"133","5d100e740277ff00152f7562","witty","test_val","social-positive","Valence","SV","","positive",1,1748361558464,"positive",1820.83333333333,701,"A","positive;negative","",6.55250788703459,7.50704955073574,133
"134","5d100e740277ff00152f7562","nauseous","test_val","physical-negative","Valence","SV","","negative",1,1748361560006,"negative",2361.83333333333,787,"A","positive;negative","",6.6682282484174,7.76719343259682,134
"135","5d100e740277ff00152f7562","dreaded","test_val","social-negative","Valence","SV","","negative",1,1748361561360,"negative",1980.5,598,"A","positive;negative","",6.39359075395063,7.59110461706197,135
"136","5d100e740277ff00152f7562","smelly","test_val","physical-negative","Valence","SV","","negative",1,1748361562906,"negative",2398,789,"A","positive;negative","",6.67076632084587,7.78239033558746,136
"137","5d100e740277ff00152f7562","sunny","test_val","physical-positive","Valence","SV","","negative",0,1748361564272,"negative",2118.16666666667,608,"A","positive;negative","",6.41017488196617,7.65830621365401,137
"138","5d100e740277ff00152f7562","obese","test_val","physical-negative","Valence","SV","","negative",1,1748361566481,"negative",1835.83333333333,1451,"A","positive;negative","",7.28000825288419,7.51525379000839,138
"139","5d100e740277ff00152f7562","oceanic","test_val","physical-positive","Valence","SV","","positive",1,1748361568400,"positive",1840,1163,"A","positive;negative","",7.05875815251866,7.51752085060303,139
"140","5d100e740277ff00152f7562","carefree","test_val","social-positive","Valence","SV","","positive",1,1748361569760,"positive",1509.83333333333,599,"A","positive;negative","",6.39526159811545,7.31975454844123,140
"141","5d100e740277ff00152f7562","seasick","test_val","physical-negative","Valence","SV","","negative",1,1748361572392,"negative",2215.33333333333,1875,"A","positive;negative","",7.53636393840451,7.70315816024643,141
"142","5d100e740277ff00152f7562","hateful","test_val","social-negative","Valence","SV","","negative",1,1748361574345,"negative",2714.66666666667,1190,"A","positive;negative","",7.08170858610557,7.90642445012219,142
"143","5d100e740277ff00152f7562","stingy","test_val","social-negative","Valence","SV","","negative",1,1748361577040,"negative",2207.33333333333,1939,"A","positive;negative","",7.56992765524265,7.69954042943908,143
"144","5d100e740277ff00152f7562","floral","test_val","physical-positive","Valence","SV","","positive",1,1748361578849,"positive",1779.16666666667,1050,"A","positive;negative","",6.95654544315157,7.48390036886877,144
"145","5d100e740277ff00152f7562","heartbroken","test_val","social-negative","Valence","SV","","negative",1,1748361583553,"negative",3275.16666666667,3946,"A","positive;negative","",8.28045768658256,8.09412403735971,145
"146","5d100e740277ff00152f7562","lifeless","test_val","physical-negative","Valence","SV","","negative",1,1748361585144,"negative",2004.66666666667,832,"A","positive;negative","",6.72383244082121,7.60323307488036,146
"147","5d100e740277ff00152f7562","homemade","test_val","physical-positive","Valence","SV","","positive",1,1748361586577,"positive",2102.33333333333,676,"A","positive;negative","",6.51619307604296,7.65080311799554,147
"148","5d100e740277ff00152f7562","nutritious","test_val","physical-positive","Valence","SV","","positive",1,1748361588006,"positive",2397.83333333333,668,"A","positive;negative","",6.50428817353665,7.78232083080898,148
"149","5d100e740277ff00152f7562","decorative","test_val","physical-positive","Valence","SV","","positive",1,1748361589498,"positive",2660.33333333333,736,"A","positive;negative","",6.60123011872888,7.8862067072079,149
"150","5d100e740277ff00152f7562","cheerful","test_val","social-positive","Valence","SV","","positive",1,1748361591006,"positive",1582,753,"A","positive;negative","",6.62406522779989,7.3664451483276,150
"151","5d100e740277ff00152f7562","radiant","test_val","physical-positive","Valence","SV","","positive",1,1748361592742,"positive",3295.16666666667,978,"A","positive;negative","",6.88550967003482,8.10021202734683,151
"152","5d100e740277ff00152f7562","easygoing","test_val","social-positive","Valence","SV","","positive",1,1748361594056,"positive",1670.16666666667,559,"A","positive;negative","",6.3261494731551,7.42067870083027,152
"153","5d100e740277ff00152f7562","racist","test_val","social-negative","Valence","SV","","negative",1,1748361595465,"negative",1631.66666666667,650,"A","positive;negative","",6.47697236288968,7.3973572662965,153
"154","5d100e740277ff00152f7562","brotherly","test_val","social-positive","Valence","SV","","positive",1,1748361597614,"positive",2015.33333333333,1389,"A","positive;negative","",7.23633934275434,7.60853988667129,154
"155","5d100e740277ff00152f7562","excruciating","test_val","physical-negative","Valence","SV","","negative",1,1748361599919,"negative",2383.5,1547,"A","positive;negative","",7.34407285057307,7.77632527464488,155
"156","5d100e740277ff00152f7562","humiliating","test_val","social-negative","Valence","SV","","negative",1,1748361603354,"negative",2045.33333333333,2682,"A","positive;negative","",7.89431806384162,7.62331605437898,156
"157","5d100e740277ff00152f7562","fluffy","test_val","physical-positive","Valence","SV","","positive",1,1748361605047,"positive",2647.83333333333,934,"A","positive;negative","",6.83947643822884,7.88149697449197,157
"158","5d100e740277ff00152f7562","newborn","test_val","physical-positive","Valence","SV","","positive",1,1748361607127,"positive",2154.16666666667,1321,"A","positive;negative","",7.18614430452233,7.67515923014857,158
"159","5d100e740277ff00152f7562","greedy","test_val","social-negative","Valence","SV","","negative",1,1748361608713,"negative",2140,824,"A","positive;negative","",6.71417052990947,7.6685611080159,159
"160","5d100e740277ff00152f7562","rancid","test_val","physical-negative","Valence","SV","","negative",1,1748361610200,"negative",2066.83333333333,727,"A","positive;negative","",6.58892647753352,7.63377292427472,160
"161","5d100e740277ff00152f7562","cheerful","test_val","social-positive","Valence","SV","","positive",1,1748361611522,"positive",1582,566,"A","positive;negative","",6.33859407820318,7.3664451483276,161
"162","5d100e740277ff00152f7562","greedy","test_val","social-negative","Valence","SV","","negative",1,1748361613417,"negative",2140,1138,"A","positive;negative","",7.03702761468628,7.6685611080159,162
"163","5d100e740277ff00152f7562","grumpy","test_val","social-negative","Valence","SV","","negative",1,1748361615088,"negative",1657.83333333333,913,"A","positive;negative","",6.81673588059497,7.41326680792436,163
"164","5d100e740277ff00152f7562","obese","test_val","physical-negative","Valence","SV","","negative",1,1748361617385,"negative",1835.83333333333,1537,"A","positive;negative","",7.3375877435386,7.51525379000839,164
"165","5d100e740277ff00152f7562","rancid","test_val","physical-negative","Valence","SV","","negative",1,1748361619456,"negative",2066.83333333333,1314,"A","positive;negative","",7.18083119904456,7.63377292427472,165
"166","5d100e740277ff00152f7562","radiant","test_val","physical-positive","Valence","SV","","positive",1,1748361621217,"positive",3295.16666666667,1004,"A","positive;negative","",6.91174730025167,8.10021202734683,166
"167","5d100e740277ff00152f7562","floral","test_val","physical-positive","Valence","SV","","positive",1,1748361622480,"positive",1779.16666666667,507,"A","positive;negative","",6.22851100359118,7.48390036886877,167
"168","5d100e740277ff00152f7562","witty","test_val","social-positive","Valence","SV","","positive",1,1748361623848,"positive",1820.83333333333,608,"A","positive;negative","",6.41017488196617,7.50704955073574,168
"169","5d100e740277ff00152f7562","humiliating","test_val","social-negative","Valence","SV","","negative",1,1748361625313,"negative",2045.33333333333,708,"A","positive;negative","",6.56244409369372,7.62331605437898,169
"170","5d100e740277ff00152f7562","comatose","test_val","physical-negative","Valence","SV","","negative",1,1748361627430,"negative",2613.33333333333,1357,"A","positive;negative","",7.21303165983487,7.86838182467634,170
"171","5d100e740277ff00152f7562","heartbroken","test_val","social-negative","Valence","SV","","negative",1,1748361628985,"negative",3275.16666666667,800,"A","positive;negative","",6.68461172766793,8.09412403735971,171
"172","5d100e740277ff00152f7562","lifeless","test_val","physical-negative","Valence","SV","","negative",1,1748361631305,"negative",2004.66666666667,1563,"A","positive;negative","",7.35436233042148,7.60323307488036,172
"173","5d100e740277ff00152f7562","dependable","test_val","social-positive","Valence","SV","","positive",1,1748361632680,"positive",2077.66666666667,617,"A","positive;negative","",6.42486902390539,7.63900074814074,173
"174","5d100e740277ff00152f7562","sunny","test_val","physical-positive","Valence","SV","","positive",1,1748361635015,"positive",2118.16666666667,1573,"A","positive;negative","",7.36073990305828,7.65830621365401,174
"175","5d100e740277ff00152f7562","nauseous","test_val","physical-negative","Valence","SV","","negative",1,1748361638958,"negative",2361.83333333333,3185,"A","positive;negative","",8.06620756800626,7.76719343259682,175
"176","5d100e740277ff00152f7562","infuriating","test_val","social-negative","Valence","SV","","negative",1,1748361640406,"negative",2008,693,"A","positive;negative","",6.5410299991899,7.60489448081162,176
"177","5d100e740277ff00152f7562","selfless","test_val","social-positive","Valence","SV","","negative",0,1748361641745,"negative",1857.5,583,"A","positive;negative","",6.36818718635049,7.52698677659191,177
"178","5d100e740277ff00152f7562","nutritious","test_val","physical-positive","Valence","SV","","positive",1,1748361644440,"positive",2397.83333333333,1935,"A","positive;negative","",7.56786260546388,7.78232083080898,178
"179","5d100e740277ff00152f7562","moldy","test_val","physical-negative","Valence","SV","","negative",1,1748361646241,"negative",1833.66666666667,1041,"A","positive;negative","",6.94793706861497,7.51407288420735,179
"180","5d100e740277ff00152f7562","fluffy","test_val","physical-positive","Valence","SV","","positive",1,1748361648200,"positive",2647.83333333333,1203,"A","positive;negative","",7.09257371597468,7.88149697449197,180
"181","5d100e740277ff00152f7562","dreaded","test_val","social-negative","Valence","SV","","negative",1,1748361650113,"negative",1980.5,1158,"A","positive;negative","",7.05444965813294,7.59110461706197,181
"182","5d100e740277ff00152f7562","carefree","test_val","social-positive","Valence","SV","","positive",1,1748361651739,"positive",1509.83333333333,864,"A","positive;negative","",6.76157276880406,7.31975454844123,182
"183","5d100e740277ff00152f7562","newborn","test_val","physical-positive","Valence","SV","","positive",1,1748361654222,"positive",2154.16666666667,1728,"A","positive;negative","",7.454719949364,7.67515923014857,183
"184","5d100e740277ff00152f7562","insulting","test_val","social-negative","Valence","SV","","negative",1,1748361655737,"negative",1863.66666666667,756,"A","positive;negative","",6.62804137617953,7.53030115235854,184
"185","5d100e740277ff00152f7562","smelly","test_val","physical-negative","Valence","SV","","negative",1,1748361658055,"negative",2398,1559,"A","positive;negative","",7.35179986905778,7.78239033558746,185
"186","5d100e740277ff00152f7562","joyful","test_val","social-positive","Valence","SV","","positive",1,1748361659722,"positive",1857.33333333333,908,"A","positive;negative","",6.81124437860129,7.52689704623159,186
"187","5d100e740277ff00152f7562","decorative","test_val","physical-positive","Valence","SV","","positive",1,1748361663467,"positive",2660.33333333333,2987,"A","positive;negative","",8.00202481821611,7.8862067072079,187
"188","5d100e740277ff00152f7562","blooming","test_val","physical-positive","Valence","SV","","positive",1,1748361664881,"positive",1846.91666666667,653,"A","positive;negative","",6.48157712927643,7.52127286097167,188
"189","5d100e740277ff00152f7562","racist","test_val","social-negative","Valence","SV","","negative",1,1748361666176,"negative",1631.66666666667,537,"A","positive;negative","",6.28599809450886,7.3973572662965,189
"190","5d100e740277ff00152f7562","oceanic","test_val","physical-positive","Valence","SV","","positive",1,1748361667672,"positive",1840,741,"A","positive;negative","",6.60800062529609,7.51752085060303,190
"191","5d100e740277ff00152f7562","hateful","test_val","social-negative","Valence","SV","","positive",0,1748361670191,"positive",2714.66666666667,1759,"A","positive;negative","",7.47250074473756,7.90642445012219,191
"192","5d100e740277ff00152f7562","itchy","test_val","physical-negative","Valence","SV","","negative",1,1748361671638,"negative",2019.33333333333,690,"A","positive;negative","",6.5366915975913,7.61052270291907,192
"193","5d100e740277ff00152f7562","stingy","test_val","social-negative","Valence","SV","","negative",1,1748361673786,"negative",2207.33333333333,1388,"A","positive;negative","",7.23561914106675,7.69954042943908,193
"194","5d100e740277ff00152f7562","courageous","test_val","social-positive","Valence","SV","","positive",1,1748361675384,"positive",1554.5,843,"A","positive;negative","",6.73696695800186,7.34890922949881,194
"195","5d100e740277ff00152f7562","brotherly","test_val","social-positive","Valence","SV","","positive",1,1748361677633,"positive",2015.33333333333,1489,"A","positive;negative","",7.30586003268401,7.60853988667129,195
"196","5d100e740277ff00152f7562","hilarious","test_val","social-positive","Valence","SV","","positive",1,1748361679497,"positive",2016.5,1110,"A","positive;negative","",7.01211529430638,7.60911861431342,196
"197","5d100e740277ff00152f7562","seasick","test_val","physical-negative","Valence","SV","","negative",1,1748361681128,"negative",2215.33333333333,872,"A","positive;negative","",6.77078942390898,7.70315816024643,197
"198","5d100e740277ff00152f7562","easygoing","test_val","social-positive","Valence","SV","","positive",1,1748361682857,"positive",1670.16666666667,969,"A","positive;negative","",6.87626461189077,7.42067870083027,198
"199","5d100e740277ff00152f7562","excruciating","test_val","physical-negative","Valence","SV","","negative",1,1748361685546,"negative",2383.5,1930,"A","positive;negative","",7.56527528189893,7.77632527464488,199
"200","5d100e740277ff00152f7562","homemade","test_val","physical-positive","Valence","SV","","positive",1,1748361687040,"positive",2102.33333333333,736,"A","positive;negative","",6.60123011872888,7.65080311799554,200
"201","5d100e740277ff00152f7562","stingy","test_val","social-negative","Valence","SV","","negative",1,1748361688745,"negative",2207.33333333333,946,"A","positive;negative","",6.85224256905188,7.69954042943908,201
"202","5d100e740277ff00152f7562","excruciating","test_val","physical-negative","Valence","SV","","positive",0,1748361690481,"positive",2383.5,975,"A","positive;negative","",6.88243747099785,7.77632527464488,202
"203","5d100e740277ff00152f7562","selfless","test_val","social-positive","Valence","SV","","positive",1,1748361692338,"positive",1857.5,1100,"A","positive;negative","",7.00306545878646,7.52698677659191,203
"204","5d100e740277ff00152f7562","greedy","test_val","social-negative","Valence","SV","","negative",1,1748361695802,"negative",2140,2706,"A","positive;negative","",7.90322680873073,7.6685611080159,204
"205","5d100e740277ff00152f7562","hateful","test_val","social-negative","Valence","SV","","negative",1,1748361697801,"negative",2714.66666666667,1238,"A","positive;negative","",7.12125245324454,7.90642445012219,205
"206","5d100e740277ff00152f7562","obese","test_val","physical-negative","Valence","SV","","positive",0,1748361699585,"positive",1835.83333333333,1027,"A","positive;negative","",6.93439720992856,7.51525379000839,206
"207","5d100e740277ff00152f7562","grumpy","test_val","social-negative","Valence","SV","","negative",1,1748361701241,"negative",1657.83333333333,897,"A","positive;negative","",6.7990558620588,7.41326680792436,207
"208","5d100e740277ff00152f7562","joyful","test_val","social-positive","Valence","SV","","positive",1,1748361702880,"positive",1857.33333333333,881,"A","positive;negative","",6.78105762593618,7.52689704623159,208
"209","5d100e740277ff00152f7562","fluffy","test_val","physical-positive","Valence","SV","","negative",0,1748361704481,"negative",2647.83333333333,838,"A","positive;negative","",6.73101810048208,7.88149697449197,209
"210","5d100e740277ff00152f7562","humiliating","test_val","social-negative","Valence","SV","","positive",0,1748361706250,"positive",2045.33333333333,1007,"A","positive;negative","",6.91473089271856,7.62331605437898,210
"211","5d100e740277ff00152f7562","carefree","test_val","social-positive","Valence","SV","","positive",1,1748361707720,"positive",1509.83333333333,716,"A","positive;negative","",6.57368016696065,7.31975454844123,211
"212","5d100e740277ff00152f7562","comatose","test_val","physical-negative","Valence","SV","","negative",1,1748361710834,"negative",2613.33333333333,2353,"A","positive;negative","",7.76344638872736,7.86838182467634,212
"213","5d100e740277ff00152f7562","homemade","test_val","physical-positive","Valence","SV","","positive",1,1748361712266,"positive",2102.33333333333,673,"A","positive;negative","",6.51174532964473,7.65080311799554,213
"214","5d100e740277ff00152f7562","racist","test_val","social-negative","Valence","SV","","negative",1,1748361713632,"negative",1631.66666666667,605,"A","positive;negative","",6.40522845803084,7.3973572662965,214
"215","5d100e740277ff00152f7562","lifeless","test_val","physical-negative","Valence","SV","","negative",1,1748361714976,"negative",2004.66666666667,586,"A","positive;negative","",6.37331978957701,7.60323307488036,215
"216","5d100e740277ff00152f7562","rancid","test_val","physical-negative","Valence","SV","","negative",1,1748361716406,"negative",2066.83333333333,674,"A","positive;negative","",6.51323011091231,7.63377292427472,216
"217","5d100e740277ff00152f7562","sunny","test_val","physical-positive","Valence","SV","","positive",1,1748361717866,"positive",2118.16666666667,704,"A","positive;negative","",6.55677835615804,7.65830621365401,217
"218","5d100e740277ff00152f7562","moldy","test_val","physical-negative","Valence","SV","","negative",1,1748361719840,"negative",1833.66666666667,1214,"A","positive;negative","",7.10167597161944,7.51407288420735,218
"219","5d100e740277ff00152f7562","courageous","test_val","social-positive","Valence","SV","","positive",1,1748361721337,"positive",1554.5,742,"A","positive;negative","",6.60934924316738,7.34890922949881,219
"220","5d100e740277ff00152f7562","dependable","test_val","social-positive","Valence","SV","","negative",0,1748361723024,"negative",2077.66666666667,925,"A","positive;negative","",6.82979373751242,7.63900074814074,220
"221","5d100e740277ff00152f7562","oceanic","test_val","physical-positive","Valence","SV","","positive",1,1748361724609,"positive",1840,828,"A","positive;negative","",6.71901315438526,7.51752085060303,221
"222","5d100e740277ff00152f7562","infuriating","test_val","social-negative","Valence","SV","","negative",1,1748361726576,"negative",2008,1212,"A","positive;negative","",7.10002716662926,7.60489448081162,222
"223","5d100e740277ff00152f7562","witty","test_val","social-positive","Valence","SV","","positive",1,1748361728138,"positive",1820.83333333333,804,"A","positive;negative","",6.68959926917897,7.50704955073574,223
"224","5d100e740277ff00152f7562","easygoing","test_val","social-positive","Valence","SV","","positive",1,1748361729960,"positive",1670.16666666667,1064,"A","positive;negative","",6.96979066990159,7.42067870083027,224
"225","5d100e740277ff00152f7562","floral","test_val","physical-positive","Valence","SV","","positive",1,1748361731439,"positive",1779.16666666667,719,"A","positive;negative","",6.57786135772105,7.48390036886877,225
"226","5d100e740277ff00152f7562","hilarious","test_val","social-positive","Valence","SV","","positive",1,1748361733666,"positive",2016.5,1475,"A","positive;negative","",7.29641326877392,7.60911861431342,226
"227","5d100e740277ff00152f7562","seasick","test_val","physical-negative","Valence","SV","","negative",1,1748361736162,"negative",2215.33333333333,1739,"A","positive;negative","",7.46106551435428,7.70315816024643,227
"228","5d100e740277ff00152f7562","insulting","test_val","social-negative","Valence","SV","","negative",1,1748361737638,"negative",1863.66666666667,717,"A","positive;negative","",6.57507584059962,7.53030115235854,228
"229","5d100e740277ff00152f7562","nutritious","test_val","physical-positive","Valence","SV","","positive",1,1748361739387,"positive",2397.83333333333,992,"A","positive;negative","",6.89972310728487,7.78232083080898,229
"230","5d100e740277ff00152f7562","decorative","test_val","physical-positive","Valence","SV","","positive",1,1748361741761,"positive",2660.33333333333,1613,"A","positive;negative","",7.38585107812521,7.8862067072079,230
"231","5d100e740277ff00152f7562","newborn","test_val","physical-positive","Valence","SV","","positive",1,1748361744951,"positive",2154.16666666667,2428,"A","positive;negative","",7.79482315217939,7.67515923014857,231
"232","5d100e740277ff00152f7562","nauseous","test_val","physical-negative","Valence","SV","","negative",1,1748361746586,"negative",2361.83333333333,875,"A","positive;negative","",6.77422388635761,7.76719343259682,232
"233","5d100e740277ff00152f7562","blooming","test_val","physical-positive","Valence","SV","","positive",1,1748361748017,"positive",1846.91666666667,673,"A","positive;negative","",6.51174532964473,7.52127286097167,233
"234","5d100e740277ff00152f7562","brotherly","test_val","social-positive","Valence","SV","","positive",1,1748361749534,"positive",2015.33333333333,757,"A","positive;negative","",6.62936325343745,7.60853988667129,234
"235","5d100e740277ff00152f7562","cheerful","test_val","social-positive","Valence","SV","","positive",1,1748361751313,"positive",1582,1025,"A","positive;negative","",6.93244789157251,7.3664451483276,235
"236","5d100e740277ff00152f7562","heartbroken","test_val","social-negative","Valence","SV","","negative",1,1748361753369,"negative",3275.16666666667,1296,"A","positive;negative","",7.16703787691222,8.09412403735971,236
"237","5d100e740277ff00152f7562","smelly","test_val","physical-negative","Valence","SV","","negative",1,1748361754897,"negative",2398,770,"A","positive;negative","",6.64639051484773,7.78239033558746,237
"238","5d100e740277ff00152f7562","itchy","test_val","physical-negative","Valence","SV","","negative",1,1748361756489,"negative",2019.33333333333,833,"A","positive;negative","",6.72503364216684,7.61052270291907,238
"239","5d100e740277ff00152f7562","radiant","test_val","physical-positive","Valence","SV","","positive",1,1748361758112,"positive",3295.16666666667,867,"A","positive;negative","",6.76503897678054,8.10021202734683,239
"240","5d100e740277ff00152f7562","dreaded","test_val","social-negative","Valence","SV","","negative",1,1748361759936,"negative",1980.5,1065,"A","positive;negative","",6.97073007814353,7.59110461706197,240
"241","6772be1363ec1102cc8bc48d","oceanic","test_val","physical-positive","Valence","VS","","positive",1,1748357339199,"positive",1556,818,"A","positive;negative","",6.70686233660275,7.34987370473834,1
"242","6772be1363ec1102cc8bc48d","hilarious","test_val","social-positive","Valence","VS","","positive",1,1748357340542,"positive",1458.16666666667,578,"A","positive;negative","",6.35957386867238,7.28493521787821,2
"243","6772be1363ec1102cc8bc48d","lifeless","test_val","physical-negative","Valence","VS","","negative",1,1748357342263,"negative",1686.66666666667,959,"A","positive;negative","",6.86589107488344,7.4305094736134,3
"244","6772be1363ec1102cc8bc48d","courageous","test_val","social-positive","Valence","VS","","positive",1,1748357343709,"positive",1430.33333333333,679,"A","positive;negative","",6.5206211275587,7.26566279632342,4
"245","6772be1363ec1102cc8bc48d","smelly","test_val","physical-negative","Valence","VS","","negative",1,1748357345234,"negative",1666.5,758,"A","positive;negative","",6.63068338564237,7.41848089774779,5
"246","6772be1363ec1102cc8bc48d","insulting","test_val","social-negative","Valence","VS","","negative",1,1748357346618,"negative",1420.66666666667,625,"A","positive;negative","",6.4377516497364,7.25888152399045,6
"247","6772be1363ec1102cc8bc48d","greedy","test_val","social-negative","Valence","VS","","negative",1,1748357347893,"negative",1569.33333333333,514,"A","positive;negative","",6.24222326545517,7.35840617971206,7
"248","6772be1363ec1102cc8bc48d","radiant","test_val","physical-positive","Valence","VS","","positive",1,1748357349313,"positive",1418.5,666,"A","positive;negative","",6.50128967054039,7.25735525424891,8
"249","6772be1363ec1102cc8bc48d","humiliating","test_val","social-negative","Valence","VS","","negative",1,1748357350942,"negative",1590.33333333333,867,"A","positive;negative","",6.76503897678054,7.371698916848,9
"250","6772be1363ec1102cc8bc48d","floral","test_val","physical-positive","Valence","VS","","positive",1,1748357352356,"positive",1445.5,651,"A","positive;negative","",6.47850964220857,7.2762105614564,10
"251","6772be1363ec1102cc8bc48d","heartbroken","test_val","social-negative","Valence","VS","","negative",1,1748357353865,"negative",1581,749,"A","positive;negative","",6.61873898351722,7.36581283720947,11
"252","6772be1363ec1102cc8bc48d","hateful","test_val","social-negative","Valence","VS","","negative",1,1748357355181,"negative",1546.66666666667,561,"A","positive;negative","",6.3297209055227,7.34385735655219,12
"253","6772be1363ec1102cc8bc48d","grumpy","test_val","social-negative","Valence","VS","","negative",1,1748357356480,"negative",1594.66666666667,539,"A","positive;negative","",6.289715570909,7.37442000696236,13
"254","6772be1363ec1102cc8bc48d","seasick","test_val","physical-negative","Valence","VS","","negative",1,1748357358078,"negative",1630.33333333333,839,"A","positive;negative","",6.73221070646721,7.39653977187125,14
"255","6772be1363ec1102cc8bc48d","witty","test_val","social-positive","Valence","VS","","positive",1,1748357359636,"positive",1579.33333333333,802,"A","positive;negative","",6.68710860786651,7.36475809605062,15
"256","6772be1363ec1102cc8bc48d","joyful","test_val","social-positive","Valence","VS","","positive",1,1748357360965,"positive",1435.83333333333,573,"A","positive;negative","",6.35088571671474,7.26950067973397,16
"257","6772be1363ec1102cc8bc48d","easygoing","test_val","social-positive","Valence","VS","","positive",1,1748357362287,"positive",1464,563,"A","positive;negative","",6.33327962813969,7.28892769452126,17
"258","6772be1363ec1102cc8bc48d","excruciating","test_val","physical-negative","Valence","VS","","negative",1,1748357363776,"negative",1456.83333333333,729,"A","positive;negative","",6.59167373200866,7.28402040935243,18
"259","6772be1363ec1102cc8bc48d","brotherly","test_val","social-positive","Valence","VS","","positive",1,1748357365899,"positive",1769.5,1360,"A","positive;negative","",7.2152399787301,7.47845229978552,19
"260","6772be1363ec1102cc8bc48d","racist","test_val","social-negative","Valence","VS","","negative",1,1748357367264,"negative",1490.66666666667,610,"A","positive;negative","",6.41345895716736,7.30697872616683,20
"261","6772be1363ec1102cc8bc48d","stingy","test_val","social-negative","Valence","VS","","negative",1,1748357368605,"negative",1497.83333333333,582,"A","positive;negative","",6.36647044773144,7.31177489843032,21
"262","6772be1363ec1102cc8bc48d","nutritious","test_val","physical-positive","Valence","VS","","positive",1,1748357369994,"positive",1602.83333333333,622,"A","positive;negative","",6.43294009273918,7.37952817548443,22
"263","6772be1363ec1102cc8bc48d","fluffy","test_val","physical-positive","Valence","VS","","positive",1,1748357371492,"positive",1476,740,"A","positive;negative","",6.60665018619822,7.29709100516042,23
"264","6772be1363ec1102cc8bc48d","moldy","test_val","physical-negative","Valence","VS","","negative",1,1748357373001,"negative",1564.66666666667,748,"A","positive;negative","",6.61740297797448,7.35542808774286,24
"265","6772be1363ec1102cc8bc48d","dreaded","test_val","social-negative","Valence","VS","","negative",1,1748357374392,"negative",1610.66666666667,629,"A","positive;negative","",6.44413125670044,7.38440345094654,25
"266","6772be1363ec1102cc8bc48d","obese","test_val","physical-negative","Valence","VS","","negative",1,1748357375763,"negative",1492,611,"A","positive;negative","",6.4150969591716,7.30787278076371,26
"267","6772be1363ec1102cc8bc48d","cheerful","test_val","social-positive","Valence","VS","","positive",1,1748357377216,"positive",1436.33333333333,688,"A","positive;negative","",6.53378883793334,7.26984884894773,27
"268","6772be1363ec1102cc8bc48d","homemade","test_val","physical-positive","Valence","VS","","positive",1,1748357378777,"positive",1456.83333333333,803,"A","positive;negative","",6.68835471394676,7.28402040935243,28
"269","6772be1363ec1102cc8bc48d","selfless","test_val","social-positive","Valence","VS","","negative",0,1748357380240,"negative",1550.16666666667,703,"A","positive;negative","",6.55535689181067,7.34611773101441,29
"270","6772be1363ec1102cc8bc48d","carefree","test_val","social-positive","Valence","VS","","positive",1,1748357381865,"positive",1467.5,870,"A","positive;negative","",6.76849321164863,7.29131555170225,30
"271","6772be1363ec1102cc8bc48d","itchy","test_val","physical-negative","Valence","VS","","negative",1,1748357383348,"negative",1467.83333333333,722,"A","positive;negative","",6.58202513889283,7.2915426695774,31
"272","6772be1363ec1102cc8bc48d","newborn","test_val","physical-positive","Valence","VS","","positive",1,1748357384933,"positive",1520.83333333333,830,"A","positive;negative","",6.72142570079064,7.32701370922264,32
"273","6772be1363ec1102cc8bc48d","rancid","test_val","physical-negative","Valence","VS","","negative",1,1748357386426,"negative",1572.83333333333,733,"A","positive;negative","",6.59714570188665,7.36063394279328,33
"274","6772be1363ec1102cc8bc48d","dependable","test_val","social-positive","Valence","VS","","negative",0,1748357387865,"negative",1473.5,679,"A","positive;negative","",6.5206211275587,7.29539580217775,34
"275","6772be1363ec1102cc8bc48d","nauseous","test_val","physical-negative","Valence","VS","","negative",1,1748357389513,"negative",1577.66666666667,882,"A","positive;negative","",6.78219205600679,7.36370224123814,35
"276","6772be1363ec1102cc8bc48d","sunny","test_val","physical-positive","Valence","VS","","positive",1,1748357390992,"positive",1681,710,"A","positive;negative","",6.56526497003536,7.42714413340862,36
"277","6772be1363ec1102cc8bc48d","comatose","test_val","physical-negative","Valence","VS","","negative",1,1748357392499,"negative",1631.16666666667,744,"A","positive;negative","",6.61204103483309,7.39705078419776,37
"278","6772be1363ec1102cc8bc48d","infuriating","test_val","social-negative","Valence","VS","","negative",1,1748357394026,"negative",1607.16666666667,763,"A","positive;negative","",6.63725803128446,7.38222807328233,38
"279","6772be1363ec1102cc8bc48d","blooming","test_val","physical-positive","Valence","VS","","positive",1,1748357395459,"positive",1624.83333333333,674,"A","positive;negative","",6.51323011091231,7.39316052540122,39
"280","6772be1363ec1102cc8bc48d","decorative","test_val","physical-positive","Valence","VS","","positive",1,1748357396805,"positive",1415.5,589,"A","positive;negative","",6.37842618365159,7.25523810455195,40
"281","6772be1363ec1102cc8bc48d","rancid","test_val","physical-negative","Valence","VS","","negative",1,1748357398280,"negative",1572.83333333333,718,"A","positive;negative","",6.57646956904822,7.36063394279328,41
"282","6772be1363ec1102cc8bc48d","heartbroken","test_val","social-negative","Valence","VS","","negative",1,1748357399976,"negative",1581,926,"A","positive;negative","",6.83087423464618,7.36581283720947,42
"283","6772be1363ec1102cc8bc48d","smelly","test_val","physical-negative","Valence","VS","","negative",1,1748357401326,"negative",1666.5,591,"A","positive;negative","",6.3818160174061,7.41848089774779,43
"284","6772be1363ec1102cc8bc48d","comatose","test_val","physical-negative","Valence","VS","","negative",1,1748357402683,"negative",1631.16666666667,592,"A","positive;negative","",6.38350663488401,7.39705078419776,44
"285","6772be1363ec1102cc8bc48d","floral","test_val","physical-positive","Valence","VS","","positive",1,1748357404107,"positive",1445.5,663,"A","positive;negative","",6.49677499018586,7.2762105614564,45
"286","6772be1363ec1102cc8bc48d","nutritious","test_val","physical-positive","Valence","VS","","positive",1,1748357405715,"positive",1602.83333333333,851,"A","positive;negative","",6.74641212857337,7.37952817548443,46
"287","6772be1363ec1102cc8bc48d","itchy","test_val","physical-negative","Valence","VS","","negative",1,1748357407107,"negative",1467.83333333333,635,"A","positive;negative","",6.45362499889269,7.2915426695774,47
"288","6772be1363ec1102cc8bc48d","witty","test_val","social-positive","Valence","VS","","positive",1,1748357408759,"positive",1579.33333333333,889,"A","positive;negative","",6.7900972355139,7.36475809605062,48
"289","6772be1363ec1102cc8bc48d","joyful","test_val","social-positive","Valence","VS","","positive",1,1748357410056,"positive",1435.83333333333,538,"A","positive;negative","",6.28785856016178,7.26950067973397,49
"290","6772be1363ec1102cc8bc48d","homemade","test_val","physical-positive","Valence","VS","","positive",1,1748357411528,"positive",1456.83333333333,716,"A","positive;negative","",6.57368016696065,7.28402040935243,50
"291","6772be1363ec1102cc8bc48d","stingy","test_val","social-negative","Valence","VS","","negative",1,1748357413173,"negative",1497.83333333333,880,"A","positive;negative","",6.77992190747225,7.31177489843032,51
"292","6772be1363ec1102cc8bc48d","sunny","test_val","physical-positive","Valence","VS","","positive",1,1748357414603,"positive",1681,669,"A","positive;negative","",6.50578406012823,7.42714413340862,52
"293","6772be1363ec1102cc8bc48d","nauseous","test_val","physical-negative","Valence","VS","","negative",1,1748357416090,"negative",1577.66666666667,719,"A","positive;negative","",6.57786135772105,7.36370224123814,53
"294","6772be1363ec1102cc8bc48d","infuriating","test_val","social-negative","Valence","VS","","positive",0,1748357418007,"positive",1607.16666666667,1155,"A","positive;negative","",7.05185562295589,7.38222807328233,54
"295","6772be1363ec1102cc8bc48d","newborn","test_val","physical-positive","Valence","VS","","positive",1,1748357419537,"positive",1520.83333333333,768,"A","positive;negative","",6.64378973314767,7.32701370922264,55
"296","6772be1363ec1102cc8bc48d","hateful","test_val","social-negative","Valence","VS","","negative",1,1748357421064,"negative",1546.66666666667,767,"A","positive;negative","",6.64248680136726,7.34385735655219,56
"297","6772be1363ec1102cc8bc48d","racist","test_val","social-negative","Valence","VS","","negative",1,1748357422375,"negative",1490.66666666667,544,"A","positive;negative","",6.29894924685594,7.30697872616683,57
"298","6772be1363ec1102cc8bc48d","blooming","test_val","physical-positive","Valence","VS","","positive",1,1748357423730,"positive",1624.83333333333,599,"A","positive;negative","",6.39526159811545,7.39316052540122,58
"299","6772be1363ec1102cc8bc48d","carefree","test_val","social-positive","Valence","VS","","positive",1,1748357425297,"positive",1467.5,794,"A","positive;negative","",6.67708346124714,7.29131555170225,59
"300","6772be1363ec1102cc8bc48d","humiliating","test_val","social-negative","Valence","VS","","negative",1,1748357426781,"negative",1590.33333333333,720,"A","positive;negative","",6.5792512120101,7.371698916848,60
"301","6772be1363ec1102cc8bc48d","moldy","test_val","physical-negative","Valence","VS","","negative",1,1748357428090,"negative",1564.66666666667,555,"A","positive;negative","",6.31896811374643,7.35542808774286,61
"302","6772be1363ec1102cc8bc48d","dependable","test_val","social-positive","Valence","VS","","positive",1,1748357429465,"positive",1473.5,612,"A","positive;negative","",6.41673228251233,7.29539580217775,62
"303","6772be1363ec1102cc8bc48d","cheerful","test_val","social-positive","Valence","VS","","positive",1,1748357430858,"positive",1436.33333333333,630,"A","positive;negative","",6.44571981938558,7.26984884894773,63
"304","6772be1363ec1102cc8bc48d","greedy","test_val","social-negative","Valence","VS","","negative",1,1748357432246,"negative",1569.33333333333,630,"A","positive;negative","",6.44571981938558,7.35840617971206,64
"305","6772be1363ec1102cc8bc48d","oceanic","test_val","physical-positive","Valence","VS","","positive",1,1748357433718,"positive",1556,710,"A","positive;negative","",6.56526497003536,7.34987370473834,65
"306","6772be1363ec1102cc8bc48d","grumpy","test_val","social-negative","Valence","VS","","negative",1,1748357435535,"negative",1594.66666666667,1052,"A","positive;negative","",6.95844839329766,7.37442000696236,66
"307","6772be1363ec1102cc8bc48d","obese","test_val","physical-negative","Valence","VS","","negative",1,1748357437009,"negative",1492,712,"A","positive;negative","",6.56807791141198,7.30787278076371,67
"308","6772be1363ec1102cc8bc48d","courageous","test_val","social-positive","Valence","VS","","positive",1,1748357438390,"positive",1430.33333333333,619,"A","positive;negative","",6.4281052726846,7.26566279632342,68
"309","6772be1363ec1102cc8bc48d","dreaded","test_val","social-negative","Valence","VS","","negative",1,1748357439861,"negative",1610.66666666667,705,"A","positive;negative","",6.55819780281227,7.38440345094654,69
"310","6772be1363ec1102cc8bc48d","insulting","test_val","social-negative","Valence","VS","","negative",1,1748357441258,"negative",1420.66666666667,635,"A","positive;negative","",6.45362499889269,7.25888152399045,70
"311","6772be1363ec1102cc8bc48d","radiant","test_val","physical-positive","Valence","VS","","positive",1,1748357442657,"positive",1418.5,638,"A","positive;negative","",6.45833828334479,7.25735525424891,71
"312","6772be1363ec1102cc8bc48d","lifeless","test_val","physical-negative","Valence","VS","","positive",0,1748357444281,"positive",1686.66666666667,862,"A","positive;negative","",6.75925527066369,7.4305094736134,72
"313","6772be1363ec1102cc8bc48d","easygoing","test_val","social-positive","Valence","VS","","positive",1,1748357445675,"positive",1464,633,"A","positive;negative","",6.45047042214418,7.28892769452126,73
"314","6772be1363ec1102cc8bc48d","seasick","test_val","physical-negative","Valence","VS","","negative",1,1748357447675,"negative",1630.33333333333,1236,"A","positive;negative","",7.11963563801764,7.39653977187125,74
"315","6772be1363ec1102cc8bc48d","excruciating","test_val","physical-negative","Valence","VS","","negative",1,1748357448952,"negative",1456.83333333333,519,"A","positive;negative","",6.25190388316589,7.28402040935243,75
"316","6772be1363ec1102cc8bc48d","brotherly","test_val","social-positive","Valence","VS","","positive",1,1748357450453,"positive",1769.5,737,"A","positive;negative","",6.60258789218934,7.47845229978552,76
"317","6772be1363ec1102cc8bc48d","hilarious","test_val","social-positive","Valence","VS","","positive",1,1748357451949,"positive",1458.16666666667,739,"A","positive;negative","",6.6052979209482,7.28493521787821,77
"318","6772be1363ec1102cc8bc48d","decorative","test_val","physical-positive","Valence","VS","","positive",1,1748357453248,"positive",1415.5,533,"A","positive;negative","",6.27852142416584,7.25523810455195,78
"319","6772be1363ec1102cc8bc48d","fluffy","test_val","physical-positive","Valence","VS","","positive",1,1748357454563,"positive",1476,561,"A","positive;negative","",6.3297209055227,7.29709100516042,79
"320","6772be1363ec1102cc8bc48d","selfless","test_val","social-positive","Valence","VS","","positive",1,1748357455899,"positive",1550.16666666667,574,"A","positive;negative","",6.35262939631957,7.34611773101441,80
"321","6772be1363ec1102cc8bc48d","heartbroken","test_val","social-negative","Valence","VS","","positive",0,1748357457302,"positive",1581,647,"A","positive;negative","",6.4723462945009,7.36581283720947,81
"322","6772be1363ec1102cc8bc48d","seasick","test_val","physical-negative","Valence","VS","","negative",1,1748357458782,"negative",1630.33333333333,722,"A","positive;negative","",6.58202513889283,7.39653977187125,82
"323","6772be1363ec1102cc8bc48d","insulting","test_val","social-negative","Valence","VS","","negative",1,1748357460076,"negative",1420.66666666667,530,"A","positive;negative","",6.27287700654617,7.25888152399045,83
"324","6772be1363ec1102cc8bc48d","dreaded","test_val","social-negative","Valence","VS","","negative",1,1748357461393,"negative",1610.66666666667,554,"A","positive;negative","",6.31716468674728,7.38440345094654,84
"325","6772be1363ec1102cc8bc48d","fluffy","test_val","physical-positive","Valence","VS","","positive",1,1748357462798,"positive",1476,644,"A","positive;negative","",6.46769872610435,7.29709100516042,85
"326","6772be1363ec1102cc8bc48d","nauseous","test_val","physical-negative","Valence","VS","","negative",1,1748357464220,"negative",1577.66666666667,653,"A","positive;negative","",6.48157712927643,7.36370224123814,86
"327","6772be1363ec1102cc8bc48d","oceanic","test_val","physical-positive","Valence","VS","","positive",1,1748357465630,"positive",1556,652,"A","positive;negative","",6.48004456192665,7.34987370473834,87
"328","6772be1363ec1102cc8bc48d","infuriating","test_val","social-negative","Valence","VS","","negative",1,1748357467011,"negative",1607.16666666667,623,"A","positive;negative","",6.43454651878745,7.38222807328233,88
"329","6772be1363ec1102cc8bc48d","hateful","test_val","social-negative","Valence","VS","","negative",1,1748357468624,"negative",1546.66666666667,847,"A","positive;negative","",6.74170069465205,7.34385735655219,89
"330","6772be1363ec1102cc8bc48d","smelly","test_val","physical-negative","Valence","VS","","negative",1,1748357469952,"negative",1666.5,573,"A","positive;negative","",6.35088571671474,7.41848089774779,90
"331","6772be1363ec1102cc8bc48d","lifeless","test_val","physical-negative","Valence","VS","","positive",0,1748357471531,"positive",1686.66666666667,825,"A","positive;negative","",6.71538338633468,7.4305094736134,91
"332","6772be1363ec1102cc8bc48d","brotherly","test_val","social-positive","Valence","VS","","positive",1,1748357473477,"positive",1769.5,1190,"A","positive;negative","",7.08170858610557,7.47845229978552,92
"333","6772be1363ec1102cc8bc48d","stingy","test_val","social-negative","Valence","VS","","negative",1,1748357474906,"negative",1497.83333333333,669,"A","positive;negative","",6.50578406012823,7.31177489843032,93
"334","6772be1363ec1102cc8bc48d","sunny","test_val","physical-positive","Valence","VS","","positive",1,1748357476458,"positive",1681,783,"A","positive;negative","",6.6631326959908,7.42714413340862,94
"335","6772be1363ec1102cc8bc48d","witty","test_val","social-positive","Valence","VS","","positive",1,1748357477996,"positive",1579.33333333333,780,"A","positive;negative","",6.65929391968364,7.36475809605062,95
"336","6772be1363ec1102cc8bc48d","homemade","test_val","physical-positive","Valence","VS","","positive",1,1748357479327,"positive",1456.83333333333,573,"A","positive;negative","",6.35088571671474,7.28402040935243,96
"337","6772be1363ec1102cc8bc48d","selfless","test_val","social-positive","Valence","VS","","positive",1,1748357480964,"positive",1550.16666666667,873,"A","positive;negative","",6.7719355558396,7.34611773101441,97
"338","6772be1363ec1102cc8bc48d","newborn","test_val","physical-positive","Valence","VS","","positive",1,1748357482295,"positive",1520.83333333333,564,"A","positive;negative","",6.33505425149806,7.32701370922264,98
"339","6772be1363ec1102cc8bc48d","joyful","test_val","social-positive","Valence","VS","","positive",1,1748357483653,"positive",1435.83333333333,597,"A","positive;negative","",6.3919171133926,7.26950067973397,99
"340","6772be1363ec1102cc8bc48d","comatose","test_val","physical-negative","Valence","VS","","negative",1,1748357485015,"negative",1631.16666666667,602,"A","positive;negative","",6.40025744530882,7.39705078419776,100
"341","6772be1363ec1102cc8bc48d","obese","test_val","physical-negative","Valence","VS","","negative",1,1748357486297,"negative",1492,524,"A","positive;negative","",6.26149168432104,7.30787278076371,101
"342","6772be1363ec1102cc8bc48d","floral","test_val","physical-positive","Valence","VS","","positive",1,1748357487643,"positive",1445.5,586,"A","positive;negative","",6.37331978957701,7.2762105614564,102
"343","6772be1363ec1102cc8bc48d","humiliating","test_val","social-negative","Valence","VS","","negative",1,1748357489275,"negative",1590.33333333333,871,"A","positive;negative","",6.7696419768525,7.371698916848,103
"344","6772be1363ec1102cc8bc48d","dependable","test_val","social-positive","Valence","VS","","positive",1,1748357490872,"positive",1473.5,842,"A","positive;negative","",6.73578001424233,7.29539580217775,104
"345","6772be1363ec1102cc8bc48d","excruciating","test_val","physical-negative","Valence","VS","","negative",1,1748357492383,"negative",1456.83333333333,754,"A","positive;negative","",6.62539236800796,7.28402040935243,105
"346","6772be1363ec1102cc8bc48d","blooming","test_val","physical-positive","Valence","VS","","positive",1,1748357493861,"positive",1624.83333333333,713,"A","positive;negative","",6.5694814204143,7.39316052540122,106
"347","6772be1363ec1102cc8bc48d","courageous","test_val","social-positive","Valence","VS","","positive",1,1748357495340,"positive",1430.33333333333,722,"A","positive;negative","",6.58202513889283,7.26566279632342,107
"348","6772be1363ec1102cc8bc48d","carefree","test_val","social-positive","Valence","VS","","positive",1,1748357496662,"positive",1467.5,563,"A","positive;negative","",6.33327962813969,7.29131555170225,108
"349","6772be1363ec1102cc8bc48d","nutritious","test_val","physical-positive","Valence","VS","","positive",1,1748357498142,"positive",1602.83333333333,717,"A","positive;negative","",6.57507584059962,7.37952817548443,109
"350","6772be1363ec1102cc8bc48d","itchy","test_val","physical-negative","Valence","VS","","negative",1,1748357499663,"negative",1467.83333333333,767,"A","positive;negative","",6.64248680136726,7.2915426695774,110
"351","6772be1363ec1102cc8bc48d","racist","test_val","social-negative","Valence","VS","","negative",1,1748357501382,"negative",1490.66666666667,954,"A","positive;negative","",6.86066367144829,7.30697872616683,111
"352","6772be1363ec1102cc8bc48d","grumpy","test_val","social-negative","Valence","VS","","negative",1,1748357502815,"negative",1594.66666666667,675,"A","positive;negative","",6.51471269087253,7.37442000696236,112
"353","6772be1363ec1102cc8bc48d","moldy","test_val","physical-negative","Valence","VS","","negative",1,1748357504191,"negative",1564.66666666667,612,"A","positive;negative","",6.41673228251233,7.35542808774286,113
"354","6772be1363ec1102cc8bc48d","greedy","test_val","social-negative","Valence","VS","","negative",1,1748357506241,"negative",1569.33333333333,1289,"A","positive;negative","",7.16162200293919,7.35840617971206,114
"355","6772be1363ec1102cc8bc48d","cheerful","test_val","social-positive","Valence","VS","","positive",1,1748357507689,"positive",1436.33333333333,685,"A","positive;negative","",6.52941883826223,7.26984884894773,115
"356","6772be1363ec1102cc8bc48d","hilarious","test_val","social-positive","Valence","VS","","positive",1,1748357509002,"positive",1458.16666666667,551,"A","positive;negative","",6.31173480915291,7.28493521787821,116
"357","6772be1363ec1102cc8bc48d","decorative","test_val","physical-positive","Valence","VS","","positive",1,1748357510286,"positive",1415.5,522,"A","positive;negative","",6.25766758788264,7.25523810455195,117
"358","6772be1363ec1102cc8bc48d","radiant","test_val","physical-positive","Valence","VS","","positive",1,1748357511646,"positive",1418.5,600,"A","positive;negative","",6.39692965521615,7.25735525424891,118
"359","6772be1363ec1102cc8bc48d","rancid","test_val","physical-negative","Valence","VS","","negative",1,1748357513038,"negative",1572.83333333333,632,"A","positive;negative","",6.44888939414686,7.36063394279328,119
"360","6772be1363ec1102cc8bc48d","easygoing","test_val","social-positive","Valence","VS","","positive",1,1748357514414,"positive",1464,611,"A","positive;negative","",6.4150969591716,7.28892769452126,120
"361","6772be1363ec1102cc8bc48d","witty","test_sp","social-positive","SocPhys","VS","","social",1,1748357606948,"social",1579.33333333333,1062,"A","physical;social","",6.96790920180188,7.36475809605062,121
"362","6772be1363ec1102cc8bc48d","radiant","test_sp","physical-positive","SocPhys","VS","","social",0,1748357608456,"social",1418.5,754,"A","physical;social","",6.62539236800796,7.25735525424891,122
"363","6772be1363ec1102cc8bc48d","racist","test_sp","social-negative","SocPhys","VS","","social",1,1748357609992,"social",1490.66666666667,766,"A","physical;social","",6.64118216974059,7.30697872616683,123
"364","6772be1363ec1102cc8bc48d","nutritious","test_sp","physical-positive","SocPhys","VS","","social",0,1748357611776,"social",1602.83333333333,1023,"A","physical;social","",6.93049476595163,7.37952817548443,124
"365","6772be1363ec1102cc8bc48d","brotherly","test_sp","social-positive","SocPhys","VS","","social",1,1748357613226,"social",1769.5,684,"A","physical;social","",6.52795791762255,7.47845229978552,125
"366","6772be1363ec1102cc8bc48d","cheerful","test_sp","social-positive","SocPhys","VS","","social",1,1748357614729,"social",1436.33333333333,738,"A","physical;social","",6.60394382460047,7.26984884894773,126
"367","6772be1363ec1102cc8bc48d","rancid","test_sp","physical-negative","SocPhys","VS","","social",0,1748357616431,"social",1572.83333333333,941,"A","physical;social","",6.84694313958538,7.36063394279328,127
"368","6772be1363ec1102cc8bc48d","nauseous","test_sp","physical-negative","SocPhys","VS","","social",0,1748357618076,"social",1577.66666666667,886,"A","physical;social","",6.78671695060508,7.36370224123814,128
"369","6772be1363ec1102cc8bc48d","itchy","test_sp","physical-negative","SocPhys","VS","","social",0,1748357619601,"social",1467.83333333333,755,"A","physical;social","",6.62671774924902,7.2915426695774,129
"370","6772be1363ec1102cc8bc48d","comatose","test_sp","physical-negative","SocPhys","VS","","social",0,1748357621945,"social",1631.16666666667,1584,"A","physical;social","",7.36770857237437,7.39705078419776,130
"371","6772be1363ec1102cc8bc48d","homemade","test_sp","physical-positive","SocPhys","VS","","physical",1,1748357623651,"physical",1456.83333333333,950,"A","physical;social","",6.85646198459459,7.28402040935243,131
"372","6772be1363ec1102cc8bc48d","sunny","test_sp","physical-positive","SocPhys","VS","","physical",1,1748357626370,"physical",1681,1963,"A","physical;social","",7.58222919427646,7.42714413340862,132
"373","6772be1363ec1102cc8bc48d","fluffy","test_sp","physical-positive","SocPhys","VS","","physical",1,1748357628028,"physical",1476,901,"A","physical;social","",6.80350525760834,7.29709100516042,133
"374","6772be1363ec1102cc8bc48d","infuriating","test_sp","social-negative","SocPhys","VS","","social",1,1748357629834,"social",1607.16666666667,1045,"A","physical;social","",6.95177216439891,7.38222807328233,134
"375","6772be1363ec1102cc8bc48d","moldy","test_sp","physical-negative","SocPhys","VS","","physical",1,1748357631798,"physical",1564.66666666667,1207,"A","physical;social","",7.09589322109753,7.35542808774286,135
"376","6772be1363ec1102cc8bc48d","courageous","test_sp","social-positive","SocPhys","VS","","social",1,1748357633237,"social",1430.33333333333,675,"A","physical;social","",6.51471269087253,7.26566279632342,136
"377","6772be1363ec1102cc8bc48d","easygoing","test_sp","social-positive","SocPhys","VS","","social",1,1748357634809,"social",1464,812,"A","physical;social","",6.69950034016168,7.28892769452126,137
"378","6772be1363ec1102cc8bc48d","oceanic","test_sp","physical-positive","SocPhys","VS","","physical",1,1748357636564,"physical",1556,990,"A","physical;social","",6.89770494312864,7.34987370473834,138
"379","6772be1363ec1102cc8bc48d","floral","test_sp","physical-positive","SocPhys","VS","","physical",1,1748357638099,"physical",1445.5,778,"A","physical;social","",6.65672652417839,7.2762105614564,139
"380","6772be1363ec1102cc8bc48d","dependable","test_sp","social-positive","SocPhys","VS","","social",1,1748357639586,"social",1473.5,729,"A","physical;social","",6.59167373200866,7.29539580217775,140
"381","6772be1363ec1102cc8bc48d","dreaded","test_sp","social-negative","SocPhys","VS","","social",1,1748357641448,"social",1610.66666666667,1093,"A","physical;social","",6.99668148817654,7.38440345094654,141
"382","6772be1363ec1102cc8bc48d","blooming","test_sp","physical-positive","SocPhys","VS","","physical",1,1748357643705,"physical",1624.83333333333,1498,"A","physical;social","",7.31188616407716,7.39316052540122,142
"383","6772be1363ec1102cc8bc48d","seasick","test_sp","physical-negative","SocPhys","VS","","physical",1,1748357645671,"physical",1630.33333333333,1205,"A","physical;social","",7.09423484592476,7.39653977187125,143
"384","6772be1363ec1102cc8bc48d","selfless","test_sp","social-positive","SocPhys","VS","","social",1,1748357647264,"social",1550.16666666667,830,"A","physical;social","",6.72142570079064,7.34611773101441,144
"385","6772be1363ec1102cc8bc48d","carefree","test_sp","social-positive","SocPhys","VS","","social",1,1748357648788,"social",1467.5,758,"A","physical;social","",6.63068338564237,7.29131555170225,145
"386","6772be1363ec1102cc8bc48d","hateful","test_sp","social-negative","SocPhys","VS","","social",1,1748357650512,"social",1546.66666666667,967,"A","physical;social","",6.87419849545329,7.34385735655219,146
"387","6772be1363ec1102cc8bc48d","humiliating","test_sp","social-negative","SocPhys","VS","","social",1,1748357652295,"social",1590.33333333333,1023,"A","physical;social","",6.93049476595163,7.371698916848,147
"388","6772be1363ec1102cc8bc48d","grumpy","test_sp","social-negative","SocPhys","VS","","social",1,1748357653906,"social",1594.66666666667,851,"A","physical;social","",6.74641212857337,7.37442000696236,148
"389","6772be1363ec1102cc8bc48d","newborn","test_sp","physical-positive","SocPhys","VS","","physical",1,1748357655591,"physical",1520.83333333333,927,"A","physical;social","",6.83195356556585,7.32701370922264,149
"390","6772be1363ec1102cc8bc48d","obese","test_sp","physical-negative","SocPhys","VS","","physical",1,1748357657429,"physical",1492,1075,"A","physical;social","",6.98007594056176,7.30787278076371,150
"391","6772be1363ec1102cc8bc48d","heartbroken","test_sp","social-negative","SocPhys","VS","","social",1,1748357659052,"social",1581,861,"A","physical;social","",6.75809450442773,7.36581283720947,151
"392","6772be1363ec1102cc8bc48d","smelly","test_sp","physical-negative","SocPhys","VS","","physical",1,1748357661554,"physical",1666.5,1741,"A","physical;social","",7.46221493976819,7.41848089774779,152
"393","6772be1363ec1102cc8bc48d","decorative","test_sp","physical-positive","SocPhys","VS","","physical",1,1748357663239,"physical",1415.5,926,"A","physical;social","",6.83087423464618,7.25523810455195,153
"394","6772be1363ec1102cc8bc48d","excruciating","test_sp","physical-negative","SocPhys","VS","","social",0,1748357664887,"social",1456.83333333333,884,"A","physical;social","",6.78445706263764,7.28402040935243,154
"395","6772be1363ec1102cc8bc48d","hilarious","test_sp","social-positive","SocPhys","VS","","social",1,1748357666654,"social",1458.16666666667,1003,"A","physical;social","",6.91075078796194,7.28493521787821,155
"396","6772be1363ec1102cc8bc48d","stingy","test_sp","social-negative","SocPhys","VS","","social",1,1748357668384,"social",1497.83333333333,970,"A","physical;social","",6.87729607149743,7.31177489843032,156
"397","6772be1363ec1102cc8bc48d","lifeless","test_sp","physical-negative","SocPhys","VS","","social",0,1748357670078,"social",1686.66666666667,934,"A","physical;social","",6.83947643822884,7.4305094736134,157
"398","6772be1363ec1102cc8bc48d","joyful","test_sp","social-positive","SocPhys","VS","","social",1,1748357671773,"social",1435.83333333333,929,"A","physical;social","",6.83410873881384,7.26950067973397,158
"399","6772be1363ec1102cc8bc48d","greedy","test_sp","social-negative","SocPhys","VS","","social",1,1748357673530,"social",1569.33333333333,992,"A","physical;social","",6.89972310728487,7.35840617971206,159
"400","6772be1363ec1102cc8bc48d","insulting","test_sp","social-negative","SocPhys","VS","","social",1,1748357675035,"social",1420.66666666667,739,"A","physical;social","",6.6052979209482,7.25888152399045,160
"401","6772be1363ec1102cc8bc48d","heartbroken","test_sp","social-negative","SocPhys","VS","","social",1,1748357676689,"social",1581,892,"A","physical;social","",6.79346613258001,7.36581283720947,161
"402","6772be1363ec1102cc8bc48d","courageous","test_sp","social-positive","SocPhys","VS","","social",1,1748357678116,"social",1430.33333333333,671,"A","physical;social","",6.50876913697168,7.26566279632342,162
"403","6772be1363ec1102cc8bc48d","lifeless","test_sp","physical-negative","SocPhys","VS","","physical",1,1748357680191,"physical",1686.66666666667,1308,"A","physical;social","",7.17625453201714,7.4305094736134,163
"404","6772be1363ec1102cc8bc48d","humiliating","test_sp","social-negative","SocPhys","VS","","social",1,1748357681684,"social",1590.33333333333,737,"A","physical;social","",6.60258789218934,7.371698916848,164
"405","6772be1363ec1102cc8bc48d","witty","test_sp","social-positive","SocPhys","VS","","social",1,1748357683167,"social",1579.33333333333,721,"A","physical;social","",6.58063913728495,7.36475809605062,165
"406","6772be1363ec1102cc8bc48d","newborn","test_sp","physical-positive","SocPhys","VS","","physical",1,1748357684813,"physical",1520.83333333333,890,"A","physical;social","",6.79122146272619,7.32701370922264,166
"407","6772be1363ec1102cc8bc48d","hateful","test_sp","social-negative","SocPhys","VS","","social",1,1748357686280,"social",1546.66666666667,700,"A","physical;social","",6.5510803350434,7.34385735655219,167
"408","6772be1363ec1102cc8bc48d","insulting","test_sp","social-negative","SocPhys","VS","","social",1,1748357687842,"social",1420.66666666667,796,"A","physical;social","",6.67959918584438,7.25888152399045,168
"409","6772be1363ec1102cc8bc48d","excruciating","test_sp","physical-negative","SocPhys","VS","","social",0,1748357689271,"social",1456.83333333333,672,"A","physical;social","",6.51025834052315,7.28402040935243,169
"410","6772be1363ec1102cc8bc48d","hilarious","test_sp","social-positive","SocPhys","VS","","social",1,1748357690747,"social",1458.16666666667,720,"A","physical;social","",6.5792512120101,7.28493521787821,170
"411","6772be1363ec1102cc8bc48d","carefree","test_sp","social-positive","SocPhys","VS","","social",1,1748357692235,"social",1467.5,722,"A","physical;social","",6.58202513889283,7.29131555170225,171
"412","6772be1363ec1102cc8bc48d","smelly","test_sp","physical-negative","SocPhys","VS","","physical",1,1748357693713,"physical",1666.5,724,"A","physical;social","",6.58479139238572,7.41848089774779,172
"413","6772be1363ec1102cc8bc48d","racist","test_sp","social-negative","SocPhys","VS","","social",1,1748357695225,"social",1490.66666666667,751,"A","physical;social","",6.62140565176413,7.30697872616683,173
"414","6772be1363ec1102cc8bc48d","rancid","test_sp","physical-negative","SocPhys","VS","","physical",1,1748357696888,"physical",1572.83333333333,901,"A","physical;social","",6.80350525760834,7.36063394279328,174
"415","6772be1363ec1102cc8bc48d","cheerful","test_sp","social-positive","SocPhys","VS","","social",1,1748357698369,"social",1436.33333333333,713,"A","physical;social","",6.5694814204143,7.26984884894773,175
"416","6772be1363ec1102cc8bc48d","blooming","test_sp","physical-positive","SocPhys","VS","","physical",1,1748357700047,"physical",1624.83333333333,918,"A","physical;social","",6.82219739062049,7.39316052540122,176
"417","6772be1363ec1102cc8bc48d","seasick","test_sp","physical-negative","SocPhys","VS","","physical",1,1748357701405,"physical",1630.33333333333,605,"A","physical;social","",6.40522845803084,7.39653977187125,177
"418","6772be1363ec1102cc8bc48d","floral","test_sp","physical-positive","SocPhys","VS","","physical",1,1748357702897,"physical",1445.5,723,"A","physical;social","",6.58340922215876,7.2762105614564,178
"419","6772be1363ec1102cc8bc48d","greedy","test_sp","social-negative","SocPhys","VS","","social",1,1748357704467,"social",1569.33333333333,810,"A","physical;social","",6.69703424766648,7.35840617971206,179
"420","6772be1363ec1102cc8bc48d","infuriating","test_sp","social-negative","SocPhys","VS","","social",1,1748357706062,"social",1607.16666666667,836,"A","physical;social","",6.7286286130847,7.38222807328233,180
"421","6772be1363ec1102cc8bc48d","decorative","test_sp","physical-positive","SocPhys","VS","","physical",1,1748357707520,"physical",1415.5,690,"A","physical;social","",6.5366915975913,7.25523810455195,181
"422","6772be1363ec1102cc8bc48d","nauseous","test_sp","physical-negative","SocPhys","VS","","social",0,1748357708893,"social",1577.66666666667,613,"A","physical;social","",6.41836493593621,7.36370224123814,182
"423","6772be1363ec1102cc8bc48d","sunny","test_sp","physical-positive","SocPhys","VS","","physical",1,1748357710396,"physical",1681,744,"A","physical;social","",6.61204103483309,7.42714413340862,183
"424","6772be1363ec1102cc8bc48d","comatose","test_sp","physical-negative","SocPhys","VS","","social",0,1748357712076,"social",1631.16666666667,914,"A","physical;social","",6.81783057145415,7.39705078419776,184
"425","6772be1363ec1102cc8bc48d","dependable","test_sp","social-positive","SocPhys","VS","","physical",0,1748357713504,"physical",1473.5,667,"A","physical;social","",6.50279004591562,7.29539580217775,185
"426","6772be1363ec1102cc8bc48d","oceanic","test_sp","physical-positive","SocPhys","VS","","physical",1,1748357715229,"physical",1556,966,"A","physical;social","",6.87316383421252,7.34987370473834,186
"427","6772be1363ec1102cc8bc48d","moldy","test_sp","physical-negative","SocPhys","VS","","physical",1,1748357716806,"physical",1564.66666666667,811,"A","physical;social","",6.69826805411541,7.35542808774286,187
"428","6772be1363ec1102cc8bc48d","radiant","test_sp","physical-positive","SocPhys","VS","","social",0,1748357718251,"social",1418.5,681,"A","physical;social","",6.52356230614951,7.25735525424891,188
"429","6772be1363ec1102cc8bc48d","selfless","test_sp","social-positive","SocPhys","VS","","physical",0,1748357719840,"physical",1550.16666666667,832,"A","physical;social","",6.72383244082121,7.34611773101441,189
"430","6772be1363ec1102cc8bc48d","brotherly","test_sp","social-positive","SocPhys","VS","","social",1,1748357722014,"social",1769.5,1411,"A","physical;social","",7.25205395185281,7.47845229978552,190
"431","6772be1363ec1102cc8bc48d","stingy","test_sp","social-negative","SocPhys","VS","","social",1,1748357723402,"social",1497.83333333333,624,"A","physical;social","",6.43615036836943,7.31177489843032,191
"432","6772be1363ec1102cc8bc48d","easygoing","test_sp","social-positive","SocPhys","VS","","social",1,1748357724886,"social",1464,719,"A","physical;social","",6.57786135772105,7.28892769452126,192
"433","6772be1363ec1102cc8bc48d","obese","test_sp","physical-negative","SocPhys","VS","","physical",1,1748357726504,"physical",1492,863,"A","physical;social","",6.76041469108343,7.30787278076371,193
"434","6772be1363ec1102cc8bc48d","grumpy","test_sp","social-negative","SocPhys","VS","","social",1,1748357728330,"social",1594.66666666667,1068,"A","physical;social","",6.97354301952014,7.37442000696236,194
"435","6772be1363ec1102cc8bc48d","joyful","test_sp","social-positive","SocPhys","VS","","social",1,1748357729738,"social",1435.83333333333,654,"A","physical;social","",6.4831073514572,7.26950067973397,195
"436","6772be1363ec1102cc8bc48d","fluffy","test_sp","physical-positive","SocPhys","VS","","physical",1,1748357731284,"physical",1476,785,"A","physical;social","",6.66568371778241,7.29709100516042,196
"437","6772be1363ec1102cc8bc48d","homemade","test_sp","physical-positive","SocPhys","VS","","physical",1,1748357732623,"physical",1456.83333333333,576,"A","physical;social","",6.35610766069589,7.28402040935243,197
"438","6772be1363ec1102cc8bc48d","nutritious","test_sp","physical-positive","SocPhys","VS","","social",0,1748357734588,"social",1602.83333333333,1206,"A","physical;social","",7.09506437728713,7.37952817548443,198
"439","6772be1363ec1102cc8bc48d","dreaded","test_sp","social-negative","SocPhys","VS","","social",1,1748357736626,"social",1610.66666666667,1272,"A","physical;social","",7.14834574390007,7.38440345094654,199
"440","6772be1363ec1102cc8bc48d","itchy","test_sp","physical-negative","SocPhys","VS","","social",0,1748357738081,"social",1467.83333333333,694,"A","physical;social","",6.5424719605068,7.2915426695774,200
"441","6772be1363ec1102cc8bc48d","homemade","test_sp","physical-positive","SocPhys","VS","","physical",1,1748357739425,"physical",1456.83333333333,580,"A","physical;social","",6.36302810354046,7.28402040935243,201
"442","6772be1363ec1102cc8bc48d","courageous","test_sp","social-positive","SocPhys","VS","","social",1,1748357740847,"social",1430.33333333333,667,"A","physical;social","",6.50279004591562,7.26566279632342,202
"443","6772be1363ec1102cc8bc48d","easygoing","test_sp","social-positive","SocPhys","VS","","social",1,1748357742495,"social",1464,883,"A","physical;social","",6.78332520060396,7.28892769452126,203
"444","6772be1363ec1102cc8bc48d","nauseous","test_sp","physical-negative","SocPhys","VS","","physical",1,1748357744395,"physical",1577.66666666667,1137,"A","physical;social","",7.03614849375054,7.36370224123814,204
"445","6772be1363ec1102cc8bc48d","cheerful","test_sp","social-positive","SocPhys","VS","","social",1,1748357745746,"social",1436.33333333333,585,"A","physical;social","",6.37161184723186,7.26984884894773,205
"446","6772be1363ec1102cc8bc48d","fluffy","test_sp","physical-positive","SocPhys","VS","","physical",1,1748357747194,"physical",1476,686,"A","physical;social","",6.53087762772588,7.29709100516042,206
"447","6772be1363ec1102cc8bc48d","rancid","test_sp","physical-negative","SocPhys","VS","","physical",1,1748357748918,"physical",1572.83333333333,959,"A","physical;social","",6.86589107488344,7.36063394279328,207
"448","6772be1363ec1102cc8bc48d","obese","test_sp","physical-negative","SocPhys","VS","","physical",1,1748357750296,"physical",1492,615,"A","physical;social","",6.42162226780652,7.30787278076371,208
"449","6772be1363ec1102cc8bc48d","blooming","test_sp","physical-positive","SocPhys","VS","","physical",1,1748357751855,"physical",1624.83333333333,795,"A","physical;social","",6.67834211465433,7.39316052540122,209
"450","6772be1363ec1102cc8bc48d","seasick","test_sp","physical-negative","SocPhys","VS","","physical",1,1748357753246,"physical",1630.33333333333,635,"A","physical;social","",6.45362499889269,7.39653977187125,210
"451","6772be1363ec1102cc8bc48d","itchy","test_sp","physical-negative","SocPhys","VS","","social",0,1748357754689,"social",1467.83333333333,680,"A","physical;social","",6.52209279817015,7.2915426695774,211
"452","6772be1363ec1102cc8bc48d","joyful","test_sp","social-positive","SocPhys","VS","","social",1,1748357756230,"social",1435.83333333333,777,"A","physical;social","",6.65544035036765,7.26950067973397,212
"453","6772be1363ec1102cc8bc48d","humiliating","test_sp","social-negative","SocPhys","VS","","social",1,1748357757763,"social",1590.33333333333,769,"A","physical;social","",6.64509096950564,7.371698916848,213
"454","6772be1363ec1102cc8bc48d","carefree","test_sp","social-positive","SocPhys","VS","","social",1,1748357759054,"social",1467.5,533,"A","physical;social","",6.27852142416584,7.29131555170225,214
"455","6772be1363ec1102cc8bc48d","stingy","test_sp","social-negative","SocPhys","VS","","social",1,1748357760520,"social",1497.83333333333,700,"A","physical;social","",6.5510803350434,7.31177489843032,215
"456","6772be1363ec1102cc8bc48d","insulting","test_sp","social-negative","SocPhys","VS","","social",1,1748357761914,"social",1420.66666666667,627,"A","physical;social","",6.44094654063292,7.25888152399045,216
"457","6772be1363ec1102cc8bc48d","nutritious","test_sp","physical-positive","SocPhys","VS","","physical",1,1748357763317,"physical",1602.83333333333,638,"A","physical;social","",6.45833828334479,7.37952817548443,217
"458","6772be1363ec1102cc8bc48d","dreaded","test_sp","social-negative","SocPhys","VS","","social",1,1748357764915,"social",1610.66666666667,833,"A","physical;social","",6.72503364216684,7.38440345094654,218
"459","6772be1363ec1102cc8bc48d","hilarious","test_sp","social-positive","SocPhys","VS","","social",1,1748357766281,"social",1458.16666666667,607,"A","physical;social","",6.4085287910595,7.28493521787821,219
"460","6772be1363ec1102cc8bc48d","comatose","test_sp","physical-negative","SocPhys","VS","","physical",1,1748357767828,"physical",1631.16666666667,781,"A","physical;social","",6.66057514983969,7.39705078419776,220
"461","6772be1363ec1102cc8bc48d","greedy","test_sp","social-negative","SocPhys","VS","","social",1,1748357769217,"social",1569.33333333333,630,"A","physical;social","",6.44571981938558,7.35840617971206,221
"462","6772be1363ec1102cc8bc48d","selfless","test_sp","social-positive","SocPhys","VS","","social",1,1748357770911,"social",1550.16666666667,933,"A","physical;social","",6.83840520084734,7.34611773101441,222
"463","6772be1363ec1102cc8bc48d","grumpy","test_sp","social-negative","SocPhys","VS","","social",1,1748357772507,"social",1594.66666666667,828,"A","physical;social","",6.71901315438526,7.37442000696236,223
"464","6772be1363ec1102cc8bc48d","racist","test_sp","social-negative","SocPhys","VS","","social",1,1748357774018,"social",1490.66666666667,747,"A","physical;social","",6.61606518513282,7.30697872616683,224
"465","6772be1363ec1102cc8bc48d","moldy","test_sp","physical-negative","SocPhys","VS","","physical",1,1748357775684,"physical",1564.66666666667,907,"A","physical;social","",6.81014245011514,7.35542808774286,225
"466","6772be1363ec1102cc8bc48d","hateful","test_sp","social-negative","SocPhys","VS","","social",1,1748357777325,"social",1546.66666666667,881,"A","physical;social","",6.78105762593618,7.34385735655219,226
"467","6772be1363ec1102cc8bc48d","sunny","test_sp","physical-positive","SocPhys","VS","","physical",1,1748357778739,"physical",1681,649,"A","physical;social","",6.47543271670409,7.42714413340862,227
"468","6772be1363ec1102cc8bc48d","smelly","test_sp","physical-negative","SocPhys","VS","","physical",1,1748357780567,"physical",1666.5,1061,"A","physical;social","",6.96696713861398,7.41848089774779,228
"469","6772be1363ec1102cc8bc48d","excruciating","test_sp","physical-negative","SocPhys","VS","","social",0,1748357781963,"social",1456.83333333333,630,"A","physical;social","",6.44571981938558,7.28402040935243,229
"470","6772be1363ec1102cc8bc48d","lifeless","test_sp","physical-negative","SocPhys","VS","","social",0,1748357783402,"social",1686.66666666667,672,"A","physical;social","",6.51025834052315,7.4305094736134,230
"471","6772be1363ec1102cc8bc48d","oceanic","test_sp","physical-positive","SocPhys","VS","","physical",1,1748357784814,"physical",1556,652,"A","physical;social","",6.48004456192665,7.34987370473834,231
"472","6772be1363ec1102cc8bc48d","newborn","test_sp","physical-positive","SocPhys","VS","","physical",1,1748357786171,"physical",1520.83333333333,592,"A","physical;social","",6.38350663488401,7.32701370922264,232
"473","6772be1363ec1102cc8bc48d","brotherly","test_sp","social-positive","SocPhys","VS","","social",1,1748357787605,"social",1769.5,679,"A","physical;social","",6.5206211275587,7.47845229978552,233
"474","6772be1363ec1102cc8bc48d","radiant","test_sp","physical-positive","SocPhys","VS","","social",0,1748357788995,"social",1418.5,622,"A","physical;social","",6.43294009273918,7.25735525424891,234
"475","6772be1363ec1102cc8bc48d","floral","test_sp","physical-positive","SocPhys","VS","","physical",1,1748357790468,"physical",1445.5,706,"A","physical;social","",6.55961523749324,7.2762105614564,235
"476","6772be1363ec1102cc8bc48d","infuriating","test_sp","social-negative","SocPhys","VS","","social",1,1748357791897,"social",1607.16666666667,668,"A","physical;social","",6.50428817353665,7.38222807328233,236
