#
# Results on Tue, 15 Apr 2025 13:36:47 GMT
# USER AGENT: Mozilla/5.0 (Windows NT 10.0; Win64; x64) AppleWebKit/537.36 (KHTML, like Gecko) Chrome/135.0.0.0 Safari/537.36
# Design number was non-random = 0
#
# Columns below this comment are as follows:
# 1. Results reception time.
# 2. MD5 hash of participant's IP address.
# 3. Controller name.
# 4. Order number of item.
# 5. Inner element number.
# 6. Label.
# 7. Latin Square Group.
# 8. PennElementType.
# 9. PennElementName.
# 10. Parameter.
# 11. Value.
# 12. EventTime.
# 13. Comments.
1744724207,c4f4e3dd6a8062956bb6c6f821d743d7,PennController,1,0,welcome,NULL,PennController,0,_Trial_,Start,1744723612606,NULL
1744724207,c4f4e3dd6a8062956bb6c6f821d743d7,PennController,1,0,welcome,NULL,PennController,0,_Header_,Start,1744723612606,NULL
1744724207,c4f4e3dd6a8062956bb6c6f821d743d7,PennController,1,0,welcome,NULL,PennController,0,_Header_,End,1744723612859,NULL
1744724207,c4f4e3dd6a8062956bb6c6f821d743d7,PennController,1,0,welcome,NULL,PennController,0,_Trial_,End,1744723621225,NULL
# 13. ID.
# 14. Comments.
1744724207,c4f4e3dd6a8062956bb6c6f821d743d7,PennController,124,0,consent,NULL,PennController,2,_Trial_,Start,1744723621228,66c740207361f403840a7f2d,NULL
1744724207,c4f4e3dd6a8062956bb6c6f821d743d7,PennController,124,0,consent,NULL,PennController,2,_Header_,Start,1744723621228,66c740207361f403840a7f2d,NULL
1744724207,c4f4e3dd6a8062956bb6c6f821d743d7,PennController,124,0,consent,NULL,PennController,2,_Header_,End,1744723621480,66c740207361f403840a7f2d,NULL
1744724207,c4f4e3dd6a8062956bb6c6f821d743d7,PennController,124,0,consent,NULL,TextInput,ID,Final,66c740207361f403840a7f2d,1744723648344,66c740207361f403840a7f2d,NULL
1744724207,c4f4e3dd6a8062956bb6c6f821d743d7,PennController,124,0,consent,NULL,PennController,2,_Trial_,End,1744723648345,66c740207361f403840a7f2d,NULL
# 13. Comments.
1744724207,c4f4e3dd6a8062956bb6c6f821d743d7,PennController,132,0,instructions1_sp,NULL,PennController,10,_Trial_,Start,1744723648346,NULL
1744724207,c4f4e3dd6a8062956bb6c6f821d743d7,PennController,132,0,instructions1_sp,NULL,PennController,10,_Header_,Start,1744723648346,NULL
1744724207,c4f4e3dd6a8062956bb6c6f821d743d7,PennController,132,0,instructions1_sp,NULL,PennController,10,_Header_,End,1744723648599,NULL
1744724207,c4f4e3dd6a8062956bb6c6f821d743d7,PennController,132,0,instructions1_sp,NULL,PennController,10,_Trial_,End,1744723661256,NULL
1744724207,c4f4e3dd6a8062956bb6c6f821d743d7,PennController,133,0,instructions2_sp,NULL,PennController,11,_Trial_,Start,1744723661257,NULL
1744724207,c4f4e3dd6a8062956bb6c6f821d743d7,PennController,133,0,instructions2_sp,NULL,PennController,11,_Header_,Start,1744723661257,NULL
1744724207,c4f4e3dd6a8062956bb6c6f821d743d7,PennController,133,0,instructions2_sp,NULL,PennController,11,_Header_,End,1744723661508,NULL
1744724207,c4f4e3dd6a8062956bb6c6f821d743d7,PennController,133,0,instructions2_sp,NULL,PennController,11,_Trial_,End,1744723666372,NULL
1744724207,c4f4e3dd6a8062956bb6c6f821d743d7,PennController,128,0,instructions3_hands,NULL,PennController,6,_Trial_,Start,1744723666373,NULL
1744724207,c4f4e3dd6a8062956bb6c6f821d743d7,PennController,128,0,instructions3_hands,NULL,PennController,6,_Header_,Start,1744723666373,NULL
1744724207,c4f4e3dd6a8062956bb6c6f821d743d7,PennController,128,0,instructions3_hands,NULL,PennController,6,_Header_,End,1744723666624,NULL
1744724207,c4f4e3dd6a8062956bb6c6f821d743d7,PennController,128,0,instructions3_hands,NULL,PennController,6,_Trial_,End,1744723670507,NULL
1744724207,c4f4e3dd6a8062956bb6c6f821d743d7,PennController,135,0,practice_intro_sp,NULL,PennController,13,_Trial_,Start,1744723670508,NULL
1744724207,c4f4e3dd6a8062956bb6c6f821d743d7,PennController,135,0,practice_intro_sp,NULL,PennController,13,_Header_,Start,1744723670508,NULL
1744724207,c4f4e3dd6a8062956bb6c6f821d743d7,PennController,135,0,practice_intro_sp,NULL,PennController,13,_Header_,End,1744723670759,NULL
1744724207,c4f4e3dd6a8062956bb6c6f821d743d7,PennController,135,0,practice_intro_sp,NULL,PennController,13,_Trial_,End,1744723672679,NULL
# 13. ID.
# 14. ReactionTime.
# 15. Word.
# 16. selectedKey.
# 17. selectedValue.
# 18. Key_value_F.
# 19. Key_value_J.
# 20. Group.
# 21. Comments.
1744724207,c4f4e3dd6a8062956bb6c6f821d743d7,PennController,87,0,calibrator_sp_feedback,NULL,PennController,98,_Trial_,Start,1744723672682,undefined,1833,frozen,undefined,physical,social,physical,B,NULL
1744724207,c4f4e3dd6a8062956bb6c6f821d743d7,PennController,87,0,calibrator_sp_feedback,NULL,PennController,98,_Header_,Start,1744723672682,undefined,1833,frozen,undefined,physical,social,physical,B,NULL
1744724207,c4f4e3dd6a8062956bb6c6f821d743d7,PennController,87,0,calibrator_sp_feedback,NULL,PennController,98,_Header_,End,1744723672933,undefined,1833,frozen,undefined,physical,social,physical,B,NULL
1744724207,c4f4e3dd6a8062956bb6c6f821d743d7,PennController,87,0,calibrator_sp_feedback,NULL,Selector,Selection,Selection,physical,1744723675269,undefined,1833,frozen,undefined,physical,social,physical,B,social;physical
1744724207,c4f4e3dd6a8062956bb6c6f821d743d7,PennController,87,0,calibrator_sp_feedback,NULL,PennController,98,_Trial_,End,1744723677277,undefined,1833,frozen,undefined,physical,social,physical,B,NULL
1744724207,c4f4e3dd6a8062956bb6c6f821d743d7,PennController,89,0,calibrator_sp_feedback,NULL,PennController,100,_Trial_,Start,1744723677278,undefined,736,loyal,undefined,physical,social,physical,B,NULL
1744724207,c4f4e3dd6a8062956bb6c6f821d743d7,PennController,89,0,calibrator_sp_feedback,NULL,PennController,100,_Header_,Start,1744723677278,undefined,736,loyal,undefined,physical,social,physical,B,NULL
1744724207,c4f4e3dd6a8062956bb6c6f821d743d7,PennController,89,0,calibrator_sp_feedback,NULL,PennController,100,_Header_,End,1744723677531,undefined,736,loyal,undefined,physical,social,physical,B,NULL
1744724207,c4f4e3dd6a8062956bb6c6f821d743d7,PennController,89,0,calibrator_sp_feedback,NULL,Selector,Selection,Selection,social,1744723680603,undefined,736,loyal,undefined,physical,social,physical,B,social;physical
1744724207,c4f4e3dd6a8062956bb6c6f821d743d7,PennController,89,0,calibrator_sp_feedback,NULL,PennController,100,_Trial_,End,1744723680780,undefined,736,loyal,undefined,physical,social,physical,B,NULL
1744724207,c4f4e3dd6a8062956bb6c6f821d743d7,PennController,88,0,calibrator_sp_feedback,NULL,PennController,99,_Trial_,Start,1744723680783,undefined,1290,round,undefined,physical,social,physical,B,NULL
1744724207,c4f4e3dd6a8062956bb6c6f821d743d7,PennController,88,0,calibrator_sp_feedback,NULL,PennController,99,_Header_,Start,1744723680783,undefined,1290,round,undefined,physical,social,physical,B,NULL
1744724207,c4f4e3dd6a8062956bb6c6f821d743d7,PennController,88,0,calibrator_sp_feedback,NULL,PennController,99,_Header_,End,1744723681034,undefined,1290,round,undefined,physical,social,physical,B,NULL
1744724207,c4f4e3dd6a8062956bb6c6f821d743d7,PennController,88,0,calibrator_sp_feedback,NULL,Selector,Selection,Selection,physical,1744723683341,undefined,1290,round,undefined,physical,social,physical,B,social;physical
1744724207,c4f4e3dd6a8062956bb6c6f821d743d7,PennController,88,0,calibrator_sp_feedback,NULL,PennController,99,_Trial_,End,1744723684832,undefined,1290,round,undefined,physical,social,physical,B,NULL
1744724207,c4f4e3dd6a8062956bb6c6f821d743d7,PennController,86,0,calibrator_sp_feedback,NULL,PennController,97,_Trial_,Start,1744723684835,undefined,1485,wet,undefined,physical,social,physical,B,NULL
1744724207,c4f4e3dd6a8062956bb6c6f821d743d7,PennController,86,0,calibrator_sp_feedback,NULL,PennController,97,_Header_,Start,1744723684835,undefined,1485,wet,undefined,physical,social,physical,B,NULL
1744724207,c4f4e3dd6a8062956bb6c6f821d743d7,PennController,86,0,calibrator_sp_feedback,NULL,PennController,97,_Header_,End,1744723685088,undefined,1485,wet,undefined,physical,social,physical,B,NULL
1744724207,c4f4e3dd6a8062956bb6c6f821d743d7,PennController,86,0,calibrator_sp_feedback,NULL,Selector,Selection,Selection,physical,1744723688608,undefined,1485,wet,undefined,physical,social,physical,B,social;physical
1744724207,c4f4e3dd6a8062956bb6c6f821d743d7,PennController,86,0,calibrator_sp_feedback,NULL,PennController,97,_Trial_,End,1744723689081,undefined,1485,wet,undefined,physical,social,physical,B,NULL
1744724207,c4f4e3dd6a8062956bb6c6f821d743d7,PennController,93,0,calibrator_sp_feedback,NULL,PennController,104,_Trial_,Start,1744723689084,undefined,1124,comforting,undefined,physical,social,physical,B,NULL
1744724207,c4f4e3dd6a8062956bb6c6f821d743d7,PennController,93,0,calibrator_sp_feedback,NULL,PennController,104,_Header_,Start,1744723689084,undefined,1124,comforting,undefined,physical,social,physical,B,NULL
1744724207,c4f4e3dd6a8062956bb6c6f821d743d7,PennController,93,0,calibrator_sp_feedback,NULL,PennController,104,_Header_,End,1744723689334,undefined,1124,comforting,undefined,physical,social,physical,B,NULL
1744724207,c4f4e3dd6a8062956bb6c6f821d743d7,PennController,93,0,calibrator_sp_feedback,NULL,Selector,Selection,Selection,social,1744723691725,undefined,1124,comforting,undefined,physical,social,physical,B,social;physical
1744724207,c4f4e3dd6a8062956bb6c6f821d743d7,PennController,93,0,calibrator_sp_feedback,NULL,PennController,104,_Trial_,End,1744723692968,undefined,1124,comforting,undefined,physical,social,physical,B,NULL
1744724207,c4f4e3dd6a8062956bb6c6f821d743d7,PennController,90,0,calibrator_sp_feedback,NULL,PennController,101,_Trial_,Start,1744723692971,undefined,2043,diplomatic,undefined,physical,social,physical,B,NULL
1744724207,c4f4e3dd6a8062956bb6c6f821d743d7,PennController,90,0,calibrator_sp_feedback,NULL,PennController,101,_Header_,Start,1744723692971,undefined,2043,diplomatic,undefined,physical,social,physical,B,NULL
1744724207,c4f4e3dd6a8062956bb6c6f821d743d7,PennController,90,0,calibrator_sp_feedback,NULL,PennController,101,_Header_,End,1744723693222,undefined,2043,diplomatic,undefined,physical,social,physical,B,NULL
1744724207,c4f4e3dd6a8062956bb6c6f821d743d7,PennController,90,0,calibrator_sp_feedback,NULL,Selector,Selection,Selection,social,1744723697220,undefined,2043,diplomatic,undefined,physical,social,physical,B,social;physical
1744724207,c4f4e3dd6a8062956bb6c6f821d743d7,PennController,90,0,calibrator_sp_feedback,NULL,PennController,101,_Trial_,End,1744723697775,undefined,2043,diplomatic,undefined,physical,social,physical,B,NULL
1744724207,c4f4e3dd6a8062956bb6c6f821d743d7,PennController,85,0,calibrator_sp_feedback,NULL,PennController,96,_Trial_,Start,1744723697776,undefined,1310,metallic,undefined,physical,social,physical,B,NULL
1744724207,c4f4e3dd6a8062956bb6c6f821d743d7,PennController,85,0,calibrator_sp_feedback,NULL,PennController,96,_Header_,Start,1744723697776,undefined,1310,metallic,undefined,physical,social,physical,B,NULL
1744724207,c4f4e3dd6a8062956bb6c6f821d743d7,PennController,85,0,calibrator_sp_feedback,NULL,PennController,96,_Header_,End,1744723698028,undefined,1310,metallic,undefined,physical,social,physical,B,NULL
1744724207,c4f4e3dd6a8062956bb6c6f821d743d7,PennController,85,0,calibrator_sp_feedback,NULL,Selector,Selection,Selection,physical,1744723700670,undefined,1310,metallic,undefined,physical,social,physical,B,social;physical
1744724207,c4f4e3dd6a8062956bb6c6f821d743d7,PennController,85,0,calibrator_sp_feedback,NULL,PennController,96,_Trial_,End,1744723701844,undefined,1310,metallic,undefined,physical,social,physical,B,NULL
1744724207,c4f4e3dd6a8062956bb6c6f821d743d7,PennController,92,0,calibrator_sp_feedback,NULL,PennController,103,_Trial_,Start,1744723701847,undefined,1131,overrated,undefined,physical,social,physical,B,NULL
1744724207,c4f4e3dd6a8062956bb6c6f821d743d7,PennController,92,0,calibrator_sp_feedback,NULL,PennController,103,_Header_,Start,1744723701847,undefined,1131,overrated,undefined,physical,social,physical,B,NULL
1744724207,c4f4e3dd6a8062956bb6c6f821d743d7,PennController,92,0,calibrator_sp_feedback,NULL,PennController,103,_Header_,End,1744723702101,undefined,1131,overrated,undefined,physical,social,physical,B,NULL
1744724207,c4f4e3dd6a8062956bb6c6f821d743d7,PennController,92,0,calibrator_sp_feedback,NULL,Selector,Selection,Selection,social,1744723705552,undefined,1131,overrated,undefined,physical,social,physical,B,social;physical
1744724207,c4f4e3dd6a8062956bb6c6f821d743d7,PennController,92,0,calibrator_sp_feedback,NULL,PennController,103,_Trial_,End,1744723705740,undefined,1131,overrated,undefined,physical,social,physical,B,NULL
1744724207,c4f4e3dd6a8062956bb6c6f821d743d7,PennController,84,0,calibrator_sp_feedback,NULL,PennController,95,_Trial_,Start,1744723705743,undefined,1437,triangular,undefined,physical,social,physical,B,NULL
1744724207,c4f4e3dd6a8062956bb6c6f821d743d7,PennController,84,0,calibrator_sp_feedback,NULL,PennController,95,_Header_,Start,1744723705743,undefined,1437,triangular,undefined,physical,social,physical,B,NULL
1744724207,c4f4e3dd6a8062956bb6c6f821d743d7,PennController,84,0,calibrator_sp_feedback,NULL,PennController,95,_Header_,End,1744723705994,undefined,1437,triangular,undefined,physical,social,physical,B,NULL
1744724207,c4f4e3dd6a8062956bb6c6f821d743d7,PennController,84,0,calibrator_sp_feedback,NULL,Selector,Selection,Selection,physical,1744723709014,undefined,1437,triangular,undefined,physical,social,physical,B,social;physical
1744724207,c4f4e3dd6a8062956bb6c6f821d743d7,PennController,84,0,calibrator_sp_feedback,NULL,PennController,95,_Trial_,End,1744723709941,undefined,1437,triangular,undefined,physical,social,physical,B,NULL
1744724207,c4f4e3dd6a8062956bb6c6f821d743d7,PennController,91,0,calibrator_sp_feedback,NULL,PennController,102,_Trial_,Start,1744723709944,undefined,1089,aloof,undefined,physical,social,physical,B,NULL
1744724207,c4f4e3dd6a8062956bb6c6f821d743d7,PennController,91,0,calibrator_sp_feedback,NULL,PennController,102,_Header_,Start,1744723709944,undefined,1089,aloof,undefined,physical,social,physical,B,NULL
1744724207,c4f4e3dd6a8062956bb6c6f821d743d7,PennController,91,0,calibrator_sp_feedback,NULL,PennController,102,_Header_,End,1744723710194,undefined,1089,aloof,undefined,physical,social,physical,B,NULL
1744724207,c4f4e3dd6a8062956bb6c6f821d743d7,PennController,91,0,calibrator_sp_feedback,NULL,Selector,Selection,Selection,social,1744723712703,undefined,1089,aloof,undefined,physical,social,physical,B,social;physical
1744724207,c4f4e3dd6a8062956bb6c6f821d743d7,PennController,91,0,calibrator_sp_feedback,NULL,PennController,102,_Trial_,End,1744723713794,undefined,1089,aloof,undefined,physical,social,physical,B,NULL
# 16. Key_value_F.
# 17. Key_value_J.
# 18. Group.
# 19. Comments.
1744724207,c4f4e3dd6a8062956bb6c6f821d743d7,PennController,100,0,calibrator_sp_no_feedback,NULL,PennController,111,_Trial_,Start,1744723713797,undefined,888,diplomatic,social,physical,B,NULL
1744724207,c4f4e3dd6a8062956bb6c6f821d743d7,PennController,100,0,calibrator_sp_no_feedback,NULL,PennController,111,_Header_,Start,1744723713797,undefined,888,diplomatic,social,physical,B,NULL
1744724207,c4f4e3dd6a8062956bb6c6f821d743d7,PennController,100,0,calibrator_sp_no_feedback,NULL,PennController,111,_Header_,End,1744723714047,undefined,888,diplomatic,social,physical,B,NULL
1744724207,c4f4e3dd6a8062956bb6c6f821d743d7,PennController,100,0,calibrator_sp_no_feedback,NULL,Selector,unnamed-Selector,Selection,social,1744723715442,undefined,888,diplomatic,social,physical,B,social;physical
1744724207,c4f4e3dd6a8062956bb6c6f821d743d7,PennController,100,0,calibrator_sp_no_feedback,NULL,PennController,111,_Trial_,End,1744723715443,undefined,888,diplomatic,social,physical,B,NULL
1744724207,c4f4e3dd6a8062956bb6c6f821d743d7,PennController,97,0,calibrator_sp_no_feedback,NULL,PennController,108,_Trial_,Start,1744723715445,undefined,1063,frozen,social,physical,B,NULL
1744724207,c4f4e3dd6a8062956bb6c6f821d743d7,PennController,97,0,calibrator_sp_no_feedback,NULL,PennController,108,_Header_,Start,1744723715445,undefined,1063,frozen,social,physical,B,NULL
1744724207,c4f4e3dd6a8062956bb6c6f821d743d7,PennController,97,0,calibrator_sp_no_feedback,NULL,PennController,108,_Header_,End,1744723715697,undefined,1063,frozen,social,physical,B,NULL
1744724207,c4f4e3dd6a8062956bb6c6f821d743d7,PennController,97,0,calibrator_sp_no_feedback,NULL,Selector,unnamed-Selector,Selection,physical,1744723717264,undefined,1063,frozen,social,physical,B,social;physical
1744724207,c4f4e3dd6a8062956bb6c6f821d743d7,PennController,97,0,calibrator_sp_no_feedback,NULL,PennController,108,_Trial_,End,1744723717264,undefined,1063,frozen,social,physical,B,NULL
1744724207,c4f4e3dd6a8062956bb6c6f821d743d7,PennController,99,0,calibrator_sp_no_feedback,NULL,PennController,110,_Trial_,Start,1744723717265,undefined,868,loyal,social,physical,B,NULL
1744724207,c4f4e3dd6a8062956bb6c6f821d743d7,PennController,99,0,calibrator_sp_no_feedback,NULL,PennController,110,_Header_,Start,1744723717265,undefined,868,loyal,social,physical,B,NULL
1744724207,c4f4e3dd6a8062956bb6c6f821d743d7,PennController,99,0,calibrator_sp_no_feedback,NULL,PennController,110,_Header_,End,1744723717516,undefined,868,loyal,social,physical,B,NULL
1744724207,c4f4e3dd6a8062956bb6c6f821d743d7,PennController,99,0,calibrator_sp_no_feedback,NULL,Selector,unnamed-Selector,Selection,social,1744723718887,undefined,868,loyal,social,physical,B,social;physical
1744724207,c4f4e3dd6a8062956bb6c6f821d743d7,PennController,99,0,calibrator_sp_no_feedback,NULL,PennController,110,_Trial_,End,1744723718889,undefined,868,loyal,social,physical,B,NULL
1744724207,c4f4e3dd6a8062956bb6c6f821d743d7,PennController,95,0,calibrator_sp_no_feedback,NULL,PennController,106,_Trial_,Start,1744723718891,undefined,903,metallic,social,physical,B,NULL
1744724207,c4f4e3dd6a8062956bb6c6f821d743d7,PennController,95,0,calibrator_sp_no_feedback,NULL,PennController,106,_Header_,Start,1744723718891,undefined,903,metallic,social,physical,B,NULL
1744724207,c4f4e3dd6a8062956bb6c6f821d743d7,PennController,95,0,calibrator_sp_no_feedback,NULL,PennController,106,_Header_,End,1744723719143,undefined,903,metallic,social,physical,B,NULL
1744724207,c4f4e3dd6a8062956bb6c6f821d743d7,PennController,95,0,calibrator_sp_no_feedback,NULL,Selector,unnamed-Selector,Selection,physical,1744723720553,undefined,903,metallic,social,physical,B,social;physical
1744724207,c4f4e3dd6a8062956bb6c6f821d743d7,PennController,95,0,calibrator_sp_no_feedback,NULL,PennController,106,_Trial_,End,1744723720553,undefined,903,metallic,social,physical,B,NULL
1744724207,c4f4e3dd6a8062956bb6c6f821d743d7,PennController,103,0,calibrator_sp_no_feedback,NULL,PennController,114,_Trial_,Start,1744723720554,undefined,936,comforting,social,physical,B,NULL
1744724207,c4f4e3dd6a8062956bb6c6f821d743d7,PennController,103,0,calibrator_sp_no_feedback,NULL,PennController,114,_Header_,Start,1744723720554,undefined,936,comforting,social,physical,B,NULL
1744724207,c4f4e3dd6a8062956bb6c6f821d743d7,PennController,103,0,calibrator_sp_no_feedback,NULL,PennController,114,_Header_,End,1744723720805,undefined,936,comforting,social,physical,B,NULL
1744724207,c4f4e3dd6a8062956bb6c6f821d743d7,PennController,103,0,calibrator_sp_no_feedback,NULL,Selector,unnamed-Selector,Selection,social,1744723722245,undefined,936,comforting,social,physical,B,social;physical
1744724207,c4f4e3dd6a8062956bb6c6f821d743d7,PennController,103,0,calibrator_sp_no_feedback,NULL,PennController,114,_Trial_,End,1744723722246,undefined,936,comforting,social,physical,B,NULL
1744724207,c4f4e3dd6a8062956bb6c6f821d743d7,PennController,101,0,calibrator_sp_no_feedback,NULL,PennController,112,_Trial_,Start,1744723722247,undefined,1091,aloof,social,physical,B,NULL
1744724207,c4f4e3dd6a8062956bb6c6f821d743d7,PennController,101,0,calibrator_sp_no_feedback,NULL,PennController,112,_Header_,Start,1744723722247,undefined,1091,aloof,social,physical,B,NULL
1744724207,c4f4e3dd6a8062956bb6c6f821d743d7,PennController,101,0,calibrator_sp_no_feedback,NULL,PennController,112,_Header_,End,1744723722497,undefined,1091,aloof,social,physical,B,NULL
1744724207,c4f4e3dd6a8062956bb6c6f821d743d7,PennController,101,0,calibrator_sp_no_feedback,NULL,Selector,unnamed-Selector,Selection,social,1744723724094,undefined,1091,aloof,social,physical,B,social;physical
1744724207,c4f4e3dd6a8062956bb6c6f821d743d7,PennController,101,0,calibrator_sp_no_feedback,NULL,PennController,112,_Trial_,End,1744723724096,undefined,1091,aloof,social,physical,B,NULL
1744724207,c4f4e3dd6a8062956bb6c6f821d743d7,PennController,102,0,calibrator_sp_no_feedback,NULL,PennController,113,_Trial_,Start,1744723724098,undefined,847,overrated,social,physical,B,NULL
1744724207,c4f4e3dd6a8062956bb6c6f821d743d7,PennController,102,0,calibrator_sp_no_feedback,NULL,PennController,113,_Header_,Start,1744723724098,undefined,847,overrated,social,physical,B,NULL
1744724207,c4f4e3dd6a8062956bb6c6f821d743d7,PennController,102,0,calibrator_sp_no_feedback,NULL,PennController,113,_Header_,End,1744723724350,undefined,847,overrated,social,physical,B,NULL
1744724207,c4f4e3dd6a8062956bb6c6f821d743d7,PennController,102,0,calibrator_sp_no_feedback,NULL,Selector,unnamed-Selector,Selection,social,1744723725702,undefined,847,overrated,social,physical,B,social;physical
1744724207,c4f4e3dd6a8062956bb6c6f821d743d7,PennController,102,0,calibrator_sp_no_feedback,NULL,PennController,113,_Trial_,End,1744723725702,undefined,847,overrated,social,physical,B,NULL
1744724207,c4f4e3dd6a8062956bb6c6f821d743d7,PennController,96,0,calibrator_sp_no_feedback,NULL,PennController,107,_Trial_,Start,1744723725703,undefined,570,wet,social,physical,B,NULL
1744724207,c4f4e3dd6a8062956bb6c6f821d743d7,PennController,96,0,calibrator_sp_no_feedback,NULL,PennController,107,_Header_,Start,1744723725703,undefined,570,wet,social,physical,B,NULL
1744724207,c4f4e3dd6a8062956bb6c6f821d743d7,PennController,96,0,calibrator_sp_no_feedback,NULL,PennController,107,_Header_,End,1744723725957,undefined,570,wet,social,physical,B,NULL
1744724207,c4f4e3dd6a8062956bb6c6f821d743d7,PennController,96,0,calibrator_sp_no_feedback,NULL,Selector,unnamed-Selector,Selection,physical,1744723727030,undefined,570,wet,social,physical,B,social;physical
1744724207,c4f4e3dd6a8062956bb6c6f821d743d7,PennController,96,0,calibrator_sp_no_feedback,NULL,PennController,107,_Trial_,End,1744723727031,undefined,570,wet,social,physical,B,NULL
1744724207,c4f4e3dd6a8062956bb6c6f821d743d7,PennController,94,0,calibrator_sp_no_feedback,NULL,PennController,105,_Trial_,Start,1744723727033,undefined,860,triangular,social,physical,B,NULL
1744724207,c4f4e3dd6a8062956bb6c6f821d743d7,PennController,94,0,calibrator_sp_no_feedback,NULL,PennController,105,_Header_,Start,1744723727033,undefined,860,triangular,social,physical,B,NULL
1744724207,c4f4e3dd6a8062956bb6c6f821d743d7,PennController,94,0,calibrator_sp_no_feedback,NULL,PennController,105,_Header_,End,1744723727285,undefined,860,triangular,social,physical,B,NULL
1744724207,c4f4e3dd6a8062956bb6c6f821d743d7,PennController,94,0,calibrator_sp_no_feedback,NULL,Selector,unnamed-Selector,Selection,physical,1744723728649,undefined,860,triangular,social,physical,B,social;physical
1744724207,c4f4e3dd6a8062956bb6c6f821d743d7,PennController,94,0,calibrator_sp_no_feedback,NULL,PennController,105,_Trial_,End,1744723728651,undefined,860,triangular,social,physical,B,NULL
1744724207,c4f4e3dd6a8062956bb6c6f821d743d7,PennController,98,0,calibrator_sp_no_feedback,NULL,PennController,109,_Trial_,Start,1744723728653,undefined,737,round,social,physical,B,NULL
1744724207,c4f4e3dd6a8062956bb6c6f821d743d7,PennController,98,0,calibrator_sp_no_feedback,NULL,PennController,109,_Header_,Start,1744723728653,undefined,737,round,social,physical,B,NULL
1744724207,c4f4e3dd6a8062956bb6c6f821d743d7,PennController,98,0,calibrator_sp_no_feedback,NULL,PennController,109,_Header_,End,1744723728906,undefined,737,round,social,physical,B,NULL
1744724207,c4f4e3dd6a8062956bb6c6f821d743d7,PennController,98,0,calibrator_sp_no_feedback,NULL,Selector,unnamed-Selector,Selection,physical,1744723730147,undefined,737,round,social,physical,B,social;physical
1744724207,c4f4e3dd6a8062956bb6c6f821d743d7,PennController,98,0,calibrator_sp_no_feedback,NULL,PennController,109,_Trial_,End,1744723730147,undefined,737,round,social,physical,B,NULL
# 13. Comments.
1744724207,c4f4e3dd6a8062956bb6c6f821d743d7,PennController,136,0,endinstructions_sp,NULL,PennController,14,_Trial_,Start,1744723730148,NULL
1744724207,c4f4e3dd6a8062956bb6c6f821d743d7,PennController,136,0,endinstructions_sp,NULL,PennController,14,_Header_,Start,1744723730148,NULL
1744724207,c4f4e3dd6a8062956bb6c6f821d743d7,PennController,136,0,endinstructions_sp,NULL,PennController,14,_Header_,End,1744723730400,NULL
1744724207,c4f4e3dd6a8062956bb6c6f821d743d7,PennController,136,0,endinstructions_sp,NULL,PennController,14,_Trial_,End,1744723733480,NULL
# 13. ID.
# 14. ReactionTime.
# 15. Word.
# 16. ConcValCombo.
# 17. Key_value_F.
# 18. Key_value_J.
# 19. Group.
# 20. Comments.
1744724207,c4f4e3dd6a8062956bb6c6f821d743d7,PennController,17,0,test_sp,NULL,PennController,28,_Trial_,Start,1744723733482,undefined,821,fair,social-positive,social,physical,B,NULL
1744724207,c4f4e3dd6a8062956bb6c6f821d743d7,PennController,17,0,test_sp,NULL,PennController,28,_Header_,Start,1744723733482,undefined,821,fair,social-positive,social,physical,B,NULL
1744724207,c4f4e3dd6a8062956bb6c6f821d743d7,PennController,17,0,test_sp,NULL,PennController,28,_Header_,End,1744723733733,undefined,821,fair,social-positive,social,physical,B,NULL
1744724207,c4f4e3dd6a8062956bb6c6f821d743d7,PennController,17,0,test_sp,NULL,Selector,unnamed-Selector,Selection,social,1744723735059,undefined,821,fair,social-positive,social,physical,B,social;physical
1744724207,c4f4e3dd6a8062956bb6c6f821d743d7,PennController,17,0,test_sp,NULL,PennController,28,_Trial_,End,1744723735062,undefined,821,fair,social-positive,social,physical,B,NULL
1744724207,c4f4e3dd6a8062956bb6c6f821d743d7,PennController,12,0,test_sp,NULL,PennController,23,_Trial_,Start,1744723735064,undefined,1472,rancid,physical-negative,social,physical,B,NULL
1744724207,c4f4e3dd6a8062956bb6c6f821d743d7,PennController,12,0,test_sp,NULL,PennController,23,_Header_,Start,1744723735064,undefined,1472,rancid,physical-negative,social,physical,B,NULL
1744724207,c4f4e3dd6a8062956bb6c6f821d743d7,PennController,12,0,test_sp,NULL,PennController,23,_Header_,End,1744723735315,undefined,1472,rancid,physical-negative,social,physical,B,NULL
1744724207,c4f4e3dd6a8062956bb6c6f821d743d7,PennController,12,0,test_sp,NULL,Selector,unnamed-Selector,Selection,physical,1744723737292,undefined,1472,rancid,physical-negative,social,physical,B,social;physical
1744724207,c4f4e3dd6a8062956bb6c6f821d743d7,PennController,12,0,test_sp,NULL,PennController,23,_Trial_,End,1744723737293,undefined,1472,rancid,physical-negative,social,physical,B,NULL
1744724207,c4f4e3dd6a8062956bb6c6f821d743d7,PennController,22,0,test_sp,NULL,PennController,33,_Trial_,Start,1744723737294,undefined,729,oppressive,social-negative,social,physical,B,NULL
1744724207,c4f4e3dd6a8062956bb6c6f821d743d7,PennController,22,0,test_sp,NULL,PennController,33,_Header_,Start,1744723737294,undefined,729,oppressive,social-negative,social,physical,B,NULL
1744724207,c4f4e3dd6a8062956bb6c6f821d743d7,PennController,22,0,test_sp,NULL,PennController,33,_Header_,End,1744723737544,undefined,729,oppressive,social-negative,social,physical,B,NULL
1744724207,c4f4e3dd6a8062956bb6c6f821d743d7,PennController,22,0,test_sp,NULL,Selector,unnamed-Selector,Selection,social,1744723738777,undefined,729,oppressive,social-negative,social,physical,B,social;physical
1744724207,c4f4e3dd6a8062956bb6c6f821d743d7,PennController,22,0,test_sp,NULL,PennController,33,_Trial_,End,1744723738779,undefined,729,oppressive,social-negative,social,physical,B,NULL
1744724207,c4f4e3dd6a8062956bb6c6f821d743d7,PennController,39,0,test_sp,NULL,PennController,50,_Trial_,Start,1744723738781,undefined,691,untrustworthy,social-negative,social,physical,B,NULL
1744724207,c4f4e3dd6a8062956bb6c6f821d743d7,PennController,39,0,test_sp,NULL,PennController,50,_Header_,Start,1744723738781,undefined,691,untrustworthy,social-negative,social,physical,B,NULL
1744724207,c4f4e3dd6a8062956bb6c6f821d743d7,PennController,39,0,test_sp,NULL,PennController,50,_Header_,End,1744723739034,undefined,691,untrustworthy,social-negative,social,physical,B,NULL
1744724207,c4f4e3dd6a8062956bb6c6f821d743d7,PennController,39,0,test_sp,NULL,Selector,unnamed-Selector,Selection,social,1744723740230,undefined,691,untrustworthy,social-negative,social,physical,B,social;physical
1744724207,c4f4e3dd6a8062956bb6c6f821d743d7,PennController,39,0,test_sp,NULL,PennController,50,_Trial_,End,1744723740231,undefined,691,untrustworthy,social-negative,social,physical,B,NULL
1744724207,c4f4e3dd6a8062956bb6c6f821d743d7,PennController,8,0,test_sp,NULL,PennController,19,_Trial_,Start,1744723740233,undefined,1006,fragrant,physical-positive,social,physical,B,NULL
1744724207,c4f4e3dd6a8062956bb6c6f821d743d7,PennController,8,0,test_sp,NULL,PennController,19,_Header_,Start,1744723740233,undefined,1006,fragrant,physical-positive,social,physical,B,NULL
1744724207,c4f4e3dd6a8062956bb6c6f821d743d7,PennController,8,0,test_sp,NULL,PennController,19,_Header_,End,1744723740484,undefined,1006,fragrant,physical-positive,social,physical,B,NULL
1744724207,c4f4e3dd6a8062956bb6c6f821d743d7,PennController,8,0,test_sp,NULL,Selector,unnamed-Selector,Selection,physical,1744723741995,undefined,1006,fragrant,physical-positive,social,physical,B,social;physical
1744724207,c4f4e3dd6a8062956bb6c6f821d743d7,PennController,8,0,test_sp,NULL,PennController,19,_Trial_,End,1744723741996,undefined,1006,fragrant,physical-positive,social,physical,B,NULL
1744724207,c4f4e3dd6a8062956bb6c6f821d743d7,PennController,21,0,test_sp,NULL,PennController,32,_Trial_,Start,1744723741997,undefined,777,compassionate,social-positive,social,physical,B,NULL
1744724207,c4f4e3dd6a8062956bb6c6f821d743d7,PennController,21,0,test_sp,NULL,PennController,32,_Header_,Start,1744723741997,undefined,777,compassionate,social-positive,social,physical,B,NULL
1744724207,c4f4e3dd6a8062956bb6c6f821d743d7,PennController,21,0,test_sp,NULL,PennController,32,_Header_,End,1744723742249,undefined,777,compassionate,social-positive,social,physical,B,NULL
1744724207,c4f4e3dd6a8062956bb6c6f821d743d7,PennController,21,0,test_sp,NULL,Selector,unnamed-Selector,Selection,social,1744723743533,undefined,777,compassionate,social-positive,social,physical,B,social;physical
1744724207,c4f4e3dd6a8062956bb6c6f821d743d7,PennController,21,0,test_sp,NULL,PennController,32,_Trial_,End,1744723743535,undefined,777,compassionate,social-positive,social,physical,B,NULL
1744724207,c4f4e3dd6a8062956bb6c6f821d743d7,PennController,9,0,test_sp,NULL,PennController,20,_Trial_,Start,1744723743537,undefined,728,sour,physical-negative,social,physical,B,NULL
1744724207,c4f4e3dd6a8062956bb6c6f821d743d7,PennController,9,0,test_sp,NULL,PennController,20,_Header_,Start,1744723743537,undefined,728,sour,physical-negative,social,physical,B,NULL
1744724207,c4f4e3dd6a8062956bb6c6f821d743d7,PennController,9,0,test_sp,NULL,PennController,20,_Header_,End,1744723743789,undefined,728,sour,physical-negative,social,physical,B,NULL
1744724207,c4f4e3dd6a8062956bb6c6f821d743d7,PennController,9,0,test_sp,NULL,Selector,unnamed-Selector,Selection,physical,1744723745020,undefined,728,sour,physical-negative,social,physical,B,social;physical
1744724207,c4f4e3dd6a8062956bb6c6f821d743d7,PennController,9,0,test_sp,NULL,PennController,20,_Trial_,End,1744723745022,undefined,728,sour,physical-negative,social,physical,B,NULL
1744724207,c4f4e3dd6a8062956bb6c6f821d743d7,PennController,20,0,test_sp,NULL,PennController,31,_Trial_,Start,1744723745024,undefined,800,corrupt,social-negative,social,physical,B,NULL
1744724207,c4f4e3dd6a8062956bb6c6f821d743d7,PennController,20,0,test_sp,NULL,PennController,31,_Header_,Start,1744723745024,undefined,800,corrupt,social-negative,social,physical,B,NULL
1744724207,c4f4e3dd6a8062956bb6c6f821d743d7,PennController,20,0,test_sp,NULL,PennController,31,_Header_,End,1744723745276,undefined,800,corrupt,social-negative,social,physical,B,NULL
1744724207,c4f4e3dd6a8062956bb6c6f821d743d7,PennController,20,0,test_sp,NULL,Selector,unnamed-Selector,Selection,social,1744723746578,undefined,800,corrupt,social-negative,social,physical,B,social;physical
1744724207,c4f4e3dd6a8062956bb6c6f821d743d7,PennController,20,0,test_sp,NULL,PennController,31,_Trial_,End,1744723746580,undefined,800,corrupt,social-negative,social,physical,B,NULL
1744724207,c4f4e3dd6a8062956bb6c6f821d743d7,PennController,36,0,test_sp,NULL,PennController,47,_Trial_,Start,1744723746583,undefined,620,manipulative,social-negative,social,physical,B,NULL
1744724207,c4f4e3dd6a8062956bb6c6f821d743d7,PennController,36,0,test_sp,NULL,PennController,47,_Header_,Start,1744723746583,undefined,620,manipulative,social-negative,social,physical,B,NULL
1744724207,c4f4e3dd6a8062956bb6c6f821d743d7,PennController,36,0,test_sp,NULL,PennController,47,_Header_,End,1744723746836,undefined,620,manipulative,social-negative,social,physical,B,NULL
1744724207,c4f4e3dd6a8062956bb6c6f821d743d7,PennController,36,0,test_sp,NULL,Selector,unnamed-Selector,Selection,social,1744723747961,undefined,620,manipulative,social-negative,social,physical,B,social;physical
1744724207,c4f4e3dd6a8062956bb6c6f821d743d7,PennController,36,0,test_sp,NULL,PennController,47,_Trial_,End,1744723747964,undefined,620,manipulative,social-negative,social,physical,B,NULL
1744724207,c4f4e3dd6a8062956bb6c6f821d743d7,PennController,25,0,test_sp,NULL,PennController,36,_Trial_,Start,1744723747967,undefined,1031,slim,physical-positive,social,physical,B,NULL
1744724207,c4f4e3dd6a8062956bb6c6f821d743d7,PennController,25,0,test_sp,NULL,PennController,36,_Header_,Start,1744723747967,undefined,1031,slim,physical-positive,social,physical,B,NULL
1744724207,c4f4e3dd6a8062956bb6c6f821d743d7,PennController,25,0,test_sp,NULL,PennController,36,_Header_,End,1744723748219,undefined,1031,slim,physical-positive,social,physical,B,NULL
1744724207,c4f4e3dd6a8062956bb6c6f821d743d7,PennController,25,0,test_sp,NULL,Selector,unnamed-Selector,Selection,physical,1744723749757,undefined,1031,slim,physical-positive,social,physical,B,social;physical
1744724207,c4f4e3dd6a8062956bb6c6f821d743d7,PennController,25,0,test_sp,NULL,PennController,36,_Trial_,End,1744723749759,undefined,1031,slim,physical-positive,social,physical,B,NULL
1744724207,c4f4e3dd6a8062956bb6c6f821d743d7,PennController,28,0,test_sp,NULL,PennController,39,_Trial_,Start,1744723749761,undefined,1382,scrawny,physical-negative,social,physical,B,NULL
1744724207,c4f4e3dd6a8062956bb6c6f821d743d7,PennController,28,0,test_sp,NULL,PennController,39,_Header_,Start,1744723749761,undefined,1382,scrawny,physical-negative,social,physical,B,NULL
1744724207,c4f4e3dd6a8062956bb6c6f821d743d7,PennController,28,0,test_sp,NULL,PennController,39,_Header_,End,1744723750013,undefined,1382,scrawny,physical-negative,social,physical,B,NULL
1744724207,c4f4e3dd6a8062956bb6c6f821d743d7,PennController,28,0,test_sp,NULL,Selector,unnamed-Selector,Selection,physical,1744723751900,undefined,1382,scrawny,physical-negative,social,physical,B,social;physical
1744724207,c4f4e3dd6a8062956bb6c6f821d743d7,PennController,28,0,test_sp,NULL,PennController,39,_Trial_,End,1744723751901,undefined,1382,scrawny,physical-negative,social,physical,B,NULL
1744724207,c4f4e3dd6a8062956bb6c6f821d743d7,PennController,13,0,test_sp,NULL,PennController,24,_Trial_,Start,1744723751902,undefined,749,sturdy,physical-positive,social,physical,B,NULL
1744724207,c4f4e3dd6a8062956bb6c6f821d743d7,PennController,13,0,test_sp,NULL,PennController,24,_Header_,Start,1744723751902,undefined,749,sturdy,physical-positive,social,physical,B,NULL
1744724207,c4f4e3dd6a8062956bb6c6f821d743d7,PennController,13,0,test_sp,NULL,PennController,24,_Header_,End,1744723752153,undefined,749,sturdy,physical-positive,social,physical,B,NULL
1744724207,c4f4e3dd6a8062956bb6c6f821d743d7,PennController,13,0,test_sp,NULL,Selector,unnamed-Selector,Selection,physical,1744723753406,undefined,749,sturdy,physical-positive,social,physical,B,social;physical
1744724207,c4f4e3dd6a8062956bb6c6f821d743d7,PennController,13,0,test_sp,NULL,PennController,24,_Trial_,End,1744723753406,undefined,749,sturdy,physical-positive,social,physical,B,NULL
1744724207,c4f4e3dd6a8062956bb6c6f821d743d7,PennController,26,0,test_sp,NULL,PennController,37,_Trial_,Start,1744723753407,undefined,857,obese,physical-negative,social,physical,B,NULL
1744724207,c4f4e3dd6a8062956bb6c6f821d743d7,PennController,26,0,test_sp,NULL,PennController,37,_Header_,Start,1744723753407,undefined,857,obese,physical-negative,social,physical,B,NULL
1744724207,c4f4e3dd6a8062956bb6c6f821d743d7,PennController,26,0,test_sp,NULL,PennController,37,_Header_,End,1744723753657,undefined,857,obese,physical-negative,social,physical,B,NULL
1744724207,c4f4e3dd6a8062956bb6c6f821d743d7,PennController,26,0,test_sp,NULL,Selector,unnamed-Selector,Selection,physical,1744723755016,undefined,857,obese,physical-negative,social,physical,B,social;physical
1744724207,c4f4e3dd6a8062956bb6c6f821d743d7,PennController,26,0,test_sp,NULL,PennController,37,_Trial_,End,1744723755016,undefined,857,obese,physical-negative,social,physical,B,NULL
1744724207,c4f4e3dd6a8062956bb6c6f821d743d7,PennController,33,0,test_sp,NULL,PennController,44,_Trial_,Start,1744723755017,undefined,1043,elegant,physical-positive,social,physical,B,NULL
1744724207,c4f4e3dd6a8062956bb6c6f821d743d7,PennController,33,0,test_sp,NULL,PennController,44,_Header_,Start,1744723755017,undefined,1043,elegant,physical-positive,social,physical,B,NULL
1744724207,c4f4e3dd6a8062956bb6c6f821d743d7,PennController,33,0,test_sp,NULL,PennController,44,_Header_,End,1744723755268,undefined,1043,elegant,physical-positive,social,physical,B,NULL
1744724207,c4f4e3dd6a8062956bb6c6f821d743d7,PennController,33,0,test_sp,NULL,Selector,unnamed-Selector,Selection,social,1744723756812,undefined,1043,elegant,physical-positive,social,physical,B,social;physical
1744724207,c4f4e3dd6a8062956bb6c6f821d743d7,PennController,33,0,test_sp,NULL,PennController,44,_Trial_,End,1744723756813,undefined,1043,elegant,physical-positive,social,physical,B,NULL
1744724207,c4f4e3dd6a8062956bb6c6f821d743d7,PennController,31,0,test_sp,NULL,PennController,42,_Trial_,Start,1744723756813,undefined,701,amiable,social-positive,social,physical,B,NULL
1744724207,c4f4e3dd6a8062956bb6c6f821d743d7,PennController,31,0,test_sp,NULL,PennController,42,_Header_,Start,1744723756813,undefined,701,amiable,social-positive,social,physical,B,NULL
1744724207,c4f4e3dd6a8062956bb6c6f821d743d7,PennController,31,0,test_sp,NULL,PennController,42,_Header_,End,1744723757066,undefined,701,amiable,social-positive,social,physical,B,NULL
1744724207,c4f4e3dd6a8062956bb6c6f821d743d7,PennController,31,0,test_sp,NULL,Selector,unnamed-Selector,Selection,social,1744723758272,undefined,701,amiable,social-positive,social,physical,B,social;physical
1744724207,c4f4e3dd6a8062956bb6c6f821d743d7,PennController,31,0,test_sp,NULL,PennController,42,_Trial_,End,1744723758274,undefined,701,amiable,social-positive,social,physical,B,NULL
1744724207,c4f4e3dd6a8062956bb6c6f821d743d7,PennController,29,0,test_sp,NULL,PennController,40,_Trial_,Start,1744723758276,undefined,569,youthful,physical-positive,social,physical,B,NULL
1744724207,c4f4e3dd6a8062956bb6c6f821d743d7,PennController,29,0,test_sp,NULL,PennController,40,_Header_,Start,1744723758276,undefined,569,youthful,physical-positive,social,physical,B,NULL
1744724207,c4f4e3dd6a8062956bb6c6f821d743d7,PennController,29,0,test_sp,NULL,PennController,40,_Header_,End,1744723758528,undefined,569,youthful,physical-positive,social,physical,B,NULL
1744724207,c4f4e3dd6a8062956bb6c6f821d743d7,PennController,29,0,test_sp,NULL,Selector,unnamed-Selector,Selection,social,1744723759603,undefined,569,youthful,physical-positive,social,physical,B,social;physical
1744724207,c4f4e3dd6a8062956bb6c6f821d743d7,PennController,29,0,test_sp,NULL,PennController,40,_Trial_,End,1744723759605,undefined,569,youthful,physical-positive,social,physical,B,NULL
1744724207,c4f4e3dd6a8062956bb6c6f821d743d7,PennController,19,0,test_sp,NULL,PennController,30,_Trial_,Start,1744723759607,undefined,622,harmonious,social-positive,social,physical,B,NULL
1744724207,c4f4e3dd6a8062956bb6c6f821d743d7,PennController,19,0,test_sp,NULL,PennController,30,_Header_,Start,1744723759607,undefined,622,harmonious,social-positive,social,physical,B,NULL
1744724207,c4f4e3dd6a8062956bb6c6f821d743d7,PennController,19,0,test_sp,NULL,PennController,30,_Header_,End,1744723759859,undefined,622,harmonious,social-positive,social,physical,B,NULL
1744724207,c4f4e3dd6a8062956bb6c6f821d743d7,PennController,19,0,test_sp,NULL,Selector,unnamed-Selector,Selection,social,1744723760987,undefined,622,harmonious,social-positive,social,physical,B,social;physical
1744724207,c4f4e3dd6a8062956bb6c6f821d743d7,PennController,19,0,test_sp,NULL,PennController,30,_Trial_,End,1744723760988,undefined,622,harmonious,social-positive,social,physical,B,NULL
1744724207,c4f4e3dd6a8062956bb6c6f821d743d7,PennController,6,0,test_sp,NULL,PennController,17,_Trial_,Start,1744723760989,undefined,947,smooth,physical-positive,social,physical,B,NULL
1744724207,c4f4e3dd6a8062956bb6c6f821d743d7,PennController,6,0,test_sp,NULL,PennController,17,_Header_,Start,1744723760989,undefined,947,smooth,physical-positive,social,physical,B,NULL
1744724207,c4f4e3dd6a8062956bb6c6f821d743d7,PennController,6,0,test_sp,NULL,PennController,17,_Header_,End,1744723761239,undefined,947,smooth,physical-positive,social,physical,B,NULL
1744724207,c4f4e3dd6a8062956bb6c6f821d743d7,PennController,6,0,test_sp,NULL,Selector,unnamed-Selector,Selection,physical,1744723762691,undefined,947,smooth,physical-positive,social,physical,B,social;physical
1744724207,c4f4e3dd6a8062956bb6c6f821d743d7,PennController,6,0,test_sp,NULL,PennController,17,_Trial_,End,1744723762693,undefined,947,smooth,physical-positive,social,physical,B,NULL
1744724207,c4f4e3dd6a8062956bb6c6f821d743d7,PennController,4,0,test_sp,NULL,PennController,15,_Trial_,Start,1744723762695,undefined,1205,moldy,physical-negative,social,physical,B,NULL
1744724207,c4f4e3dd6a8062956bb6c6f821d743d7,PennController,4,0,test_sp,NULL,PennController,15,_Header_,Start,1744723762695,undefined,1205,moldy,physical-negative,social,physical,B,NULL
1744724207,c4f4e3dd6a8062956bb6c6f821d743d7,PennController,4,0,test_sp,NULL,PennController,15,_Header_,End,1744723762948,undefined,1205,moldy,physical-negative,social,physical,B,NULL
1744724207,c4f4e3dd6a8062956bb6c6f821d743d7,PennController,4,0,test_sp,NULL,Selector,unnamed-Selector,Selection,physical,1744723764657,undefined,1205,moldy,physical-negative,social,physical,B,social;physical
1744724207,c4f4e3dd6a8062956bb6c6f821d743d7,PennController,4,0,test_sp,NULL,PennController,15,_Trial_,End,1744723764658,undefined,1205,moldy,physical-negative,social,physical,B,NULL
1744724207,c4f4e3dd6a8062956bb6c6f821d743d7,PennController,24,0,test_sp,NULL,PennController,35,_Trial_,Start,1744723764659,undefined,795,wrinkled,physical-negative,social,physical,B,NULL
1744724207,c4f4e3dd6a8062956bb6c6f821d743d7,PennController,24,0,test_sp,NULL,PennController,35,_Header_,Start,1744723764659,undefined,795,wrinkled,physical-negative,social,physical,B,NULL
1744724207,c4f4e3dd6a8062956bb6c6f821d743d7,PennController,24,0,test_sp,NULL,PennController,35,_Header_,End,1744723764911,undefined,795,wrinkled,physical-negative,social,physical,B,NULL
1744724207,c4f4e3dd6a8062956bb6c6f821d743d7,PennController,24,0,test_sp,NULL,Selector,unnamed-Selector,Selection,physical,1744723766212,undefined,795,wrinkled,physical-negative,social,physical,B,social;physical
1744724207,c4f4e3dd6a8062956bb6c6f821d743d7,PennController,24,0,test_sp,NULL,PennController,35,_Trial_,End,1744723766214,undefined,795,wrinkled,physical-negative,social,physical,B,NULL
1744724207,c4f4e3dd6a8062956bb6c6f821d743d7,PennController,18,0,test_sp,NULL,PennController,29,_Trial_,Start,1744723766215,undefined,847,supportive,social-positive,social,physical,B,NULL
1744724207,c4f4e3dd6a8062956bb6c6f821d743d7,PennController,18,0,test_sp,NULL,PennController,29,_Header_,Start,1744723766215,undefined,847,supportive,social-positive,social,physical,B,NULL
1744724207,c4f4e3dd6a8062956bb6c6f821d743d7,PennController,18,0,test_sp,NULL,PennController,29,_Header_,End,1744723766467,undefined,847,supportive,social-positive,social,physical,B,NULL
1744724207,c4f4e3dd6a8062956bb6c6f821d743d7,PennController,18,0,test_sp,NULL,Selector,unnamed-Selector,Selection,social,1744723767818,undefined,847,supportive,social-positive,social,physical,B,social;physical
1744724207,c4f4e3dd6a8062956bb6c6f821d743d7,PennController,18,0,test_sp,NULL,PennController,29,_Trial_,End,1744723767819,undefined,847,supportive,social-positive,social,physical,B,NULL
1744724207,c4f4e3dd6a8062956bb6c6f821d743d7,PennController,32,0,test_sp,NULL,PennController,43,_Trial_,Start,1744723767819,undefined,692,trustworthy,social-positive,social,physical,B,NULL
1744724207,c4f4e3dd6a8062956bb6c6f821d743d7,PennController,32,0,test_sp,NULL,PennController,43,_Header_,Start,1744723767819,undefined,692,trustworthy,social-positive,social,physical,B,NULL
1744724207,c4f4e3dd6a8062956bb6c6f821d743d7,PennController,32,0,test_sp,NULL,PennController,43,_Header_,End,1744723768073,undefined,692,trustworthy,social-positive,social,physical,B,NULL
1744724207,c4f4e3dd6a8062956bb6c6f821d743d7,PennController,32,0,test_sp,NULL,Selector,unnamed-Selector,Selection,social,1744723769271,undefined,692,trustworthy,social-positive,social,physical,B,social;physical
1744724207,c4f4e3dd6a8062956bb6c6f821d743d7,PennController,32,0,test_sp,NULL,PennController,43,_Trial_,End,1744723769273,undefined,692,trustworthy,social-positive,social,physical,B,NULL
1744724207,c4f4e3dd6a8062956bb6c6f821d743d7,PennController,43,0,test_sp,NULL,PennController,54,_Trial_,Start,1744723769275,undefined,559,sympathetic,social-positive,social,physical,B,NULL
1744724207,c4f4e3dd6a8062956bb6c6f821d743d7,PennController,43,0,test_sp,NULL,PennController,54,_Header_,Start,1744723769275,undefined,559,sympathetic,social-positive,social,physical,B,NULL
1744724207,c4f4e3dd6a8062956bb6c6f821d743d7,PennController,43,0,test_sp,NULL,PennController,54,_Header_,End,1744723769525,undefined,559,sympathetic,social-positive,social,physical,B,NULL
1744724207,c4f4e3dd6a8062956bb6c6f821d743d7,PennController,43,0,test_sp,NULL,Selector,unnamed-Selector,Selection,social,1744723770587,undefined,559,sympathetic,social-positive,social,physical,B,social;physical
1744724207,c4f4e3dd6a8062956bb6c6f821d743d7,PennController,43,0,test_sp,NULL,PennController,54,_Trial_,End,1744723770589,undefined,559,sympathetic,social-positive,social,physical,B,NULL
1744724207,c4f4e3dd6a8062956bb6c6f821d743d7,PennController,37,0,test_sp,NULL,PennController,48,_Trial_,Start,1744723770591,undefined,732,cruel,social-negative,social,physical,B,NULL
1744724207,c4f4e3dd6a8062956bb6c6f821d743d7,PennController,37,0,test_sp,NULL,PennController,48,_Header_,Start,1744723770591,undefined,732,cruel,social-negative,social,physical,B,NULL
1744724207,c4f4e3dd6a8062956bb6c6f821d743d7,PennController,37,0,test_sp,NULL,PennController,48,_Header_,End,1744723770844,undefined,732,cruel,social-negative,social,physical,B,NULL
1744724207,c4f4e3dd6a8062956bb6c6f821d743d7,PennController,37,0,test_sp,NULL,Selector,unnamed-Selector,Selection,social,1744723772082,undefined,732,cruel,social-negative,social,physical,B,social;physical
1744724207,c4f4e3dd6a8062956bb6c6f821d743d7,PennController,37,0,test_sp,NULL,PennController,48,_Trial_,End,1744723772084,undefined,732,cruel,social-negative,social,physical,B,NULL
1744724207,c4f4e3dd6a8062956bb6c6f821d743d7,PennController,10,0,test_sp,NULL,PennController,21,_Trial_,Start,1744723772086,undefined,808,clammy,physical-negative,social,physical,B,NULL
1744724207,c4f4e3dd6a8062956bb6c6f821d743d7,PennController,10,0,test_sp,NULL,PennController,21,_Header_,Start,1744723772086,undefined,808,clammy,physical-negative,social,physical,B,NULL
1744724207,c4f4e3dd6a8062956bb6c6f821d743d7,PennController,10,0,test_sp,NULL,PennController,21,_Header_,End,1744723772340,undefined,808,clammy,physical-negative,social,physical,B,NULL
1744724207,c4f4e3dd6a8062956bb6c6f821d743d7,PennController,10,0,test_sp,NULL,Selector,unnamed-Selector,Selection,physical,1744723773653,undefined,808,clammy,physical-negative,social,physical,B,social;physical
1744724207,c4f4e3dd6a8062956bb6c6f821d743d7,PennController,10,0,test_sp,NULL,PennController,21,_Trial_,End,1744723773654,undefined,808,clammy,physical-negative,social,physical,B,NULL
1744724207,c4f4e3dd6a8062956bb6c6f821d743d7,PennController,34,0,test_sp,NULL,PennController,45,_Trial_,Start,1744723773656,undefined,861,generous,social-positive,social,physical,B,NULL
1744724207,c4f4e3dd6a8062956bb6c6f821d743d7,PennController,34,0,test_sp,NULL,PennController,45,_Header_,Start,1744723773656,undefined,861,generous,social-positive,social,physical,B,NULL
1744724207,c4f4e3dd6a8062956bb6c6f821d743d7,PennController,34,0,test_sp,NULL,PennController,45,_Header_,End,1744723773909,undefined,861,generous,social-positive,social,physical,B,NULL
1744724207,c4f4e3dd6a8062956bb6c6f821d743d7,PennController,34,0,test_sp,NULL,Selector,unnamed-Selector,Selection,social,1744723775274,undefined,861,generous,social-positive,social,physical,B,social;physical
1744724207,c4f4e3dd6a8062956bb6c6f821d743d7,PennController,34,0,test_sp,NULL,PennController,45,_Trial_,End,1744723775275,undefined,861,generous,social-positive,social,physical,B,NULL
1744724207,c4f4e3dd6a8062956bb6c6f821d743d7,PennController,14,0,test_sp,NULL,PennController,25,_Trial_,Start,1744723775277,undefined,1439,lush,physical-positive,social,physical,B,NULL
1744724207,c4f4e3dd6a8062956bb6c6f821d743d7,PennController,14,0,test_sp,NULL,PennController,25,_Header_,Start,1744723775277,undefined,1439,lush,physical-positive,social,physical,B,NULL
1744724207,c4f4e3dd6a8062956bb6c6f821d743d7,PennController,14,0,test_sp,NULL,PennController,25,_Header_,End,1744723775529,undefined,1439,lush,physical-positive,social,physical,B,NULL
1744724207,c4f4e3dd6a8062956bb6c6f821d743d7,PennController,14,0,test_sp,NULL,Selector,unnamed-Selector,Selection,physical,1744723777470,undefined,1439,lush,physical-positive,social,physical,B,social;physical
1744724207,c4f4e3dd6a8062956bb6c6f821d743d7,PennController,14,0,test_sp,NULL,PennController,25,_Trial_,End,1744723777472,undefined,1439,lush,physical-positive,social,physical,B,NULL
1744724207,c4f4e3dd6a8062956bb6c6f821d743d7,PennController,42,0,test_sp,NULL,PennController,53,_Trial_,Start,1744723777474,undefined,858,judgmental,social-negative,social,physical,B,NULL
1744724207,c4f4e3dd6a8062956bb6c6f821d743d7,PennController,42,0,test_sp,NULL,PennController,53,_Header_,Start,1744723777474,undefined,858,judgmental,social-negative,social,physical,B,NULL
1744724207,c4f4e3dd6a8062956bb6c6f821d743d7,PennController,42,0,test_sp,NULL,PennController,53,_Header_,End,1744723777729,undefined,858,judgmental,social-negative,social,physical,B,NULL
1744724207,c4f4e3dd6a8062956bb6c6f821d743d7,PennController,42,0,test_sp,NULL,Selector,unnamed-Selector,Selection,social,1744723779094,undefined,858,judgmental,social-negative,social,physical,B,social;physical
1744724207,c4f4e3dd6a8062956bb6c6f821d743d7,PennController,42,0,test_sp,NULL,PennController,53,_Trial_,End,1744723779095,undefined,858,judgmental,social-negative,social,physical,B,NULL
1744724207,c4f4e3dd6a8062956bb6c6f821d743d7,PennController,16,0,test_sp,NULL,PennController,27,_Trial_,Start,1744723779098,undefined,1444,radiant,physical-positive,social,physical,B,NULL
1744724207,c4f4e3dd6a8062956bb6c6f821d743d7,PennController,16,0,test_sp,NULL,PennController,27,_Header_,Start,1744723779098,undefined,1444,radiant,physical-positive,social,physical,B,NULL
1744724207,c4f4e3dd6a8062956bb6c6f821d743d7,PennController,16,0,test_sp,NULL,PennController,27,_Header_,End,1744723779351,undefined,1444,radiant,physical-positive,social,physical,B,NULL
1744724207,c4f4e3dd6a8062956bb6c6f821d743d7,PennController,16,0,test_sp,NULL,Selector,unnamed-Selector,Selection,social,1744723781298,undefined,1444,radiant,physical-positive,social,physical,B,social;physical
1744724207,c4f4e3dd6a8062956bb6c6f821d743d7,PennController,16,0,test_sp,NULL,PennController,27,_Trial_,End,1744723781300,undefined,1444,radiant,physical-positive,social,physical,B,NULL
1744724207,c4f4e3dd6a8062956bb6c6f821d743d7,PennController,40,0,test_sp,NULL,PennController,51,_Trial_,Start,1744723781302,undefined,781,selfish,social-negative,social,physical,B,NULL
1744724207,c4f4e3dd6a8062956bb6c6f821d743d7,PennController,40,0,test_sp,NULL,PennController,51,_Header_,Start,1744723781302,undefined,781,selfish,social-negative,social,physical,B,NULL
1744724207,c4f4e3dd6a8062956bb6c6f821d743d7,PennController,40,0,test_sp,NULL,PennController,51,_Header_,End,1744723781555,undefined,781,selfish,social-negative,social,physical,B,NULL
1744724207,c4f4e3dd6a8062956bb6c6f821d743d7,PennController,40,0,test_sp,NULL,Selector,unnamed-Selector,Selection,social,1744723782842,undefined,781,selfish,social-negative,social,physical,B,social;physical
1744724207,c4f4e3dd6a8062956bb6c6f821d743d7,PennController,40,0,test_sp,NULL,PennController,51,_Trial_,End,1744723782843,undefined,781,selfish,social-negative,social,physical,B,NULL
1744724207,c4f4e3dd6a8062956bb6c6f821d743d7,PennController,38,0,test_sp,NULL,PennController,49,_Trial_,Start,1744723782845,undefined,1342,arrogant,social-negative,social,physical,B,NULL
1744724207,c4f4e3dd6a8062956bb6c6f821d743d7,PennController,38,0,test_sp,NULL,PennController,49,_Header_,Start,1744723782845,undefined,1342,arrogant,social-negative,social,physical,B,NULL
1744724207,c4f4e3dd6a8062956bb6c6f821d743d7,PennController,38,0,test_sp,NULL,PennController,49,_Header_,End,1744723783096,undefined,1342,arrogant,social-negative,social,physical,B,NULL
1744724207,c4f4e3dd6a8062956bb6c6f821d743d7,PennController,38,0,test_sp,NULL,Selector,unnamed-Selector,Selection,social,1744723784942,undefined,1342,arrogant,social-negative,social,physical,B,social;physical
1744724207,c4f4e3dd6a8062956bb6c6f821d743d7,PennController,38,0,test_sp,NULL,PennController,49,_Trial_,End,1744723784943,undefined,1342,arrogant,social-negative,social,physical,B,NULL
1744724207,c4f4e3dd6a8062956bb6c6f821d743d7,PennController,11,0,test_sp,NULL,PennController,22,_Trial_,Start,1744723784943,undefined,887,gritty,physical-negative,social,physical,B,NULL
1744724207,c4f4e3dd6a8062956bb6c6f821d743d7,PennController,11,0,test_sp,NULL,PennController,22,_Header_,Start,1744723784943,undefined,887,gritty,physical-negative,social,physical,B,NULL
1744724207,c4f4e3dd6a8062956bb6c6f821d743d7,PennController,11,0,test_sp,NULL,PennController,22,_Header_,End,1744723785194,undefined,887,gritty,physical-negative,social,physical,B,NULL
1744724207,c4f4e3dd6a8062956bb6c6f821d743d7,PennController,11,0,test_sp,NULL,Selector,unnamed-Selector,Selection,physical,1744723786584,undefined,887,gritty,physical-negative,social,physical,B,social;physical
1744724207,c4f4e3dd6a8062956bb6c6f821d743d7,PennController,11,0,test_sp,NULL,PennController,22,_Trial_,End,1744723786585,undefined,887,gritty,physical-negative,social,physical,B,NULL
1744724207,c4f4e3dd6a8062956bb6c6f821d743d7,PennController,41,0,test_sp,NULL,PennController,52,_Trial_,Start,1744723786585,undefined,881,polite,social-positive,social,physical,B,NULL
1744724207,c4f4e3dd6a8062956bb6c6f821d743d7,PennController,41,0,test_sp,NULL,PennController,52,_Header_,Start,1744723786585,undefined,881,polite,social-positive,social,physical,B,NULL
1744724207,c4f4e3dd6a8062956bb6c6f821d743d7,PennController,41,0,test_sp,NULL,PennController,52,_Header_,End,1744723786836,undefined,881,polite,social-positive,social,physical,B,NULL
1744724207,c4f4e3dd6a8062956bb6c6f821d743d7,PennController,41,0,test_sp,NULL,Selector,unnamed-Selector,Selection,social,1744723788220,undefined,881,polite,social-positive,social,physical,B,social;physical
1744724207,c4f4e3dd6a8062956bb6c6f821d743d7,PennController,41,0,test_sp,NULL,PennController,52,_Trial_,End,1744723788222,undefined,881,polite,social-positive,social,physical,B,NULL
1744724207,c4f4e3dd6a8062956bb6c6f821d743d7,PennController,23,0,test_sp,NULL,PennController,34,_Trial_,Start,1744723788224,undefined,618,unjust,social-negative,social,physical,B,NULL
1744724207,c4f4e3dd6a8062956bb6c6f821d743d7,PennController,23,0,test_sp,NULL,PennController,34,_Header_,Start,1744723788224,undefined,618,unjust,social-negative,social,physical,B,NULL
1744724207,c4f4e3dd6a8062956bb6c6f821d743d7,PennController,23,0,test_sp,NULL,PennController,34,_Header_,End,1744723788474,undefined,618,unjust,social-negative,social,physical,B,NULL
1744724207,c4f4e3dd6a8062956bb6c6f821d743d7,PennController,23,0,test_sp,NULL,Selector,unnamed-Selector,Selection,social,1744723789594,undefined,618,unjust,social-negative,social,physical,B,social;physical
1744724207,c4f4e3dd6a8062956bb6c6f821d743d7,PennController,23,0,test_sp,NULL,PennController,34,_Trial_,End,1744723789595,undefined,618,unjust,social-negative,social,physical,B,NULL
1744724207,c4f4e3dd6a8062956bb6c6f821d743d7,PennController,35,0,test_sp,NULL,PennController,46,_Trial_,Start,1744723789596,undefined,652,gorgeous,physical-positive,social,physical,B,NULL
1744724207,c4f4e3dd6a8062956bb6c6f821d743d7,PennController,35,0,test_sp,NULL,PennController,46,_Header_,Start,1744723789596,undefined,652,gorgeous,physical-positive,social,physical,B,NULL
1744724207,c4f4e3dd6a8062956bb6c6f821d743d7,PennController,35,0,test_sp,NULL,PennController,46,_Header_,End,1744723789851,undefined,652,gorgeous,physical-positive,social,physical,B,NULL
1744724207,c4f4e3dd6a8062956bb6c6f821d743d7,PennController,35,0,test_sp,NULL,Selector,unnamed-Selector,Selection,social,1744723791007,undefined,652,gorgeous,physical-positive,social,physical,B,social;physical
1744724207,c4f4e3dd6a8062956bb6c6f821d743d7,PennController,35,0,test_sp,NULL,PennController,46,_Trial_,End,1744723791009,undefined,652,gorgeous,physical-positive,social,physical,B,NULL
1744724207,c4f4e3dd6a8062956bb6c6f821d743d7,PennController,27,0,test_sp,NULL,PennController,38,_Trial_,Start,1744723791011,undefined,790,ugly,physical-negative,social,physical,B,NULL
1744724207,c4f4e3dd6a8062956bb6c6f821d743d7,PennController,27,0,test_sp,NULL,PennController,38,_Header_,Start,1744723791011,undefined,790,ugly,physical-negative,social,physical,B,NULL
1744724207,c4f4e3dd6a8062956bb6c6f821d743d7,PennController,27,0,test_sp,NULL,PennController,38,_Header_,End,1744723791265,undefined,790,ugly,physical-negative,social,physical,B,NULL
1744724207,c4f4e3dd6a8062956bb6c6f821d743d7,PennController,27,0,test_sp,NULL,Selector,unnamed-Selector,Selection,social,1744723792559,undefined,790,ugly,physical-negative,social,physical,B,social;physical
1744724207,c4f4e3dd6a8062956bb6c6f821d743d7,PennController,27,0,test_sp,NULL,PennController,38,_Trial_,End,1744723792559,undefined,790,ugly,physical-negative,social,physical,B,NULL
1744724207,c4f4e3dd6a8062956bb6c6f821d743d7,PennController,7,0,test_sp,NULL,PennController,18,_Trial_,Start,1744723792560,undefined,983,brittle,physical-negative,social,physical,B,NULL
1744724207,c4f4e3dd6a8062956bb6c6f821d743d7,PennController,7,0,test_sp,NULL,PennController,18,_Header_,Start,1744723792560,undefined,983,brittle,physical-negative,social,physical,B,NULL
1744724207,c4f4e3dd6a8062956bb6c6f821d743d7,PennController,7,0,test_sp,NULL,PennController,18,_Header_,End,1744723792813,undefined,983,brittle,physical-negative,social,physical,B,NULL
1744724207,c4f4e3dd6a8062956bb6c6f821d743d7,PennController,7,0,test_sp,NULL,Selector,unnamed-Selector,Selection,physical,1744723794299,undefined,983,brittle,physical-negative,social,physical,B,social;physical
1744724207,c4f4e3dd6a8062956bb6c6f821d743d7,PennController,7,0,test_sp,NULL,PennController,18,_Trial_,End,1744723794300,undefined,983,brittle,physical-negative,social,physical,B,NULL
1744724207,c4f4e3dd6a8062956bb6c6f821d743d7,PennController,15,0,test_sp,NULL,PennController,26,_Trial_,Start,1744723794302,undefined,782,prosperous,social-positive,social,physical,B,NULL
1744724207,c4f4e3dd6a8062956bb6c6f821d743d7,PennController,15,0,test_sp,NULL,PennController,26,_Header_,Start,1744723794302,undefined,782,prosperous,social-positive,social,physical,B,NULL
1744724207,c4f4e3dd6a8062956bb6c6f821d743d7,PennController,15,0,test_sp,NULL,PennController,26,_Header_,End,1744723794555,undefined,782,prosperous,social-positive,social,physical,B,NULL
1744724207,c4f4e3dd6a8062956bb6c6f821d743d7,PennController,15,0,test_sp,NULL,Selector,unnamed-Selector,Selection,social,1744723795840,undefined,782,prosperous,social-positive,social,physical,B,social;physical
1744724207,c4f4e3dd6a8062956bb6c6f821d743d7,PennController,15,0,test_sp,NULL,PennController,26,_Trial_,End,1744723795840,undefined,782,prosperous,social-positive,social,physical,B,NULL
1744724207,c4f4e3dd6a8062956bb6c6f821d743d7,PennController,5,0,test_sp,NULL,PennController,16,_Trial_,Start,1744723795841,undefined,927,soft,physical-positive,social,physical,B,NULL
1744724207,c4f4e3dd6a8062956bb6c6f821d743d7,PennController,5,0,test_sp,NULL,PennController,16,_Header_,Start,1744723795841,undefined,927,soft,physical-positive,social,physical,B,NULL
1744724207,c4f4e3dd6a8062956bb6c6f821d743d7,PennController,5,0,test_sp,NULL,PennController,16,_Header_,End,1744723796095,undefined,927,soft,physical-positive,social,physical,B,NULL
1744724207,c4f4e3dd6a8062956bb6c6f821d743d7,PennController,5,0,test_sp,NULL,Selector,unnamed-Selector,Selection,physical,1744723797522,undefined,927,soft,physical-positive,social,physical,B,social;physical
1744724207,c4f4e3dd6a8062956bb6c6f821d743d7,PennController,5,0,test_sp,NULL,PennController,16,_Trial_,End,1744723797523,undefined,927,soft,physical-positive,social,physical,B,NULL
1744724207,c4f4e3dd6a8062956bb6c6f821d743d7,PennController,30,0,test_sp,NULL,PennController,41,_Trial_,Start,1744723797524,undefined,797,hostile,social-negative,social,physical,B,NULL
1744724207,c4f4e3dd6a8062956bb6c6f821d743d7,PennController,30,0,test_sp,NULL,PennController,41,_Header_,Start,1744723797524,undefined,797,hostile,social-negative,social,physical,B,NULL
1744724207,c4f4e3dd6a8062956bb6c6f821d743d7,PennController,30,0,test_sp,NULL,PennController,41,_Header_,End,1744723797776,undefined,797,hostile,social-negative,social,physical,B,NULL
1744724207,c4f4e3dd6a8062956bb6c6f821d743d7,PennController,30,0,test_sp,NULL,Selector,unnamed-Selector,Selection,social,1744723799078,undefined,797,hostile,social-negative,social,physical,B,social;physical
1744724207,c4f4e3dd6a8062956bb6c6f821d743d7,PennController,30,0,test_sp,NULL,PennController,41,_Trial_,End,1744723799079,undefined,797,hostile,social-negative,social,physical,B,NULL
1744724207,c4f4e3dd6a8062956bb6c6f821d743d7,PennController,13,0,test_sp,NULL,PennController,24,_Trial_,Start,1744723799081,undefined,840,sturdy,physical-positive,social,physical,B,NULL
1744724207,c4f4e3dd6a8062956bb6c6f821d743d7,PennController,13,0,test_sp,NULL,PennController,24,_Header_,Start,1744723799081,undefined,840,sturdy,physical-positive,social,physical,B,NULL
1744724207,c4f4e3dd6a8062956bb6c6f821d743d7,PennController,13,0,test_sp,NULL,PennController,24,_Header_,End,1744723799333,undefined,840,sturdy,physical-positive,social,physical,B,NULL
1744724207,c4f4e3dd6a8062956bb6c6f821d743d7,PennController,13,0,test_sp,NULL,Selector,unnamed-Selector,Selection,physical,1744723800679,undefined,840,sturdy,physical-positive,social,physical,B,social;physical
1744724207,c4f4e3dd6a8062956bb6c6f821d743d7,PennController,13,0,test_sp,NULL,PennController,24,_Trial_,End,1744723800680,undefined,840,sturdy,physical-positive,social,physical,B,NULL
1744724207,c4f4e3dd6a8062956bb6c6f821d743d7,PennController,18,0,test_sp,NULL,PennController,29,_Trial_,Start,1744723800681,undefined,673,supportive,social-positive,social,physical,B,NULL
1744724207,c4f4e3dd6a8062956bb6c6f821d743d7,PennController,18,0,test_sp,NULL,PennController,29,_Header_,Start,1744723800681,undefined,673,supportive,social-positive,social,physical,B,NULL
1744724207,c4f4e3dd6a8062956bb6c6f821d743d7,PennController,18,0,test_sp,NULL,PennController,29,_Header_,End,1744723800935,undefined,673,supportive,social-positive,social,physical,B,NULL
1744724207,c4f4e3dd6a8062956bb6c6f821d743d7,PennController,18,0,test_sp,NULL,Selector,unnamed-Selector,Selection,social,1744723802112,undefined,673,supportive,social-positive,social,physical,B,social;physical
1744724207,c4f4e3dd6a8062956bb6c6f821d743d7,PennController,18,0,test_sp,NULL,PennController,29,_Trial_,End,1744723802113,undefined,673,supportive,social-positive,social,physical,B,NULL
1744724207,c4f4e3dd6a8062956bb6c6f821d743d7,PennController,9,0,test_sp,NULL,PennController,20,_Trial_,Start,1744723802114,undefined,722,sour,physical-negative,social,physical,B,NULL
1744724207,c4f4e3dd6a8062956bb6c6f821d743d7,PennController,9,0,test_sp,NULL,PennController,20,_Header_,Start,1744723802114,undefined,722,sour,physical-negative,social,physical,B,NULL
1744724207,c4f4e3dd6a8062956bb6c6f821d743d7,PennController,9,0,test_sp,NULL,PennController,20,_Header_,End,1744723802367,undefined,722,sour,physical-negative,social,physical,B,NULL
1744724207,c4f4e3dd6a8062956bb6c6f821d743d7,PennController,9,0,test_sp,NULL,Selector,unnamed-Selector,Selection,physical,1744723803590,undefined,722,sour,physical-negative,social,physical,B,social;physical
1744724207,c4f4e3dd6a8062956bb6c6f821d743d7,PennController,9,0,test_sp,NULL,PennController,20,_Trial_,End,1744723803592,undefined,722,sour,physical-negative,social,physical,B,NULL
1744724207,c4f4e3dd6a8062956bb6c6f821d743d7,PennController,12,0,test_sp,NULL,PennController,23,_Trial_,Start,1744723803593,undefined,690,rancid,physical-negative,social,physical,B,NULL
1744724207,c4f4e3dd6a8062956bb6c6f821d743d7,PennController,12,0,test_sp,NULL,PennController,23,_Header_,Start,1744723803593,undefined,690,rancid,physical-negative,social,physical,B,NULL
1744724207,c4f4e3dd6a8062956bb6c6f821d743d7,PennController,12,0,test_sp,NULL,PennController,23,_Header_,End,1744723803844,undefined,690,rancid,physical-negative,social,physical,B,NULL
1744724207,c4f4e3dd6a8062956bb6c6f821d743d7,PennController,12,0,test_sp,NULL,Selector,unnamed-Selector,Selection,physical,1744723805038,undefined,690,rancid,physical-negative,social,physical,B,social;physical
1744724207,c4f4e3dd6a8062956bb6c6f821d743d7,PennController,12,0,test_sp,NULL,PennController,23,_Trial_,End,1744723805040,undefined,690,rancid,physical-negative,social,physical,B,NULL
1744724207,c4f4e3dd6a8062956bb6c6f821d743d7,PennController,8,0,test_sp,NULL,PennController,19,_Trial_,Start,1744723805042,undefined,1395,fragrant,physical-positive,social,physical,B,NULL
1744724207,c4f4e3dd6a8062956bb6c6f821d743d7,PennController,8,0,test_sp,NULL,PennController,19,_Header_,Start,1744723805042,undefined,1395,fragrant,physical-positive,social,physical,B,NULL
1744724207,c4f4e3dd6a8062956bb6c6f821d743d7,PennController,8,0,test_sp,NULL,PennController,19,_Header_,End,1744723805296,undefined,1395,fragrant,physical-positive,social,physical,B,NULL
1744724207,c4f4e3dd6a8062956bb6c6f821d743d7,PennController,8,0,test_sp,NULL,Selector,unnamed-Selector,Selection,physical,1744723807196,undefined,1395,fragrant,physical-positive,social,physical,B,social;physical
1744724207,c4f4e3dd6a8062956bb6c6f821d743d7,PennController,8,0,test_sp,NULL,PennController,19,_Trial_,End,1744723807198,undefined,1395,fragrant,physical-positive,social,physical,B,NULL
1744724207,c4f4e3dd6a8062956bb6c6f821d743d7,PennController,23,0,test_sp,NULL,PennController,34,_Trial_,Start,1744723807200,undefined,762,unjust,social-negative,social,physical,B,NULL
1744724207,c4f4e3dd6a8062956bb6c6f821d743d7,PennController,23,0,test_sp,NULL,PennController,34,_Header_,Start,1744723807200,undefined,762,unjust,social-negative,social,physical,B,NULL
1744724207,c4f4e3dd6a8062956bb6c6f821d743d7,PennController,23,0,test_sp,NULL,PennController,34,_Header_,End,1744723807452,undefined,762,unjust,social-negative,social,physical,B,NULL
1744724207,c4f4e3dd6a8062956bb6c6f821d743d7,PennController,23,0,test_sp,NULL,Selector,unnamed-Selector,Selection,social,1744723808717,undefined,762,unjust,social-negative,social,physical,B,social;physical
1744724207,c4f4e3dd6a8062956bb6c6f821d743d7,PennController,23,0,test_sp,NULL,PennController,34,_Trial_,End,1744723808717,undefined,762,unjust,social-negative,social,physical,B,NULL
1744724207,c4f4e3dd6a8062956bb6c6f821d743d7,PennController,20,0,test_sp,NULL,PennController,31,_Trial_,Start,1744723808718,undefined,916,corrupt,social-negative,social,physical,B,NULL
1744724207,c4f4e3dd6a8062956bb6c6f821d743d7,PennController,20,0,test_sp,NULL,PennController,31,_Header_,Start,1744723808718,undefined,916,corrupt,social-negative,social,physical,B,NULL
1744724207,c4f4e3dd6a8062956bb6c6f821d743d7,PennController,20,0,test_sp,NULL,PennController,31,_Header_,End,1744723808969,undefined,916,corrupt,social-negative,social,physical,B,NULL
1744724207,c4f4e3dd6a8062956bb6c6f821d743d7,PennController,20,0,test_sp,NULL,Selector,unnamed-Selector,Selection,social,1744723810387,undefined,916,corrupt,social-negative,social,physical,B,social;physical
1744724207,c4f4e3dd6a8062956bb6c6f821d743d7,PennController,20,0,test_sp,NULL,PennController,31,_Trial_,End,1744723810388,undefined,916,corrupt,social-negative,social,physical,B,NULL
1744724207,c4f4e3dd6a8062956bb6c6f821d743d7,PennController,38,0,test_sp,NULL,PennController,49,_Trial_,Start,1744723810389,undefined,1104,arrogant,social-negative,social,physical,B,NULL
1744724207,c4f4e3dd6a8062956bb6c6f821d743d7,PennController,38,0,test_sp,NULL,PennController,49,_Header_,Start,1744723810389,undefined,1104,arrogant,social-negative,social,physical,B,NULL
1744724207,c4f4e3dd6a8062956bb6c6f821d743d7,PennController,38,0,test_sp,NULL,PennController,49,_Header_,End,1744723810639,undefined,1104,arrogant,social-negative,social,physical,B,NULL
1744724207,c4f4e3dd6a8062956bb6c6f821d743d7,PennController,38,0,test_sp,NULL,Selector,unnamed-Selector,Selection,social,1744723812245,undefined,1104,arrogant,social-negative,social,physical,B,social;physical
1744724207,c4f4e3dd6a8062956bb6c6f821d743d7,PennController,38,0,test_sp,NULL,PennController,49,_Trial_,End,1744723812245,undefined,1104,arrogant,social-negative,social,physical,B,NULL
1744724207,c4f4e3dd6a8062956bb6c6f821d743d7,PennController,6,0,test_sp,NULL,PennController,17,_Trial_,Start,1744723812246,undefined,595,smooth,physical-positive,social,physical,B,NULL
1744724207,c4f4e3dd6a8062956bb6c6f821d743d7,PennController,6,0,test_sp,NULL,PennController,17,_Header_,Start,1744723812246,undefined,595,smooth,physical-positive,social,physical,B,NULL
1744724207,c4f4e3dd6a8062956bb6c6f821d743d7,PennController,6,0,test_sp,NULL,PennController,17,_Header_,End,1744723812500,undefined,595,smooth,physical-positive,social,physical,B,NULL
1744724207,c4f4e3dd6a8062956bb6c6f821d743d7,PennController,6,0,test_sp,NULL,Selector,unnamed-Selector,Selection,physical,1744723813595,undefined,595,smooth,physical-positive,social,physical,B,social;physical
1744724207,c4f4e3dd6a8062956bb6c6f821d743d7,PennController,6,0,test_sp,NULL,PennController,17,_Trial_,End,1744723813595,undefined,595,smooth,physical-positive,social,physical,B,NULL
1744724207,c4f4e3dd6a8062956bb6c6f821d743d7,PennController,43,0,test_sp,NULL,PennController,54,_Trial_,Start,1744723813596,undefined,1580,sympathetic,social-positive,social,physical,B,NULL
1744724207,c4f4e3dd6a8062956bb6c6f821d743d7,PennController,43,0,test_sp,NULL,PennController,54,_Header_,Start,1744723813596,undefined,1580,sympathetic,social-positive,social,physical,B,NULL
1744724207,c4f4e3dd6a8062956bb6c6f821d743d7,PennController,43,0,test_sp,NULL,PennController,54,_Header_,End,1744723813848,undefined,1580,sympathetic,social-positive,social,physical,B,NULL
1744724207,c4f4e3dd6a8062956bb6c6f821d743d7,PennController,43,0,test_sp,NULL,Selector,unnamed-Selector,Selection,social,1744723815930,undefined,1580,sympathetic,social-positive,social,physical,B,social;physical
1744724207,c4f4e3dd6a8062956bb6c6f821d743d7,PennController,43,0,test_sp,NULL,PennController,54,_Trial_,End,1744723815932,undefined,1580,sympathetic,social-positive,social,physical,B,NULL
1744724207,c4f4e3dd6a8062956bb6c6f821d743d7,PennController,37,0,test_sp,NULL,PennController,48,_Trial_,Start,1744723815933,undefined,1000,cruel,social-negative,social,physical,B,NULL
1744724207,c4f4e3dd6a8062956bb6c6f821d743d7,PennController,37,0,test_sp,NULL,PennController,48,_Header_,Start,1744723815933,undefined,1000,cruel,social-negative,social,physical,B,NULL
1744724207,c4f4e3dd6a8062956bb6c6f821d743d7,PennController,37,0,test_sp,NULL,PennController,48,_Header_,End,1744723816183,undefined,1000,cruel,social-negative,social,physical,B,NULL
1744724207,c4f4e3dd6a8062956bb6c6f821d743d7,PennController,37,0,test_sp,NULL,Selector,unnamed-Selector,Selection,social,1744723817686,undefined,1000,cruel,social-negative,social,physical,B,social;physical
1744724207,c4f4e3dd6a8062956bb6c6f821d743d7,PennController,37,0,test_sp,NULL,PennController,48,_Trial_,End,1744723817687,undefined,1000,cruel,social-negative,social,physical,B,NULL
1744724207,c4f4e3dd6a8062956bb6c6f821d743d7,PennController,32,0,test_sp,NULL,PennController,43,_Trial_,Start,1744723817687,undefined,608,trustworthy,social-positive,social,physical,B,NULL
1744724207,c4f4e3dd6a8062956bb6c6f821d743d7,PennController,32,0,test_sp,NULL,PennController,43,_Header_,Start,1744723817687,undefined,608,trustworthy,social-positive,social,physical,B,NULL
1744724207,c4f4e3dd6a8062956bb6c6f821d743d7,PennController,32,0,test_sp,NULL,PennController,43,_Header_,End,1744723817937,undefined,608,trustworthy,social-positive,social,physical,B,NULL
1744724207,c4f4e3dd6a8062956bb6c6f821d743d7,PennController,32,0,test_sp,NULL,Selector,unnamed-Selector,Selection,social,1744723819049,undefined,608,trustworthy,social-positive,social,physical,B,social;physical
1744724207,c4f4e3dd6a8062956bb6c6f821d743d7,PennController,32,0,test_sp,NULL,PennController,43,_Trial_,End,1744723819051,undefined,608,trustworthy,social-positive,social,physical,B,NULL
1744724207,c4f4e3dd6a8062956bb6c6f821d743d7,PennController,15,0,test_sp,NULL,PennController,26,_Trial_,Start,1744723819053,undefined,557,prosperous,social-positive,social,physical,B,NULL
1744724207,c4f4e3dd6a8062956bb6c6f821d743d7,PennController,15,0,test_sp,NULL,PennController,26,_Header_,Start,1744723819053,undefined,557,prosperous,social-positive,social,physical,B,NULL
1744724207,c4f4e3dd6a8062956bb6c6f821d743d7,PennController,15,0,test_sp,NULL,PennController,26,_Header_,End,1744723819303,undefined,557,prosperous,social-positive,social,physical,B,NULL
1744724207,c4f4e3dd6a8062956bb6c6f821d743d7,PennController,15,0,test_sp,NULL,Selector,unnamed-Selector,Selection,social,1744723820363,undefined,557,prosperous,social-positive,social,physical,B,social;physical
1744724207,c4f4e3dd6a8062956bb6c6f821d743d7,PennController,15,0,test_sp,NULL,PennController,26,_Trial_,End,1744723820365,undefined,557,prosperous,social-positive,social,physical,B,NULL
1744724207,c4f4e3dd6a8062956bb6c6f821d743d7,PennController,28,0,test_sp,NULL,PennController,39,_Trial_,Start,1744723820367,undefined,589,scrawny,physical-negative,social,physical,B,NULL
1744724207,c4f4e3dd6a8062956bb6c6f821d743d7,PennController,28,0,test_sp,NULL,PennController,39,_Header_,Start,1744723820367,undefined,589,scrawny,physical-negative,social,physical,B,NULL
1744724207,c4f4e3dd6a8062956bb6c6f821d743d7,PennController,28,0,test_sp,NULL,PennController,39,_Header_,End,1744723820617,undefined,589,scrawny,physical-negative,social,physical,B,NULL
1744724207,c4f4e3dd6a8062956bb6c6f821d743d7,PennController,28,0,test_sp,NULL,Selector,unnamed-Selector,Selection,physical,1744723821709,undefined,589,scrawny,physical-negative,social,physical,B,social;physical
1744724207,c4f4e3dd6a8062956bb6c6f821d743d7,PennController,28,0,test_sp,NULL,PennController,39,_Trial_,End,1744723821711,undefined,589,scrawny,physical-negative,social,physical,B,NULL
1744724207,c4f4e3dd6a8062956bb6c6f821d743d7,PennController,24,0,test_sp,NULL,PennController,35,_Trial_,Start,1744723821713,undefined,616,wrinkled,physical-negative,social,physical,B,NULL
1744724207,c4f4e3dd6a8062956bb6c6f821d743d7,PennController,24,0,test_sp,NULL,PennController,35,_Header_,Start,1744723821713,undefined,616,wrinkled,physical-negative,social,physical,B,NULL
1744724207,c4f4e3dd6a8062956bb6c6f821d743d7,PennController,24,0,test_sp,NULL,PennController,35,_Header_,End,1744723821967,undefined,616,wrinkled,physical-negative,social,physical,B,NULL
1744724207,c4f4e3dd6a8062956bb6c6f821d743d7,PennController,24,0,test_sp,NULL,Selector,unnamed-Selector,Selection,physical,1744723823088,undefined,616,wrinkled,physical-negative,social,physical,B,social;physical
1744724207,c4f4e3dd6a8062956bb6c6f821d743d7,PennController,24,0,test_sp,NULL,PennController,35,_Trial_,End,1744723823090,undefined,616,wrinkled,physical-negative,social,physical,B,NULL
1744724207,c4f4e3dd6a8062956bb6c6f821d743d7,PennController,14,0,test_sp,NULL,PennController,25,_Trial_,Start,1744723823092,undefined,876,lush,physical-positive,social,physical,B,NULL
1744724207,c4f4e3dd6a8062956bb6c6f821d743d7,PennController,14,0,test_sp,NULL,PennController,25,_Header_,Start,1744723823092,undefined,876,lush,physical-positive,social,physical,B,NULL
1744724207,c4f4e3dd6a8062956bb6c6f821d743d7,PennController,14,0,test_sp,NULL,PennController,25,_Header_,End,1744723823344,undefined,876,lush,physical-positive,social,physical,B,NULL
1744724207,c4f4e3dd6a8062956bb6c6f821d743d7,PennController,14,0,test_sp,NULL,Selector,unnamed-Selector,Selection,physical,1744723824724,undefined,876,lush,physical-positive,social,physical,B,social;physical
1744724207,c4f4e3dd6a8062956bb6c6f821d743d7,PennController,14,0,test_sp,NULL,PennController,25,_Trial_,End,1744723824726,undefined,876,lush,physical-positive,social,physical,B,NULL
1744724207,c4f4e3dd6a8062956bb6c6f821d743d7,PennController,41,0,test_sp,NULL,PennController,52,_Trial_,Start,1744723824728,undefined,713,polite,social-positive,social,physical,B,NULL
1744724207,c4f4e3dd6a8062956bb6c6f821d743d7,PennController,41,0,test_sp,NULL,PennController,52,_Header_,Start,1744723824728,undefined,713,polite,social-positive,social,physical,B,NULL
1744724207,c4f4e3dd6a8062956bb6c6f821d743d7,PennController,41,0,test_sp,NULL,PennController,52,_Header_,End,1744723824982,undefined,713,polite,social-positive,social,physical,B,NULL
1744724207,c4f4e3dd6a8062956bb6c6f821d743d7,PennController,41,0,test_sp,NULL,Selector,unnamed-Selector,Selection,social,1744723826200,undefined,713,polite,social-positive,social,physical,B,social;physical
1744724207,c4f4e3dd6a8062956bb6c6f821d743d7,PennController,41,0,test_sp,NULL,PennController,52,_Trial_,End,1744723826201,undefined,713,polite,social-positive,social,physical,B,NULL
1744724207,c4f4e3dd6a8062956bb6c6f821d743d7,PennController,39,0,test_sp,NULL,PennController,50,_Trial_,Start,1744723826202,undefined,1196,untrustworthy,social-negative,social,physical,B,NULL
1744724207,c4f4e3dd6a8062956bb6c6f821d743d7,PennController,39,0,test_sp,NULL,PennController,50,_Header_,Start,1744723826202,undefined,1196,untrustworthy,social-negative,social,physical,B,NULL
1744724207,c4f4e3dd6a8062956bb6c6f821d743d7,PennController,39,0,test_sp,NULL,PennController,50,_Header_,End,1744723826454,undefined,1196,untrustworthy,social-negative,social,physical,B,NULL
1744724207,c4f4e3dd6a8062956bb6c6f821d743d7,PennController,39,0,test_sp,NULL,Selector,unnamed-Selector,Selection,social,1744723828152,undefined,1196,untrustworthy,social-negative,social,physical,B,social;physical
1744724207,c4f4e3dd6a8062956bb6c6f821d743d7,PennController,39,0,test_sp,NULL,PennController,50,_Trial_,End,1744723828152,undefined,1196,untrustworthy,social-negative,social,physical,B,NULL
1744724207,c4f4e3dd6a8062956bb6c6f821d743d7,PennController,42,0,test_sp,NULL,PennController,53,_Trial_,Start,1744723828153,undefined,1365,judgmental,social-negative,social,physical,B,NULL
1744724207,c4f4e3dd6a8062956bb6c6f821d743d7,PennController,42,0,test_sp,NULL,PennController,53,_Header_,Start,1744723828153,undefined,1365,judgmental,social-negative,social,physical,B,NULL
1744724207,c4f4e3dd6a8062956bb6c6f821d743d7,PennController,42,0,test_sp,NULL,PennController,53,_Header_,End,1744723828404,undefined,1365,judgmental,social-negative,social,physical,B,NULL
1744724207,c4f4e3dd6a8062956bb6c6f821d743d7,PennController,42,0,test_sp,NULL,Selector,unnamed-Selector,Selection,social,1744723830274,undefined,1365,judgmental,social-negative,social,physical,B,social;physical
1744724207,c4f4e3dd6a8062956bb6c6f821d743d7,PennController,42,0,test_sp,NULL,PennController,53,_Trial_,End,1744723830275,undefined,1365,judgmental,social-negative,social,physical,B,NULL
1744724207,c4f4e3dd6a8062956bb6c6f821d743d7,PennController,30,0,test_sp,NULL,PennController,41,_Trial_,Start,1744723830276,undefined,592,hostile,social-negative,social,physical,B,NULL
1744724207,c4f4e3dd6a8062956bb6c6f821d743d7,PennController,30,0,test_sp,NULL,PennController,41,_Header_,Start,1744723830276,undefined,592,hostile,social-negative,social,physical,B,NULL
1744724207,c4f4e3dd6a8062956bb6c6f821d743d7,PennController,30,0,test_sp,NULL,PennController,41,_Header_,End,1744723830531,undefined,592,hostile,social-negative,social,physical,B,NULL
1744724207,c4f4e3dd6a8062956bb6c6f821d743d7,PennController,30,0,test_sp,NULL,Selector,unnamed-Selector,Selection,social,1744723831625,undefined,592,hostile,social-negative,social,physical,B,social;physical
1744724207,c4f4e3dd6a8062956bb6c6f821d743d7,PennController,30,0,test_sp,NULL,PennController,41,_Trial_,End,1744723831626,undefined,592,hostile,social-negative,social,physical,B,NULL
1744724207,c4f4e3dd6a8062956bb6c6f821d743d7,PennController,36,0,test_sp,NULL,PennController,47,_Trial_,Start,1744723831626,undefined,597,manipulative,social-negative,social,physical,B,NULL
1744724207,c4f4e3dd6a8062956bb6c6f821d743d7,PennController,36,0,test_sp,NULL,PennController,47,_Header_,Start,1744723831626,undefined,597,manipulative,social-negative,social,physical,B,NULL
1744724207,c4f4e3dd6a8062956bb6c6f821d743d7,PennController,36,0,test_sp,NULL,PennController,47,_Header_,End,1744723831877,undefined,597,manipulative,social-negative,social,physical,B,NULL
1744724207,c4f4e3dd6a8062956bb6c6f821d743d7,PennController,36,0,test_sp,NULL,Selector,unnamed-Selector,Selection,social,1744723832976,undefined,597,manipulative,social-negative,social,physical,B,social;physical
1744724207,c4f4e3dd6a8062956bb6c6f821d743d7,PennController,36,0,test_sp,NULL,PennController,47,_Trial_,End,1744723832977,undefined,597,manipulative,social-negative,social,physical,B,NULL
1744724207,c4f4e3dd6a8062956bb6c6f821d743d7,PennController,11,0,test_sp,NULL,PennController,22,_Trial_,Start,1744723832978,undefined,885,gritty,physical-negative,social,physical,B,NULL
1744724207,c4f4e3dd6a8062956bb6c6f821d743d7,PennController,11,0,test_sp,NULL,PennController,22,_Header_,Start,1744723832978,undefined,885,gritty,physical-negative,social,physical,B,NULL
1744724207,c4f4e3dd6a8062956bb6c6f821d743d7,PennController,11,0,test_sp,NULL,PennController,22,_Header_,End,1744723833230,undefined,885,gritty,physical-negative,social,physical,B,NULL
1744724207,c4f4e3dd6a8062956bb6c6f821d743d7,PennController,11,0,test_sp,NULL,Selector,unnamed-Selector,Selection,physical,1744723834618,undefined,885,gritty,physical-negative,social,physical,B,social;physical
1744724207,c4f4e3dd6a8062956bb6c6f821d743d7,PennController,11,0,test_sp,NULL,PennController,22,_Trial_,End,1744723834620,undefined,885,gritty,physical-negative,social,physical,B,NULL
1744724207,c4f4e3dd6a8062956bb6c6f821d743d7,PennController,21,0,test_sp,NULL,PennController,32,_Trial_,Start,1744723834622,undefined,546,compassionate,social-positive,social,physical,B,NULL
1744724207,c4f4e3dd6a8062956bb6c6f821d743d7,PennController,21,0,test_sp,NULL,PennController,32,_Header_,Start,1744723834622,undefined,546,compassionate,social-positive,social,physical,B,NULL
1744724207,c4f4e3dd6a8062956bb6c6f821d743d7,PennController,21,0,test_sp,NULL,PennController,32,_Header_,End,1744723834876,undefined,546,compassionate,social-positive,social,physical,B,NULL
1744724207,c4f4e3dd6a8062956bb6c6f821d743d7,PennController,21,0,test_sp,NULL,Selector,unnamed-Selector,Selection,social,1744723835923,undefined,546,compassionate,social-positive,social,physical,B,social;physical
1744724207,c4f4e3dd6a8062956bb6c6f821d743d7,PennController,21,0,test_sp,NULL,PennController,32,_Trial_,End,1744723835925,undefined,546,compassionate,social-positive,social,physical,B,NULL
1744724207,c4f4e3dd6a8062956bb6c6f821d743d7,PennController,40,0,test_sp,NULL,PennController,51,_Trial_,Start,1744723835927,undefined,705,selfish,social-negative,social,physical,B,NULL
1744724207,c4f4e3dd6a8062956bb6c6f821d743d7,PennController,40,0,test_sp,NULL,PennController,51,_Header_,Start,1744723835927,undefined,705,selfish,social-negative,social,physical,B,NULL
1744724207,c4f4e3dd6a8062956bb6c6f821d743d7,PennController,40,0,test_sp,NULL,PennController,51,_Header_,End,1744723836181,undefined,705,selfish,social-negative,social,physical,B,NULL
1744724207,c4f4e3dd6a8062956bb6c6f821d743d7,PennController,40,0,test_sp,NULL,Selector,unnamed-Selector,Selection,social,1744723837391,undefined,705,selfish,social-negative,social,physical,B,social;physical
1744724207,c4f4e3dd6a8062956bb6c6f821d743d7,PennController,40,0,test_sp,NULL,PennController,51,_Trial_,End,1744723837392,undefined,705,selfish,social-negative,social,physical,B,NULL
1744724207,c4f4e3dd6a8062956bb6c6f821d743d7,PennController,29,0,test_sp,NULL,PennController,40,_Trial_,Start,1744723837394,undefined,967,youthful,physical-positive,social,physical,B,NULL
1744724207,c4f4e3dd6a8062956bb6c6f821d743d7,PennController,29,0,test_sp,NULL,PennController,40,_Header_,Start,1744723837394,undefined,967,youthful,physical-positive,social,physical,B,NULL
1744724207,c4f4e3dd6a8062956bb6c6f821d743d7,PennController,29,0,test_sp,NULL,PennController,40,_Header_,End,1744723837647,undefined,967,youthful,physical-positive,social,physical,B,NULL
1744724207,c4f4e3dd6a8062956bb6c6f821d743d7,PennController,29,0,test_sp,NULL,Selector,unnamed-Selector,Selection,social,1744723839122,undefined,967,youthful,physical-positive,social,physical,B,social;physical
1744724207,c4f4e3dd6a8062956bb6c6f821d743d7,PennController,29,0,test_sp,NULL,PennController,40,_Trial_,End,1744723839124,undefined,967,youthful,physical-positive,social,physical,B,NULL
1744724207,c4f4e3dd6a8062956bb6c6f821d743d7,PennController,25,0,test_sp,NULL,PennController,36,_Trial_,Start,1744723839126,undefined,566,slim,physical-positive,social,physical,B,NULL
1744724207,c4f4e3dd6a8062956bb6c6f821d743d7,PennController,25,0,test_sp,NULL,PennController,36,_Header_,Start,1744723839126,undefined,566,slim,physical-positive,social,physical,B,NULL
1744724207,c4f4e3dd6a8062956bb6c6f821d743d7,PennController,25,0,test_sp,NULL,PennController,36,_Header_,End,1744723839376,undefined,566,slim,physical-positive,social,physical,B,NULL
1744724207,c4f4e3dd6a8062956bb6c6f821d743d7,PennController,25,0,test_sp,NULL,Selector,unnamed-Selector,Selection,physical,1744723840449,undefined,566,slim,physical-positive,social,physical,B,social;physical
1744724207,c4f4e3dd6a8062956bb6c6f821d743d7,PennController,25,0,test_sp,NULL,PennController,36,_Trial_,End,1744723840450,undefined,566,slim,physical-positive,social,physical,B,NULL
1744724207,c4f4e3dd6a8062956bb6c6f821d743d7,PennController,35,0,test_sp,NULL,PennController,46,_Trial_,Start,1744723840453,undefined,508,gorgeous,physical-positive,social,physical,B,NULL
1744724207,c4f4e3dd6a8062956bb6c6f821d743d7,PennController,35,0,test_sp,NULL,PennController,46,_Header_,Start,1744723840453,undefined,508,gorgeous,physical-positive,social,physical,B,NULL
1744724207,c4f4e3dd6a8062956bb6c6f821d743d7,PennController,35,0,test_sp,NULL,PennController,46,_Header_,End,1744723840706,undefined,508,gorgeous,physical-positive,social,physical,B,NULL
1744724207,c4f4e3dd6a8062956bb6c6f821d743d7,PennController,35,0,test_sp,NULL,Selector,unnamed-Selector,Selection,social,1744723841718,undefined,508,gorgeous,physical-positive,social,physical,B,social;physical
1744724207,c4f4e3dd6a8062956bb6c6f821d743d7,PennController,35,0,test_sp,NULL,PennController,46,_Trial_,End,1744723841719,undefined,508,gorgeous,physical-positive,social,physical,B,NULL
1744724207,c4f4e3dd6a8062956bb6c6f821d743d7,PennController,16,0,test_sp,NULL,PennController,27,_Trial_,Start,1744723841720,undefined,788,radiant,physical-positive,social,physical,B,NULL
1744724207,c4f4e3dd6a8062956bb6c6f821d743d7,PennController,16,0,test_sp,NULL,PennController,27,_Header_,Start,1744723841720,undefined,788,radiant,physical-positive,social,physical,B,NULL
1744724207,c4f4e3dd6a8062956bb6c6f821d743d7,PennController,16,0,test_sp,NULL,PennController,27,_Header_,End,1744723841970,undefined,788,radiant,physical-positive,social,physical,B,NULL
1744724207,c4f4e3dd6a8062956bb6c6f821d743d7,PennController,16,0,test_sp,NULL,Selector,unnamed-Selector,Selection,physical,1744723843262,undefined,788,radiant,physical-positive,social,physical,B,social;physical
1744724207,c4f4e3dd6a8062956bb6c6f821d743d7,PennController,16,0,test_sp,NULL,PennController,27,_Trial_,End,1744723843264,undefined,788,radiant,physical-positive,social,physical,B,NULL
1744724207,c4f4e3dd6a8062956bb6c6f821d743d7,PennController,17,0,test_sp,NULL,PennController,28,_Trial_,Start,1744723843266,undefined,776,fair,social-positive,social,physical,B,NULL
1744724207,c4f4e3dd6a8062956bb6c6f821d743d7,PennController,17,0,test_sp,NULL,PennController,28,_Header_,Start,1744723843266,undefined,776,fair,social-positive,social,physical,B,NULL
1744724207,c4f4e3dd6a8062956bb6c6f821d743d7,PennController,17,0,test_sp,NULL,PennController,28,_Header_,End,1744723843519,undefined,776,fair,social-positive,social,physical,B,NULL
1744724207,c4f4e3dd6a8062956bb6c6f821d743d7,PennController,17,0,test_sp,NULL,Selector,unnamed-Selector,Selection,social,1744723844801,undefined,776,fair,social-positive,social,physical,B,social;physical
1744724207,c4f4e3dd6a8062956bb6c6f821d743d7,PennController,17,0,test_sp,NULL,PennController,28,_Trial_,End,1744723844802,undefined,776,fair,social-positive,social,physical,B,NULL
1744724207,c4f4e3dd6a8062956bb6c6f821d743d7,PennController,5,0,test_sp,NULL,PennController,16,_Trial_,Start,1744723844804,undefined,1380,soft,physical-positive,social,physical,B,NULL
1744724207,c4f4e3dd6a8062956bb6c6f821d743d7,PennController,5,0,test_sp,NULL,PennController,16,_Header_,Start,1744723844804,undefined,1380,soft,physical-positive,social,physical,B,NULL
1744724207,c4f4e3dd6a8062956bb6c6f821d743d7,PennController,5,0,test_sp,NULL,PennController,16,_Header_,End,1744723845056,undefined,1380,soft,physical-positive,social,physical,B,NULL
1744724207,c4f4e3dd6a8062956bb6c6f821d743d7,PennController,5,0,test_sp,NULL,Selector,unnamed-Selector,Selection,physical,1744723846940,undefined,1380,soft,physical-positive,social,physical,B,social;physical
1744724207,c4f4e3dd6a8062956bb6c6f821d743d7,PennController,5,0,test_sp,NULL,PennController,16,_Trial_,End,1744723846942,undefined,1380,soft,physical-positive,social,physical,B,NULL
1744724207,c4f4e3dd6a8062956bb6c6f821d743d7,PennController,33,0,test_sp,NULL,PennController,44,_Trial_,Start,1744723846944,undefined,1167,elegant,physical-positive,social,physical,B,NULL
1744724207,c4f4e3dd6a8062956bb6c6f821d743d7,PennController,33,0,test_sp,NULL,PennController,44,_Header_,Start,1744723846944,undefined,1167,elegant,physical-positive,social,physical,B,NULL
1744724207,c4f4e3dd6a8062956bb6c6f821d743d7,PennController,33,0,test_sp,NULL,PennController,44,_Header_,End,1744723847194,undefined,1167,elegant,physical-positive,social,physical,B,NULL
1744724207,c4f4e3dd6a8062956bb6c6f821d743d7,PennController,33,0,test_sp,NULL,Selector,unnamed-Selector,Selection,social,1744723848862,undefined,1167,elegant,physical-positive,social,physical,B,social;physical
1744724207,c4f4e3dd6a8062956bb6c6f821d743d7,PennController,33,0,test_sp,NULL,PennController,44,_Trial_,End,1744723848863,undefined,1167,elegant,physical-positive,social,physical,B,NULL
1744724207,c4f4e3dd6a8062956bb6c6f821d743d7,PennController,27,0,test_sp,NULL,PennController,38,_Trial_,Start,1744723848864,undefined,1214,ugly,physical-negative,social,physical,B,NULL
1744724207,c4f4e3dd6a8062956bb6c6f821d743d7,PennController,27,0,test_sp,NULL,PennController,38,_Header_,Start,1744723848864,undefined,1214,ugly,physical-negative,social,physical,B,NULL
1744724207,c4f4e3dd6a8062956bb6c6f821d743d7,PennController,27,0,test_sp,NULL,PennController,38,_Header_,End,1744723849117,undefined,1214,ugly,physical-negative,social,physical,B,NULL
1744724207,c4f4e3dd6a8062956bb6c6f821d743d7,PennController,27,0,test_sp,NULL,Selector,unnamed-Selector,Selection,physical,1744723850834,undefined,1214,ugly,physical-negative,social,physical,B,social;physical
1744724207,c4f4e3dd6a8062956bb6c6f821d743d7,PennController,27,0,test_sp,NULL,PennController,38,_Trial_,End,1744723850835,undefined,1214,ugly,physical-negative,social,physical,B,NULL
1744724207,c4f4e3dd6a8062956bb6c6f821d743d7,PennController,31,0,test_sp,NULL,PennController,42,_Trial_,Start,1744723850836,undefined,622,amiable,social-positive,social,physical,B,NULL
1744724207,c4f4e3dd6a8062956bb6c6f821d743d7,PennController,31,0,test_sp,NULL,PennController,42,_Header_,Start,1744723850836,undefined,622,amiable,social-positive,social,physical,B,NULL
1744724207,c4f4e3dd6a8062956bb6c6f821d743d7,PennController,31,0,test_sp,NULL,PennController,42,_Header_,End,1744723851086,undefined,622,amiable,social-positive,social,physical,B,NULL
1744724207,c4f4e3dd6a8062956bb6c6f821d743d7,PennController,31,0,test_sp,NULL,Selector,unnamed-Selector,Selection,social,1744723852210,undefined,622,amiable,social-positive,social,physical,B,social;physical
1744724207,c4f4e3dd6a8062956bb6c6f821d743d7,PennController,31,0,test_sp,NULL,PennController,42,_Trial_,End,1744723852211,undefined,622,amiable,social-positive,social,physical,B,NULL
1744724207,c4f4e3dd6a8062956bb6c6f821d743d7,PennController,34,0,test_sp,NULL,PennController,45,_Trial_,Start,1744723852211,undefined,622,generous,social-positive,social,physical,B,NULL
1744724207,c4f4e3dd6a8062956bb6c6f821d743d7,PennController,34,0,test_sp,NULL,PennController,45,_Header_,Start,1744723852211,undefined,622,generous,social-positive,social,physical,B,NULL
1744724207,c4f4e3dd6a8062956bb6c6f821d743d7,PennController,34,0,test_sp,NULL,PennController,45,_Header_,End,1744723852465,undefined,622,generous,social-positive,social,physical,B,NULL
1744724207,c4f4e3dd6a8062956bb6c6f821d743d7,PennController,34,0,test_sp,NULL,Selector,unnamed-Selector,Selection,social,1744723853590,undefined,622,generous,social-positive,social,physical,B,social;physical
1744724207,c4f4e3dd6a8062956bb6c6f821d743d7,PennController,34,0,test_sp,NULL,PennController,45,_Trial_,End,1744723853591,undefined,622,generous,social-positive,social,physical,B,NULL
1744724207,c4f4e3dd6a8062956bb6c6f821d743d7,PennController,10,0,test_sp,NULL,PennController,21,_Trial_,Start,1744723853592,undefined,1052,clammy,physical-negative,social,physical,B,NULL
1744724207,c4f4e3dd6a8062956bb6c6f821d743d7,PennController,10,0,test_sp,NULL,PennController,21,_Header_,Start,1744723853592,undefined,1052,clammy,physical-negative,social,physical,B,NULL
1744724207,c4f4e3dd6a8062956bb6c6f821d743d7,PennController,10,0,test_sp,NULL,PennController,21,_Header_,End,1744723853845,undefined,1052,clammy,physical-negative,social,physical,B,NULL
1744724207,c4f4e3dd6a8062956bb6c6f821d743d7,PennController,10,0,test_sp,NULL,Selector,unnamed-Selector,Selection,physical,1744723855400,undefined,1052,clammy,physical-negative,social,physical,B,social;physical
1744724207,c4f4e3dd6a8062956bb6c6f821d743d7,PennController,10,0,test_sp,NULL,PennController,21,_Trial_,End,1744723855401,undefined,1052,clammy,physical-negative,social,physical,B,NULL
1744724207,c4f4e3dd6a8062956bb6c6f821d743d7,PennController,4,0,test_sp,NULL,PennController,15,_Trial_,Start,1744723855401,undefined,635,moldy,physical-negative,social,physical,B,NULL
1744724207,c4f4e3dd6a8062956bb6c6f821d743d7,PennController,4,0,test_sp,NULL,PennController,15,_Header_,Start,1744723855401,undefined,635,moldy,physical-negative,social,physical,B,NULL
1744724207,c4f4e3dd6a8062956bb6c6f821d743d7,PennController,4,0,test_sp,NULL,PennController,15,_Header_,End,1744723855655,undefined,635,moldy,physical-negative,social,physical,B,NULL
1744724207,c4f4e3dd6a8062956bb6c6f821d743d7,PennController,4,0,test_sp,NULL,Selector,unnamed-Selector,Selection,physical,1744723856792,undefined,635,moldy,physical-negative,social,physical,B,social;physical
1744724207,c4f4e3dd6a8062956bb6c6f821d743d7,PennController,4,0,test_sp,NULL,PennController,15,_Trial_,End,1744723856792,undefined,635,moldy,physical-negative,social,physical,B,NULL
1744724207,c4f4e3dd6a8062956bb6c6f821d743d7,PennController,26,0,test_sp,NULL,PennController,37,_Trial_,Start,1744723856793,undefined,906,obese,physical-negative,social,physical,B,NULL
1744724207,c4f4e3dd6a8062956bb6c6f821d743d7,PennController,26,0,test_sp,NULL,PennController,37,_Header_,Start,1744723856793,undefined,906,obese,physical-negative,social,physical,B,NULL
1744724207,c4f4e3dd6a8062956bb6c6f821d743d7,PennController,26,0,test_sp,NULL,PennController,37,_Header_,End,1744723857044,undefined,906,obese,physical-negative,social,physical,B,NULL
1744724207,c4f4e3dd6a8062956bb6c6f821d743d7,PennController,26,0,test_sp,NULL,Selector,unnamed-Selector,Selection,social,1744723858453,undefined,906,obese,physical-negative,social,physical,B,social;physical
1744724207,c4f4e3dd6a8062956bb6c6f821d743d7,PennController,26,0,test_sp,NULL,PennController,37,_Trial_,End,1744723858455,undefined,906,obese,physical-negative,social,physical,B,NULL
1744724207,c4f4e3dd6a8062956bb6c6f821d743d7,PennController,22,0,test_sp,NULL,PennController,33,_Trial_,Start,1744723858457,undefined,932,oppressive,social-negative,social,physical,B,NULL
1744724207,c4f4e3dd6a8062956bb6c6f821d743d7,PennController,22,0,test_sp,NULL,PennController,33,_Header_,Start,1744723858457,undefined,932,oppressive,social-negative,social,physical,B,NULL
1744724207,c4f4e3dd6a8062956bb6c6f821d743d7,PennController,22,0,test_sp,NULL,PennController,33,_Header_,End,1744723858711,undefined,932,oppressive,social-negative,social,physical,B,NULL
1744724207,c4f4e3dd6a8062956bb6c6f821d743d7,PennController,22,0,test_sp,NULL,Selector,unnamed-Selector,Selection,social,1744723860148,undefined,932,oppressive,social-negative,social,physical,B,social;physical
1744724207,c4f4e3dd6a8062956bb6c6f821d743d7,PennController,22,0,test_sp,NULL,PennController,33,_Trial_,End,1744723860150,undefined,932,oppressive,social-negative,social,physical,B,NULL
1744724207,c4f4e3dd6a8062956bb6c6f821d743d7,PennController,7,0,test_sp,NULL,PennController,18,_Trial_,Start,1744723860152,undefined,1174,brittle,physical-negative,social,physical,B,NULL
1744724207,c4f4e3dd6a8062956bb6c6f821d743d7,PennController,7,0,test_sp,NULL,PennController,18,_Header_,Start,1744723860152,undefined,1174,brittle,physical-negative,social,physical,B,NULL
1744724207,c4f4e3dd6a8062956bb6c6f821d743d7,PennController,7,0,test_sp,NULL,PennController,18,_Header_,End,1744723860403,undefined,1174,brittle,physical-negative,social,physical,B,NULL
1744724207,c4f4e3dd6a8062956bb6c6f821d743d7,PennController,7,0,test_sp,NULL,Selector,unnamed-Selector,Selection,physical,1744723862081,undefined,1174,brittle,physical-negative,social,physical,B,social;physical
1744724207,c4f4e3dd6a8062956bb6c6f821d743d7,PennController,7,0,test_sp,NULL,PennController,18,_Trial_,End,1744723862083,undefined,1174,brittle,physical-negative,social,physical,B,NULL
1744724207,c4f4e3dd6a8062956bb6c6f821d743d7,PennController,19,0,test_sp,NULL,PennController,30,_Trial_,Start,1744723862085,undefined,649,harmonious,social-positive,social,physical,B,NULL
