#
# Results on Tue, 15 Apr 2025 14:57:58 GMT
# USER AGENT: Mozilla/5.0 (Macintosh; Intel Mac OS X 10_15_7) AppleWebKit/537.36 (KHTML, like Gecko) Chrome/135.0.0.0 Safari/537.36
# Design number was non-random = 0
#
# Columns below this comment are as follows:
# 1. Results reception time.
# 2. MD5 hash of participant's IP address.
# 3. Controller name.
# 4. Order number of item.
# 5. Inner element number.
# 6. Label.
# 7. Latin Square Group.
# 8. PennElementType.
# 9. PennElementName.
# 10. Parameter.
# 11. Value.
# 12. EventTime.
# 13. Comments.
1744729078,31718015fcfa025c305ad0dec51b4814,PennController,1,0,welcome,NULL,PennController,0,_Trial_,Start,1744728101158,NULL
1744729078,31718015fcfa025c305ad0dec51b4814,PennController,1,0,welcome,NULL,PennController,0,_Header_,Start,1744728101158,NULL
1744729078,31718015fcfa025c305ad0dec51b4814,PennController,1,0,welcome,NULL,PennController,0,_Header_,End,1744728101410,NULL
1744729078,31718015fcfa025c305ad0dec51b4814,PennController,1,0,welcome,NULL,PennController,0,_Trial_,End,1744728136608,NULL
# 13. ID.
# 14. Comments.
1744729078,31718015fcfa025c305ad0dec51b4814,PennController,124,0,consent,NULL,PennController,2,_Trial_,Start,1744728136610,651f8f555a5fde411587c859,NULL
1744729078,31718015fcfa025c305ad0dec51b4814,PennController,124,0,consent,NULL,PennController,2,_Header_,Start,1744728136610,651f8f555a5fde411587c859,NULL
1744729078,31718015fcfa025c305ad0dec51b4814,PennController,124,0,consent,NULL,PennController,2,_Header_,End,1744728136862,651f8f555a5fde411587c859,NULL
1744729078,31718015fcfa025c305ad0dec51b4814,PennController,124,0,consent,NULL,TextInput,ID,Final,651f8f555a5fde411587c859,1744728156009,651f8f555a5fde411587c859,NULL
1744729078,31718015fcfa025c305ad0dec51b4814,PennController,124,0,consent,NULL,TextInput,ID,First,,1744728147116,651f8f555a5fde411587c859,Meta
1744729078,31718015fcfa025c305ad0dec51b4814,PennController,124,0,consent,NULL,PennController,2,_Trial_,End,1744728156009,651f8f555a5fde411587c859,NULL
# 13. Comments.
1744729078,31718015fcfa025c305ad0dec51b4814,PennController,126,0,instructions1_val,NULL,PennController,4,_Trial_,Start,1744728156010,NULL
1744729078,31718015fcfa025c305ad0dec51b4814,PennController,126,0,instructions1_val,NULL,PennController,4,_Header_,Start,1744728156010,NULL
1744729078,31718015fcfa025c305ad0dec51b4814,PennController,126,0,instructions1_val,NULL,PennController,4,_Header_,End,1744728156262,NULL
1744729078,31718015fcfa025c305ad0dec51b4814,PennController,126,0,instructions1_val,NULL,PennController,4,_Trial_,End,1744728181706,NULL
1744729078,31718015fcfa025c305ad0dec51b4814,PennController,127,0,instructions2_val,NULL,PennController,5,_Trial_,Start,1744728181708,NULL
1744729078,31718015fcfa025c305ad0dec51b4814,PennController,127,0,instructions2_val,NULL,PennController,5,_Header_,Start,1744728181708,NULL
1744729078,31718015fcfa025c305ad0dec51b4814,PennController,127,0,instructions2_val,NULL,PennController,5,_Header_,End,1744728181960,NULL
1744729078,31718015fcfa025c305ad0dec51b4814,PennController,127,0,instructions2_val,NULL,PennController,5,_Trial_,End,1744728190039,NULL
1744729078,31718015fcfa025c305ad0dec51b4814,PennController,128,0,instructions3_hands,NULL,PennController,6,_Trial_,Start,1744728190041,NULL
1744729078,31718015fcfa025c305ad0dec51b4814,PennController,128,0,instructions3_hands,NULL,PennController,6,_Header_,Start,1744728190041,NULL
1744729078,31718015fcfa025c305ad0dec51b4814,PennController,128,0,instructions3_hands,NULL,PennController,6,_Header_,End,1744728190294,NULL
1744729078,31718015fcfa025c305ad0dec51b4814,PennController,128,0,instructions3_hands,NULL,PennController,6,_Trial_,End,1744728195931,NULL
1744729078,31718015fcfa025c305ad0dec51b4814,PennController,129,0,practice_intro_val,NULL,PennController,7,_Trial_,Start,1744728195932,NULL
1744729078,31718015fcfa025c305ad0dec51b4814,PennController,129,0,practice_intro_val,NULL,PennController,7,_Header_,Start,1744728195932,NULL
1744729078,31718015fcfa025c305ad0dec51b4814,PennController,129,0,practice_intro_val,NULL,PennController,7,_Header_,End,1744728196186,NULL
1744729078,31718015fcfa025c305ad0dec51b4814,PennController,129,0,practice_intro_val,NULL,PennController,7,_Trial_,End,1744728198394,NULL
# 13. ID.
# 14. ReactionTime.
# 15. Word.
# 16. selectedKey.
# 17. selectedValue.
# 18. Key_value_F.
# 19. Key_value_J.
# 20. Group.
# 21. Comments.
1744729078,31718015fcfa025c305ad0dec51b4814,PennController,112,0,calibrator_val_feedback,NULL,PennController,123,_Trial_,Start,1744728198395,undefined,2585,joke,undefined,negative,positive,negative,A,NULL
1744729078,31718015fcfa025c305ad0dec51b4814,PennController,112,0,calibrator_val_feedback,NULL,PennController,123,_Header_,Start,1744728198396,undefined,2585,joke,undefined,negative,positive,negative,A,NULL
1744729078,31718015fcfa025c305ad0dec51b4814,PennController,112,0,calibrator_val_feedback,NULL,PennController,123,_Header_,End,1744728198647,undefined,2585,joke,undefined,negative,positive,negative,A,NULL
1744729078,31718015fcfa025c305ad0dec51b4814,PennController,112,0,calibrator_val_feedback,NULL,Selector,Selection,Selection,positive,1744728201738,undefined,2585,joke,undefined,negative,positive,negative,A,positive;negative
1744729078,31718015fcfa025c305ad0dec51b4814,PennController,112,0,calibrator_val_feedback,NULL,PennController,123,_Trial_,End,1744728203743,undefined,2585,joke,undefined,negative,positive,negative,A,NULL
1744729078,31718015fcfa025c305ad0dec51b4814,PennController,108,0,calibrator_val_feedback,NULL,PennController,119,_Trial_,Start,1744728203745,undefined,1551,industry,undefined,negative,positive,negative,A,NULL
1744729078,31718015fcfa025c305ad0dec51b4814,PennController,108,0,calibrator_val_feedback,NULL,PennController,119,_Header_,Start,1744728203745,undefined,1551,industry,undefined,negative,positive,negative,A,NULL
1744729078,31718015fcfa025c305ad0dec51b4814,PennController,108,0,calibrator_val_feedback,NULL,PennController,119,_Header_,End,1744728203997,undefined,1551,industry,undefined,negative,positive,negative,A,NULL
1744729078,31718015fcfa025c305ad0dec51b4814,PennController,108,0,calibrator_val_feedback,NULL,Selector,Selection,Selection,positive,1744728206049,undefined,1551,industry,undefined,negative,positive,negative,A,positive;negative
1744729078,31718015fcfa025c305ad0dec51b4814,PennController,108,0,calibrator_val_feedback,NULL,PennController,119,_Trial_,End,1744728208054,undefined,1551,industry,undefined,negative,positive,negative,A,NULL
1744729078,31718015fcfa025c305ad0dec51b4814,PennController,106,0,calibrator_val_feedback,NULL,PennController,117,_Trial_,Start,1744728208055,undefined,2822,hat,undefined,negative,positive,negative,A,NULL
1744729078,31718015fcfa025c305ad0dec51b4814,PennController,106,0,calibrator_val_feedback,NULL,PennController,117,_Header_,Start,1744728208055,undefined,2822,hat,undefined,negative,positive,negative,A,NULL
1744729078,31718015fcfa025c305ad0dec51b4814,PennController,106,0,calibrator_val_feedback,NULL,PennController,117,_Header_,End,1744728208309,undefined,2822,hat,undefined,negative,positive,negative,A,NULL
1744729078,31718015fcfa025c305ad0dec51b4814,PennController,106,0,calibrator_val_feedback,NULL,Selector,Selection,Selection,positive,1744728211632,undefined,2822,hat,undefined,negative,positive,negative,A,positive;negative
1744729078,31718015fcfa025c305ad0dec51b4814,PennController,106,0,calibrator_val_feedback,NULL,PennController,117,_Trial_,End,1744728213638,undefined,2822,hat,undefined,negative,positive,negative,A,NULL
1744729078,31718015fcfa025c305ad0dec51b4814,PennController,113,0,calibrator_val_feedback,NULL,PennController,124,_Trial_,Start,1744728213640,undefined,1458,kitten,undefined,negative,positive,negative,A,NULL
1744729078,31718015fcfa025c305ad0dec51b4814,PennController,113,0,calibrator_val_feedback,NULL,PennController,124,_Header_,Start,1744728213640,undefined,1458,kitten,undefined,negative,positive,negative,A,NULL
1744729078,31718015fcfa025c305ad0dec51b4814,PennController,113,0,calibrator_val_feedback,NULL,PennController,124,_Header_,End,1744728213890,undefined,1458,kitten,undefined,negative,positive,negative,A,NULL
1744729078,31718015fcfa025c305ad0dec51b4814,PennController,113,0,calibrator_val_feedback,NULL,Selector,Selection,Selection,positive,1744728217760,undefined,1458,kitten,undefined,negative,positive,negative,A,positive;negative
1744729078,31718015fcfa025c305ad0dec51b4814,PennController,113,0,calibrator_val_feedback,NULL,PennController,124,_Trial_,End,1744728217855,undefined,1458,kitten,undefined,negative,positive,negative,A,NULL
1744729078,31718015fcfa025c305ad0dec51b4814,PennController,105,0,calibrator_val_feedback,NULL,PennController,116,_Trial_,Start,1744728217857,undefined,1950,grin,undefined,negative,positive,negative,A,NULL
1744729078,31718015fcfa025c305ad0dec51b4814,PennController,105,0,calibrator_val_feedback,NULL,PennController,116,_Header_,Start,1744728217857,undefined,1950,grin,undefined,negative,positive,negative,A,NULL
1744729078,31718015fcfa025c305ad0dec51b4814,PennController,105,0,calibrator_val_feedback,NULL,PennController,116,_Header_,End,1744728218108,undefined,1950,grin,undefined,negative,positive,negative,A,NULL
1744729078,31718015fcfa025c305ad0dec51b4814,PennController,105,0,calibrator_val_feedback,NULL,Selector,Selection,Selection,positive,1744728220562,undefined,1950,grin,undefined,negative,positive,negative,A,positive;negative
1744729078,31718015fcfa025c305ad0dec51b4814,PennController,105,0,calibrator_val_feedback,NULL,PennController,116,_Trial_,End,1744728222566,undefined,1950,grin,undefined,negative,positive,negative,A,NULL
1744729078,31718015fcfa025c305ad0dec51b4814,PennController,109,0,calibrator_val_feedback,NULL,PennController,120,_Trial_,Start,1744728222568,undefined,2244,insecure,undefined,negative,positive,negative,A,NULL
1744729078,31718015fcfa025c305ad0dec51b4814,PennController,109,0,calibrator_val_feedback,NULL,PennController,120,_Header_,Start,1744728222568,undefined,2244,insecure,undefined,negative,positive,negative,A,NULL
1744729078,31718015fcfa025c305ad0dec51b4814,PennController,109,0,calibrator_val_feedback,NULL,PennController,120,_Header_,End,1744728222819,undefined,2244,insecure,undefined,negative,positive,negative,A,NULL
1744729078,31718015fcfa025c305ad0dec51b4814,PennController,109,0,calibrator_val_feedback,NULL,Selector,Selection,Selection,negative,1744728225568,undefined,2244,insecure,undefined,negative,positive,negative,A,positive;negative
1744729078,31718015fcfa025c305ad0dec51b4814,PennController,109,0,calibrator_val_feedback,NULL,PennController,120,_Trial_,End,1744728227571,undefined,2244,insecure,undefined,negative,positive,negative,A,NULL
1744729078,31718015fcfa025c305ad0dec51b4814,PennController,111,0,calibrator_val_feedback,NULL,PennController,122,_Trial_,Start,1744728227573,undefined,1467,jail,undefined,negative,positive,negative,A,NULL
1744729078,31718015fcfa025c305ad0dec51b4814,PennController,111,0,calibrator_val_feedback,NULL,PennController,122,_Header_,Start,1744728227573,undefined,1467,jail,undefined,negative,positive,negative,A,NULL
1744729078,31718015fcfa025c305ad0dec51b4814,PennController,111,0,calibrator_val_feedback,NULL,PennController,122,_Header_,End,1744728227824,undefined,1467,jail,undefined,negative,positive,negative,A,NULL
1744729078,31718015fcfa025c305ad0dec51b4814,PennController,111,0,calibrator_val_feedback,NULL,Selector,Selection,Selection,negative,1744728229794,undefined,1467,jail,undefined,negative,positive,negative,A,positive;negative
1744729078,31718015fcfa025c305ad0dec51b4814,PennController,111,0,calibrator_val_feedback,NULL,PennController,122,_Trial_,End,1744728231797,undefined,1467,jail,undefined,negative,positive,negative,A,NULL
1744729078,31718015fcfa025c305ad0dec51b4814,PennController,107,0,calibrator_val_feedback,NULL,PennController,118,_Trial_,Start,1744728231799,undefined,2609,icebox,undefined,negative,positive,negative,A,NULL
1744729078,31718015fcfa025c305ad0dec51b4814,PennController,107,0,calibrator_val_feedback,NULL,PennController,118,_Header_,Start,1744728231799,undefined,2609,icebox,undefined,negative,positive,negative,A,NULL
1744729078,31718015fcfa025c305ad0dec51b4814,PennController,107,0,calibrator_val_feedback,NULL,PennController,118,_Header_,End,1744728232049,undefined,2609,icebox,undefined,negative,positive,negative,A,NULL
1744729078,31718015fcfa025c305ad0dec51b4814,PennController,107,0,calibrator_val_feedback,NULL,Selector,Selection,Selection,positive,1744728235163,undefined,2609,icebox,undefined,negative,positive,negative,A,positive;negative
1744729078,31718015fcfa025c305ad0dec51b4814,PennController,107,0,calibrator_val_feedback,NULL,PennController,118,_Trial_,End,1744728237167,undefined,2609,icebox,undefined,negative,positive,negative,A,NULL
1744729078,31718015fcfa025c305ad0dec51b4814,PennController,110,0,calibrator_val_feedback,NULL,PennController,121,_Trial_,Start,1744728237169,undefined,1413,invader,undefined,negative,positive,negative,A,NULL
1744729078,31718015fcfa025c305ad0dec51b4814,PennController,110,0,calibrator_val_feedback,NULL,PennController,121,_Header_,Start,1744728237169,undefined,1413,invader,undefined,negative,positive,negative,A,NULL
1744729078,31718015fcfa025c305ad0dec51b4814,PennController,110,0,calibrator_val_feedback,NULL,PennController,121,_Header_,End,1744728237420,undefined,1413,invader,undefined,negative,positive,negative,A,NULL
1744729078,31718015fcfa025c305ad0dec51b4814,PennController,110,0,calibrator_val_feedback,NULL,Selector,Selection,Selection,negative,1744728239337,undefined,1413,invader,undefined,negative,positive,negative,A,positive;negative
1744729078,31718015fcfa025c305ad0dec51b4814,PennController,110,0,calibrator_val_feedback,NULL,PennController,121,_Trial_,End,1744728241341,undefined,1413,invader,undefined,negative,positive,negative,A,NULL
1744729078,31718015fcfa025c305ad0dec51b4814,PennController,104,0,calibrator_val_feedback,NULL,PennController,115,_Trial_,Start,1744728241342,undefined,1277,free,undefined,negative,positive,negative,A,NULL
1744729078,31718015fcfa025c305ad0dec51b4814,PennController,104,0,calibrator_val_feedback,NULL,PennController,115,_Header_,Start,1744728241342,undefined,1277,free,undefined,negative,positive,negative,A,NULL
1744729078,31718015fcfa025c305ad0dec51b4814,PennController,104,0,calibrator_val_feedback,NULL,PennController,115,_Header_,End,1744728241594,undefined,1277,free,undefined,negative,positive,negative,A,NULL
1744729078,31718015fcfa025c305ad0dec51b4814,PennController,104,0,calibrator_val_feedback,NULL,Selector,Selection,Selection,positive,1744728243376,undefined,1277,free,undefined,negative,positive,negative,A,positive;negative
1744729078,31718015fcfa025c305ad0dec51b4814,PennController,104,0,calibrator_val_feedback,NULL,PennController,115,_Trial_,End,1744728245382,undefined,1277,free,undefined,negative,positive,negative,A,NULL
# 16. Key_value_F.
# 17. Key_value_J.
# 18. Group.
# 19. Comments.
1744729078,31718015fcfa025c305ad0dec51b4814,PennController,123,0,calibrator_val_no_feedback,NULL,PennController,134,_Trial_,Start,1744728245384,undefined,1096,kitten,positive,negative,A,NULL
1744729078,31718015fcfa025c305ad0dec51b4814,PennController,123,0,calibrator_val_no_feedback,NULL,PennController,134,_Header_,Start,1744728245384,undefined,1096,kitten,positive,negative,A,NULL
1744729078,31718015fcfa025c305ad0dec51b4814,PennController,123,0,calibrator_val_no_feedback,NULL,PennController,134,_Header_,End,1744728245638,undefined,1096,kitten,positive,negative,A,NULL
1744729078,31718015fcfa025c305ad0dec51b4814,PennController,123,0,calibrator_val_no_feedback,NULL,Selector,unnamed-Selector,Selection,positive,1744728247236,undefined,1096,kitten,positive,negative,A,positive;negative
1744729078,31718015fcfa025c305ad0dec51b4814,PennController,123,0,calibrator_val_no_feedback,NULL,PennController,134,_Trial_,End,1744728247237,undefined,1096,kitten,positive,negative,A,NULL
1744729078,31718015fcfa025c305ad0dec51b4814,PennController,121,0,calibrator_val_no_feedback,NULL,PennController,132,_Trial_,Start,1744728247238,undefined,1066,jail,positive,negative,A,NULL
1744729078,31718015fcfa025c305ad0dec51b4814,PennController,121,0,calibrator_val_no_feedback,NULL,PennController,132,_Header_,Start,1744728247238,undefined,1066,jail,positive,negative,A,NULL
1744729078,31718015fcfa025c305ad0dec51b4814,PennController,121,0,calibrator_val_no_feedback,NULL,PennController,132,_Header_,End,1744728247490,undefined,1066,jail,positive,negative,A,NULL
1744729078,31718015fcfa025c305ad0dec51b4814,PennController,121,0,calibrator_val_no_feedback,NULL,Selector,unnamed-Selector,Selection,negative,1744728249057,undefined,1066,jail,positive,negative,A,positive;negative
1744729078,31718015fcfa025c305ad0dec51b4814,PennController,121,0,calibrator_val_no_feedback,NULL,PennController,132,_Trial_,End,1744728249058,undefined,1066,jail,positive,negative,A,NULL
1744729078,31718015fcfa025c305ad0dec51b4814,PennController,119,0,calibrator_val_no_feedback,NULL,PennController,130,_Trial_,Start,1744728249059,undefined,1523,insecure,positive,negative,A,NULL
1744729078,31718015fcfa025c305ad0dec51b4814,PennController,119,0,calibrator_val_no_feedback,NULL,PennController,130,_Header_,Start,1744728249059,undefined,1523,insecure,positive,negative,A,NULL
1744729078,31718015fcfa025c305ad0dec51b4814,PennController,119,0,calibrator_val_no_feedback,NULL,PennController,130,_Header_,End,1744728249314,undefined,1523,insecure,positive,negative,A,NULL
1744729078,31718015fcfa025c305ad0dec51b4814,PennController,119,0,calibrator_val_no_feedback,NULL,Selector,unnamed-Selector,Selection,negative,1744728251338,undefined,1523,insecure,positive,negative,A,positive;negative
1744729078,31718015fcfa025c305ad0dec51b4814,PennController,119,0,calibrator_val_no_feedback,NULL,PennController,130,_Trial_,End,1744728251340,undefined,1523,insecure,positive,negative,A,NULL
1744729078,31718015fcfa025c305ad0dec51b4814,PennController,122,0,calibrator_val_no_feedback,NULL,PennController,133,_Trial_,Start,1744728251341,undefined,671,joke,positive,negative,A,NULL
1744729078,31718015fcfa025c305ad0dec51b4814,PennController,122,0,calibrator_val_no_feedback,NULL,PennController,133,_Header_,Start,1744728251341,undefined,671,joke,positive,negative,A,NULL
1744729078,31718015fcfa025c305ad0dec51b4814,PennController,122,0,calibrator_val_no_feedback,NULL,PennController,133,_Header_,End,1744728251594,undefined,671,joke,positive,negative,A,NULL
1744729078,31718015fcfa025c305ad0dec51b4814,PennController,122,0,calibrator_val_no_feedback,NULL,Selector,unnamed-Selector,Selection,positive,1744728252771,undefined,671,joke,positive,negative,A,positive;negative
1744729078,31718015fcfa025c305ad0dec51b4814,PennController,122,0,calibrator_val_no_feedback,NULL,PennController,133,_Trial_,End,1744728252772,undefined,671,joke,positive,negative,A,NULL
1744729078,31718015fcfa025c305ad0dec51b4814,PennController,117,0,calibrator_val_no_feedback,NULL,PennController,128,_Trial_,Start,1744728252773,undefined,1808,icebox,positive,negative,A,NULL
1744729078,31718015fcfa025c305ad0dec51b4814,PennController,117,0,calibrator_val_no_feedback,NULL,PennController,128,_Header_,Start,1744728252773,undefined,1808,icebox,positive,negative,A,NULL
1744729078,31718015fcfa025c305ad0dec51b4814,PennController,117,0,calibrator_val_no_feedback,NULL,PennController,128,_Header_,End,1744728253026,undefined,1808,icebox,positive,negative,A,NULL
1744729078,31718015fcfa025c305ad0dec51b4814,PennController,117,0,calibrator_val_no_feedback,NULL,Selector,unnamed-Selector,Selection,negative,1744728255338,undefined,1808,icebox,positive,negative,A,positive;negative
1744729078,31718015fcfa025c305ad0dec51b4814,PennController,117,0,calibrator_val_no_feedback,NULL,PennController,128,_Trial_,End,1744728255340,undefined,1808,icebox,positive,negative,A,NULL
1744729078,31718015fcfa025c305ad0dec51b4814,PennController,114,0,calibrator_val_no_feedback,NULL,PennController,125,_Trial_,Start,1744728255341,undefined,2052,free,positive,negative,A,NULL
1744729078,31718015fcfa025c305ad0dec51b4814,PennController,114,0,calibrator_val_no_feedback,NULL,PennController,125,_Header_,Start,1744728255341,undefined,2052,free,positive,negative,A,NULL
1744729078,31718015fcfa025c305ad0dec51b4814,PennController,114,0,calibrator_val_no_feedback,NULL,PennController,125,_Header_,End,1744728255594,undefined,2052,free,positive,negative,A,NULL
1744729078,31718015fcfa025c305ad0dec51b4814,PennController,114,0,calibrator_val_no_feedback,NULL,Selector,unnamed-Selector,Selection,positive,1744728258147,undefined,2052,free,positive,negative,A,positive;negative
1744729078,31718015fcfa025c305ad0dec51b4814,PennController,114,0,calibrator_val_no_feedback,NULL,PennController,125,_Trial_,End,1744728258149,undefined,2052,free,positive,negative,A,NULL
1744729078,31718015fcfa025c305ad0dec51b4814,PennController,116,0,calibrator_val_no_feedback,NULL,PennController,127,_Trial_,Start,1744728258150,undefined,1149,hat,positive,negative,A,NULL
1744729078,31718015fcfa025c305ad0dec51b4814,PennController,116,0,calibrator_val_no_feedback,NULL,PennController,127,_Header_,Start,1744728258150,undefined,1149,hat,positive,negative,A,NULL
1744729078,31718015fcfa025c305ad0dec51b4814,PennController,116,0,calibrator_val_no_feedback,NULL,PennController,127,_Header_,End,1744728258403,undefined,1149,hat,positive,negative,A,NULL
1744729078,31718015fcfa025c305ad0dec51b4814,PennController,116,0,calibrator_val_no_feedback,NULL,Selector,unnamed-Selector,Selection,positive,1744728260058,undefined,1149,hat,positive,negative,A,positive;negative
1744729078,31718015fcfa025c305ad0dec51b4814,PennController,116,0,calibrator_val_no_feedback,NULL,PennController,127,_Trial_,End,1744728260060,undefined,1149,hat,positive,negative,A,NULL
1744729078,31718015fcfa025c305ad0dec51b4814,PennController,120,0,calibrator_val_no_feedback,NULL,PennController,131,_Trial_,Start,1744728260061,undefined,584,invader,positive,negative,A,NULL
1744729078,31718015fcfa025c305ad0dec51b4814,PennController,120,0,calibrator_val_no_feedback,NULL,PennController,131,_Header_,Start,1744728260061,undefined,584,invader,positive,negative,A,NULL
1744729078,31718015fcfa025c305ad0dec51b4814,PennController,120,0,calibrator_val_no_feedback,NULL,PennController,131,_Header_,End,1744728260311,undefined,584,invader,positive,negative,A,NULL
1744729078,31718015fcfa025c305ad0dec51b4814,PennController,120,0,calibrator_val_no_feedback,NULL,Selector,unnamed-Selector,Selection,negative,1744728261401,undefined,584,invader,positive,negative,A,positive;negative
1744729078,31718015fcfa025c305ad0dec51b4814,PennController,120,0,calibrator_val_no_feedback,NULL,PennController,131,_Trial_,End,1744728261402,undefined,584,invader,positive,negative,A,NULL
1744729078,31718015fcfa025c305ad0dec51b4814,PennController,115,0,calibrator_val_no_feedback,NULL,PennController,126,_Trial_,Start,1744728261403,undefined,2252,grin,positive,negative,A,NULL
1744729078,31718015fcfa025c305ad0dec51b4814,PennController,115,0,calibrator_val_no_feedback,NULL,PennController,126,_Header_,Start,1744728261403,undefined,2252,grin,positive,negative,A,NULL
1744729078,31718015fcfa025c305ad0dec51b4814,PennController,115,0,calibrator_val_no_feedback,NULL,PennController,126,_Header_,End,1744728261653,undefined,2252,grin,positive,negative,A,NULL
1744729078,31718015fcfa025c305ad0dec51b4814,PennController,115,0,calibrator_val_no_feedback,NULL,Selector,unnamed-Selector,Selection,positive,1744728264411,undefined,2252,grin,positive,negative,A,positive;negative
1744729078,31718015fcfa025c305ad0dec51b4814,PennController,115,0,calibrator_val_no_feedback,NULL,PennController,126,_Trial_,End,1744728264412,undefined,2252,grin,positive,negative,A,NULL
1744729078,31718015fcfa025c305ad0dec51b4814,PennController,118,0,calibrator_val_no_feedback,NULL,PennController,129,_Trial_,Start,1744728264414,undefined,627,industry,positive,negative,A,NULL
1744729078,31718015fcfa025c305ad0dec51b4814,PennController,118,0,calibrator_val_no_feedback,NULL,PennController,129,_Header_,Start,1744728264414,undefined,627,industry,positive,negative,A,NULL
1744729078,31718015fcfa025c305ad0dec51b4814,PennController,118,0,calibrator_val_no_feedback,NULL,PennController,129,_Header_,End,1744728264665,undefined,627,industry,positive,negative,A,NULL
1744729078,31718015fcfa025c305ad0dec51b4814,PennController,118,0,calibrator_val_no_feedback,NULL,Selector,unnamed-Selector,Selection,positive,1744728265797,undefined,627,industry,positive,negative,A,positive;negative
1744729078,31718015fcfa025c305ad0dec51b4814,PennController,118,0,calibrator_val_no_feedback,NULL,PennController,129,_Trial_,End,1744728265799,undefined,627,industry,positive,negative,A,NULL
# 13. Comments.
1744729078,31718015fcfa025c305ad0dec51b4814,PennController,130,0,endinstructions_val,NULL,PennController,8,_Trial_,Start,1744728265800,NULL
1744729078,31718015fcfa025c305ad0dec51b4814,PennController,130,0,endinstructions_val,NULL,PennController,8,_Header_,Start,1744728265800,NULL
1744729078,31718015fcfa025c305ad0dec51b4814,PennController,130,0,endinstructions_val,NULL,PennController,8,_Header_,End,1744728266050,NULL
1744729078,31718015fcfa025c305ad0dec51b4814,PennController,130,0,endinstructions_val,NULL,PennController,8,_Trial_,End,1744728271872,NULL
# 13. ID.
# 14. ReactionTime.
# 15. Word.
# 16. ConcValCombo.
# 17. Key_value_F.
# 18. Key_value_J.
# 19. Group.
# 20. Comments.
1744729078,31718015fcfa025c305ad0dec51b4814,PennController,75,0,test_val,NULL,PennController,86,_Trial_,Start,1744728271873,undefined,961,gorgeous,physical-positive,positive,negative,A,NULL
1744729078,31718015fcfa025c305ad0dec51b4814,PennController,75,0,test_val,NULL,PennController,86,_Header_,Start,1744728271873,undefined,961,gorgeous,physical-positive,positive,negative,A,NULL
1744729078,31718015fcfa025c305ad0dec51b4814,PennController,75,0,test_val,NULL,PennController,86,_Header_,End,1744728272126,undefined,961,gorgeous,physical-positive,positive,negative,A,NULL
1744729078,31718015fcfa025c305ad0dec51b4814,PennController,75,0,test_val,NULL,Selector,unnamed-Selector,Selection,positive,1744728273592,undefined,961,gorgeous,physical-positive,positive,negative,A,positive;negative
1744729078,31718015fcfa025c305ad0dec51b4814,PennController,75,0,test_val,NULL,PennController,86,_Trial_,End,1744728273593,undefined,961,gorgeous,physical-positive,positive,negative,A,NULL
1744729078,31718015fcfa025c305ad0dec51b4814,PennController,68,0,test_val,NULL,PennController,79,_Trial_,Start,1744728273594,undefined,889,scrawny,physical-negative,positive,negative,A,NULL
1744729078,31718015fcfa025c305ad0dec51b4814,PennController,68,0,test_val,NULL,PennController,79,_Header_,Start,1744728273594,undefined,889,scrawny,physical-negative,positive,negative,A,NULL
1744729078,31718015fcfa025c305ad0dec51b4814,PennController,68,0,test_val,NULL,PennController,79,_Header_,End,1744728273846,undefined,889,scrawny,physical-negative,positive,negative,A,NULL
1744729078,31718015fcfa025c305ad0dec51b4814,PennController,68,0,test_val,NULL,Selector,unnamed-Selector,Selection,negative,1744728275237,undefined,889,scrawny,physical-negative,positive,negative,A,positive;negative
1744729078,31718015fcfa025c305ad0dec51b4814,PennController,68,0,test_val,NULL,PennController,79,_Trial_,End,1744728275238,undefined,889,scrawny,physical-negative,positive,negative,A,NULL
1744729078,31718015fcfa025c305ad0dec51b4814,PennController,60,0,test_val,NULL,PennController,71,_Trial_,Start,1744728275240,undefined,672,corrupt,social-negative,positive,negative,A,NULL
1744729078,31718015fcfa025c305ad0dec51b4814,PennController,60,0,test_val,NULL,PennController,71,_Header_,Start,1744728275240,undefined,672,corrupt,social-negative,positive,negative,A,NULL
1744729078,31718015fcfa025c305ad0dec51b4814,PennController,60,0,test_val,NULL,PennController,71,_Header_,End,1744728275490,undefined,672,corrupt,social-negative,positive,negative,A,NULL
1744729078,31718015fcfa025c305ad0dec51b4814,PennController,60,0,test_val,NULL,Selector,unnamed-Selector,Selection,negative,1744728276667,undefined,672,corrupt,social-negative,positive,negative,A,positive;negative
1744729078,31718015fcfa025c305ad0dec51b4814,PennController,60,0,test_val,NULL,PennController,71,_Trial_,End,1744728276668,undefined,672,corrupt,social-negative,positive,negative,A,NULL
1744729078,31718015fcfa025c305ad0dec51b4814,PennController,76,0,test_val,NULL,PennController,87,_Trial_,Start,1744728276669,undefined,1355,manipulative,social-negative,positive,negative,A,NULL
1744729078,31718015fcfa025c305ad0dec51b4814,PennController,76,0,test_val,NULL,PennController,87,_Header_,Start,1744728276669,undefined,1355,manipulative,social-negative,positive,negative,A,NULL
1744729078,31718015fcfa025c305ad0dec51b4814,PennController,76,0,test_val,NULL,PennController,87,_Header_,End,1744728276923,undefined,1355,manipulative,social-negative,positive,negative,A,NULL
1744729078,31718015fcfa025c305ad0dec51b4814,PennController,76,0,test_val,NULL,Selector,unnamed-Selector,Selection,negative,1744728278779,undefined,1355,manipulative,social-negative,positive,negative,A,positive;negative
1744729078,31718015fcfa025c305ad0dec51b4814,PennController,76,0,test_val,NULL,PennController,87,_Trial_,End,1744728278780,undefined,1355,manipulative,social-negative,positive,negative,A,NULL
1744729078,31718015fcfa025c305ad0dec51b4814,PennController,63,0,test_val,NULL,PennController,74,_Trial_,Start,1744728278781,undefined,728,unjust,social-negative,positive,negative,A,NULL
1744729078,31718015fcfa025c305ad0dec51b4814,PennController,63,0,test_val,NULL,PennController,74,_Header_,Start,1744728278781,undefined,728,unjust,social-negative,positive,negative,A,NULL
1744729078,31718015fcfa025c305ad0dec51b4814,PennController,63,0,test_val,NULL,PennController,74,_Header_,End,1744728279031,undefined,728,unjust,social-negative,positive,negative,A,NULL
1744729078,31718015fcfa025c305ad0dec51b4814,PennController,63,0,test_val,NULL,Selector,unnamed-Selector,Selection,negative,1744728280260,undefined,728,unjust,social-negative,positive,negative,A,positive;negative
1744729078,31718015fcfa025c305ad0dec51b4814,PennController,63,0,test_val,NULL,PennController,74,_Trial_,End,1744728280261,undefined,728,unjust,social-negative,positive,negative,A,NULL
1744729078,31718015fcfa025c305ad0dec51b4814,PennController,51,0,test_val,NULL,PennController,62,_Trial_,Start,1744728280263,undefined,709,gritty,physical-negative,positive,negative,A,NULL
1744729078,31718015fcfa025c305ad0dec51b4814,PennController,51,0,test_val,NULL,PennController,62,_Header_,Start,1744728280263,undefined,709,gritty,physical-negative,positive,negative,A,NULL
1744729078,31718015fcfa025c305ad0dec51b4814,PennController,51,0,test_val,NULL,PennController,62,_Header_,End,1744728280514,undefined,709,gritty,physical-negative,positive,negative,A,NULL
1744729078,31718015fcfa025c305ad0dec51b4814,PennController,51,0,test_val,NULL,Selector,unnamed-Selector,Selection,negative,1744728281727,undefined,709,gritty,physical-negative,positive,negative,A,positive;negative
1744729078,31718015fcfa025c305ad0dec51b4814,PennController,51,0,test_val,NULL,PennController,62,_Trial_,End,1744728281728,undefined,709,gritty,physical-negative,positive,negative,A,NULL
1744729078,31718015fcfa025c305ad0dec51b4814,PennController,81,0,test_val,NULL,PennController,92,_Trial_,Start,1744728281729,undefined,874,polite,social-positive,positive,negative,A,NULL
1744729078,31718015fcfa025c305ad0dec51b4814,PennController,81,0,test_val,NULL,PennController,92,_Header_,Start,1744728281729,undefined,874,polite,social-positive,positive,negative,A,NULL
1744729078,31718015fcfa025c305ad0dec51b4814,PennController,81,0,test_val,NULL,PennController,92,_Header_,End,1744728281981,undefined,874,polite,social-positive,positive,negative,A,NULL
1744729078,31718015fcfa025c305ad0dec51b4814,PennController,81,0,test_val,NULL,Selector,unnamed-Selector,Selection,positive,1744728283360,undefined,874,polite,social-positive,positive,negative,A,positive;negative
1744729078,31718015fcfa025c305ad0dec51b4814,PennController,81,0,test_val,NULL,PennController,92,_Trial_,End,1744728283362,undefined,874,polite,social-positive,positive,negative,A,NULL
1744729078,31718015fcfa025c305ad0dec51b4814,PennController,61,0,test_val,NULL,PennController,72,_Trial_,Start,1744728283363,undefined,891,compassionate,social-positive,positive,negative,A,NULL
1744729078,31718015fcfa025c305ad0dec51b4814,PennController,61,0,test_val,NULL,PennController,72,_Header_,Start,1744728283363,undefined,891,compassionate,social-positive,positive,negative,A,NULL
1744729078,31718015fcfa025c305ad0dec51b4814,PennController,61,0,test_val,NULL,PennController,72,_Header_,End,1744728283616,undefined,891,compassionate,social-positive,positive,negative,A,NULL
1744729078,31718015fcfa025c305ad0dec51b4814,PennController,61,0,test_val,NULL,Selector,unnamed-Selector,Selection,positive,1744728285010,undefined,891,compassionate,social-positive,positive,negative,A,positive;negative
1744729078,31718015fcfa025c305ad0dec51b4814,PennController,61,0,test_val,NULL,PennController,72,_Trial_,End,1744728285011,undefined,891,compassionate,social-positive,positive,negative,A,NULL
1744729078,31718015fcfa025c305ad0dec51b4814,PennController,48,0,test_val,NULL,PennController,59,_Trial_,Start,1744728285013,undefined,685,fragrant,physical-positive,positive,negative,A,NULL
1744729078,31718015fcfa025c305ad0dec51b4814,PennController,48,0,test_val,NULL,PennController,59,_Header_,Start,1744728285013,undefined,685,fragrant,physical-positive,positive,negative,A,NULL
1744729078,31718015fcfa025c305ad0dec51b4814,PennController,48,0,test_val,NULL,PennController,59,_Header_,End,1744728285263,undefined,685,fragrant,physical-positive,positive,negative,A,NULL
1744729078,31718015fcfa025c305ad0dec51b4814,PennController,48,0,test_val,NULL,Selector,unnamed-Selector,Selection,positive,1744728286453,undefined,685,fragrant,physical-positive,positive,negative,A,positive;negative
1744729078,31718015fcfa025c305ad0dec51b4814,PennController,48,0,test_val,NULL,PennController,59,_Trial_,End,1744728286454,undefined,685,fragrant,physical-positive,positive,negative,A,NULL
1744729078,31718015fcfa025c305ad0dec51b4814,PennController,73,0,test_val,NULL,PennController,84,_Trial_,Start,1744728286455,undefined,734,elegant,physical-positive,positive,negative,A,NULL
1744729078,31718015fcfa025c305ad0dec51b4814,PennController,73,0,test_val,NULL,PennController,84,_Header_,Start,1744728286455,undefined,734,elegant,physical-positive,positive,negative,A,NULL
1744729078,31718015fcfa025c305ad0dec51b4814,PennController,73,0,test_val,NULL,PennController,84,_Header_,End,1744728286707,undefined,734,elegant,physical-positive,positive,negative,A,NULL
1744729078,31718015fcfa025c305ad0dec51b4814,PennController,73,0,test_val,NULL,Selector,unnamed-Selector,Selection,positive,1744728287943,undefined,734,elegant,physical-positive,positive,negative,A,positive;negative
1744729078,31718015fcfa025c305ad0dec51b4814,PennController,73,0,test_val,NULL,PennController,84,_Trial_,End,1744728287944,undefined,734,elegant,physical-positive,positive,negative,A,NULL
1744729078,31718015fcfa025c305ad0dec51b4814,PennController,47,0,test_val,NULL,PennController,58,_Trial_,Start,1744728287945,undefined,1134,brittle,physical-negative,positive,negative,A,NULL
1744729078,31718015fcfa025c305ad0dec51b4814,PennController,47,0,test_val,NULL,PennController,58,_Header_,Start,1744728287945,undefined,1134,brittle,physical-negative,positive,negative,A,NULL
1744729078,31718015fcfa025c305ad0dec51b4814,PennController,47,0,test_val,NULL,PennController,58,_Header_,End,1744728288196,undefined,1134,brittle,physical-negative,positive,negative,A,NULL
1744729078,31718015fcfa025c305ad0dec51b4814,PennController,47,0,test_val,NULL,Selector,unnamed-Selector,Selection,negative,1744728289834,undefined,1134,brittle,physical-negative,positive,negative,A,positive;negative
1744729078,31718015fcfa025c305ad0dec51b4814,PennController,47,0,test_val,NULL,PennController,58,_Trial_,End,1744728289835,undefined,1134,brittle,physical-negative,positive,negative,A,NULL
1744729078,31718015fcfa025c305ad0dec51b4814,PennController,67,0,test_val,NULL,PennController,78,_Trial_,Start,1744728289836,undefined,1891,ugly,physical-negative,positive,negative,A,NULL
1744729078,31718015fcfa025c305ad0dec51b4814,PennController,67,0,test_val,NULL,PennController,78,_Header_,Start,1744728289836,undefined,1891,ugly,physical-negative,positive,negative,A,NULL
1744729078,31718015fcfa025c305ad0dec51b4814,PennController,67,0,test_val,NULL,PennController,78,_Header_,End,1744728290089,undefined,1891,ugly,physical-negative,positive,negative,A,NULL
1744729078,31718015fcfa025c305ad0dec51b4814,PennController,67,0,test_val,NULL,Selector,unnamed-Selector,Selection,negative,1744728292481,undefined,1891,ugly,physical-negative,positive,negative,A,positive;negative
1744729078,31718015fcfa025c305ad0dec51b4814,PennController,67,0,test_val,NULL,PennController,78,_Trial_,End,1744728292482,undefined,1891,ugly,physical-negative,positive,negative,A,NULL
1744729078,31718015fcfa025c305ad0dec51b4814,PennController,57,0,test_val,NULL,PennController,68,_Trial_,Start,1744728292483,undefined,1671,fair,social-positive,positive,negative,A,NULL
1744729078,31718015fcfa025c305ad0dec51b4814,PennController,57,0,test_val,NULL,PennController,68,_Header_,Start,1744728292483,undefined,1671,fair,social-positive,positive,negative,A,NULL
1744729078,31718015fcfa025c305ad0dec51b4814,PennController,57,0,test_val,NULL,PennController,68,_Header_,End,1744728292736,undefined,1671,fair,social-positive,positive,negative,A,NULL
1744729078,31718015fcfa025c305ad0dec51b4814,PennController,57,0,test_val,NULL,Selector,unnamed-Selector,Selection,positive,1744728294912,undefined,1671,fair,social-positive,positive,negative,A,positive;negative
1744729078,31718015fcfa025c305ad0dec51b4814,PennController,57,0,test_val,NULL,PennController,68,_Trial_,End,1744728294913,undefined,1671,fair,social-positive,positive,negative,A,NULL
1744729078,31718015fcfa025c305ad0dec51b4814,PennController,78,0,test_val,NULL,PennController,89,_Trial_,Start,1744728294914,undefined,1023,arrogant,social-negative,positive,negative,A,NULL
1744729078,31718015fcfa025c305ad0dec51b4814,PennController,78,0,test_val,NULL,PennController,89,_Header_,Start,1744728294914,undefined,1023,arrogant,social-negative,positive,negative,A,NULL
1744729078,31718015fcfa025c305ad0dec51b4814,PennController,78,0,test_val,NULL,PennController,89,_Header_,End,1744728295164,undefined,1023,arrogant,social-negative,positive,negative,A,NULL
1744729078,31718015fcfa025c305ad0dec51b4814,PennController,78,0,test_val,NULL,Selector,unnamed-Selector,Selection,negative,1744728296693,undefined,1023,arrogant,social-negative,positive,negative,A,positive;negative
1744729078,31718015fcfa025c305ad0dec51b4814,PennController,78,0,test_val,NULL,PennController,89,_Trial_,End,1744728296694,undefined,1023,arrogant,social-negative,positive,negative,A,NULL
1744729078,31718015fcfa025c305ad0dec51b4814,PennController,69,0,test_val,NULL,PennController,80,_Trial_,Start,1744728296695,undefined,1660,youthful,physical-positive,positive,negative,A,NULL
1744729078,31718015fcfa025c305ad0dec51b4814,PennController,69,0,test_val,NULL,PennController,80,_Header_,Start,1744728296695,undefined,1660,youthful,physical-positive,positive,negative,A,NULL
1744729078,31718015fcfa025c305ad0dec51b4814,PennController,69,0,test_val,NULL,PennController,80,_Header_,End,1744728296947,undefined,1660,youthful,physical-positive,positive,negative,A,NULL
1744729078,31718015fcfa025c305ad0dec51b4814,PennController,69,0,test_val,NULL,Selector,unnamed-Selector,Selection,positive,1744728299111,undefined,1660,youthful,physical-positive,positive,negative,A,positive;negative
1744729078,31718015fcfa025c305ad0dec51b4814,PennController,69,0,test_val,NULL,PennController,80,_Trial_,End,1744728299113,undefined,1660,youthful,physical-positive,positive,negative,A,NULL
1744729078,31718015fcfa025c305ad0dec51b4814,PennController,52,0,test_val,NULL,PennController,63,_Trial_,Start,1744728299114,undefined,1336,rancid,physical-negative,positive,negative,A,NULL
1744729078,31718015fcfa025c305ad0dec51b4814,PennController,52,0,test_val,NULL,PennController,63,_Header_,Start,1744728299114,undefined,1336,rancid,physical-negative,positive,negative,A,NULL
1744729078,31718015fcfa025c305ad0dec51b4814,PennController,52,0,test_val,NULL,PennController,63,_Header_,End,1744728299368,undefined,1336,rancid,physical-negative,positive,negative,A,NULL
1744729078,31718015fcfa025c305ad0dec51b4814,PennController,52,0,test_val,NULL,Selector,unnamed-Selector,Selection,negative,1744728301209,undefined,1336,rancid,physical-negative,positive,negative,A,positive;negative
1744729078,31718015fcfa025c305ad0dec51b4814,PennController,52,0,test_val,NULL,PennController,63,_Trial_,End,1744728301210,undefined,1336,rancid,physical-negative,positive,negative,A,NULL
1744729078,31718015fcfa025c305ad0dec51b4814,PennController,70,0,test_val,NULL,PennController,81,_Trial_,Start,1744728301211,undefined,895,hostile,social-negative,positive,negative,A,NULL
1744729078,31718015fcfa025c305ad0dec51b4814,PennController,70,0,test_val,NULL,PennController,81,_Header_,Start,1744728301211,undefined,895,hostile,social-negative,positive,negative,A,NULL
1744729078,31718015fcfa025c305ad0dec51b4814,PennController,70,0,test_val,NULL,PennController,81,_Header_,End,1744728301463,undefined,895,hostile,social-negative,positive,negative,A,NULL
1744729078,31718015fcfa025c305ad0dec51b4814,PennController,70,0,test_val,NULL,Selector,unnamed-Selector,Selection,negative,1744728302860,undefined,895,hostile,social-negative,positive,negative,A,positive;negative
1744729078,31718015fcfa025c305ad0dec51b4814,PennController,70,0,test_val,NULL,PennController,81,_Trial_,End,1744728302861,undefined,895,hostile,social-negative,positive,negative,A,NULL
1744729078,31718015fcfa025c305ad0dec51b4814,PennController,44,0,test_val,NULL,PennController,55,_Trial_,Start,1744728302862,undefined,1283,moldy,physical-negative,positive,negative,A,NULL
1744729078,31718015fcfa025c305ad0dec51b4814,PennController,44,0,test_val,NULL,PennController,55,_Header_,Start,1744728302862,undefined,1283,moldy,physical-negative,positive,negative,A,NULL
1744729078,31718015fcfa025c305ad0dec51b4814,PennController,44,0,test_val,NULL,PennController,55,_Header_,End,1744728303113,undefined,1283,moldy,physical-negative,positive,negative,A,NULL
1744729078,31718015fcfa025c305ad0dec51b4814,PennController,44,0,test_val,NULL,Selector,unnamed-Selector,Selection,negative,1744728304898,undefined,1283,moldy,physical-negative,positive,negative,A,positive;negative
1744729078,31718015fcfa025c305ad0dec51b4814,PennController,44,0,test_val,NULL,PennController,55,_Trial_,End,1744728304899,undefined,1283,moldy,physical-negative,positive,negative,A,NULL
1744729078,31718015fcfa025c305ad0dec51b4814,PennController,77,0,test_val,NULL,PennController,88,_Trial_,Start,1744728304900,undefined,781,cruel,social-negative,positive,negative,A,NULL
1744729078,31718015fcfa025c305ad0dec51b4814,PennController,77,0,test_val,NULL,PennController,88,_Header_,Start,1744728304900,undefined,781,cruel,social-negative,positive,negative,A,NULL
1744729078,31718015fcfa025c305ad0dec51b4814,PennController,77,0,test_val,NULL,PennController,88,_Header_,End,1744728305151,undefined,781,cruel,social-negative,positive,negative,A,NULL
1744729078,31718015fcfa025c305ad0dec51b4814,PennController,77,0,test_val,NULL,Selector,unnamed-Selector,Selection,negative,1744728306438,undefined,781,cruel,social-negative,positive,negative,A,positive;negative
1744729078,31718015fcfa025c305ad0dec51b4814,PennController,77,0,test_val,NULL,PennController,88,_Trial_,End,1744728306439,undefined,781,cruel,social-negative,positive,negative,A,NULL
1744729078,31718015fcfa025c305ad0dec51b4814,PennController,56,0,test_val,NULL,PennController,67,_Trial_,Start,1744728306440,undefined,1595,radiant,physical-positive,positive,negative,A,NULL
1744729078,31718015fcfa025c305ad0dec51b4814,PennController,56,0,test_val,NULL,PennController,67,_Header_,Start,1744728306440,undefined,1595,radiant,physical-positive,positive,negative,A,NULL
1744729078,31718015fcfa025c305ad0dec51b4814,PennController,56,0,test_val,NULL,PennController,67,_Header_,End,1744728306694,undefined,1595,radiant,physical-positive,positive,negative,A,NULL
1744729078,31718015fcfa025c305ad0dec51b4814,PennController,56,0,test_val,NULL,Selector,unnamed-Selector,Selection,positive,1744728308795,undefined,1595,radiant,physical-positive,positive,negative,A,positive;negative
1744729078,31718015fcfa025c305ad0dec51b4814,PennController,56,0,test_val,NULL,PennController,67,_Trial_,End,1744728308796,undefined,1595,radiant,physical-positive,positive,negative,A,NULL
1744729078,31718015fcfa025c305ad0dec51b4814,PennController,54,0,test_val,NULL,PennController,65,_Trial_,Start,1744728308797,undefined,972,lush,physical-positive,positive,negative,A,NULL
1744729078,31718015fcfa025c305ad0dec51b4814,PennController,54,0,test_val,NULL,PennController,65,_Header_,Start,1744728308797,undefined,972,lush,physical-positive,positive,negative,A,NULL
1744729078,31718015fcfa025c305ad0dec51b4814,PennController,54,0,test_val,NULL,PennController,65,_Header_,End,1744728309048,undefined,972,lush,physical-positive,positive,negative,A,NULL
1744729078,31718015fcfa025c305ad0dec51b4814,PennController,54,0,test_val,NULL,Selector,unnamed-Selector,Selection,positive,1744728310522,undefined,972,lush,physical-positive,positive,negative,A,positive;negative
1744729078,31718015fcfa025c305ad0dec51b4814,PennController,54,0,test_val,NULL,PennController,65,_Trial_,End,1744728310523,undefined,972,lush,physical-positive,positive,negative,A,NULL
1744729078,31718015fcfa025c305ad0dec51b4814,PennController,53,0,test_val,NULL,PennController,64,_Trial_,Start,1744728310525,undefined,853,sturdy,physical-positive,positive,negative,A,NULL
1744729078,31718015fcfa025c305ad0dec51b4814,PennController,53,0,test_val,NULL,PennController,64,_Header_,Start,1744728310525,undefined,853,sturdy,physical-positive,positive,negative,A,NULL
1744729078,31718015fcfa025c305ad0dec51b4814,PennController,53,0,test_val,NULL,PennController,64,_Header_,End,1744728310777,undefined,853,sturdy,physical-positive,positive,negative,A,NULL
1744729078,31718015fcfa025c305ad0dec51b4814,PennController,53,0,test_val,NULL,Selector,unnamed-Selector,Selection,positive,1744728312135,undefined,853,sturdy,physical-positive,positive,negative,A,positive;negative
1744729078,31718015fcfa025c305ad0dec51b4814,PennController,53,0,test_val,NULL,PennController,64,_Trial_,End,1744728312136,undefined,853,sturdy,physical-positive,positive,negative,A,NULL
1744729078,31718015fcfa025c305ad0dec51b4814,PennController,46,0,test_val,NULL,PennController,57,_Trial_,Start,1744728312138,undefined,1184,smooth,physical-positive,positive,negative,A,NULL
1744729078,31718015fcfa025c305ad0dec51b4814,PennController,46,0,test_val,NULL,PennController,57,_Header_,Start,1744728312138,undefined,1184,smooth,physical-positive,positive,negative,A,NULL
1744729078,31718015fcfa025c305ad0dec51b4814,PennController,46,0,test_val,NULL,PennController,57,_Header_,End,1744728312391,undefined,1184,smooth,physical-positive,positive,negative,A,NULL
1744729078,31718015fcfa025c305ad0dec51b4814,PennController,46,0,test_val,NULL,Selector,unnamed-Selector,Selection,positive,1744728314079,undefined,1184,smooth,physical-positive,positive,negative,A,positive;negative
1744729078,31718015fcfa025c305ad0dec51b4814,PennController,46,0,test_val,NULL,PennController,57,_Trial_,End,1744728314080,undefined,1184,smooth,physical-positive,positive,negative,A,NULL
1744729078,31718015fcfa025c305ad0dec51b4814,PennController,72,0,test_val,NULL,PennController,83,_Trial_,Start,1744728314081,undefined,1228,trustworthy,social-positive,positive,negative,A,NULL
1744729078,31718015fcfa025c305ad0dec51b4814,PennController,72,0,test_val,NULL,PennController,83,_Header_,Start,1744728314081,undefined,1228,trustworthy,social-positive,positive,negative,A,NULL
1744729078,31718015fcfa025c305ad0dec51b4814,PennController,72,0,test_val,NULL,PennController,83,_Header_,End,1744728314331,undefined,1228,trustworthy,social-positive,positive,negative,A,NULL
1744729078,31718015fcfa025c305ad0dec51b4814,PennController,72,0,test_val,NULL,Selector,unnamed-Selector,Selection,positive,1744728316061,undefined,1228,trustworthy,social-positive,positive,negative,A,positive;negative
1744729078,31718015fcfa025c305ad0dec51b4814,PennController,72,0,test_val,NULL,PennController,83,_Trial_,End,1744728316062,undefined,1228,trustworthy,social-positive,positive,negative,A,NULL
1744729078,31718015fcfa025c305ad0dec51b4814,PennController,80,0,test_val,NULL,PennController,91,_Trial_,Start,1744728316064,undefined,792,selfish,social-negative,positive,negative,A,NULL
1744729078,31718015fcfa025c305ad0dec51b4814,PennController,80,0,test_val,NULL,PennController,91,_Header_,Start,1744728316064,undefined,792,selfish,social-negative,positive,negative,A,NULL
1744729078,31718015fcfa025c305ad0dec51b4814,PennController,80,0,test_val,NULL,PennController,91,_Header_,End,1744728316314,undefined,792,selfish,social-negative,positive,negative,A,NULL
1744729078,31718015fcfa025c305ad0dec51b4814,PennController,80,0,test_val,NULL,Selector,unnamed-Selector,Selection,positive,1744728317612,undefined,792,selfish,social-negative,positive,negative,A,positive;negative
1744729078,31718015fcfa025c305ad0dec51b4814,PennController,80,0,test_val,NULL,PennController,91,_Trial_,End,1744728317613,undefined,792,selfish,social-negative,positive,negative,A,NULL
1744729078,31718015fcfa025c305ad0dec51b4814,PennController,66,0,test_val,NULL,PennController,77,_Trial_,Start,1744728317615,undefined,908,obese,physical-negative,positive,negative,A,NULL
1744729078,31718015fcfa025c305ad0dec51b4814,PennController,66,0,test_val,NULL,PennController,77,_Header_,Start,1744728317615,undefined,908,obese,physical-negative,positive,negative,A,NULL
1744729078,31718015fcfa025c305ad0dec51b4814,PennController,66,0,test_val,NULL,PennController,77,_Header_,End,1744728317867,undefined,908,obese,physical-negative,positive,negative,A,NULL
1744729078,31718015fcfa025c305ad0dec51b4814,PennController,66,0,test_val,NULL,Selector,unnamed-Selector,Selection,negative,1744728319276,undefined,908,obese,physical-negative,positive,negative,A,positive;negative
1744729078,31718015fcfa025c305ad0dec51b4814,PennController,66,0,test_val,NULL,PennController,77,_Trial_,End,1744728319278,undefined,908,obese,physical-negative,positive,negative,A,NULL
1744729078,31718015fcfa025c305ad0dec51b4814,PennController,55,0,test_val,NULL,PennController,66,_Trial_,Start,1744728319279,undefined,1437,prosperous,social-positive,positive,negative,A,NULL
1744729078,31718015fcfa025c305ad0dec51b4814,PennController,55,0,test_val,NULL,PennController,66,_Header_,Start,1744728319279,undefined,1437,prosperous,social-positive,positive,negative,A,NULL
1744729078,31718015fcfa025c305ad0dec51b4814,PennController,55,0,test_val,NULL,PennController,66,_Header_,End,1744728319531,undefined,1437,prosperous,social-positive,positive,negative,A,NULL
1744729078,31718015fcfa025c305ad0dec51b4814,PennController,55,0,test_val,NULL,Selector,unnamed-Selector,Selection,positive,1744728321473,undefined,1437,prosperous,social-positive,positive,negative,A,positive;negative
1744729078,31718015fcfa025c305ad0dec51b4814,PennController,55,0,test_val,NULL,PennController,66,_Trial_,End,1744728321474,undefined,1437,prosperous,social-positive,positive,negative,A,NULL
1744729078,31718015fcfa025c305ad0dec51b4814,PennController,58,0,test_val,NULL,PennController,69,_Trial_,Start,1744728321475,undefined,1006,supportive,social-positive,positive,negative,A,NULL
1744729078,31718015fcfa025c305ad0dec51b4814,PennController,58,0,test_val,NULL,PennController,69,_Header_,Start,1744728321475,undefined,1006,supportive,social-positive,positive,negative,A,NULL
1744729078,31718015fcfa025c305ad0dec51b4814,PennController,58,0,test_val,NULL,PennController,69,_Header_,End,1744728321725,undefined,1006,supportive,social-positive,positive,negative,A,NULL
1744729078,31718015fcfa025c305ad0dec51b4814,PennController,58,0,test_val,NULL,Selector,unnamed-Selector,Selection,positive,1744728323236,undefined,1006,supportive,social-positive,positive,negative,A,positive;negative
1744729078,31718015fcfa025c305ad0dec51b4814,PennController,58,0,test_val,NULL,PennController,69,_Trial_,End,1744728323238,undefined,1006,supportive,social-positive,positive,negative,A,NULL
1744729078,31718015fcfa025c305ad0dec51b4814,PennController,79,0,test_val,NULL,PennController,90,_Trial_,Start,1744728323239,undefined,957,untrustworthy,social-negative,positive,negative,A,NULL
1744729078,31718015fcfa025c305ad0dec51b4814,PennController,79,0,test_val,NULL,PennController,90,_Header_,Start,1744728323239,undefined,957,untrustworthy,social-negative,positive,negative,A,NULL
1744729078,31718015fcfa025c305ad0dec51b4814,PennController,79,0,test_val,NULL,PennController,90,_Header_,End,1744728323492,undefined,957,untrustworthy,social-negative,positive,negative,A,NULL
1744729078,31718015fcfa025c305ad0dec51b4814,PennController,79,0,test_val,NULL,Selector,unnamed-Selector,Selection,negative,1744728324951,undefined,957,untrustworthy,social-negative,positive,negative,A,positive;negative
1744729078,31718015fcfa025c305ad0dec51b4814,PennController,79,0,test_val,NULL,PennController,90,_Trial_,End,1744728324952,undefined,957,untrustworthy,social-negative,positive,negative,A,NULL
1744729078,31718015fcfa025c305ad0dec51b4814,PennController,71,0,test_val,NULL,PennController,82,_Trial_,Start,1744728324954,undefined,1851,amiable,social-positive,positive,negative,A,NULL
1744729078,31718015fcfa025c305ad0dec51b4814,PennController,71,0,test_val,NULL,PennController,82,_Header_,Start,1744728324954,undefined,1851,amiable,social-positive,positive,negative,A,NULL
1744729078,31718015fcfa025c305ad0dec51b4814,PennController,71,0,test_val,NULL,PennController,82,_Header_,End,1744728325206,undefined,1851,amiable,social-positive,positive,negative,A,NULL
1744729078,31718015fcfa025c305ad0dec51b4814,PennController,71,0,test_val,NULL,Selector,unnamed-Selector,Selection,positive,1744728327562,undefined,1851,amiable,social-positive,positive,negative,A,positive;negative
1744729078,31718015fcfa025c305ad0dec51b4814,PennController,71,0,test_val,NULL,PennController,82,_Trial_,End,1744728327564,undefined,1851,amiable,social-positive,positive,negative,A,NULL
1744729078,31718015fcfa025c305ad0dec51b4814,PennController,62,0,test_val,NULL,PennController,73,_Trial_,Start,1744728327565,undefined,1265,oppressive,social-negative,positive,negative,A,NULL
1744729078,31718015fcfa025c305ad0dec51b4814,PennController,62,0,test_val,NULL,PennController,73,_Header_,Start,1744728327565,undefined,1265,oppressive,social-negative,positive,negative,A,NULL
1744729078,31718015fcfa025c305ad0dec51b4814,PennController,62,0,test_val,NULL,PennController,73,_Header_,End,1744728327818,undefined,1265,oppressive,social-negative,positive,negative,A,NULL
1744729078,31718015fcfa025c305ad0dec51b4814,PennController,62,0,test_val,NULL,Selector,unnamed-Selector,Selection,negative,1744728329589,undefined,1265,oppressive,social-negative,positive,negative,A,positive;negative
1744729078,31718015fcfa025c305ad0dec51b4814,PennController,62,0,test_val,NULL,PennController,73,_Trial_,End,1744728329590,undefined,1265,oppressive,social-negative,positive,negative,A,NULL
1744729078,31718015fcfa025c305ad0dec51b4814,PennController,59,0,test_val,NULL,PennController,70,_Trial_,Start,1744728329591,undefined,1046,harmonious,social-positive,positive,negative,A,NULL
1744729078,31718015fcfa025c305ad0dec51b4814,PennController,59,0,test_val,NULL,PennController,70,_Header_,Start,1744728329591,undefined,1046,harmonious,social-positive,positive,negative,A,NULL
1744729078,31718015fcfa025c305ad0dec51b4814,PennController,59,0,test_val,NULL,PennController,70,_Header_,End,1744728329842,undefined,1046,harmonious,social-positive,positive,negative,A,NULL
1744729078,31718015fcfa025c305ad0dec51b4814,PennController,59,0,test_val,NULL,Selector,unnamed-Selector,Selection,positive,1744728331389,undefined,1046,harmonious,social-positive,positive,negative,A,positive;negative
1744729078,31718015fcfa025c305ad0dec51b4814,PennController,59,0,test_val,NULL,PennController,70,_Trial_,End,1744728331391,undefined,1046,harmonious,social-positive,positive,negative,A,NULL
1744729078,31718015fcfa025c305ad0dec51b4814,PennController,82,0,test_val,NULL,PennController,93,_Trial_,Start,1744728331392,undefined,1410,judgmental,social-negative,positive,negative,A,NULL
1744729078,31718015fcfa025c305ad0dec51b4814,PennController,82,0,test_val,NULL,PennController,93,_Header_,Start,1744728331392,undefined,1410,judgmental,social-negative,positive,negative,A,NULL
1744729078,31718015fcfa025c305ad0dec51b4814,PennController,82,0,test_val,NULL,PennController,93,_Header_,End,1744728331646,undefined,1410,judgmental,social-negative,positive,negative,A,NULL
1744729078,31718015fcfa025c305ad0dec51b4814,PennController,82,0,test_val,NULL,Selector,unnamed-Selector,Selection,negative,1744728333561,undefined,1410,judgmental,social-negative,positive,negative,A,positive;negative
1744729078,31718015fcfa025c305ad0dec51b4814,PennController,82,0,test_val,NULL,PennController,93,_Trial_,End,1744728333562,undefined,1410,judgmental,social-negative,positive,negative,A,NULL
1744729078,31718015fcfa025c305ad0dec51b4814,PennController,45,0,test_val,NULL,PennController,56,_Trial_,Start,1744728333564,undefined,2194,soft,physical-positive,positive,negative,A,NULL
1744729078,31718015fcfa025c305ad0dec51b4814,PennController,45,0,test_val,NULL,PennController,56,_Header_,Start,1744728333564,undefined,2194,soft,physical-positive,positive,negative,A,NULL
1744729078,31718015fcfa025c305ad0dec51b4814,PennController,45,0,test_val,NULL,PennController,56,_Header_,End,1744728333814,undefined,2194,soft,physical-positive,positive,negative,A,NULL
1744729078,31718015fcfa025c305ad0dec51b4814,PennController,45,0,test_val,NULL,Selector,unnamed-Selector,Selection,positive,1744728336514,undefined,2194,soft,physical-positive,positive,negative,A,positive;negative
1744729078,31718015fcfa025c305ad0dec51b4814,PennController,45,0,test_val,NULL,PennController,56,_Trial_,End,1744728336515,undefined,2194,soft,physical-positive,positive,negative,A,NULL
1744729078,31718015fcfa025c305ad0dec51b4814,PennController,74,0,test_val,NULL,PennController,85,_Trial_,Start,1744728336516,undefined,1503,generous,social-positive,positive,negative,A,NULL
1744729078,31718015fcfa025c305ad0dec51b4814,PennController,74,0,test_val,NULL,PennController,85,_Header_,Start,1744728336516,undefined,1503,generous,social-positive,positive,negative,A,NULL
1744729078,31718015fcfa025c305ad0dec51b4814,PennController,74,0,test_val,NULL,PennController,85,_Header_,End,1744728336766,undefined,1503,generous,social-positive,positive,negative,A,NULL
1744729078,31718015fcfa025c305ad0dec51b4814,PennController,74,0,test_val,NULL,Selector,unnamed-Selector,Selection,positive,1744728338775,undefined,1503,generous,social-positive,positive,negative,A,positive;negative
1744729078,31718015fcfa025c305ad0dec51b4814,PennController,74,0,test_val,NULL,PennController,85,_Trial_,End,1744728338776,undefined,1503,generous,social-positive,positive,negative,A,NULL
1744729078,31718015fcfa025c305ad0dec51b4814,PennController,83,0,test_val,NULL,PennController,94,_Trial_,Start,1744728338777,undefined,994,sympathetic,social-positive,positive,negative,A,NULL
1744729078,31718015fcfa025c305ad0dec51b4814,PennController,83,0,test_val,NULL,PennController,94,_Header_,Start,1744728338777,undefined,994,sympathetic,social-positive,positive,negative,A,NULL
1744729078,31718015fcfa025c305ad0dec51b4814,PennController,83,0,test_val,NULL,PennController,94,_Header_,End,1744728339030,undefined,994,sympathetic,social-positive,positive,negative,A,NULL
1744729078,31718015fcfa025c305ad0dec51b4814,PennController,83,0,test_val,NULL,Selector,unnamed-Selector,Selection,positive,1744728340525,undefined,994,sympathetic,social-positive,positive,negative,A,positive;negative
1744729078,31718015fcfa025c305ad0dec51b4814,PennController,83,0,test_val,NULL,PennController,94,_Trial_,End,1744728340527,undefined,994,sympathetic,social-positive,positive,negative,A,NULL
1744729078,31718015fcfa025c305ad0dec51b4814,PennController,65,0,test_val,NULL,PennController,76,_Trial_,Start,1744728340529,undefined,1761,slim,physical-positive,positive,negative,A,NULL
1744729078,31718015fcfa025c305ad0dec51b4814,PennController,65,0,test_val,NULL,PennController,76,_Header_,Start,1744728340529,undefined,1761,slim,physical-positive,positive,negative,A,NULL
1744729078,31718015fcfa025c305ad0dec51b4814,PennController,65,0,test_val,NULL,PennController,76,_Header_,End,1744728340779,undefined,1761,slim,physical-positive,positive,negative,A,NULL
1744729078,31718015fcfa025c305ad0dec51b4814,PennController,65,0,test_val,NULL,Selector,unnamed-Selector,Selection,positive,1744728343045,undefined,1761,slim,physical-positive,positive,negative,A,positive;negative
1744729078,31718015fcfa025c305ad0dec51b4814,PennController,65,0,test_val,NULL,PennController,76,_Trial_,End,1744728343046,undefined,1761,slim,physical-positive,positive,negative,A,NULL
1744729078,31718015fcfa025c305ad0dec51b4814,PennController,64,0,test_val,NULL,PennController,75,_Trial_,Start,1744728343047,undefined,1809,wrinkled,physical-negative,positive,negative,A,NULL
1744729078,31718015fcfa025c305ad0dec51b4814,PennController,64,0,test_val,NULL,PennController,75,_Header_,Start,1744728343047,undefined,1809,wrinkled,physical-negative,positive,negative,A,NULL
1744729078,31718015fcfa025c305ad0dec51b4814,PennController,64,0,test_val,NULL,PennController,75,_Header_,End,1744728343300,undefined,1809,wrinkled,physical-negative,positive,negative,A,NULL
1744729078,31718015fcfa025c305ad0dec51b4814,PennController,64,0,test_val,NULL,Selector,unnamed-Selector,Selection,negative,1744728345615,undefined,1809,wrinkled,physical-negative,positive,negative,A,positive;negative
1744729078,31718015fcfa025c305ad0dec51b4814,PennController,64,0,test_val,NULL,PennController,75,_Trial_,End,1744728345616,undefined,1809,wrinkled,physical-negative,positive,negative,A,NULL
1744729078,31718015fcfa025c305ad0dec51b4814,PennController,49,0,test_val,NULL,PennController,60,_Trial_,Start,1744728345617,undefined,742,sour,physical-negative,positive,negative,A,NULL
1744729078,31718015fcfa025c305ad0dec51b4814,PennController,49,0,test_val,NULL,PennController,60,_Header_,Start,1744728345617,undefined,742,sour,physical-negative,positive,negative,A,NULL
1744729078,31718015fcfa025c305ad0dec51b4814,PennController,49,0,test_val,NULL,PennController,60,_Header_,End,1744728345867,undefined,742,sour,physical-negative,positive,negative,A,NULL
1744729078,31718015fcfa025c305ad0dec51b4814,PennController,49,0,test_val,NULL,Selector,unnamed-Selector,Selection,negative,1744728347114,undefined,742,sour,physical-negative,positive,negative,A,positive;negative
1744729078,31718015fcfa025c305ad0dec51b4814,PennController,49,0,test_val,NULL,PennController,60,_Trial_,End,1744728347115,undefined,742,sour,physical-negative,positive,negative,A,NULL
1744729078,31718015fcfa025c305ad0dec51b4814,PennController,50,0,test_val,NULL,PennController,61,_Trial_,Start,1744728347115,undefined,906,clammy,physical-negative,positive,negative,A,NULL
1744729078,31718015fcfa025c305ad0dec51b4814,PennController,50,0,test_val,NULL,PennController,61,_Header_,Start,1744728347115,undefined,906,clammy,physical-negative,positive,negative,A,NULL
1744729078,31718015fcfa025c305ad0dec51b4814,PennController,50,0,test_val,NULL,PennController,61,_Header_,End,1744728347368,undefined,906,clammy,physical-negative,positive,negative,A,NULL
1744729078,31718015fcfa025c305ad0dec51b4814,PennController,50,0,test_val,NULL,Selector,unnamed-Selector,Selection,negative,1744728348776,undefined,906,clammy,physical-negative,positive,negative,A,positive;negative
1744729078,31718015fcfa025c305ad0dec51b4814,PennController,50,0,test_val,NULL,PennController,61,_Trial_,End,1744728348777,undefined,906,clammy,physical-negative,positive,negative,A,NULL
1744729078,31718015fcfa025c305ad0dec51b4814,PennController,76,0,test_val,NULL,PennController,87,_Trial_,Start,1744728348777,undefined,1285,manipulative,social-negative,positive,negative,A,NULL
1744729078,31718015fcfa025c305ad0dec51b4814,PennController,76,0,test_val,NULL,PennController,87,_Header_,Start,1744728348777,undefined,1285,manipulative,social-negative,positive,negative,A,NULL
1744729078,31718015fcfa025c305ad0dec51b4814,PennController,76,0,test_val,NULL,PennController,87,_Header_,End,1744728349027,undefined,1285,manipulative,social-negative,positive,negative,A,NULL
1744729078,31718015fcfa025c305ad0dec51b4814,PennController,76,0,test_val,NULL,Selector,unnamed-Selector,Selection,negative,1744728350817,undefined,1285,manipulative,social-negative,positive,negative,A,positive;negative
1744729078,31718015fcfa025c305ad0dec51b4814,PennController,76,0,test_val,NULL,PennController,87,_Trial_,End,1744728350819,undefined,1285,manipulative,social-negative,positive,negative,A,NULL
1744729078,31718015fcfa025c305ad0dec51b4814,PennController,44,0,test_val,NULL,PennController,55,_Trial_,Start,1744728350820,undefined,685,moldy,physical-negative,positive,negative,A,NULL
1744729078,31718015fcfa025c305ad0dec51b4814,PennController,44,0,test_val,NULL,PennController,55,_Header_,Start,1744728350820,undefined,685,moldy,physical-negative,positive,negative,A,NULL
1744729078,31718015fcfa025c305ad0dec51b4814,PennController,44,0,test_val,NULL,PennController,55,_Header_,End,1744728351071,undefined,685,moldy,physical-negative,positive,negative,A,NULL
1744729078,31718015fcfa025c305ad0dec51b4814,PennController,44,0,test_val,NULL,Selector,unnamed-Selector,Selection,negative,1744728352261,undefined,685,moldy,physical-negative,positive,negative,A,positive;negative
1744729078,31718015fcfa025c305ad0dec51b4814,PennController,44,0,test_val,NULL,PennController,55,_Trial_,End,1744728352262,undefined,685,moldy,physical-negative,positive,negative,A,NULL
1744729078,31718015fcfa025c305ad0dec51b4814,PennController,54,0,test_val,NULL,PennController,65,_Trial_,Start,1744728352263,undefined,999,lush,physical-positive,positive,negative,A,NULL
1744729078,31718015fcfa025c305ad0dec51b4814,PennController,54,0,test_val,NULL,PennController,65,_Header_,Start,1744728352263,undefined,999,lush,physical-positive,positive,negative,A,NULL
1744729078,31718015fcfa025c305ad0dec51b4814,PennController,54,0,test_val,NULL,PennController,65,_Header_,End,1744728352514,undefined,999,lush,physical-positive,positive,negative,A,NULL
1744729078,31718015fcfa025c305ad0dec51b4814,PennController,54,0,test_val,NULL,Selector,unnamed-Selector,Selection,positive,1744728354014,undefined,999,lush,physical-positive,positive,negative,A,positive;negative
1744729078,31718015fcfa025c305ad0dec51b4814,PennController,54,0,test_val,NULL,PennController,65,_Trial_,End,1744728354015,undefined,999,lush,physical-positive,positive,negative,A,NULL
1744729078,31718015fcfa025c305ad0dec51b4814,PennController,73,0,test_val,NULL,PennController,84,_Trial_,Start,1744728354016,undefined,1116,elegant,physical-positive,positive,negative,A,NULL
1744729078,31718015fcfa025c305ad0dec51b4814,PennController,73,0,test_val,NULL,PennController,84,_Header_,Start,1744728354016,undefined,1116,elegant,physical-positive,positive,negative,A,NULL
1744729078,31718015fcfa025c305ad0dec51b4814,PennController,73,0,test_val,NULL,PennController,84,_Header_,End,1744728354270,undefined,1116,elegant,physical-positive,positive,negative,A,NULL
1744729078,31718015fcfa025c305ad0dec51b4814,PennController,73,0,test_val,NULL,Selector,unnamed-Selector,Selection,positive,1744728355887,undefined,1116,elegant,physical-positive,positive,negative,A,positive;negative
1744729078,31718015fcfa025c305ad0dec51b4814,PennController,73,0,test_val,NULL,PennController,84,_Trial_,End,1744728355889,undefined,1116,elegant,physical-positive,positive,negative,A,NULL
1744729078,31718015fcfa025c305ad0dec51b4814,PennController,72,0,test_val,NULL,PennController,83,_Trial_,Start,1744728355890,undefined,999,trustworthy,social-positive,positive,negative,A,NULL
1744729078,31718015fcfa025c305ad0dec51b4814,PennController,72,0,test_val,NULL,PennController,83,_Header_,Start,1744728355890,undefined,999,trustworthy,social-positive,positive,negative,A,NULL
1744729078,31718015fcfa025c305ad0dec51b4814,PennController,72,0,test_val,NULL,PennController,83,_Header_,End,1744728356142,undefined,999,trustworthy,social-positive,positive,negative,A,NULL
1744729078,31718015fcfa025c305ad0dec51b4814,PennController,72,0,test_val,NULL,Selector,unnamed-Selector,Selection,positive,1744728357642,undefined,999,trustworthy,social-positive,positive,negative,A,positive;negative
1744729078,31718015fcfa025c305ad0dec51b4814,PennController,72,0,test_val,NULL,PennController,83,_Trial_,End,1744728357644,undefined,999,trustworthy,social-positive,positive,negative,A,NULL
1744729078,31718015fcfa025c305ad0dec51b4814,PennController,65,0,test_val,NULL,PennController,76,_Trial_,Start,1744728357645,undefined,753,slim,physical-positive,positive,negative,A,NULL
1744729078,31718015fcfa025c305ad0dec51b4814,PennController,65,0,test_val,NULL,PennController,76,_Header_,Start,1744728357645,undefined,753,slim,physical-positive,positive,negative,A,NULL
1744729078,31718015fcfa025c305ad0dec51b4814,PennController,65,0,test_val,NULL,PennController,76,_Header_,End,1744728357896,undefined,753,slim,physical-positive,positive,negative,A,NULL
1744729078,31718015fcfa025c305ad0dec51b4814,PennController,65,0,test_val,NULL,Selector,unnamed-Selector,Selection,positive,1744728359150,undefined,753,slim,physical-positive,positive,negative,A,positive;negative
1744729078,31718015fcfa025c305ad0dec51b4814,PennController,65,0,test_val,NULL,PennController,76,_Trial_,End,1744728359151,undefined,753,slim,physical-positive,positive,negative,A,NULL
1744729078,31718015fcfa025c305ad0dec51b4814,PennController,46,0,test_val,NULL,PennController,57,_Trial_,Start,1744728359152,undefined,943,smooth,physical-positive,positive,negative,A,NULL
1744729078,31718015fcfa025c305ad0dec51b4814,PennController,46,0,test_val,NULL,PennController,57,_Header_,Start,1744728359152,undefined,943,smooth,physical-positive,positive,negative,A,NULL
1744729078,31718015fcfa025c305ad0dec51b4814,PennController,46,0,test_val,NULL,PennController,57,_Header_,End,1744728359402,undefined,943,smooth,physical-positive,positive,negative,A,NULL
1744729078,31718015fcfa025c305ad0dec51b4814,PennController,46,0,test_val,NULL,Selector,unnamed-Selector,Selection,positive,1744728360847,undefined,943,smooth,physical-positive,positive,negative,A,positive;negative
1744729078,31718015fcfa025c305ad0dec51b4814,PennController,46,0,test_val,NULL,PennController,57,_Trial_,End,1744728360848,undefined,943,smooth,physical-positive,positive,negative,A,NULL
1744729078,31718015fcfa025c305ad0dec51b4814,PennController,78,0,test_val,NULL,PennController,89,_Trial_,Start,1744728360849,undefined,883,arrogant,social-negative,positive,negative,A,NULL
1744729078,31718015fcfa025c305ad0dec51b4814,PennController,78,0,test_val,NULL,PennController,89,_Header_,Start,1744728360849,undefined,883,arrogant,social-negative,positive,negative,A,NULL
1744729078,31718015fcfa025c305ad0dec51b4814,PennController,78,0,test_val,NULL,PennController,89,_Header_,End,1744728361101,undefined,883,arrogant,social-negative,positive,negative,A,NULL
1744729078,31718015fcfa025c305ad0dec51b4814,PennController,78,0,test_val,NULL,Selector,unnamed-Selector,Selection,negative,1744728362489,undefined,883,arrogant,social-negative,positive,negative,A,positive;negative
1744729078,31718015fcfa025c305ad0dec51b4814,PennController,78,0,test_val,NULL,PennController,89,_Trial_,End,1744728362490,undefined,883,arrogant,social-negative,positive,negative,A,NULL
1744729078,31718015fcfa025c305ad0dec51b4814,PennController,83,0,test_val,NULL,PennController,94,_Trial_,Start,1744728362492,undefined,1262,sympathetic,social-positive,positive,negative,A,NULL
1744729078,31718015fcfa025c305ad0dec51b4814,PennController,83,0,test_val,NULL,PennController,94,_Header_,Start,1744728362492,undefined,1262,sympathetic,social-positive,positive,negative,A,NULL
1744729078,31718015fcfa025c305ad0dec51b4814,PennController,83,0,test_val,NULL,PennController,94,_Header_,End,1744728362746,undefined,1262,sympathetic,social-positive,positive,negative,A,NULL
1744729078,31718015fcfa025c305ad0dec51b4814,PennController,83,0,test_val,NULL,Selector,unnamed-Selector,Selection,positive,1744728364510,undefined,1262,sympathetic,social-positive,positive,negative,A,positive;negative
1744729078,31718015fcfa025c305ad0dec51b4814,PennController,83,0,test_val,NULL,PennController,94,_Trial_,End,1744728364511,undefined,1262,sympathetic,social-positive,positive,negative,A,NULL
1744729078,31718015fcfa025c305ad0dec51b4814,PennController,51,0,test_val,NULL,PennController,62,_Trial_,Start,1744728364512,undefined,1406,gritty,physical-negative,positive,negative,A,NULL
1744729078,31718015fcfa025c305ad0dec51b4814,PennController,51,0,test_val,NULL,PennController,62,_Header_,Start,1744728364512,undefined,1406,gritty,physical-negative,positive,negative,A,NULL
1744729078,31718015fcfa025c305ad0dec51b4814,PennController,51,0,test_val,NULL,PennController,62,_Header_,End,1744728364767,undefined,1406,gritty,physical-negative,positive,negative,A,NULL
1744729078,31718015fcfa025c305ad0dec51b4814,PennController,51,0,test_val,NULL,Selector,unnamed-Selector,Selection,positive,1744728366678,undefined,1406,gritty,physical-negative,positive,negative,A,positive;negative
1744729078,31718015fcfa025c305ad0dec51b4814,PennController,51,0,test_val,NULL,PennController,62,_Trial_,End,1744728366679,undefined,1406,gritty,physical-negative,positive,negative,A,NULL
1744729078,31718015fcfa025c305ad0dec51b4814,PennController,64,0,test_val,NULL,PennController,75,_Trial_,Start,1744728366680,undefined,865,wrinkled,physical-negative,positive,negative,A,NULL
1744729078,31718015fcfa025c305ad0dec51b4814,PennController,64,0,test_val,NULL,PennController,75,_Header_,Start,1744728366680,undefined,865,wrinkled,physical-negative,positive,negative,A,NULL
1744729078,31718015fcfa025c305ad0dec51b4814,PennController,64,0,test_val,NULL,PennController,75,_Header_,End,1744728366930,undefined,865,wrinkled,physical-negative,positive,negative,A,NULL
1744729078,31718015fcfa025c305ad0dec51b4814,PennController,64,0,test_val,NULL,Selector,unnamed-Selector,Selection,negative,1744728368297,undefined,865,wrinkled,physical-negative,positive,negative,A,positive;negative
1744729078,31718015fcfa025c305ad0dec51b4814,PennController,64,0,test_val,NULL,PennController,75,_Trial_,End,1744728368298,undefined,865,wrinkled,physical-negative,positive,negative,A,NULL
1744729078,31718015fcfa025c305ad0dec51b4814,PennController,66,0,test_val,NULL,PennController,77,_Trial_,Start,1744728368299,undefined,1207,obese,physical-negative,positive,negative,A,NULL
1744729078,31718015fcfa025c305ad0dec51b4814,PennController,66,0,test_val,NULL,PennController,77,_Header_,Start,1744728368299,undefined,1207,obese,physical-negative,positive,negative,A,NULL
1744729078,31718015fcfa025c305ad0dec51b4814,PennController,66,0,test_val,NULL,PennController,77,_Header_,End,1744728368551,undefined,1207,obese,physical-negative,positive,negative,A,NULL
1744729078,31718015fcfa025c305ad0dec51b4814,PennController,66,0,test_val,NULL,Selector,unnamed-Selector,Selection,negative,1744728370259,undefined,1207,obese,physical-negative,positive,negative,A,positive;negative
1744729078,31718015fcfa025c305ad0dec51b4814,PennController,66,0,test_val,NULL,PennController,77,_Trial_,End,1744728370260,undefined,1207,obese,physical-negative,positive,negative,A,NULL
1744729078,31718015fcfa025c305ad0dec51b4814,PennController,62,0,test_val,NULL,PennController,73,_Trial_,Start,1744728370261,undefined,1039,oppressive,social-negative,positive,negative,A,NULL
1744729078,31718015fcfa025c305ad0dec51b4814,PennController,62,0,test_val,NULL,PennController,73,_Header_,Start,1744728370261,undefined,1039,oppressive,social-negative,positive,negative,A,NULL
1744729078,31718015fcfa025c305ad0dec51b4814,PennController,62,0,test_val,NULL,PennController,73,_Header_,End,1744728370514,undefined,1039,oppressive,social-negative,positive,negative,A,NULL
1744729078,31718015fcfa025c305ad0dec51b4814,PennController,62,0,test_val,NULL,Selector,unnamed-Selector,Selection,negative,1744728372055,undefined,1039,oppressive,social-negative,positive,negative,A,positive;negative
1744729078,31718015fcfa025c305ad0dec51b4814,PennController,62,0,test_val,NULL,PennController,73,_Trial_,End,1744728372056,undefined,1039,oppressive,social-negative,positive,negative,A,NULL
1744729078,31718015fcfa025c305ad0dec51b4814,PennController,52,0,test_val,NULL,PennController,63,_Trial_,Start,1744728372057,undefined,727,rancid,physical-negative,positive,negative,A,NULL
1744729078,31718015fcfa025c305ad0dec51b4814,PennController,52,0,test_val,NULL,PennController,63,_Header_,Start,1744728372057,undefined,727,rancid,physical-negative,positive,negative,A,NULL
1744729078,31718015fcfa025c305ad0dec51b4814,PennController,52,0,test_val,NULL,PennController,63,_Header_,End,1744728372310,undefined,727,rancid,physical-negative,positive,negative,A,NULL
1744729078,31718015fcfa025c305ad0dec51b4814,PennController,52,0,test_val,NULL,Selector,unnamed-Selector,Selection,negative,1744728373537,undefined,727,rancid,physical-negative,positive,negative,A,positive;negative
1744729078,31718015fcfa025c305ad0dec51b4814,PennController,52,0,test_val,NULL,PennController,63,_Trial_,End,1744728373539,undefined,727,rancid,physical-negative,positive,negative,A,NULL
1744729078,31718015fcfa025c305ad0dec51b4814,PennController,53,0,test_val,NULL,PennController,64,_Trial_,Start,1744728373540,undefined,1341,sturdy,physical-positive,positive,negative,A,NULL
1744729078,31718015fcfa025c305ad0dec51b4814,PennController,53,0,test_val,NULL,PennController,64,_Header_,Start,1744728373540,undefined,1341,sturdy,physical-positive,positive,negative,A,NULL
1744729078,31718015fcfa025c305ad0dec51b4814,PennController,53,0,test_val,NULL,PennController,64,_Header_,End,1744728373792,undefined,1341,sturdy,physical-positive,positive,negative,A,NULL
1744729078,31718015fcfa025c305ad0dec51b4814,PennController,53,0,test_val,NULL,Selector,unnamed-Selector,Selection,positive,1744728375638,undefined,1341,sturdy,physical-positive,positive,negative,A,positive;negative
1744729078,31718015fcfa025c305ad0dec51b4814,PennController,53,0,test_val,NULL,PennController,64,_Trial_,End,1744728375640,undefined,1341,sturdy,physical-positive,positive,negative,A,NULL
1744729078,31718015fcfa025c305ad0dec51b4814,PennController,47,0,test_val,NULL,PennController,58,_Trial_,Start,1744728375641,undefined,935,brittle,physical-negative,positive,negative,A,NULL
1744729078,31718015fcfa025c305ad0dec51b4814,PennController,47,0,test_val,NULL,PennController,58,_Header_,Start,1744728375641,undefined,935,brittle,physical-negative,positive,negative,A,NULL
1744729078,31718015fcfa025c305ad0dec51b4814,PennController,47,0,test_val,NULL,PennController,58,_Header_,End,1744728375892,undefined,935,brittle,physical-negative,positive,negative,A,NULL
1744729078,31718015fcfa025c305ad0dec51b4814,PennController,47,0,test_val,NULL,Selector,unnamed-Selector,Selection,negative,1744728377329,undefined,935,brittle,physical-negative,positive,negative,A,positive;negative
1744729078,31718015fcfa025c305ad0dec51b4814,PennController,47,0,test_val,NULL,PennController,58,_Trial_,End,1744728377330,undefined,935,brittle,physical-negative,positive,negative,A,NULL
1744729078,31718015fcfa025c305ad0dec51b4814,PennController,50,0,test_val,NULL,PennController,61,_Trial_,Start,1744728377331,undefined,1399,clammy,physical-negative,positive,negative,A,NULL
1744729078,31718015fcfa025c305ad0dec51b4814,PennController,50,0,test_val,NULL,PennController,61,_Header_,Start,1744728377331,undefined,1399,clammy,physical-negative,positive,negative,A,NULL
1744729078,31718015fcfa025c305ad0dec51b4814,PennController,50,0,test_val,NULL,PennController,61,_Header_,End,1744728377584,undefined,1399,clammy,physical-negative,positive,negative,A,NULL
1744729078,31718015fcfa025c305ad0dec51b4814,PennController,50,0,test_val,NULL,Selector,unnamed-Selector,Selection,negative,1744728379485,undefined,1399,clammy,physical-negative,positive,negative,A,positive;negative
1744729078,31718015fcfa025c305ad0dec51b4814,PennController,50,0,test_val,NULL,PennController,61,_Trial_,End,1744728379486,undefined,1399,clammy,physical-negative,positive,negative,A,NULL
1744729078,31718015fcfa025c305ad0dec51b4814,PennController,82,0,test_val,NULL,PennController,93,_Trial_,Start,1744728379487,undefined,1225,judgmental,social-negative,positive,negative,A,NULL
1744729078,31718015fcfa025c305ad0dec51b4814,PennController,82,0,test_val,NULL,PennController,93,_Header_,Start,1744728379487,undefined,1225,judgmental,social-negative,positive,negative,A,NULL
1744729078,31718015fcfa025c305ad0dec51b4814,PennController,82,0,test_val,NULL,PennController,93,_Header_,End,1744728379737,undefined,1225,judgmental,social-negative,positive,negative,A,NULL
1744729078,31718015fcfa025c305ad0dec51b4814,PennController,82,0,test_val,NULL,Selector,unnamed-Selector,Selection,negative,1744728381466,undefined,1225,judgmental,social-negative,positive,negative,A,positive;negative
1744729078,31718015fcfa025c305ad0dec51b4814,PennController,82,0,test_val,NULL,PennController,93,_Trial_,End,1744728381467,undefined,1225,judgmental,social-negative,positive,negative,A,NULL
1744729078,31718015fcfa025c305ad0dec51b4814,PennController,56,0,test_val,NULL,PennController,67,_Trial_,Start,1744728381468,undefined,939,radiant,physical-positive,positive,negative,A,NULL
1744729078,31718015fcfa025c305ad0dec51b4814,PennController,56,0,test_val,NULL,PennController,67,_Header_,Start,1744728381468,undefined,939,radiant,physical-positive,positive,negative,A,NULL
1744729078,31718015fcfa025c305ad0dec51b4814,PennController,56,0,test_val,NULL,PennController,67,_Header_,End,1744728381719,undefined,939,radiant,physical-positive,positive,negative,A,NULL
1744729078,31718015fcfa025c305ad0dec51b4814,PennController,56,0,test_val,NULL,Selector,unnamed-Selector,Selection,positive,1744728383163,undefined,939,radiant,physical-positive,positive,negative,A,positive;negative
1744729078,31718015fcfa025c305ad0dec51b4814,PennController,56,0,test_val,NULL,PennController,67,_Trial_,End,1744728383164,undefined,939,radiant,physical-positive,positive,negative,A,NULL
1744729078,31718015fcfa025c305ad0dec51b4814,PennController,49,0,test_val,NULL,PennController,60,_Trial_,Start,1744728383165,undefined,1048,sour,physical-negative,positive,negative,A,NULL
1744729078,31718015fcfa025c305ad0dec51b4814,PennController,49,0,test_val,NULL,PennController,60,_Header_,Start,1744728383165,undefined,1048,sour,physical-negative,positive,negative,A,NULL
1744729078,31718015fcfa025c305ad0dec51b4814,PennController,49,0,test_val,NULL,PennController,60,_Header_,End,1744728383417,undefined,1048,sour,physical-negative,positive,negative,A,NULL
1744729078,31718015fcfa025c305ad0dec51b4814,PennController,49,0,test_val,NULL,Selector,unnamed-Selector,Selection,negative,1744728384970,undefined,1048,sour,physical-negative,positive,negative,A,positive;negative
1744729078,31718015fcfa025c305ad0dec51b4814,PennController,49,0,test_val,NULL,PennController,60,_Trial_,End,1744728384971,undefined,1048,sour,physical-negative,positive,negative,A,NULL
1744729078,31718015fcfa025c305ad0dec51b4814,PennController,75,0,test_val,NULL,PennController,86,_Trial_,Start,1744728384972,undefined,974,gorgeous,physical-positive,positive,negative,A,NULL
1744729078,31718015fcfa025c305ad0dec51b4814,PennController,75,0,test_val,NULL,PennController,86,_Header_,Start,1744728384972,undefined,974,gorgeous,physical-positive,positive,negative,A,NULL
1744729078,31718015fcfa025c305ad0dec51b4814,PennController,75,0,test_val,NULL,PennController,86,_Header_,End,1744728385224,undefined,974,gorgeous,physical-positive,positive,negative,A,NULL
1744729078,31718015fcfa025c305ad0dec51b4814,PennController,75,0,test_val,NULL,Selector,unnamed-Selector,Selection,positive,1744728386704,undefined,974,gorgeous,physical-positive,positive,negative,A,positive;negative
1744729078,31718015fcfa025c305ad0dec51b4814,PennController,75,0,test_val,NULL,PennController,86,_Trial_,End,1744728386705,undefined,974,gorgeous,physical-positive,positive,negative,A,NULL
1744729078,31718015fcfa025c305ad0dec51b4814,PennController,57,0,test_val,NULL,PennController,68,_Trial_,Start,1744728386706,undefined,1197,fair,social-positive,positive,negative,A,NULL
1744729078,31718015fcfa025c305ad0dec51b4814,PennController,57,0,test_val,NULL,PennController,68,_Header_,Start,1744728386706,undefined,1197,fair,social-positive,positive,negative,A,NULL
1744729078,31718015fcfa025c305ad0dec51b4814,PennController,57,0,test_val,NULL,PennController,68,_Header_,End,1744728386959,undefined,1197,fair,social-positive,positive,negative,A,NULL
1744729078,31718015fcfa025c305ad0dec51b4814,PennController,57,0,test_val,NULL,Selector,unnamed-Selector,Selection,positive,1744728388658,undefined,1197,fair,social-positive,positive,negative,A,positive;negative
1744729078,31718015fcfa025c305ad0dec51b4814,PennController,57,0,test_val,NULL,PennController,68,_Trial_,End,1744728388659,undefined,1197,fair,social-positive,positive,negative,A,NULL
1744729078,31718015fcfa025c305ad0dec51b4814,PennController,61,0,test_val,NULL,PennController,72,_Trial_,Start,1744728388660,undefined,850,compassionate,social-positive,positive,negative,A,NULL
1744729078,31718015fcfa025c305ad0dec51b4814,PennController,61,0,test_val,NULL,PennController,72,_Header_,Start,1744728388660,undefined,850,compassionate,social-positive,positive,negative,A,NULL
1744729078,31718015fcfa025c305ad0dec51b4814,PennController,61,0,test_val,NULL,PennController,72,_Header_,End,1744728388912,undefined,850,compassionate,social-positive,positive,negative,A,NULL
1744729078,31718015fcfa025c305ad0dec51b4814,PennController,61,0,test_val,NULL,Selector,unnamed-Selector,Selection,positive,1744728390266,undefined,850,compassionate,social-positive,positive,negative,A,positive;negative
1744729078,31718015fcfa025c305ad0dec51b4814,PennController,61,0,test_val,NULL,PennController,72,_Trial_,End,1744728390267,undefined,850,compassionate,social-positive,positive,negative,A,NULL
1744729078,31718015fcfa025c305ad0dec51b4814,PennController,80,0,test_val,NULL,PennController,91,_Trial_,Start,1744728390269,undefined,1549,selfish,social-negative,positive,negative,A,NULL
1744729078,31718015fcfa025c305ad0dec51b4814,PennController,80,0,test_val,NULL,PennController,91,_Header_,Start,1744728390269,undefined,1549,selfish,social-negative,positive,negative,A,NULL
1744729078,31718015fcfa025c305ad0dec51b4814,PennController,80,0,test_val,NULL,PennController,91,_Header_,End,1744728390522,undefined,1549,selfish,social-negative,positive,negative,A,NULL
1744729078,31718015fcfa025c305ad0dec51b4814,PennController,80,0,test_val,NULL,Selector,unnamed-Selector,Selection,negative,1744728392577,undefined,1549,selfish,social-negative,positive,negative,A,positive;negative
1744729078,31718015fcfa025c305ad0dec51b4814,PennController,80,0,test_val,NULL,PennController,91,_Trial_,End,1744728392577,undefined,1549,selfish,social-negative,positive,negative,A,NULL
1744729078,31718015fcfa025c305ad0dec51b4814,PennController,68,0,test_val,NULL,PennController,79,_Trial_,Start,1744728392578,undefined,832,scrawny,physical-negative,positive,negative,A,NULL
1744729078,31718015fcfa025c305ad0dec51b4814,PennController,68,0,test_val,NULL,PennController,79,_Header_,Start,1744728392578,undefined,832,scrawny,physical-negative,positive,negative,A,NULL
1744729078,31718015fcfa025c305ad0dec51b4814,PennController,68,0,test_val,NULL,PennController,79,_Header_,End,1744728392830,undefined,832,scrawny,physical-negative,positive,negative,A,NULL
1744729078,31718015fcfa025c305ad0dec51b4814,PennController,68,0,test_val,NULL,Selector,unnamed-Selector,Selection,negative,1744728394165,undefined,832,scrawny,physical-negative,positive,negative,A,positive;negative
1744729078,31718015fcfa025c305ad0dec51b4814,PennController,68,0,test_val,NULL,PennController,79,_Trial_,End,1744728394166,undefined,832,scrawny,physical-negative,positive,negative,A,NULL
1744729078,31718015fcfa025c305ad0dec51b4814,PennController,74,0,test_val,NULL,PennController,85,_Trial_,Start,1744728394167,undefined,1249,generous,social-positive,positive,negative,A,NULL
1744729078,31718015fcfa025c305ad0dec51b4814,PennController,74,0,test_val,NULL,PennController,85,_Header_,Start,1744728394167,undefined,1249,generous,social-positive,positive,negative,A,NULL
1744729078,31718015fcfa025c305ad0dec51b4814,PennController,74,0,test_val,NULL,PennController,85,_Header_,End,1744728394417,undefined,1249,generous,social-positive,positive,negative,A,NULL
1744729078,31718015fcfa025c305ad0dec51b4814,PennController,74,0,test_val,NULL,Selector,unnamed-Selector,Selection,positive,1744728396167,undefined,1249,generous,social-positive,positive,negative,A,positive;negative
1744729078,31718015fcfa025c305ad0dec51b4814,PennController,74,0,test_val,NULL,PennController,85,_Trial_,End,1744728396168,undefined,1249,generous,social-positive,positive,negative,A,NULL
1744729078,31718015fcfa025c305ad0dec51b4814,PennController,77,0,test_val,NULL,PennController,88,_Trial_,Start,1744728396168,undefined,1058,cruel,social-negative,positive,negative,A,NULL
1744729078,31718015fcfa025c305ad0dec51b4814,PennController,77,0,test_val,NULL,PennController,88,_Header_,Start,1744728396168,undefined,1058,cruel,social-negative,positive,negative,A,NULL
1744729078,31718015fcfa025c305ad0dec51b4814,PennController,77,0,test_val,NULL,PennController,88,_Header_,End,1744728396423,undefined,1058,cruel,social-negative,positive,negative,A,NULL
1744729078,31718015fcfa025c305ad0dec51b4814,PennController,77,0,test_val,NULL,Selector,unnamed-Selector,Selection,negative,1744728397981,undefined,1058,cruel,social-negative,positive,negative,A,positive;negative
1744729078,31718015fcfa025c305ad0dec51b4814,PennController,77,0,test_val,NULL,PennController,88,_Trial_,End,1744728397983,undefined,1058,cruel,social-negative,positive,negative,A,NULL
1744729078,31718015fcfa025c305ad0dec51b4814,PennController,59,0,test_val,NULL,PennController,70,_Trial_,Start,1744728397984,undefined,2773,harmonious,social-positive,positive,negative,A,NULL
1744729078,31718015fcfa025c305ad0dec51b4814,PennController,59,0,test_val,NULL,PennController,70,_Header_,Start,1744728397984,undefined,2773,harmonious,social-positive,positive,negative,A,NULL
1744729078,31718015fcfa025c305ad0dec51b4814,PennController,59,0,test_val,NULL,PennController,70,_Header_,End,1744728398235,undefined,2773,harmonious,social-positive,positive,negative,A,NULL
1744729078,31718015fcfa025c305ad0dec51b4814,PennController,59,0,test_val,NULL,Selector,unnamed-Selector,Selection,positive,1744728401513,undefined,2773,harmonious,social-positive,positive,negative,A,positive;negative
1744729078,31718015fcfa025c305ad0dec51b4814,PennController,59,0,test_val,NULL,PennController,70,_Trial_,End,1744728401514,undefined,2773,harmonious,social-positive,positive,negative,A,NULL
1744729078,31718015fcfa025c305ad0dec51b4814,PennController,58,0,test_val,NULL,PennController,69,_Trial_,Start,1744728401515,undefined,711,supportive,social-positive,positive,negative,A,NULL
1744729078,31718015fcfa025c305ad0dec51b4814,PennController,58,0,test_val,NULL,PennController,69,_Header_,Start,1744728401515,undefined,711,supportive,social-positive,positive,negative,A,NULL
1744729078,31718015fcfa025c305ad0dec51b4814,PennController,58,0,test_val,NULL,PennController,69,_Header_,End,1744728401767,undefined,711,supportive,social-positive,positive,negative,A,NULL
1744729078,31718015fcfa025c305ad0dec51b4814,PennController,58,0,test_val,NULL,Selector,unnamed-Selector,Selection,positive,1744728402979,undefined,711,supportive,social-positive,positive,negative,A,positive;negative
1744729078,31718015fcfa025c305ad0dec51b4814,PennController,58,0,test_val,NULL,PennController,69,_Trial_,End,1744728402980,undefined,711,supportive,social-positive,positive,negative,A,NULL
1744729078,31718015fcfa025c305ad0dec51b4814,PennController,67,0,test_val,NULL,PennController,78,_Trial_,Start,1744728402982,undefined,622,ugly,physical-negative,positive,negative,A,NULL
1744729078,31718015fcfa025c305ad0dec51b4814,PennController,67,0,test_val,NULL,PennController,78,_Header_,Start,1744728402982,undefined,622,ugly,physical-negative,positive,negative,A,NULL
1744729078,31718015fcfa025c305ad0dec51b4814,PennController,67,0,test_val,NULL,PennController,78,_Header_,End,1744728403234,undefined,622,ugly,physical-negative,positive,negative,A,NULL
1744729078,31718015fcfa025c305ad0dec51b4814,PennController,67,0,test_val,NULL,Selector,unnamed-Selector,Selection,negative,1744728404361,undefined,622,ugly,physical-negative,positive,negative,A,positive;negative
1744729078,31718015fcfa025c305ad0dec51b4814,PennController,67,0,test_val,NULL,PennController,78,_Trial_,End,1744728404362,undefined,622,ugly,physical-negative,positive,negative,A,NULL
1744729078,31718015fcfa025c305ad0dec51b4814,PennController,81,0,test_val,NULL,PennController,92,_Trial_,Start,1744728404364,undefined,1002,polite,social-positive,positive,negative,A,NULL
1744729078,31718015fcfa025c305ad0dec51b4814,PennController,81,0,test_val,NULL,PennController,92,_Header_,Start,1744728404364,undefined,1002,polite,social-positive,positive,negative,A,NULL
1744729078,31718015fcfa025c305ad0dec51b4814,PennController,81,0,test_val,NULL,PennController,92,_Header_,End,1744728404617,undefined,1002,polite,social-positive,positive,negative,A,NULL
1744729078,31718015fcfa025c305ad0dec51b4814,PennController,81,0,test_val,NULL,Selector,unnamed-Selector,Selection,positive,1744728406120,undefined,1002,polite,social-positive,positive,negative,A,positive;negative
1744729078,31718015fcfa025c305ad0dec51b4814,PennController,81,0,test_val,NULL,PennController,92,_Trial_,End,1744728406122,undefined,1002,polite,social-positive,positive,negative,A,NULL
1744729078,31718015fcfa025c305ad0dec51b4814,PennController,63,0,test_val,NULL,PennController,74,_Trial_,Start,1744728406123,undefined,815,unjust,social-negative,positive,negative,A,NULL
1744729078,31718015fcfa025c305ad0dec51b4814,PennController,63,0,test_val,NULL,PennController,74,_Header_,Start,1744728406123,undefined,815,unjust,social-negative,positive,negative,A,NULL
1744729078,31718015fcfa025c305ad0dec51b4814,PennController,63,0,test_val,NULL,PennController,74,_Header_,End,1744728406375,undefined,815,unjust,social-negative,positive,negative,A,NULL
1744729078,31718015fcfa025c305ad0dec51b4814,PennController,63,0,test_val,NULL,Selector,unnamed-Selector,Selection,negative,1744728407695,undefined,815,unjust,social-negative,positive,negative,A,positive;negative
1744729078,31718015fcfa025c305ad0dec51b4814,PennController,63,0,test_val,NULL,PennController,74,_Trial_,End,1744728407697,undefined,815,unjust,social-negative,positive,negative,A,NULL
1744729078,31718015fcfa025c305ad0dec51b4814,PennController,70,0,test_val,NULL,PennController,81,_Trial_,Start,1744728407698,undefined,1115,hostile,social-negative,positive,negative,A,NULL
1744729078,31718015fcfa025c305ad0dec51b4814,PennController,70,0,test_val,NULL,PennController,81,_Header_,Start,1744728407698,undefined,1115,hostile,social-negative,positive,negative,A,NULL
1744729078,31718015fcfa025c305ad0dec51b4814,PennController,70,0,test_val,NULL,PennController,81,_Header_,End,1744728407950,undefined,1115,hostile,social-negative,positive,negative,A,NULL
1744729078,31718015fcfa025c305ad0dec51b4814,PennController,70,0,test_val,NULL,Selector,unnamed-Selector,Selection,negative,1744728409569,undefined,1115,hostile,social-negative,positive,negative,A,positive;negative
1744729078,31718015fcfa025c305ad0dec51b4814,PennController,70,0,test_val,NULL,PennController,81,_Trial_,End,1744728409571,undefined,1115,hostile,social-negative,positive,negative,A,NULL
1744729078,31718015fcfa025c305ad0dec51b4814,PennController,45,0,test_val,NULL,PennController,56,_Trial_,Start,1744728409572,undefined,799,soft,physical-positive,positive,negative,A,NULL
1744729078,31718015fcfa025c305ad0dec51b4814,PennController,45,0,test_val,NULL,PennController,56,_Header_,Start,1744728409572,undefined,799,soft,physical-positive,positive,negative,A,NULL
1744729078,31718015fcfa025c305ad0dec51b4814,PennController,45,0,test_val,NULL,PennController,56,_Header_,End,1744728409823,undefined,799,soft,physical-positive,positive,negative,A,NULL
1744729078,31718015fcfa025c305ad0dec51b4814,PennController,45,0,test_val,NULL,Selector,unnamed-Selector,Selection,positive,1744728411124,undefined,799,soft,physical-positive,positive,negative,A,positive;negative
1744729078,31718015fcfa025c305ad0dec51b4814,PennController,45,0,test_val,NULL,PennController,56,_Trial_,End,1744728411125,undefined,799,soft,physical-positive,positive,negative,A,NULL
1744729078,31718015fcfa025c305ad0dec51b4814,PennController,55,0,test_val,NULL,PennController,66,_Trial_,Start,1744728411126,undefined,1802,prosperous,social-positive,positive,negative,A,NULL
1744729078,31718015fcfa025c305ad0dec51b4814,PennController,55,0,test_val,NULL,PennController,66,_Header_,Start,1744728411126,undefined,1802,prosperous,social-positive,positive,negative,A,NULL
1744729078,31718015fcfa025c305ad0dec51b4814,PennController,55,0,test_val,NULL,PennController,66,_Header_,End,1744728411379,undefined,1802,prosperous,social-positive,positive,negative,A,NULL
1744729078,31718015fcfa025c305ad0dec51b4814,PennController,55,0,test_val,NULL,Selector,unnamed-Selector,Selection,positive,1744728413682,undefined,1802,prosperous,social-positive,positive,negative,A,positive;negative
1744729078,31718015fcfa025c305ad0dec51b4814,PennController,55,0,test_val,NULL,PennController,66,_Trial_,End,1744728413684,undefined,1802,prosperous,social-positive,positive,negative,A,NULL
1744729078,31718015fcfa025c305ad0dec51b4814,PennController,71,0,test_val,NULL,PennController,82,_Trial_,Start,1744728413685,undefined,1285,amiable,social-positive,positive,negative,A,NULL
1744729078,31718015fcfa025c305ad0dec51b4814,PennController,71,0,test_val,NULL,PennController,82,_Header_,Start,1744728413685,undefined,1285,amiable,social-positive,positive,negative,A,NULL
1744729078,31718015fcfa025c305ad0dec51b4814,PennController,71,0,test_val,NULL,PennController,82,_Header_,End,1744728413938,undefined,1285,amiable,social-positive,positive,negative,A,NULL
1744729078,31718015fcfa025c305ad0dec51b4814,PennController,71,0,test_val,NULL,Selector,unnamed-Selector,Selection,positive,1744728415729,undefined,1285,amiable,social-positive,positive,negative,A,positive;negative
1744729078,31718015fcfa025c305ad0dec51b4814,PennController,71,0,test_val,NULL,PennController,82,_Trial_,End,1744728415730,undefined,1285,amiable,social-positive,positive,negative,A,NULL
1744729078,31718015fcfa025c305ad0dec51b4814,PennController,79,0,test_val,NULL,PennController,90,_Trial_,Start,1744728415731,undefined,1303,untrustworthy,social-negative,positive,negative,A,NULL
1744729078,31718015fcfa025c305ad0dec51b4814,PennController,79,0,test_val,NULL,PennController,90,_Header_,Start,1744728415731,undefined,1303,untrustworthy,social-negative,positive,negative,A,NULL
1744729078,31718015fcfa025c305ad0dec51b4814,PennController,79,0,test_val,NULL,PennController,90,_Header_,End,1744728415983,undefined,1303,untrustworthy,social-negative,positive,negative,A,NULL
1744729078,31718015fcfa025c305ad0dec51b4814,PennController,79,0,test_val,NULL,Selector,unnamed-Selector,Selection,negative,1744728417788,undefined,1303,untrustworthy,social-negative,positive,negative,A,positive;negative
1744729078,31718015fcfa025c305ad0dec51b4814,PennController,79,0,test_val,NULL,PennController,90,_Trial_,End,1744728417789,undefined,1303,untrustworthy,social-negative,positive,negative,A,NULL
