"","ID.true","Word","Label","Task","BlockOrder","EventTime","Value","ReactionTime","Key_value_F","Key_value_J","Comments","Group","LogReactionTime","TrialNumber"
"1","65c39067cbd525efe109a5e4","kick","calibrator_conc_feedback","Concrete","CV",1736430489244,"concrete",1721,"abstract","concrete","abstract;concrete","A",7.45066079621154,1
"2","65c39067cbd525efe109a5e4","insecure","calibrator_conc_feedback","Concrete","CV",1736430492573,"abstract",836,"abstract","concrete","abstract;concrete","A",6.7286286130847,2
"3","65c39067cbd525efe109a5e4","sugar","calibrator_conc_feedback","Concrete","CV",1736430495877,"concrete",740,"abstract","concrete","abstract;concrete","A",6.60665018619822,3
"4","65c39067cbd525efe109a5e4","grasshopper","calibrator_conc_feedback","Concrete","CV",1736430499851,"concrete",1020,"abstract","concrete","abstract;concrete","A",6.92755790627832,4
"5","65c39067cbd525efe109a5e4","whistle","calibrator_conc_feedback","Concrete","CV",1736430502819,"concrete",1908,"abstract","concrete","abstract;concrete","A",7.55381085200823,5
"6","65c39067cbd525efe109a5e4","gas","calibrator_conc_feedback","Concrete","CV",1736430507486,"concrete",1904,"abstract","concrete","abstract;concrete","A",7.55171221535131,6
"7","65c39067cbd525efe109a5e4","shirt","calibrator_conc_feedback","Concrete","CV",1736430511822,"concrete",858,"abstract","concrete","abstract;concrete","A",6.75460409948796,7
"8","65c39067cbd525efe109a5e4","polite","calibrator_conc_feedback","Concrete","CV",1736430514837,"abstract",961,"abstract","concrete","abstract;concrete","A",6.86797440897029,8
"9","65c39067cbd525efe109a5e4","theory","calibrator_conc_feedback","Concrete","CV",1736430518475,"abstract",874,"abstract","concrete","abstract;concrete","A",6.77308037565554,9
"10","65c39067cbd525efe109a5e4","marriage","calibrator_conc_feedback","Concrete","CV",1736430522811,"abstract",1574,"abstract","concrete","abstract;concrete","A",7.36137542897735,10
"11","65c39067cbd525efe109a5e4","polite","calibrator_conc_no_feedback","Concrete","CV",1736430526228,"abstract",653,"A","abstract;concrete","","A",6.48157712927643,11
"12","65c39067cbd525efe109a5e4","grasshopper","calibrator_conc_no_feedback","Concrete","CV",1736430527876,"concrete",888,"A","abstract;concrete","","A",6.78897174299217,12
"13","65c39067cbd525efe109a5e4","sugar","calibrator_conc_no_feedback","Concrete","CV",1736430529516,"concrete",880,"A","abstract;concrete","","A",6.77992190747225,13
"14","65c39067cbd525efe109a5e4","whistle","calibrator_conc_no_feedback","Concrete","CV",1736430531235,"concrete",958,"A","abstract;concrete","","A",6.86484777797086,14
"15","65c39067cbd525efe109a5e4","theory","calibrator_conc_no_feedback","Concrete","CV",1736430532579,"abstract",584,"A","abstract;concrete","","A",6.36990098282823,15
"16","65c39067cbd525efe109a5e4","kick","calibrator_conc_no_feedback","Concrete","CV",1736430534106,"concrete",767,"A","abstract;concrete","","A",6.64248680136726,16
"17","65c39067cbd525efe109a5e4","gas","calibrator_conc_no_feedback","Concrete","CV",1736430535699,"concrete",833,"A","abstract;concrete","","A",6.72503364216684,17
"18","65c39067cbd525efe109a5e4","marriage","calibrator_conc_no_feedback","Concrete","CV",1736430537796,"abstract",1334,"A","abstract;concrete","","A",7.19593722647557,18
"19","65c39067cbd525efe109a5e4","shirt","calibrator_conc_no_feedback","Concrete","CV",1736430539324,"concrete",766,"A","abstract;concrete","","A",6.64118216974059,19
"20","65c39067cbd525efe109a5e4","insecure","calibrator_conc_no_feedback","Concrete","CV",1736430540843,"abstract",761,"A","abstract;concrete","","A",6.63463335786169,20
"21","65c39067cbd525efe109a5e4","joke","calibrator_val_feedback","Valence","CV",1736430805547,"positive",959,"negative","positive","negative;positive","A",6.86589107488344,21
"22","65c39067cbd525efe109a5e4","free","calibrator_val_feedback","Valence","CV",1736430809180,"positive",864,"negative","positive","negative;positive","A",6.76157276880406,22
"23","65c39067cbd525efe109a5e4","hat","calibrator_val_feedback","Valence","CV",1736430812693,"positive",752,"negative","positive","negative;positive","A",6.62273632394984,23
"24","65c39067cbd525efe109a5e4","invader","calibrator_val_feedback","Valence","CV",1736430816197,"negative",736,"negative","positive","negative;positive","A",6.60123011872888,24
"25","65c39067cbd525efe109a5e4","kitten","calibrator_val_feedback","Valence","CV",1736430819676,"positive",713,"negative","positive","negative;positive","A",6.5694814204143,25
"26","65c39067cbd525efe109a5e4","icebox","calibrator_val_feedback","Valence","CV",1736430823540,"positive",1099,"negative","positive","negative;positive","A",7.00215595440362,26
"27","65c39067cbd525efe109a5e4","industry","calibrator_val_feedback","Valence","CV",1736430827372,"negative",1070,"negative","positive","negative;positive","A",6.97541392745595,27
"28","65c39067cbd525efe109a5e4","jail","calibrator_val_feedback","Valence","CV",1736430830805,"negative",666,"negative","positive","negative;positive","A",6.50128967054039,28
"29","65c39067cbd525efe109a5e4","grin","calibrator_val_feedback","Valence","CV",1736430834394,"positive",827,"negative","positive","negative;positive","A",6.71780469502369,29
"30","65c39067cbd525efe109a5e4","insecure","calibrator_val_feedback","Valence","CV",1736430838121,"negative",967,"negative","positive","negative;positive","A",6.87419849545329,30
"31","65c39067cbd525efe109a5e4","grin","calibrator_val_no_feedback","Valence","CV",1736430841507,"positive",623,"A","negative;positive","","A",6.43454651878745,31
"32","65c39067cbd525efe109a5e4","jail","calibrator_val_no_feedback","Valence","CV",1736430843042,"negative",775,"A","negative;positive","","A",6.65286302935335,32
"33","65c39067cbd525efe109a5e4","joke","calibrator_val_no_feedback","Valence","CV",1736430844459,"positive",655,"A","negative;positive","","A",6.48463523563525,33
"34","65c39067cbd525efe109a5e4","icebox","calibrator_val_no_feedback","Valence","CV",1736430845930,"positive",711,"A","negative;positive","","A",6.56667242980324,34
"35","65c39067cbd525efe109a5e4","free","calibrator_val_no_feedback","Valence","CV",1736430847274,"positive",585,"A","negative;positive","","A",6.37161184723186,35
"36","65c39067cbd525efe109a5e4","kitten","calibrator_val_no_feedback","Valence","CV",1736430848570,"positive",533,"A","negative;positive","","A",6.27852142416584,36
"37","65c39067cbd525efe109a5e4","invader","calibrator_val_no_feedback","Valence","CV",1736430849841,"negative",515,"A","negative;positive","","A",6.24416690066374,37
"38","65c39067cbd525efe109a5e4","insecure","calibrator_val_no_feedback","Valence","CV",1736430851242,"negative",640,"A","negative;positive","","A",6.46146817635372,38
"39","65c39067cbd525efe109a5e4","industry","calibrator_val_no_feedback","Valence","CV",1736430852554,"negative",552,"A","negative;positive","","A",6.31354804627709,39
"40","65c39067cbd525efe109a5e4","hat","calibrator_val_no_feedback","Valence","CV",1736430854081,"positive",767,"A","negative;positive","","A",6.64248680136726,40
"41","5720a9f6fd3a5200113c1891","whistle","calibrator_conc_feedback","Concrete","CV",1736436174474,"concrete",1374,"abstract","concrete","abstract;concrete","B",7.22548147278229,1
"42","5720a9f6fd3a5200113c1891","insecure","calibrator_conc_feedback","Concrete","CV",1736436178125,"abstract",1176,"abstract","concrete","abstract;concrete","B",7.06987412845857,2
"43","5720a9f6fd3a5200113c1891","marriage","calibrator_conc_feedback","Concrete","CV",1736436181047,"abstract",1282,"abstract","concrete","abstract;concrete","B",7.15617663748062,3
"44","5720a9f6fd3a5200113c1891","theory","calibrator_conc_feedback","Concrete","CV",1736436185190,"abstract",1375,"abstract","concrete","abstract;concrete","B",7.22620901010067,4
"45","5720a9f6fd3a5200113c1891","grasshopper","calibrator_conc_feedback","Concrete","CV",1736436188721,"concrete",772,"abstract","concrete","abstract;concrete","B",6.64898455002478,5
"46","5720a9f6fd3a5200113c1891","kick","calibrator_conc_feedback","Concrete","CV",1736436192425,"abstract",942,"abstract","concrete","abstract;concrete","B",6.84800527457636,6
"47","5720a9f6fd3a5200113c1891","shirt","calibrator_conc_feedback","Concrete","CV",1736436195977,"concrete",790,"abstract","concrete","abstract;concrete","B",6.67203294546107,7
"48","5720a9f6fd3a5200113c1891","gas","calibrator_conc_feedback","Concrete","CV",1736436200379,"abstract",1636,"abstract","concrete","abstract;concrete","B",7.40000951716269,8
"49","5720a9f6fd3a5200113c1891","polite","calibrator_conc_feedback","Concrete","CV",1736436204275,"abstract",1131,"abstract","concrete","abstract;concrete","B",7.03085747611612,9
"50","5720a9f6fd3a5200113c1891","sugar","calibrator_conc_feedback","Concrete","CV",1736436207910,"concrete",872,"abstract","concrete","abstract;concrete","B",6.77078942390898,10
"51","5720a9f6fd3a5200113c1891","theory","calibrator_conc_no_feedback","Concrete","CV",1736436211775,"abstract",1104,"A","abstract;concrete","","B",7.00669522683704,11
"52","5720a9f6fd3a5200113c1891","kick","calibrator_conc_no_feedback","Concrete","CV",1736436213469,"abstract",931,"A","abstract;concrete","","B",6.83625927727707,12
"53","5720a9f6fd3a5200113c1891","polite","calibrator_conc_no_feedback","Concrete","CV",1736436215242,"abstract",1014,"A","abstract;concrete","","B",6.92165818415113,13
"54","5720a9f6fd3a5200113c1891","insecure","calibrator_conc_no_feedback","Concrete","CV",1736436216830,"abstract",831,"A","abstract;concrete","","B",6.72262979485545,14
"55","5720a9f6fd3a5200113c1891","grasshopper","calibrator_conc_no_feedback","Concrete","CV",1736436218554,"concrete",969,"A","abstract;concrete","","B",6.87626461189077,15
"56","5720a9f6fd3a5200113c1891","gas","calibrator_conc_no_feedback","Concrete","CV",1736436219992,"concrete",681,"A","abstract;concrete","","B",6.52356230614951,16
"57","5720a9f6fd3a5200113c1891","marriage","calibrator_conc_no_feedback","Concrete","CV",1736436221500,"concrete",750,"A","abstract;concrete","","B",6.62007320653036,17
"58","5720a9f6fd3a5200113c1891","shirt","calibrator_conc_no_feedback","Concrete","CV",1736436222978,"concrete",720,"A","abstract;concrete","","B",6.5792512120101,18
"59","5720a9f6fd3a5200113c1891","whistle","calibrator_conc_no_feedback","Concrete","CV",1736436224470,"concrete",731,"A","abstract;concrete","","B",6.59441345974978,19
"60","5720a9f6fd3a5200113c1891","sugar","calibrator_conc_no_feedback","Concrete","CV",1736436225998,"concrete",770,"A","abstract;concrete","","B",6.64639051484773,20
"61","5720a9f6fd3a5200113c1891","insecure","calibrator_val_feedback","Valence","CV",1736436524281,"negative",1067,"negative","positive","negative;positive","B",6.97260625130175,21
"62","5720a9f6fd3a5200113c1891","industry","calibrator_val_feedback","Valence","CV",1736436528659,"positive",1612,"negative","positive","negative;positive","B",7.38523092306657,22
"63","5720a9f6fd3a5200113c1891","hat","calibrator_val_feedback","Valence","CV",1736436532684,"positive",1264,"negative","positive","negative;positive","B",7.1420365747068,23
"64","5720a9f6fd3a5200113c1891","icebox","calibrator_val_feedback","Valence","CV",1736436536718,"positive",1273,"negative","positive","negative;positive","B",7.14913159855741,24
"65","5720a9f6fd3a5200113c1891","kitten","calibrator_val_feedback","Valence","CV",1736436540308,"positive",824,"negative","positive","negative;positive","B",6.71417052990947,25
"66","5720a9f6fd3a5200113c1891","invader","calibrator_val_feedback","Valence","CV",1736436544126,"negative",1056,"negative","positive","negative;positive","B",6.96224346426621,26
"67","5720a9f6fd3a5200113c1891","grin","calibrator_val_feedback","Valence","CV",1736436548291,"positive",1404,"negative","positive","negative;positive","B",7.24708058458576,27
"68","5720a9f6fd3a5200113c1891","joke","calibrator_val_feedback","Valence","CV",1736436552341,"positive",1293,"negative","positive","negative;positive","B",7.16472037877186,28
"69","5720a9f6fd3a5200113c1891","free","calibrator_val_feedback","Valence","CV",1736436556066,"positive",957,"negative","positive","negative;positive","B",6.86380339145295,29
"70","5720a9f6fd3a5200113c1891","jail","calibrator_val_feedback","Valence","CV",1736436559639,"negative",806,"negative","positive","negative;positive","B",6.69208374250663,30
"71","5720a9f6fd3a5200113c1891","joke","calibrator_val_no_feedback","Valence","CV",1736436564011,"negative",1611,"A","negative;positive","","B",7.38461038317697,31
"72","5720a9f6fd3a5200113c1891","insecure","calibrator_val_no_feedback","Valence","CV",1736436565741,"negative",974,"A","negative;positive","","B",6.88141130364254,32
"73","5720a9f6fd3a5200113c1891","icebox","calibrator_val_no_feedback","Valence","CV",1736436567309,"positive",807,"A","negative;positive","","B",6.69332366826995,33
"74","5720a9f6fd3a5200113c1891","jail","calibrator_val_no_feedback","Valence","CV",1736436569080,"negative",1013,"A","negative;positive","","B",6.92067150424868,34
"75","5720a9f6fd3a5200113c1891","grin","calibrator_val_no_feedback","Valence","CV",1736436570991,"positive",1152,"A","negative;positive","","B",7.04925484125584,35
"76","5720a9f6fd3a5200113c1891","free","calibrator_val_no_feedback","Valence","CV",1736436572577,"positive",827,"A","negative;positive","","B",6.71780469502369,36
"77","5720a9f6fd3a5200113c1891","hat","calibrator_val_no_feedback","Valence","CV",1736436574097,"positive",764,"A","negative;positive","","B",6.63856778916652,37
"78","5720a9f6fd3a5200113c1891","industry","calibrator_val_no_feedback","Valence","CV",1736436576020,"positive",1166,"A","negative;positive","","B",7.06133436691044,38
"79","5720a9f6fd3a5200113c1891","invader","calibrator_val_no_feedback","Valence","CV",1736436577576,"negative",801,"A","negative;positive","","B",6.68586094706836,39
"80","5720a9f6fd3a5200113c1891","kitten","calibrator_val_no_feedback","Valence","CV",1736436579087,"positive",749,"A","negative;positive","","B",6.61873898351722,40
"81","615c5d5d1768e12bba80f289","insecure","calibrator_conc_feedback","Concrete","CV",1736430359949,"abstract",1184,"abstract","concrete","abstract;concrete","A",7.07665381544395,1
"82","615c5d5d1768e12bba80f289","sugar","calibrator_conc_feedback","Concrete","CV",1736430362382,"concrete",1407,"abstract","concrete","abstract;concrete","A",7.24921505711439,2
"83","615c5d5d1768e12bba80f289","marriage","calibrator_conc_feedback","Concrete","CV",1736430367415,"abstract",2262,"abstract","concrete","abstract;concrete","A",7.72400465667607,3
"84","615c5d5d1768e12bba80f289","kick","calibrator_conc_feedback","Concrete","CV",1736430371765,"concrete",1583,"abstract","concrete","abstract;concrete","A",7.36707705988101,4
"85","615c5d5d1768e12bba80f289","shirt","calibrator_conc_feedback","Concrete","CV",1736430375793,"concrete",1260,"abstract","concrete","abstract;concrete","A",7.13886699994552,5
"86","615c5d5d1768e12bba80f289","theory","calibrator_conc_feedback","Concrete","CV",1736430379731,"abstract",1173,"abstract","concrete","abstract;concrete","A",7.06731984865348,6
"87","615c5d5d1768e12bba80f289","polite","calibrator_conc_feedback","Concrete","CV",1736430385476,"abstract",2977,"abstract","concrete","abstract;concrete","A",7.99867136101578,7
"88","615c5d5d1768e12bba80f289","gas","calibrator_conc_feedback","Concrete","CV",1736430390201,"concrete",1955,"abstract","concrete","abstract;concrete","A",7.57814547241947,8
"89","615c5d5d1768e12bba80f289","grasshopper","calibrator_conc_feedback","Concrete","CV",1736430393860,"concrete",890,"abstract","concrete","abstract;concrete","A",6.79122146272619,9
"90","615c5d5d1768e12bba80f289","whistle","calibrator_conc_feedback","Concrete","CV",1736430398199,"concrete",1571,"abstract","concrete","abstract;concrete","A",7.35946763825562,10
"91","615c5d5d1768e12bba80f289","shirt","calibrator_conc_no_feedback","Concrete","CV",1736430401927,"concrete",964,"A","abstract;concrete","","A",6.87109129461055,11
"92","615c5d5d1768e12bba80f289","sugar","calibrator_conc_no_feedback","Concrete","CV",1736430404009,"concrete",1317,"A","abstract;concrete","","A",7.18311170174328,12
"93","615c5d5d1768e12bba80f289","whistle","calibrator_conc_no_feedback","Concrete","CV",1736430405820,"concrete",1050,"A","abstract;concrete","","A",6.95654544315157,13
"94","615c5d5d1768e12bba80f289","grasshopper","calibrator_conc_no_feedback","Concrete","CV",1736430407316,"concrete",733,"A","abstract;concrete","","A",6.59714570188665,14
"95","615c5d5d1768e12bba80f289","gas","calibrator_conc_no_feedback","Concrete","CV",1736430408811,"concrete",734,"A","abstract;concrete","","A",6.59850902861452,15
"96","615c5d5d1768e12bba80f289","kick","calibrator_conc_no_feedback","Concrete","CV",1736430410285,"concrete",713,"A","abstract;concrete","","A",6.5694814204143,16
"97","615c5d5d1768e12bba80f289","marriage","calibrator_conc_no_feedback","Concrete","CV",1736430411902,"concrete",856,"A","abstract;concrete","","A",6.75227037614174,17
"98","615c5d5d1768e12bba80f289","polite","calibrator_conc_no_feedback","Concrete","CV",1736430413438,"abstract",772,"A","abstract;concrete","","A",6.64898455002478,18
"99","615c5d5d1768e12bba80f289","insecure","calibrator_conc_no_feedback","Concrete","CV",1736430414894,"abstract",695,"A","abstract;concrete","","A",6.54391184556479,19
"100","615c5d5d1768e12bba80f289","theory","calibrator_conc_no_feedback","Concrete","CV",1736430416295,"abstract",636,"A","abstract;concrete","","A",6.45519856334012,20
"101","615c5d5d1768e12bba80f289","jail","calibrator_val_feedback","Valence","CV",1736430646549,"negative",1202,"negative","positive","negative;positive","A",7.09174211509515,21
"102","615c5d5d1768e12bba80f289","joke","calibrator_val_feedback","Valence","CV",1736430650312,"positive",1001,"negative","positive","negative;positive","A",6.90875477931522,22
"103","615c5d5d1768e12bba80f289","invader","calibrator_val_feedback","Valence","CV",1736430654134,"negative",1053,"negative","positive","negative;positive","A",6.95939851213398,23
"104","615c5d5d1768e12bba80f289","icebox","calibrator_val_feedback","Valence","CV",1736430658902,"positive",2005,"negative","positive","negative;positive","A",7.60339933974067,24
"105","615c5d5d1768e12bba80f289","industry","calibrator_val_feedback","Valence","CV",1736430663891,"positive",2222,"negative","positive","negative;positive","A",7.70616297019958,25
"106","615c5d5d1768e12bba80f289","hat","calibrator_val_feedback","Valence","CV",1736430667853,"positive",1195,"negative","positive","negative;positive","A",7.08590146436561,26
"107","615c5d5d1768e12bba80f289","grin","calibrator_val_feedback","Valence","CV",1736430671432,"positive",816,"negative","positive","negative;positive","A",6.70441435496411,27
"108","615c5d5d1768e12bba80f289","insecure","calibrator_val_feedback","Valence","CV",1736430675056,"negative",861,"negative","positive","negative;positive","A",6.75809450442773,28
"109","615c5d5d1768e12bba80f289","free","calibrator_val_feedback","Valence","CV",1736430678896,"positive",1078,"negative","positive","negative;positive","A",6.98286275146894,29
"110","615c5d5d1768e12bba80f289","kitten","calibrator_val_feedback","Valence","CV",1736430682637,"positive",978,"negative","positive","negative;positive","A",6.88550967003482,30
"111","615c5d5d1768e12bba80f289","icebox","calibrator_val_no_feedback","Valence","CV",1736430686189,"positive",790,"A","negative;positive","","A",6.67203294546107,31
"112","615c5d5d1768e12bba80f289","joke","calibrator_val_no_feedback","Valence","CV",1736430687712,"positive",758,"A","negative;positive","","A",6.63068338564237,32
"113","615c5d5d1768e12bba80f289","jail","calibrator_val_no_feedback","Valence","CV",1736430689182,"negative",706,"A","negative;positive","","A",6.55961523749324,33
"114","615c5d5d1768e12bba80f289","invader","calibrator_val_no_feedback","Valence","CV",1736430690682,"negative",738,"A","negative;positive","","A",6.60394382460047,34
"115","615c5d5d1768e12bba80f289","kitten","calibrator_val_no_feedback","Valence","CV",1736430692191,"positive",747,"A","negative;positive","","A",6.61606518513282,35
"116","615c5d5d1768e12bba80f289","free","calibrator_val_no_feedback","Valence","CV",1736430693760,"positive",807,"A","negative;positive","","A",6.69332366826995,36
"117","615c5d5d1768e12bba80f289","hat","calibrator_val_no_feedback","Valence","CV",1736430695280,"positive",758,"A","negative;positive","","A",6.63068338564237,37
"118","615c5d5d1768e12bba80f289","grin","calibrator_val_no_feedback","Valence","CV",1736430696624,"positive",582,"A","negative;positive","","A",6.36647044773144,38
"119","615c5d5d1768e12bba80f289","industry","calibrator_val_no_feedback","Valence","CV",1736430698161,"positive",774,"A","negative;positive","","A",6.65157187358973,39
"120","615c5d5d1768e12bba80f289","insecure","calibrator_val_no_feedback","Valence","CV",1736430699492,"negative",567,"A","negative;positive","","A",6.34035930372775,40
"121","6111af1630b35a24a8476060","invader","calibrator_val_feedback","Valence","VC",1736432573323,"negative",4257,"negative","positive","negative;positive","A",8.35631996582815,1
"122","6111af1630b35a24a8476060","icebox","calibrator_val_feedback","Valence","VC",1736432577999,"positive",1917,"negative","positive","negative;positive","A",7.55851674304564,2
"123","6111af1630b35a24a8476060","insecure","calibrator_val_feedback","Valence","VC",1736432581809,"negative",1049,"negative","positive","negative;positive","A",6.9555926083963,3
"124","6111af1630b35a24a8476060","jail","calibrator_val_feedback","Valence","VC",1736432585907,"negative",1346,"negative","positive","negative;positive","A",7.20489251020467,4
"125","6111af1630b35a24a8476060","free","calibrator_val_feedback","Valence","VC",1736432589790,"positive",1124,"negative","positive","negative;positive","A",7.02464903045364,5
"126","6111af1630b35a24a8476060","grin","calibrator_val_feedback","Valence","VC",1736432593571,"positive",1023,"negative","positive","negative;positive","A",6.93049476595163,6
"127","6111af1630b35a24a8476060","kitten","calibrator_val_feedback","Valence","VC",1736432597004,"positive",671,"negative","positive","negative;positive","A",6.50876913697168,7
"128","6111af1630b35a24a8476060","industry","calibrator_val_feedback","Valence","VC",1736432601430,"negative",1667,"negative","positive","negative;positive","A",7.41878088275079,8
"129","6111af1630b35a24a8476060","hat","calibrator_val_feedback","Valence","VC",1736432605137,"positive",946,"negative","positive","negative;positive","A",6.85224256905188,9
"130","6111af1630b35a24a8476060","joke","calibrator_val_feedback","Valence","VC",1736432609230,"positive",852,"negative","positive","negative;positive","A",6.74758652682932,10
"131","6111af1630b35a24a8476060","hat","calibrator_val_no_feedback","Valence","VC",1736432612561,"positive",1047,"A","negative;positive","","A",6.95368421087054,11
"132","6111af1630b35a24a8476060","grin","calibrator_val_no_feedback","Valence","VC",1736432613969,"positive",653,"A","negative;positive","","A",6.48157712927643,12
"133","6111af1630b35a24a8476060","industry","calibrator_val_no_feedback","Valence","VC",1736432615875,"negative",1145,"A","negative;positive","","A",7.04315991598834,13
"134","6111af1630b35a24a8476060","joke","calibrator_val_no_feedback","Valence","VC",1736432617449,"positive",818,"A","negative;positive","","A",6.70686233660275,14
"135","6111af1630b35a24a8476060","insecure","calibrator_val_no_feedback","Valence","VC",1736432620480,"negative",2273,"A","negative;positive","","A",7.72885582385254,15
"136","6111af1630b35a24a8476060","invader","calibrator_val_no_feedback","Valence","VC",1736432621933,"negative",700,"A","negative;positive","","A",6.5510803350434,16
"137","6111af1630b35a24a8476060","free","calibrator_val_no_feedback","Valence","VC",1736432623409,"positive",719,"A","negative;positive","","A",6.57786135772105,17
"138","6111af1630b35a24a8476060","kitten","calibrator_val_no_feedback","Valence","VC",1736432624770,"positive",601,"A","negative;positive","","A",6.39859493453521,18
"139","6111af1630b35a24a8476060","icebox","calibrator_val_no_feedback","Valence","VC",1736432626270,"positive",743,"A","negative;positive","","A",6.61069604471776,19
"140","6111af1630b35a24a8476060","jail","calibrator_val_no_feedback","Valence","VC",1736432627710,"negative",685,"A","negative;positive","","A",6.52941883826223,20
"141","6111af1630b35a24a8476060","grasshopper","calibrator_conc_feedback","Concrete","VC",1736432901167,"concrete",2669,"abstract","concrete","abstract;concrete","A",7.88945914940452,21
"142","6111af1630b35a24a8476060","gas","calibrator_conc_feedback","Concrete","VC",1736432905383,"concrete",1460,"abstract","concrete","abstract;concrete","A",7.28619171470238,22
"143","6111af1630b35a24a8476060","marriage","calibrator_conc_feedback","Concrete","VC",1736432909583,"abstract",1441,"abstract","concrete","abstract;concrete","A",7.27309259599952,23
"144","6111af1630b35a24a8476060","sugar","calibrator_conc_feedback","Concrete","VC",1736432913169,"concrete",825,"abstract","concrete","abstract;concrete","A",6.71538338633468,24
"145","6111af1630b35a24a8476060","polite","calibrator_conc_feedback","Concrete","VC",1736432917022,"abstract",1090,"abstract","concrete","abstract;concrete","A",6.99393297522319,25
"146","6111af1630b35a24a8476060","theory","calibrator_conc_feedback","Concrete","VC",1736432920714,"abstract",934,"abstract","concrete","abstract;concrete","A",6.83947643822884,26
"147","6111af1630b35a24a8476060","whistle","calibrator_conc_feedback","Concrete","VC",1736432924944,"concrete",1469,"abstract","concrete","abstract;concrete","A",7.29233717617388,27
"148","6111af1630b35a24a8476060","insecure","calibrator_conc_feedback","Concrete","VC",1736432928529,"abstract",824,"abstract","concrete","abstract;concrete","A",6.71417052990947,28
"149","6111af1630b35a24a8476060","shirt","calibrator_conc_feedback","Concrete","VC",1736432932233,"concrete",943,"abstract","concrete","abstract;concrete","A",6.84906628263346,29
"150","6111af1630b35a24a8476060","kick","calibrator_conc_feedback","Concrete","VC",1736432936495,"concrete",1504,"abstract","concrete","abstract;concrete","A",7.31588350450979,30
"151","6111af1630b35a24a8476060","kick","calibrator_conc_no_feedback","Concrete","VC",1736432940230,"concrete",973,"A","abstract;concrete","","A",6.880384082186,31
"152","6111af1630b35a24a8476060","sugar","calibrator_conc_no_feedback","Concrete","VC",1736432941966,"concrete",979,"A","abstract;concrete","","A",6.88653164253051,32
"153","6111af1630b35a24a8476060","polite","calibrator_conc_no_feedback","Concrete","VC",1736432943737,"abstract",1019,"A","abstract;concrete","","A",6.92657703322272,33
"154","6111af1630b35a24a8476060","marriage","calibrator_conc_no_feedback","Concrete","VC",1736432945478,"abstract",986,"A","abstract;concrete","","A",6.89365635460264,34
"155","6111af1630b35a24a8476060","gas","calibrator_conc_no_feedback","Concrete","VC",1736432946961,"concrete",730,"A","abstract;concrete","","A",6.59304453414244,35
"156","6111af1630b35a24a8476060","whistle","calibrator_conc_no_feedback","Concrete","VC",1736432948716,"concrete",998,"A","abstract;concrete","","A",6.90575327631146,36
"157","6111af1630b35a24a8476060","theory","calibrator_conc_no_feedback","Concrete","VC",1736432950129,"abstract",660,"A","abstract;concrete","","A",6.49223983502047,37
"158","6111af1630b35a24a8476060","insecure","calibrator_conc_no_feedback","Concrete","VC",1736432951835,"abstract",952,"A","abstract;concrete","","A",6.85856503479136,38
"159","6111af1630b35a24a8476060","shirt","calibrator_conc_no_feedback","Concrete","VC",1736432953711,"concrete",1124,"A","abstract;concrete","","A",7.02464903045364,39
"160","6111af1630b35a24a8476060","grasshopper","calibrator_conc_no_feedback","Concrete","VC",1736432955198,"concrete",731,"A","abstract;concrete","","A",6.59441345974978,40
"161","64629c2e5b867a552ac7224c","marriage","calibrator_conc_feedback","Concrete","CV",1736430520820,"abstract",1879,"abstract","concrete","abstract;concrete","A",7.53849499941346,1
"162","64629c2e5b867a552ac7224c","whistle","calibrator_conc_feedback","Concrete","CV",1736430524997,"concrete",1408,"abstract","concrete","abstract;concrete","A",7.24992553671799,2
"163","64629c2e5b867a552ac7224c","sugar","calibrator_conc_feedback","Concrete","CV",1736430529107,"concrete",1339,"abstract","concrete","abstract;concrete","A",7.19967834569117,3
"164","64629c2e5b867a552ac7224c","theory","calibrator_conc_feedback","Concrete","CV",1736430533257,"abstract",1389,"abstract","concrete","abstract;concrete","A",7.23633934275434,4
"165","64629c2e5b867a552ac7224c","insecure","calibrator_conc_feedback","Concrete","CV",1736430537712,"abstract",1696,"abstract","concrete","abstract;concrete","A",7.43602781635185,5
"166","64629c2e5b867a552ac7224c","kick","calibrator_conc_feedback","Concrete","CV",1736430542430,"abstract",1955,"abstract","concrete","abstract;concrete","A",7.57814547241947,6
"167","64629c2e5b867a552ac7224c","shirt","calibrator_conc_feedback","Concrete","CV",1736430546720,"concrete",1530,"abstract","concrete","abstract;concrete","A",7.33302301438648,7
"168","64629c2e5b867a552ac7224c","polite","calibrator_conc_feedback","Concrete","CV",1736430550771,"abstract",1286,"abstract","concrete","abstract;concrete","A",7.15929190479756,8
"169","64629c2e5b867a552ac7224c","grasshopper","calibrator_conc_feedback","Concrete","CV",1736430555233,"concrete",1693,"abstract","concrete","abstract;concrete","A",7.43425738213314,9
"170","64629c2e5b867a552ac7224c","gas","calibrator_conc_feedback","Concrete","CV",1736430559341,"concrete",1338,"abstract","concrete","abstract;concrete","A",7.19893124068817,10
"171","64629c2e5b867a552ac7224c","whistle","calibrator_conc_no_feedback","Concrete","CV",1736430565216,"concrete",3113,"A","abstract;concrete","","A",8.04334217044161,11
"172","64629c2e5b867a552ac7224c","polite","calibrator_conc_no_feedback","Concrete","CV",1736430567404,"abstract",1431,"A","abstract;concrete","","A",7.26612877955645,12
"173","64629c2e5b867a552ac7224c","gas","calibrator_conc_no_feedback","Concrete","CV",1736430569072,"concrete",910,"A","abstract;concrete","","A",6.8134445995109,13
"174","64629c2e5b867a552ac7224c","insecure","calibrator_conc_no_feedback","Concrete","CV",1736430570676,"abstract",841,"A","abstract;concrete","","A",6.73459165997295,14
"175","64629c2e5b867a552ac7224c","shirt","calibrator_conc_no_feedback","Concrete","CV",1736430572203,"concrete",771,"A","abstract;concrete","","A",6.64768837356333,15
"176","64629c2e5b867a552ac7224c","grasshopper","calibrator_conc_no_feedback","Concrete","CV",1736430574105,"concrete",1147,"A","abstract;concrete","","A",7.04490511712937,16
"177","64629c2e5b867a552ac7224c","theory","calibrator_conc_no_feedback","Concrete","CV",1736430575634,"abstract",766,"A","abstract;concrete","","A",6.64118216974059,17
"178","64629c2e5b867a552ac7224c","sugar","calibrator_conc_no_feedback","Concrete","CV",1736430577127,"concrete",735,"A","abstract;concrete","","A",6.59987049921284,18
"179","64629c2e5b867a552ac7224c","kick","calibrator_conc_no_feedback","Concrete","CV",1736430578525,"abstract",639,"A","abstract;concrete","","A",6.45990445437753,19
"180","64629c2e5b867a552ac7224c","marriage","calibrator_conc_no_feedback","Concrete","CV",1736430579941,"concrete",653,"A","abstract;concrete","","A",6.48157712927643,20
"181","64629c2e5b867a552ac7224c","joke","calibrator_val_feedback","Valence","CV",1736430906422,"positive",1654,"negative","positive","negative;positive","A",7.41095187558364,21
"182","64629c2e5b867a552ac7224c","hat","calibrator_val_feedback","Valence","CV",1736430908673,"positive",1374,"negative","positive","negative;positive","A",7.22548147278229,22
"183","64629c2e5b867a552ac7224c","industry","calibrator_val_feedback","Valence","CV",1736430913950,"negative",2516,"negative","positive","negative;positive","A",7.83042561782033,23
"184","64629c2e5b867a552ac7224c","jail","calibrator_val_feedback","Valence","CV",1736430918433,"negative",1721,"negative","positive","negative;positive","A",7.45066079621154,24
"185","64629c2e5b867a552ac7224c","icebox","calibrator_val_feedback","Valence","CV",1736430922373,"positive",1179,"negative","positive","negative;positive","A",7.07242190053737,25
"186","64629c2e5b867a552ac7224c","kitten","calibrator_val_feedback","Valence","CV",1736430926691,"positive",1557,"negative","positive","negative;positive","A",7.350516171834,26
"187","64629c2e5b867a552ac7224c","free","calibrator_val_feedback","Valence","CV",1736430930538,"positive",1090,"negative","positive","negative;positive","A",6.99393297522319,27
"188","64629c2e5b867a552ac7224c","grin","calibrator_val_feedback","Valence","CV",1736430934710,"positive",1411,"negative","positive","negative;positive","A",7.25205395185281,28
"189","64629c2e5b867a552ac7224c","invader","calibrator_val_feedback","Valence","CV",1736430938803,"negative",1330,"negative","positive","negative;positive","A",7.1929342212158,29
"190","64629c2e5b867a552ac7224c","insecure","calibrator_val_feedback","Valence","CV",1736430943054,"negative",1489,"negative","positive","negative;positive","A",7.30586003268401,30
"191","64629c2e5b867a552ac7224c","grin","calibrator_val_no_feedback","Valence","CV",1736430947543,"positive",1729,"A","negative;positive","","A",7.45529848568329,31
"192","64629c2e5b867a552ac7224c","insecure","calibrator_val_no_feedback","Valence","CV",1736430949395,"negative",1095,"A","negative;positive","","A",6.9985096422506,32
"193","64629c2e5b867a552ac7224c","joke","calibrator_val_no_feedback","Valence","CV",1736430951048,"positive",896,"A","negative;positive","","A",6.79794041297493,33
"194","64629c2e5b867a552ac7224c","free","calibrator_val_no_feedback","Valence","CV",1736430952794,"positive",983,"A","negative;positive","","A",6.89060912014717,34
"195","64629c2e5b867a552ac7224c","industry","calibrator_val_no_feedback","Valence","CV",1736430954679,"negative",1125,"A","negative;positive","","A",7.02553831463852,35
"196","64629c2e5b867a552ac7224c","invader","calibrator_val_no_feedback","Valence","CV",1736430956343,"negative",911,"A","negative;positive","","A",6.81454289725996,36
"197","64629c2e5b867a552ac7224c","jail","calibrator_val_no_feedback","Valence","CV",1736430958223,"negative",1122,"A","negative;positive","","A",7.02286808608264,37
"198","64629c2e5b867a552ac7224c","kitten","calibrator_val_no_feedback","Valence","CV",1736430959806,"positive",821,"A","negative;positive","","A",6.71052310945243,38
"199","64629c2e5b867a552ac7224c","icebox","calibrator_val_no_feedback","Valence","CV",1736430961742,"positive",1181,"A","negative;positive","","A",7.07411681619736,39
"200","64629c2e5b867a552ac7224c","hat","calibrator_val_no_feedback","Valence","CV",1736430963738,"positive",1237,"A","negative;positive","","A",7.12044437239249,40
"201","64360d6189dec3ac8afc9a78","polite","calibrator_conc_feedback","Concrete","CV",1736435956488,"abstract",1666,"abstract","concrete","abstract;concrete","B",7.41818082272679,1
"202","64360d6189dec3ac8afc9a78","gas","calibrator_conc_feedback","Concrete","CV",1736435960753,"concrete",1767,"abstract","concrete","abstract;concrete","B",7.4770384723197,2
"203","64360d6189dec3ac8afc9a78","grasshopper","calibrator_conc_feedback","Concrete","CV",1736435964833,"concrete",1038,"abstract","concrete","abstract;concrete","B",6.94505106372583,3
"204","64360d6189dec3ac8afc9a78","whistle","calibrator_conc_feedback","Concrete","CV",1736435967978,"concrete",1085,"abstract","concrete","abstract;concrete","B",6.98933526597456,4
"205","64360d6189dec3ac8afc9a78","kick","calibrator_conc_feedback","Concrete","CV",1736435971377,"abstract",1511,"abstract","concrete","abstract;concrete","B",7.32052696227274,5
"206","64360d6189dec3ac8afc9a78","shirt","calibrator_conc_feedback","Concrete","CV",1736435976162,"concrete",1025,"abstract","concrete","abstract;concrete","B",6.93244789157251,6
"207","64360d6189dec3ac8afc9a78","marriage","calibrator_conc_feedback","Concrete","CV",1736435980587,"abstract",2042,"abstract","concrete","abstract;concrete","B",7.62168499872461,7
"208","64360d6189dec3ac8afc9a78","sugar","calibrator_conc_feedback","Concrete","CV",1736435984116,"concrete",1670,"abstract","concrete","abstract;concrete","B",7.4205789054108,8
"209","64360d6189dec3ac8afc9a78","insecure","calibrator_conc_feedback","Concrete","CV",1736435988468,"abstract",1567,"abstract","concrete","abstract;concrete","B",7.35691824235602,9
"210","64360d6189dec3ac8afc9a78","theory","calibrator_conc_feedback","Concrete","CV",1736435993285,"abstract",2039,"abstract","concrete","abstract;concrete","B",7.62021477057445,10
"211","64360d6189dec3ac8afc9a78","marriage","calibrator_conc_no_feedback","Concrete","CV",1736435997653,"abstract",1594,"A","abstract;concrete","","B",7.37400185935016,11
"212","64360d6189dec3ac8afc9a78","grasshopper","calibrator_conc_no_feedback","Concrete","CV",1736435999526,"concrete",1111,"A","abstract;concrete","","B",7.01301578963963,12
"213","64360d6189dec3ac8afc9a78","shirt","calibrator_conc_no_feedback","Concrete","CV",1736436001310,"concrete",1014,"A","abstract;concrete","","B",6.92165818415113,13
"214","64360d6189dec3ac8afc9a78","sugar","calibrator_conc_no_feedback","Concrete","CV",1736436003046,"concrete",966,"A","abstract;concrete","","B",6.87316383421252,14
"215","64360d6189dec3ac8afc9a78","kick","calibrator_conc_no_feedback","Concrete","CV",1736436004639,"concrete",815,"A","abstract;concrete","","B",6.70318811324086,15
"216","64360d6189dec3ac8afc9a78","gas","calibrator_conc_no_feedback","Concrete","CV",1736436006231,"abstract",813,"A","abstract;concrete","","B",6.70073110954781,16
"217","64360d6189dec3ac8afc9a78","theory","calibrator_conc_no_feedback","Concrete","CV",1736436008134,"abstract",1133,"A","abstract;concrete","","B",7.03262426102801,17
"218","64360d6189dec3ac8afc9a78","whistle","calibrator_conc_no_feedback","Concrete","CV",1736436009879,"concrete",981,"A","abstract;concrete","","B",6.88857245956536,18
"219","64360d6189dec3ac8afc9a78","insecure","calibrator_conc_no_feedback","Concrete","CV",1736436011424,"abstract",769,"A","abstract;concrete","","B",6.64509096950564,19
"220","64360d6189dec3ac8afc9a78","polite","calibrator_conc_no_feedback","Concrete","CV",1736436012623,"concrete",431,"A","abstract;concrete","","B",6.06610809010375,20
"221","64360d6189dec3ac8afc9a78","kitten","calibrator_val_feedback","Valence","CV",1736436236845,"positive",873,"negative","positive","negative;positive","B",6.7719355558396,21
"222","64360d6189dec3ac8afc9a78","free","calibrator_val_feedback","Valence","CV",1736436240621,"positive",986,"negative","positive","negative;positive","B",6.89365635460264,22
"223","64360d6189dec3ac8afc9a78","grin","calibrator_val_feedback","Valence","CV",1736436244151,"positive",735,"negative","positive","negative;positive","B",6.59987049921284,23
"224","64360d6189dec3ac8afc9a78","jail","calibrator_val_feedback","Valence","CV",1736436247702,"negative",770,"negative","positive","negative;positive","B",6.64639051484773,24
"225","64360d6189dec3ac8afc9a78","insecure","calibrator_val_feedback","Valence","CV",1736436251087,"negative",625,"negative","positive","negative;positive","B",6.4377516497364,25
"226","64360d6189dec3ac8afc9a78","joke","calibrator_val_feedback","Valence","CV",1736436254927,"positive",1079,"negative","positive","negative;positive","B",6.98378996525813,26
"227","64360d6189dec3ac8afc9a78","industry","calibrator_val_feedback","Valence","CV",1736436258904,"positive",1214,"negative","positive","negative;positive","B",7.10167597161944,27
"228","64360d6189dec3ac8afc9a78","hat","calibrator_val_feedback","Valence","CV",1736436262297,"positive",627,"negative","positive","negative;positive","B",6.44094654063292,28
"229","64360d6189dec3ac8afc9a78","icebox","calibrator_val_feedback","Valence","CV",1736436265777,"positive",704,"negative","positive","negative;positive","B",6.55677835615804,29
"230","64360d6189dec3ac8afc9a78","invader","calibrator_val_feedback","Valence","CV",1736436269346,"negative",807,"negative","positive","negative;positive","B",6.69332366826995,30
"231","64360d6189dec3ac8afc9a78","grin","calibrator_val_no_feedback","Valence","CV",1736436272786,"positive",659,"A","negative;positive","","B",6.49072353450251,31
"232","64360d6189dec3ac8afc9a78","insecure","calibrator_val_no_feedback","Valence","CV",1736436274243,"negative",703,"A","negative;positive","","B",6.55535689181067,32
"233","64360d6189dec3ac8afc9a78","industry","calibrator_val_no_feedback","Valence","CV",1736436275722,"positive",710,"A","negative;positive","","B",6.56526497003536,33
"234","64360d6189dec3ac8afc9a78","icebox","calibrator_val_no_feedback","Valence","CV",1736436277243,"positive",751,"A","negative;positive","","B",6.62140565176413,34
"235","64360d6189dec3ac8afc9a78","jail","calibrator_val_no_feedback","Valence","CV",1736436278723,"negative",711,"A","negative;positive","","B",6.56667242980324,35
"236","64360d6189dec3ac8afc9a78","kitten","calibrator_val_no_feedback","Valence","CV",1736436280099,"positive",614,"A","negative;positive","","B",6.41999492814714,36
"237","64360d6189dec3ac8afc9a78","hat","calibrator_val_no_feedback","Valence","CV",1736436281451,"positive",595,"A","negative;positive","","B",6.38856140554563,37
"238","64360d6189dec3ac8afc9a78","free","calibrator_val_no_feedback","Valence","CV",1736436283011,"positive",791,"A","negative;positive","","B",6.67329796776765,38
"239","64360d6189dec3ac8afc9a78","joke","calibrator_val_no_feedback","Valence","CV",1736436284459,"positive",692,"A","negative;positive","","B",6.53958595561767,39
"240","64360d6189dec3ac8afc9a78","invader","calibrator_val_no_feedback","Valence","CV",1736436285757,"negative",530,"A","negative;positive","","B",6.27287700654617,40
"241","57b4abf0f0ed6e0001517979","icebox","calibrator_val_feedback","Valence","VC",1736433291238,"positive",1646,"negative","positive","negative;positive","A",7.40610338123702,1
"242","57b4abf0f0ed6e0001517979","kitten","calibrator_val_feedback","Valence","VC",1736433295230,"positive",1225,"negative","positive","negative;positive","A",7.11069612297883,2
"243","57b4abf0f0ed6e0001517979","insecure","calibrator_val_feedback","Valence","VC",1736433299567,"negative",1571,"negative","positive","negative;positive","A",7.35946763825562,3
"244","57b4abf0f0ed6e0001517979","industry","calibrator_val_feedback","Valence","VC",1736433304099,"negative",1771,"negative","positive","negative;positive","A",7.47929963778283,4
"245","57b4abf0f0ed6e0001517979","joke","calibrator_val_feedback","Valence","VC",1736433308023,"positive",1159,"negative","positive","negative;positive","A",7.05531284333975,5
"246","57b4abf0f0ed6e0001517979","free","calibrator_val_feedback","Valence","VC",1736433311734,"positive",949,"negative","positive","negative;positive","A",6.85540879860993,6
"247","57b4abf0f0ed6e0001517979","grin","calibrator_val_feedback","Valence","VC",1736433315621,"positive",1128,"negative","positive","negative;positive","A",7.028201432058,7
"248","57b4abf0f0ed6e0001517979","invader","calibrator_val_feedback","Valence","VC",1736433319281,"negative",894,"negative","positive","negative;positive","A",6.79570577517351,8
"249","57b4abf0f0ed6e0001517979","hat","calibrator_val_feedback","Valence","VC",1736433322968,"positive",923,"negative","positive","negative;positive","A",6.82762923450285,9
"250","57b4abf0f0ed6e0001517979","jail","calibrator_val_feedback","Valence","VC",1736433326565,"negative",833,"negative","positive","negative;positive","A",6.72503364216684,10
"251","57b4abf0f0ed6e0001517979","insecure","calibrator_val_no_feedback","Valence","VC",1736433330517,"negative",1189,"A","negative;positive","","A",7.08086789669078,11
"252","57b4abf0f0ed6e0001517979","hat","calibrator_val_no_feedback","Valence","VC",1736433332401,"positive",1124,"A","negative;positive","","A",7.02464903045364,12
"253","57b4abf0f0ed6e0001517979","joke","calibrator_val_no_feedback","Valence","VC",1736433334018,"positive",857,"A","negative;positive","","A",6.75343791859778,13
"254","57b4abf0f0ed6e0001517979","free","calibrator_val_no_feedback","Valence","VC",1736433335544,"positive",768,"A","negative;positive","","A",6.64378973314767,14
"255","57b4abf0f0ed6e0001517979","kitten","calibrator_val_no_feedback","Valence","VC",1736433337038,"positive",732,"A","negative;positive","","A",6.59578051396131,15
"256","57b4abf0f0ed6e0001517979","grin","calibrator_val_no_feedback","Valence","VC",1736433338793,"positive",1000,"A","negative;positive","","A",6.90775527898214,16
"257","57b4abf0f0ed6e0001517979","icebox","calibrator_val_no_feedback","Valence","VC",1736433341060,"positive",1508,"A","negative;positive","","A",7.3185395485679,17
"258","57b4abf0f0ed6e0001517979","jail","calibrator_val_no_feedback","Valence","VC",1736433342740,"negative",925,"A","negative;positive","","A",6.82979373751242,18
"259","57b4abf0f0ed6e0001517979","industry","calibrator_val_no_feedback","Valence","VC",1736433344390,"negative",894,"A","negative;positive","","A",6.79570577517351,19
"260","57b4abf0f0ed6e0001517979","invader","calibrator_val_no_feedback","Valence","VC",1736433345873,"negative",726,"A","negative;positive","","A",6.5875500148248,20
"261","57b4abf0f0ed6e0001517979","sugar","calibrator_conc_feedback","Concrete","VC",1736433601608,"concrete",1291,"abstract","concrete","abstract;concrete","A",7.16317239084664,21
"262","57b4abf0f0ed6e0001517979","theory","calibrator_conc_feedback","Concrete","VC",1736433605466,"abstract",1097,"abstract","concrete","abstract;concrete","A",7.00033446027523,22
"263","57b4abf0f0ed6e0001517979","marriage","calibrator_conc_feedback","Concrete","VC",1736433610034,"abstract",1811,"abstract","concrete","abstract;concrete","A",7.50163445788341,23
"264","57b4abf0f0ed6e0001517979","whistle","calibrator_conc_feedback","Concrete","VC",1736433614365,"concrete",1564,"abstract","concrete","abstract;concrete","A",7.35500192110526,24
"265","57b4abf0f0ed6e0001517979","kick","calibrator_conc_feedback","Concrete","VC",1736433618105,"concrete",970,"abstract","concrete","abstract;concrete","A",6.87729607149743,25
"266","57b4abf0f0ed6e0001517979","grasshopper","calibrator_conc_feedback","Concrete","VC",1736433621837,"concrete",966,"abstract","concrete","abstract;concrete","A",6.87316383421252,26
"267","57b4abf0f0ed6e0001517979","insecure","calibrator_conc_feedback","Concrete","VC",1736433625755,"abstract",1153,"abstract","concrete","abstract;concrete","A",7.05012252026906,27
"268","57b4abf0f0ed6e0001517979","shirt","calibrator_conc_feedback","Concrete","VC",1736433629412,"concrete",896,"abstract","concrete","abstract;concrete","A",6.79794041297493,28
"269","57b4abf0f0ed6e0001517979","polite","calibrator_conc_feedback","Concrete","VC",1736433633455,"abstract",1283,"abstract","concrete","abstract;concrete","A",7.15695636461564,29
"270","57b4abf0f0ed6e0001517979","gas","calibrator_conc_feedback","Concrete","VC",1736433637623,"concrete",1406,"abstract","concrete","abstract;concrete","A",7.24850407237061,30
"271","57b4abf0f0ed6e0001517979","whistle","calibrator_conc_no_feedback","Concrete","VC",1736433641097,"concrete",713,"A","abstract;concrete","","A",6.5694814204143,31
"272","57b4abf0f0ed6e0001517979","insecure","calibrator_conc_no_feedback","Concrete","VC",1736433642715,"abstract",859,"A","abstract;concrete","","A",6.75576892198425,32
"273","57b4abf0f0ed6e0001517979","gas","calibrator_conc_no_feedback","Concrete","VC",1736433644201,"concrete",724,"A","abstract;concrete","","A",6.58479139238572,33
"274","57b4abf0f0ed6e0001517979","theory","calibrator_conc_no_feedback","Concrete","VC",1736433645612,"abstract",653,"A","abstract;concrete","","A",6.48157712927643,34
"275","57b4abf0f0ed6e0001517979","polite","calibrator_conc_no_feedback","Concrete","VC",1736433647653,"abstract",1280,"A","abstract;concrete","","A",7.15461535691366,35
"276","57b4abf0f0ed6e0001517979","grasshopper","calibrator_conc_no_feedback","Concrete","VC",1736433649117,"concrete",706,"A","abstract;concrete","","A",6.55961523749324,36
"277","57b4abf0f0ed6e0001517979","sugar","calibrator_conc_no_feedback","Concrete","VC",1736433650482,"concrete",606,"A","abstract;concrete","","A",6.40687998606931,37
"278","57b4abf0f0ed6e0001517979","kick","calibrator_conc_no_feedback","Concrete","VC",1736433651970,"concrete",727,"A","abstract;concrete","","A",6.58892647753352,38
"279","57b4abf0f0ed6e0001517979","marriage","calibrator_conc_no_feedback","Concrete","VC",1736433653692,"abstract",962,"A","abstract;concrete","","A",6.86901445066571,39
"280","57b4abf0f0ed6e0001517979","shirt","calibrator_conc_no_feedback","Concrete","VC",1736433655987,"concrete",1542,"A","abstract;concrete","","A",7.34083555412327,40
"281","5c510b41e459660001e38861","icebox","calibrator_val_feedback","Valence","VC",1736439581140,"positive",1669,"negative","positive","negative;positive","B",7.41997992366183,1
"282","5c510b41e459660001e38861","insecure","calibrator_val_feedback","Valence","VC",1736439585094,"negative",2835,"negative","positive","negative;positive","B",7.94979721616185,2
"283","5c510b41e459660001e38861","hat","calibrator_val_feedback","Valence","VC",1736439589773,"positive",1912,"negative","positive","negative;positive","B",7.55590509361135,3
"284","5c510b41e459660001e38861","free","calibrator_val_feedback","Valence","VC",1736439593891,"positive",1350,"negative","positive","negative;positive","B",7.20785987143248,4
"285","5c510b41e459660001e38861","grin","calibrator_val_feedback","Valence","VC",1736439598865,"positive",2202,"negative","positive","negative;positive","B",7.69712131728263,5
"286","5c510b41e459660001e38861","jail","calibrator_val_feedback","Valence","VC",1736439602981,"negative",1351,"negative","positive","negative;positive","B",7.2086003379602,6
"287","5c510b41e459660001e38861","industry","calibrator_val_feedback","Valence","VC",1736439607347,"positive",1601,"negative","positive","negative;positive","B",7.37838371299671,7
"288","5c510b41e459660001e38861","joke","calibrator_val_feedback","Valence","VC",1736439612186,"positive",2069,"negative","positive","negative;positive","B",7.63482067774554,8
"289","5c510b41e459660001e38861","kitten","calibrator_val_feedback","Valence","VC",1736439616076,"positive",1123,"negative","positive","negative;positive","B",7.02375895473844,9
"290","5c510b41e459660001e38861","invader","calibrator_val_feedback","Valence","VC",1736439619969,"negative",1125,"negative","positive","negative;positive","B",7.02553831463852,10
"291","5c510b41e459660001e38861","invader","calibrator_val_no_feedback","Valence","VC",1736439624537,"negative",1793,"A","negative;positive","","B",7.49164547360513,11
"292","5c510b41e459660001e38861","industry","calibrator_val_no_feedback","Valence","VC",1736439626433,"positive",1134,"A","negative;positive","","B",7.0335064842877,12
"293","5c510b41e459660001e38861","hat","calibrator_val_no_feedback","Valence","VC",1736439628501,"positive",1307,"A","negative;positive","","B",7.17548971362422,13
"294","5c510b41e459660001e38861","jail","calibrator_val_no_feedback","Valence","VC",1736439630774,"negative",1514,"A","negative;positive","","B",7.32251043399739,14
"295","5c510b41e459660001e38861","kitten","calibrator_val_no_feedback","Valence","VC",1736439632437,"positive",899,"A","negative;positive","","B",6.80128303447162,15
"296","5c510b41e459660001e38861","free","calibrator_val_no_feedback","Valence","VC",1736439635450,"negative",2253,"A","negative;positive","","B",7.72001794043224,16
"297","5c510b41e459660001e38861","icebox","calibrator_val_no_feedback","Valence","VC",1736439638419,"positive",2203,"A","negative;positive","","B",7.69757534680234,17
"298","5c510b41e459660001e38861","joke","calibrator_val_no_feedback","Valence","VC",1736439641206,"positive",2027,"A","negative;positive","","B",7.614312146452,18
"299","5c510b41e459660001e38861","insecure","calibrator_val_no_feedback","Valence","VC",1736439644877,"negative",2915,"A","negative;positive","","B",7.97762509878459,19
"300","5c510b41e459660001e38861","grin","calibrator_val_no_feedback","Valence","VC",1736439647960,"negative",2320,"A","negative;positive","","B",7.74932246466036,20
"301","5c510b41e459660001e38861","insecure","calibrator_conc_feedback","Concrete","VC",1736439962070,"abstract",1746,"abstract","concrete","abstract;concrete","B",7.46508273639955,21
"302","5c510b41e459660001e38861","sugar","calibrator_conc_feedback","Concrete","VC",1736439966046,"concrete",1868,"abstract","concrete","abstract;concrete","B",7.53262361878879,22
"303","5c510b41e459660001e38861","grasshopper","calibrator_conc_feedback","Concrete","VC",1736439970344,"concrete",1530,"abstract","concrete","abstract;concrete","B",7.33302301438648,23
"304","5c510b41e459660001e38861","shirt","calibrator_conc_feedback","Concrete","VC",1736439975430,"concrete",2323,"abstract","concrete","abstract;concrete","B",7.75061473277041,24
"305","5c510b41e459660001e38861","marriage","calibrator_conc_feedback","Concrete","VC",1736439981730,"abstract",3535,"abstract","concrete","abstract;concrete","B",8.17046857833067,25
"306","5c510b41e459660001e38861","gas","calibrator_conc_feedback","Concrete","VC",1736439985848,"concrete",1357,"abstract","concrete","abstract;concrete","B",7.21303165983487,26
"307","5c510b41e459660001e38861","polite","calibrator_conc_feedback","Concrete","VC",1736439991743,"abstract",3132,"abstract","concrete","abstract;concrete","B",8.04942705711069,27
"308","5c510b41e459660001e38861","whistle","calibrator_conc_feedback","Concrete","VC",1736439998291,"concrete",3775,"abstract","concrete","abstract;concrete","B",8.23615566168312,28
"309","5c510b41e459660001e38861","theory","calibrator_conc_feedback","Concrete","VC",1736440003308,"abstract",2250,"abstract","concrete","abstract;concrete","B",7.71868549519847,29
"310","5c510b41e459660001e38861","kick","calibrator_conc_feedback","Concrete","VC",1736440008033,"concrete",1961,"abstract","concrete","abstract;concrete","B",7.58120982619635,30
"311","5c510b41e459660001e38861","grasshopper","calibrator_conc_no_feedback","Concrete","VC",1736440011724,"concrete",922,"A","abstract;concrete","","B",6.82654522355659,31
"312","5c510b41e459660001e38861","whistle","calibrator_conc_no_feedback","Concrete","VC",1736440013950,"concrete",1468,"A","abstract;concrete","","B",7.29165620917446,32
"313","5c510b41e459660001e38861","theory","calibrator_conc_no_feedback","Concrete","VC",1736440016448,"abstract",1737,"A","abstract;concrete","","B",7.4599147662411,33
"314","5c510b41e459660001e38861","shirt","calibrator_conc_no_feedback","Concrete","VC",1736440018477,"concrete",1265,"A","abstract;concrete","","B",7.14282740116162,34
"315","5c510b41e459660001e38861","gas","calibrator_conc_no_feedback","Concrete","VC",1736440020277,"concrete",1038,"A","abstract;concrete","","B",6.94505106372583,35
"316","5c510b41e459660001e38861","kick","calibrator_conc_no_feedback","Concrete","VC",1736440022946,"concrete",1909,"A","abstract;concrete","","B",7.55433482372575,36
"317","5c510b41e459660001e38861","sugar","calibrator_conc_no_feedback","Concrete","VC",1736440024755,"concrete",1049,"A","abstract;concrete","","B",6.9555926083963,37
"318","5c510b41e459660001e38861","polite","calibrator_conc_no_feedback","Concrete","VC",1736440027068,"abstract",1550,"A","abstract;concrete","","B",7.34601020991329,38
"319","5c510b41e459660001e38861","insecure","calibrator_conc_no_feedback","Concrete","VC",1736440029701,"abstract",1874,"A","abstract;concrete","","B",7.53583046279837,39
"320","5c510b41e459660001e38861","marriage","calibrator_conc_no_feedback","Concrete","VC",1736440032311,"abstract",1846,"A","abstract;concrete","","B",7.5207764150628,40
"321","5d2bb0fd6230200016a661f3","icebox","calibrator_val_feedback","Valence","VC",1736439596250,"negative",254,"negative","positive","negative;positive","B",5.53733426701854,1
"322","5d2bb0fd6230200016a661f3","insecure","calibrator_val_feedback","Valence","VC",1736439600181,"negative",1165,"negative","positive","negative;positive","B",7.0604763659998,2
"323","5d2bb0fd6230200016a661f3","jail","calibrator_val_feedback","Valence","VC",1736439603950,"negative",1004,"negative","positive","negative;positive","B",6.91174730025167,3
"324","5d2bb0fd6230200016a661f3","joke","calibrator_val_feedback","Valence","VC",1736439607799,"positive",1089,"negative","positive","negative;positive","B",6.99301512293296,4
"325","5d2bb0fd6230200016a661f3","hat","calibrator_val_feedback","Valence","VC",1736439611867,"positive",1305,"negative","positive","negative;positive","B",7.17395831975679,5
"326","5d2bb0fd6230200016a661f3","grin","calibrator_val_feedback","Valence","VC",1736439615467,"positive",824,"negative","positive","negative;positive","B",6.71417052990947,6
"327","5d2bb0fd6230200016a661f3","industry","calibrator_val_feedback","Valence","VC",1736439620025,"positive",1800,"negative","positive","negative;positive","B",7.49554194388426,7
"328","5d2bb0fd6230200016a661f3","invader","calibrator_val_feedback","Valence","VC",1736439623950,"negative",1155,"negative","positive","negative;positive","B",7.05185562295589,8
"329","5d2bb0fd6230200016a661f3","kitten","calibrator_val_feedback","Valence","VC",1736439627879,"positive",1155,"negative","positive","negative;positive","B",7.05185562295589,9
"330","5d2bb0fd6230200016a661f3","free","calibrator_val_feedback","Valence","VC",1736439636499,"positive",5339,"negative","positive","negative;positive","B",8.58279364850019,10
"331","5d2bb0fd6230200016a661f3","icebox","calibrator_val_no_feedback","Valence","VC",1736439640142,"positive",1396,"A","negative;positive","","B",7.24136628332232,11
"332","5d2bb0fd6230200016a661f3","insecure","calibrator_val_no_feedback","Valence","VC",1736439645666,"negative",4761,"A","negative;positive","","B",8.46821300919452,12
"333","5d2bb0fd6230200016a661f3","invader","calibrator_val_no_feedback","Valence","VC",1736439652463,"negative",6041,"A","negative;positive","","B",8.70632484013874,13
"334","5d2bb0fd6230200016a661f3","kitten","calibrator_val_no_feedback","Valence","VC",1736439653915,"positive",695,"A","negative;positive","","B",6.54391184556479,14
"335","5d2bb0fd6230200016a661f3","industry","calibrator_val_no_feedback","Valence","VC",1736439655623,"negative",947,"A","negative;positive","","B",6.85329909318608,15
"336","5d2bb0fd6230200016a661f3","joke","calibrator_val_no_feedback","Valence","VC",1736439657442,"positive",1053,"A","negative;positive","","B",6.95939851213398,16
"337","5d2bb0fd6230200016a661f3","hat","calibrator_val_no_feedback","Valence","VC",1736439659624,"positive",1427,"A","negative;positive","","B",7.26332961747684,17
"338","5d2bb0fd6230200016a661f3","grin","calibrator_val_no_feedback","Valence","VC",1736439661467,"positive",1078,"A","negative;positive","","B",6.98286275146894,18
"339","5d2bb0fd6230200016a661f3","jail","calibrator_val_no_feedback","Valence","VC",1736439663966,"negative",1739,"A","negative;positive","","B",7.46106551435428,19
"340","5d2bb0fd6230200016a661f3","free","calibrator_val_no_feedback","Valence","VC",1736439665614,"positive",888,"A","negative;positive","","B",6.78897174299217,20
"341","5d2bb0fd6230200016a661f3","polite","calibrator_conc_feedback","Concrete","VC",1736440121160,"abstract",2429,"abstract","concrete","abstract;concrete","B",7.79523492900217,21
"342","5d2bb0fd6230200016a661f3","insecure","calibrator_conc_feedback","Concrete","VC",1736440126097,"abstract",2182,"abstract","concrete","abstract;concrete","B",7.68799716639302,22
"343","5d2bb0fd6230200016a661f3","theory","calibrator_conc_feedback","Concrete","VC",1736440130353,"abstract",1500,"abstract","concrete","abstract;concrete","B",7.3132203870903,23
"344","5d2bb0fd6230200016a661f3","marriage","calibrator_conc_feedback","Concrete","VC",1736440133987,"concrete",866,"abstract","concrete","abstract;concrete","B",6.76388490856244,24
"345","5d2bb0fd6230200016a661f3","grasshopper","calibrator_conc_feedback","Concrete","VC",1736440137382,"concrete",623,"abstract","concrete","abstract;concrete","B",6.43454651878745,25
"346","5d2bb0fd6230200016a661f3","whistle","calibrator_conc_feedback","Concrete","VC",1736440140911,"concrete",769,"abstract","concrete","abstract;concrete","B",6.64509096950564,26
"347","5d2bb0fd6230200016a661f3","shirt","calibrator_conc_feedback","Concrete","VC",1736440144420,"concrete",735,"abstract","concrete","abstract;concrete","B",6.59987049921284,27
"348","5d2bb0fd6230200016a661f3","kick","calibrator_conc_feedback","Concrete","VC",1736440148403,"abstract",1210,"abstract","concrete","abstract;concrete","B",7.09837563859079,28
"349","5d2bb0fd6230200016a661f3","gas","calibrator_conc_feedback","Concrete","VC",1736440153751,"concrete",1173,"abstract","concrete","abstract;concrete","B",7.06731984865348,29
"350","5d2bb0fd6230200016a661f3","sugar","calibrator_conc_feedback","Concrete","VC",1736440156019,"concrete",924,"abstract","concrete","abstract;concrete","B",6.82871207164168,30
"351","5d2bb0fd6230200016a661f3","grasshopper","calibrator_conc_no_feedback","Concrete","VC",1736440159481,"concrete",692,"A","abstract;concrete","","B",6.53958595561767,31
"352","5d2bb0fd6230200016a661f3","kick","calibrator_conc_no_feedback","Concrete","VC",1736440161811,"abstract",1570,"A","abstract;concrete","","B",7.35883089834235,32
"353","5d2bb0fd6230200016a661f3","theory","calibrator_conc_no_feedback","Concrete","VC",1736440164006,"abstract",1430,"A","abstract;concrete","","B",7.26542972325395,33
"354","5d2bb0fd6230200016a661f3","shirt","calibrator_conc_no_feedback","Concrete","VC",1736440166376,"concrete",1610,"A","abstract;concrete","","B",7.38398945797851,34
"355","5d2bb0fd6230200016a661f3","insecure","calibrator_conc_no_feedback","Concrete","VC",1736440167830,"abstract",692,"A","abstract;concrete","","B",6.53958595561767,35
"356","5d2bb0fd6230200016a661f3","marriage","calibrator_conc_no_feedback","Concrete","VC",1736440169452,"abstract",861,"A","abstract;concrete","","B",6.75809450442773,36
"357","5d2bb0fd6230200016a661f3","gas","calibrator_conc_no_feedback","Concrete","VC",1736440170833,"concrete",616,"A","abstract;concrete","","B",6.42324696353352,37
"358","5d2bb0fd6230200016a661f3","sugar","calibrator_conc_no_feedback","Concrete","VC",1736440172134,"concrete",544,"A","abstract;concrete","","B",6.29894924685594,38
"359","5d2bb0fd6230200016a661f3","whistle","calibrator_conc_no_feedback","Concrete","VC",1736440173356,"concrete",461,"A","abstract;concrete","","B",6.13339804299665,39
"360","5d2bb0fd6230200016a661f3","polite","calibrator_conc_no_feedback","Concrete","VC",1736440174717,"abstract",604,"A","abstract;concrete","","B",6.40357419793482,40
"361","663502026e662c1124df1b0b","icebox","calibrator_val_feedback","Valence","VC",1736440415528,"negative",2495,"negative","positive","negative;positive","B",7.82204400818562,1
"362","663502026e662c1124df1b0b","industry","calibrator_val_feedback","Valence","VC",1736440421683,"positive",3398,"negative","positive","negative;positive","B",8.13094230223188,2
"363","663502026e662c1124df1b0b","free","calibrator_val_feedback","Valence","VC",1736440425891,"positive",1446,"negative","positive","negative;positive","B",7.27655640271871,3
"364","663502026e662c1124df1b0b","jail","calibrator_val_feedback","Valence","VC",1736440431975,"negative",3326,"negative","positive","negative;positive","B",8.10952565975287,4
"365","663502026e662c1124df1b0b","kitten","calibrator_val_feedback","Valence","VC",1736440436007,"positive",1273,"negative","positive","negative;positive","B",7.14913159855741,5
"366","663502026e662c1124df1b0b","hat","calibrator_val_feedback","Valence","VC",1736440440824,"negative",2059,"negative","positive","negative;positive","B",7.62997570702779,6
"367","663502026e662c1124df1b0b","grin","calibrator_val_feedback","Valence","VC",1736440445966,"positive",2385,"negative","positive","negative;positive","B",7.77695440332244,7
"368","663502026e662c1124df1b0b","insecure","calibrator_val_feedback","Valence","VC",1736440450229,"negative",1507,"negative","positive","negative;positive","B",7.3178761986265,8
"369","663502026e662c1124df1b0b","joke","calibrator_val_feedback","Valence","VC",1736440456625,"negative",3636,"negative","positive","negative;positive","B",8.19863945529737,9
"370","663502026e662c1124df1b0b","invader","calibrator_val_feedback","Valence","VC",1736440460699,"negative",1314,"negative","positive","negative;positive","B",7.18083119904456,10
"371","663502026e662c1124df1b0b","grin","calibrator_val_no_feedback","Valence","VC",1736440465112,"positive",1655,"A","negative;positive","","B",7.41155628781116,11
"372","663502026e662c1124df1b0b","icebox","calibrator_val_no_feedback","Valence","VC",1736440467260,"negative",1395,"A","negative;positive","","B",7.24064969425547,12
"373","663502026e662c1124df1b0b","joke","calibrator_val_no_feedback","Valence","VC",1736440468964,"negative",948,"A","negative;positive","","B",6.85435450225502,13
"374","663502026e662c1124df1b0b","jail","calibrator_val_no_feedback","Valence","VC",1736440470500,"negative",781,"A","negative;positive","","B",6.66057514983969,14
"375","663502026e662c1124df1b0b","industry","calibrator_val_no_feedback","Valence","VC",1736440472282,"positive",1024,"A","negative;positive","","B",6.93147180559945,15
"376","663502026e662c1124df1b0b","kitten","calibrator_val_no_feedback","Valence","VC",1736440473783,"positive",744,"A","negative;positive","","B",6.61204103483309,16
"377","663502026e662c1124df1b0b","hat","calibrator_val_no_feedback","Valence","VC",1736440475307,"negative",765,"A","negative;positive","","B",6.63987583382654,17
"378","663502026e662c1124df1b0b","insecure","calibrator_val_no_feedback","Valence","VC",1736440476905,"negative",842,"A","negative;positive","","B",6.73578001424233,18
"379","663502026e662c1124df1b0b","free","calibrator_val_no_feedback","Valence","VC",1736440478572,"positive",911,"A","negative;positive","","B",6.81454289725996,19
"380","663502026e662c1124df1b0b","invader","calibrator_val_no_feedback","Valence","VC",1736440479953,"negative",623,"A","negative;positive","","B",6.43454651878745,20
"381","663502026e662c1124df1b0b","marriage","calibrator_conc_feedback","Concrete","VC",1736440744198,"concrete",2330,"abstract","concrete","abstract;concrete","B",7.75362354655975,21
"382","663502026e662c1124df1b0b","whistle","calibrator_conc_feedback","Concrete","VC",1736440749858,"concrete",2902,"abstract","concrete","abstract;concrete","B",7.97315543344413,22
"383","663502026e662c1124df1b0b","polite","calibrator_conc_feedback","Concrete","VC",1736440753894,"abstract",1271,"abstract","concrete","abstract;concrete","B",7.14755927118945,23
"384","663502026e662c1124df1b0b","gas","calibrator_conc_feedback","Concrete","VC",1736440758078,"concrete",1426,"abstract","concrete","abstract;concrete","B",7.26262860097424,24
"385","663502026e662c1124df1b0b","grasshopper","calibrator_conc_feedback","Concrete","VC",1736440762419,"concrete",1582,"abstract","concrete","abstract;concrete","B",7.3664451483276,25
"386","663502026e662c1124df1b0b","shirt","calibrator_conc_feedback","Concrete","VC",1736440766072,"concrete",891,"abstract","concrete","abstract;concrete","B",6.79234442747081,26
"387","663502026e662c1124df1b0b","insecure","calibrator_conc_feedback","Concrete","VC",1736440770196,"abstract",1363,"abstract","concrete","abstract;concrete","B",7.21744343169653,27
"388","663502026e662c1124df1b0b","kick","calibrator_conc_feedback","Concrete","VC",1736440773927,"concrete",968,"abstract","concrete","abstract;concrete","B",6.87523208727658,28
"389","663502026e662c1124df1b0b","theory","calibrator_conc_feedback","Concrete","VC",1736440778778,"abstract",2090,"abstract","concrete","abstract;concrete","B",7.64491934495886,29
"390","663502026e662c1124df1b0b","sugar","calibrator_conc_feedback","Concrete","VC",1736440782460,"concrete",926,"abstract","concrete","abstract;concrete","B",6.83087423464618,30
"391","663502026e662c1124df1b0b","whistle","calibrator_conc_no_feedback","Concrete","VC",1736440788616,"concrete",3402,"A","abstract;concrete","","B",8.13211877295581,31
"392","663502026e662c1124df1b0b","sugar","calibrator_conc_no_feedback","Concrete","VC",1736440791020,"concrete",1647,"A","abstract;concrete","","B",7.40671073017764,32
"393","663502026e662c1124df1b0b","shirt","calibrator_conc_no_feedback","Concrete","VC",1736440792509,"concrete",735,"A","abstract;concrete","","B",6.59987049921284,33
"394","663502026e662c1124df1b0b","marriage","calibrator_conc_no_feedback","Concrete","VC",1736440794379,"concrete",1112,"A","abstract;concrete","","B",7.01391547481053,34
"395","663502026e662c1124df1b0b","insecure","calibrator_conc_no_feedback","Concrete","VC",1736440795912,"abstract",780,"A","abstract;concrete","","B",6.65929391968364,35
"396","663502026e662c1124df1b0b","polite","calibrator_conc_no_feedback","Concrete","VC",1736440797376,"abstract",709,"A","abstract;concrete","","B",6.56385552653213,36
"397","663502026e662c1124df1b0b","theory","calibrator_conc_no_feedback","Concrete","VC",1736440798773,"abstract",643,"A","abstract;concrete","","B",6.46614472423762,37
"398","663502026e662c1124df1b0b","grasshopper","calibrator_conc_no_feedback","Concrete","VC",1736440800201,"concrete",671,"A","abstract;concrete","","B",6.50876913697168,38
"399","663502026e662c1124df1b0b","kick","calibrator_conc_no_feedback","Concrete","VC",1736440801648,"concrete",694,"A","abstract;concrete","","B",6.5424719605068,39
"400","663502026e662c1124df1b0b","gas","calibrator_conc_no_feedback","Concrete","VC",1736440803047,"concrete",645,"A","abstract;concrete","","B",6.46925031679577,40
"401","554fb0edfdf99b7d1737de9b","industry","calibrator_val_feedback","Valence","VC",1736439704420,"negative",502,"negative","positive","negative;positive","B",6.21860011969173,1
"402","554fb0edfdf99b7d1737de9b","grin","calibrator_val_feedback","Valence","VC",1736439707279,"negative",435,"negative","positive","negative;positive","B",6.07534603108868,2
"403","554fb0edfdf99b7d1737de9b","icebox","calibrator_val_feedback","Valence","VC",1736439712176,"negative",1890,"negative","positive","negative;positive","B",7.54433210805369,3
"404","554fb0edfdf99b7d1737de9b","jail","calibrator_val_feedback","Valence","VC",1736439715260,"negative",1188,"negative","positive","negative;positive","B",7.08002649992259,4
"405","554fb0edfdf99b7d1737de9b","hat","calibrator_val_feedback","Valence","VC",1736439718400,"positive",280,"negative","positive","negative;positive","B",5.63478960316925,5
"406","554fb0edfdf99b7d1737de9b","kitten","calibrator_val_feedback","Valence","VC",1736439722305,"positive",1036,"negative","positive","negative;positive","B",6.94312242281943,6
"407","554fb0edfdf99b7d1737de9b","free","calibrator_val_feedback","Valence","VC",1736439726254,"positive",1235,"negative","positive","negative;positive","B",7.11882624906208,7
"408","554fb0edfdf99b7d1737de9b","invader","calibrator_val_feedback","Valence","VC",1736439731240,"negative",1418,"negative","positive","negative;positive","B",7.25700270709207,8
"409","554fb0edfdf99b7d1737de9b","joke","calibrator_val_feedback","Valence","VC",1736439734842,"positive",1395,"negative","positive","negative;positive","B",7.24064969425547,9
"410","554fb0edfdf99b7d1737de9b","insecure","calibrator_val_feedback","Valence","VC",1736439738679,"negative",1513,"negative","positive","negative;positive","B",7.32184971378836,10
"411","554fb0edfdf99b7d1737de9b","joke","calibrator_val_no_feedback","Valence","VC",1736439742232,"positive",1521,"A","negative;positive","","B",7.32712329225929,11
"412","554fb0edfdf99b7d1737de9b","kitten","calibrator_val_no_feedback","Valence","VC",1736439744295,"positive",1303,"A","negative;positive","","B",7.17242457712485,12
"413","554fb0edfdf99b7d1737de9b","hat","calibrator_val_no_feedback","Valence","VC",1736439746517,"positive",1463,"A","negative;positive","","B",7.28824440102012,13
"414","554fb0edfdf99b7d1737de9b","jail","calibrator_val_no_feedback","Valence","VC",1736439748215,"negative",938,"A","negative;positive","","B",6.84374994900622,14
"415","554fb0edfdf99b7d1737de9b","insecure","calibrator_val_no_feedback","Valence","VC",1736439749927,"negative",951,"A","negative;positive","","B",6.85751406254539,15
"416","554fb0edfdf99b7d1737de9b","industry","calibrator_val_no_feedback","Valence","VC",1736439751650,"negative",965,"A","negative;positive","","B",6.87212810133899,16
"417","554fb0edfdf99b7d1737de9b","free","calibrator_val_no_feedback","Valence","VC",1736439753196,"positive",791,"A","negative;positive","","B",6.67329796776765,17
"418","554fb0edfdf99b7d1737de9b","grin","calibrator_val_no_feedback","Valence","VC",1736439755055,"negative",1101,"A","negative;positive","","B",7.00397413672268,18
"419","554fb0edfdf99b7d1737de9b","icebox","calibrator_val_no_feedback","Valence","VC",1736439756688,"negative",872,"A","negative;positive","","B",6.77078942390898,19
"420","554fb0edfdf99b7d1737de9b","invader","calibrator_val_no_feedback","Valence","VC",1736439758462,"negative",1016,"A","negative;positive","","B",6.92362862813843,20
"421","554fb0edfdf99b7d1737de9b","whistle","calibrator_conc_feedback","Concrete","VC",1736440065356,"concrete",1910,"abstract","concrete","abstract;concrete","B",7.55485852104068,21
"422","554fb0edfdf99b7d1737de9b","marriage","calibrator_conc_feedback","Concrete","VC",1736440069121,"concrete",1656,"abstract","concrete","abstract;concrete","B",7.4121603349452,22
"423","554fb0edfdf99b7d1737de9b","insecure","calibrator_conc_feedback","Concrete","VC",1736440073758,"concrete",1754,"abstract","concrete","abstract;concrete","B",7.46965417293213,23
"424","554fb0edfdf99b7d1737de9b","shirt","calibrator_conc_feedback","Concrete","VC",1736440077877,"concrete",1451,"abstract","concrete","abstract;concrete","B",7.28000825288419,24
"425","554fb0edfdf99b7d1737de9b","gas","calibrator_conc_feedback","Concrete","VC",1736440081633,"concrete",1124,"abstract","concrete","abstract;concrete","B",7.02464903045364,25
"426","554fb0edfdf99b7d1737de9b","grasshopper","calibrator_conc_feedback","Concrete","VC",1736440085688,"concrete",1267,"abstract","concrete","abstract;concrete","B",7.14440718032114,26
"427","554fb0edfdf99b7d1737de9b","theory","calibrator_conc_feedback","Concrete","VC",1736440089757,"abstract",1077,"abstract","concrete","abstract;concrete","B",6.98193467715639,27
"428","554fb0edfdf99b7d1737de9b","sugar","calibrator_conc_feedback","Concrete","VC",1736440093387,"concrete",1107,"abstract","concrete","abstract;concrete","B",7.00940893270864,28
"429","554fb0edfdf99b7d1737de9b","polite","calibrator_conc_feedback","Concrete","VC",1736440098599,"abstract",1351,"abstract","concrete","abstract;concrete","B",7.2086003379602,29
"430","554fb0edfdf99b7d1737de9b","kick","calibrator_conc_feedback","Concrete","VC",1736440101599,"concrete",1338,"abstract","concrete","abstract;concrete","B",7.19893124068817,30
"431","554fb0edfdf99b7d1737de9b","kick","calibrator_conc_no_feedback","Concrete","VC",1736440104896,"concrete",1053,"A","abstract;concrete","","B",6.95939851213398,31
"432","554fb0edfdf99b7d1737de9b","whistle","calibrator_conc_no_feedback","Concrete","VC",1736440107021,"concrete",1368,"A","abstract;concrete","","B",7.2211050981825,32
"433","554fb0edfdf99b7d1737de9b","sugar","calibrator_conc_no_feedback","Concrete","VC",1736440108799,"concrete",1018,"A","abstract;concrete","","B",6.92559519711047,33
"434","554fb0edfdf99b7d1737de9b","gas","calibrator_conc_no_feedback","Concrete","VC",1736440110822,"concrete",1264,"A","abstract;concrete","","B",7.1420365747068,34
"435","554fb0edfdf99b7d1737de9b","grasshopper","calibrator_conc_no_feedback","Concrete","VC",1736440112588,"concrete",1004,"A","abstract;concrete","","B",6.91174730025167,35
"436","554fb0edfdf99b7d1737de9b","polite","calibrator_conc_no_feedback","Concrete","VC",1736440114383,"abstract",1034,"A","abstract;concrete","","B",6.94119005506837,36
"437","554fb0edfdf99b7d1737de9b","insecure","calibrator_conc_no_feedback","Concrete","VC",1736440116415,"abstract",1270,"A","abstract;concrete","","B",7.14677217945264,37
"438","554fb0edfdf99b7d1737de9b","shirt","calibrator_conc_no_feedback","Concrete","VC",1736440118464,"concrete",1288,"A","abstract;concrete","","B",7.1608459066643,38
"439","554fb0edfdf99b7d1737de9b","theory","calibrator_conc_no_feedback","Concrete","VC",1736440120293,"abstract",1069,"A","abstract;concrete","","B",6.97447891102505,39
"440","554fb0edfdf99b7d1737de9b","marriage","calibrator_conc_no_feedback","Concrete","VC",1736440122125,"concrete",1075,"A","abstract;concrete","","B",6.98007594056176,40
"441","5f763e6e7632050c3712feac","grin","calibrator_val_feedback","Valence","VC",1736439713503,"positive",1496,"negative","positive","negative;positive","B",7.31055015853442,1
"442","5f763e6e7632050c3712feac","industry","calibrator_val_feedback","Valence","VC",1736439716291,"negative",1055,"negative","positive","negative;positive","B",6.96129604591017,2
"443","5f763e6e7632050c3712feac","invader","calibrator_val_feedback","Valence","VC",1736439722803,"negative",2793,"negative","positive","negative;positive","B",7.93487156594518,3
"444","5f763e6e7632050c3712feac","icebox","calibrator_val_feedback","Valence","VC",1736439725501,"positive",1792,"negative","positive","negative;positive","B",7.49108759353488,4
"445","5f763e6e7632050c3712feac","free","calibrator_val_feedback","Valence","VC",1736439729834,"positive",1546,"negative","positive","negative;positive","B",7.34342622914737,5
"446","5f763e6e7632050c3712feac","insecure","calibrator_val_feedback","Valence","VC",1736439734430,"negative",1816,"negative","positive","negative;positive","B",7.50439155916124,6
"447","5f763e6e7632050c3712feac","jail","calibrator_val_feedback","Valence","VC",1736439738635,"negative",1410,"negative","positive","negative;positive","B",7.25134498337221,7
"448","5f763e6e7632050c3712feac","hat","calibrator_val_feedback","Valence","VC",1736439742835,"positive",1431,"negative","positive","negative;positive","B",7.26612877955645,8
"449","5f763e6e7632050c3712feac","joke","calibrator_val_feedback","Valence","VC",1736439746563,"positive",949,"negative","positive","negative;positive","B",6.85540879860993,9
"450","5f763e6e7632050c3712feac","kitten","calibrator_val_feedback","Valence","VC",1736439750502,"positive",1153,"negative","positive","negative;positive","B",7.05012252026906,10
"451","5f763e6e7632050c3712feac","invader","calibrator_val_no_feedback","Valence","VC",1736439755370,"negative",2075,"A","negative;positive","","B",7.6377164326648,11
"452","5f763e6e7632050c3712feac","free","calibrator_val_no_feedback","Valence","VC",1736439757059,"positive",921,"A","negative;positive","","B",6.82546003625531,12
"453","5f763e6e7632050c3712feac","grin","calibrator_val_no_feedback","Valence","VC",1736439758831,"positive",998,"A","negative;positive","","B",6.90575327631146,13
"454","5f763e6e7632050c3712feac","icebox","calibrator_val_no_feedback","Valence","VC",1736439760668,"positive",1062,"A","negative;positive","","B",6.96790920180188,14
"455","5f763e6e7632050c3712feac","industry","calibrator_val_no_feedback","Valence","VC",1736439762896,"positive",1467,"A","negative;positive","","B",7.29097477814298,15
"456","5f763e6e7632050c3712feac","jail","calibrator_val_no_feedback","Valence","VC",1736439764496,"negative",823,"A","negative;positive","","B",6.71295620067707,16
"457","5f763e6e7632050c3712feac","hat","calibrator_val_no_feedback","Valence","VC",1736439766113,"positive",847,"A","negative;positive","","B",6.74170069465205,17
"458","5f763e6e7632050c3712feac","joke","calibrator_val_no_feedback","Valence","VC",1736439767612,"positive",734,"A","negative;positive","","B",6.59850902861452,18
"459","5f763e6e7632050c3712feac","insecure","calibrator_val_no_feedback","Valence","VC",1736439769379,"negative",991,"A","negative;positive","","B",6.89871453432999,19
"460","5f763e6e7632050c3712feac","kitten","calibrator_val_no_feedback","Valence","VC",1736439771044,"positive",899,"A","negative;positive","","B",6.80128303447162,20
"461","5f763e6e7632050c3712feac","whistle","calibrator_conc_feedback","Concrete","VC",1736440050954,"concrete",2494,"abstract","concrete","abstract;concrete","B",7.82164312623998,21
"462","5f763e6e7632050c3712feac","theory","calibrator_conc_feedback","Concrete","VC",1736440056221,"abstract",2500,"abstract","concrete","abstract;concrete","B",7.82404601085629,22
"463","5f763e6e7632050c3712feac","marriage","calibrator_conc_feedback","Concrete","VC",1736440062787,"abstract",3797,"abstract","concrete","abstract;concrete","B",8.2419665602318,23
"464","5f763e6e7632050c3712feac","polite","calibrator_conc_feedback","Concrete","VC",1736440067426,"abstract",1858,"abstract","concrete","abstract;concrete","B",7.52725591937378,24
"465","5f763e6e7632050c3712feac","insecure","calibrator_conc_feedback","Concrete","VC",1736440072925,"abstract",2708,"abstract","concrete","abstract;concrete","B",7.90396563403217,25
"466","5f763e6e7632050c3712feac","gas","calibrator_conc_feedback","Concrete","VC",1736440077865,"concrete",2153,"abstract","concrete","abstract;concrete","B",7.67461749736436,26
"467","5f763e6e7632050c3712feac","shirt","calibrator_conc_feedback","Concrete","VC",1736440081572,"concrete",936,"abstract","concrete","abstract;concrete","B",6.84161547647759,27
"468","5f763e6e7632050c3712feac","grasshopper","calibrator_conc_feedback","Concrete","VC",1736440085130,"concrete",771,"abstract","concrete","abstract;concrete","B",6.64768837356333,28
"469","5f763e6e7632050c3712feac","kick","calibrator_conc_feedback","Concrete","VC",1736440090939,"concrete",3029,"abstract","concrete","abstract;concrete","B",8.01598781102724,29
"470","5f763e6e7632050c3712feac","sugar","calibrator_conc_feedback","Concrete","VC",1736440094838,"concrete",1136,"abstract","concrete","abstract;concrete","B",7.0352685992811,30
"471","5f763e6e7632050c3712feac","polite","calibrator_conc_no_feedback","Concrete","VC",1736440099156,"abstract",1549,"A","abstract;concrete","","B",7.34536484041687,31
"472","5f763e6e7632050c3712feac","gas","calibrator_conc_no_feedback","Concrete","VC",1736440101058,"concrete",1137,"A","abstract;concrete","","B",7.03614849375054,32
"473","5f763e6e7632050c3712feac","insecure","calibrator_conc_no_feedback","Concrete","VC",1736440104079,"abstract",2251,"A","abstract;concrete","","B",7.71912984090673,33
"474","5f763e6e7632050c3712feac","grasshopper","calibrator_conc_no_feedback","Concrete","VC",1736440105836,"concrete",989,"A","abstract;concrete","","B",6.89669433162271,34
"475","5f763e6e7632050c3712feac","shirt","calibrator_conc_no_feedback","Concrete","VC",1736440107924,"concrete",1314,"A","abstract;concrete","","B",7.18083119904456,35
"476","5f763e6e7632050c3712feac","sugar","calibrator_conc_no_feedback","Concrete","VC",1736440109969,"concrete",1278,"A","abstract;concrete","","B",7.15305163493748,36
"477","5f763e6e7632050c3712feac","theory","calibrator_conc_no_feedback","Concrete","VC",1736440111839,"abstract",1106,"A","abstract;concrete","","B",7.00850518208228,37
"478","5f763e6e7632050c3712feac","kick","calibrator_conc_no_feedback","Concrete","VC",1736440113490,"concrete",876,"A","abstract;concrete","","B",6.77536609093639,38
"479","5f763e6e7632050c3712feac","whistle","calibrator_conc_no_feedback","Concrete","VC",1736440115311,"concrete",1049,"A","abstract;concrete","","B",6.9555926083963,39
"480","5f763e6e7632050c3712feac","marriage","calibrator_conc_no_feedback","Concrete","VC",1736440116840,"abstract",760,"A","abstract;concrete","","B",6.63331843328038,40
"481","5bc0981274e76c00019e94cd","hat","calibrator_val_feedback","Valence","VC",1736433348712,"positive",1588,"negative","positive","negative;positive","A",7.37023064180708,1
"482","5bc0981274e76c00019e94cd","jail","calibrator_val_feedback","Valence","VC",1736433354904,"negative",1508,"negative","positive","negative;positive","A",7.3185395485679,2
"483","5bc0981274e76c00019e94cd","kitten","calibrator_val_feedback","Valence","VC",1736433356920,"positive",1175,"negative","positive","negative;positive","A",7.06902342657826,3
"484","5bc0981274e76c00019e94cd","insecure","calibrator_val_feedback","Valence","VC",1736433360680,"negative",991,"negative","positive","negative;positive","A",6.89871453432999,4
"485","5bc0981274e76c00019e94cd","grin","calibrator_val_feedback","Valence","VC",1736433364712,"positive",1270,"negative","positive","negative;positive","A",7.14677217945264,5
"486","5bc0981274e76c00019e94cd","free","calibrator_val_feedback","Valence","VC",1736433368871,"positive",1394,"negative","positive","negative;positive","A",7.23993259132047,6
"487","5bc0981274e76c00019e94cd","icebox","calibrator_val_feedback","Valence","VC",1736433379336,"positive",7705,"negative","positive","negative;positive","A",8.94962474775422,7
"488","5bc0981274e76c00019e94cd","invader","calibrator_val_feedback","Valence","VC",1736433383407,"negative",1307,"negative","positive","negative;positive","A",7.17548971362422,8
"489","5bc0981274e76c00019e94cd","joke","calibrator_val_feedback","Valence","VC",1736433387376,"positive",1202,"negative","positive","negative;positive","A",7.09174211509515,9
"490","5bc0981274e76c00019e94cd","industry","calibrator_val_feedback","Valence","VC",1736433391600,"positive",1458,"negative","positive","negative;positive","A",7.2848209125686,10
"491","5bc0981274e76c00019e94cd","insecure","calibrator_val_no_feedback","Valence","VC",1736433395440,"negative",1076,"A","negative;positive","","A",6.98100574072173,11
"492","5bc0981274e76c00019e94cd","kitten","calibrator_val_no_feedback","Valence","VC",1736433397448,"positive",1249,"A","negative;positive","","A",7.13009851012558,12
"493","5bc0981274e76c00019e94cd","hat","calibrator_val_no_feedback","Valence","VC",1736433402536,"positive",4327,"A","negative;positive","","A",8.37262974022488,13
"494","5bc0981274e76c00019e94cd","grin","calibrator_val_no_feedback","Valence","VC",1736433405272,"positive",1975,"A","negative;positive","","A",7.58832367733522,14
"495","5bc0981274e76c00019e94cd","jail","calibrator_val_no_feedback","Valence","VC",1736433406639,"negative",610,"A","negative;positive","","A",6.41345895716736,15
"496","5bc0981274e76c00019e94cd","invader","calibrator_val_no_feedback","Valence","VC",1736433408136,"negative",736,"A","negative;positive","","A",6.60123011872888,16
"497","5bc0981274e76c00019e94cd","industry","calibrator_val_no_feedback","Valence","VC",1736433412384,"positive",3489,"A","negative;positive","","A",8.15737044118677,17
"498","5bc0981274e76c00019e94cd","icebox","calibrator_val_no_feedback","Valence","VC",1736433415800,"positive",2654,"A","negative;positive","","A",7.88382321489215,18
"499","5bc0981274e76c00019e94cd","free","calibrator_val_no_feedback","Valence","VC",1736433417552,"positive",991,"A","negative;positive","","A",6.89871453432999,19
"500","5bc0981274e76c00019e94cd","joke","calibrator_val_no_feedback","Valence","VC",1736433419415,"positive",1102,"A","negative;positive","","A",7.00488198971286,20
"501","5bc0981274e76c00019e94cd","marriage","calibrator_conc_feedback","Concrete","VC",1736433756871,"concrete",2786,"abstract","concrete","abstract;concrete","A",7.93236215433975,21
"502","5bc0981274e76c00019e94cd","gas","calibrator_conc_feedback","Concrete","VC",1736433762534,"concrete",1391,"abstract","concrete","abstract;concrete","A",7.23777819192344,22
"503","5bc0981274e76c00019e94cd","sugar","calibrator_conc_feedback","Concrete","VC",1736433764702,"concrete",918,"abstract","concrete","abstract;concrete","A",6.82219739062049,23
"504","5bc0981274e76c00019e94cd","shirt","calibrator_conc_feedback","Concrete","VC",1736433768199,"concrete",735,"abstract","concrete","abstract;concrete","A",6.59987049921284,24
"505","5bc0981274e76c00019e94cd","polite","calibrator_conc_feedback","Concrete","VC",1736433772598,"abstract",790,"abstract","concrete","abstract;concrete","A",6.67203294546107,25
"506","5bc0981274e76c00019e94cd","insecure","calibrator_conc_feedback","Concrete","VC",1736433775470,"abstract",958,"abstract","concrete","abstract;concrete","A",6.86484777797086,26
"507","5bc0981274e76c00019e94cd","theory","calibrator_conc_feedback","Concrete","VC",1736433779303,"abstract",1070,"abstract","concrete","abstract;concrete","A",6.97541392745595,27
"508","5bc0981274e76c00019e94cd","whistle","calibrator_conc_feedback","Concrete","VC",1736433783454,"abstract",1391,"abstract","concrete","abstract;concrete","A",7.23777819192344,28
"509","5bc0981274e76c00019e94cd","grasshopper","calibrator_conc_feedback","Concrete","VC",1736433787286,"concrete",1068,"abstract","concrete","abstract;concrete","A",6.97354301952014,29
"510","5bc0981274e76c00019e94cd","kick","calibrator_conc_feedback","Concrete","VC",1736433791559,"concrete",1508,"abstract","concrete","abstract;concrete","A",7.3185395485679,30
"511","5bc0981274e76c00019e94cd","kick","calibrator_conc_no_feedback","Concrete","VC",1736433795174,"concrete",855,"A","abstract;concrete","","A",6.75110146893676,31
"512","5bc0981274e76c00019e94cd","polite","calibrator_conc_no_feedback","Concrete","VC",1736433797255,"abstract",1322,"A","abstract;concrete","","A",7.18690102041163,32
"513","5bc0981274e76c00019e94cd","marriage","calibrator_conc_no_feedback","Concrete","VC",1736433798830,"abstract",816,"A","abstract;concrete","","A",6.70441435496411,33
"514","5bc0981274e76c00019e94cd","grasshopper","calibrator_conc_no_feedback","Concrete","VC",1736433800254,"concrete",664,"A","abstract;concrete","","A",6.49828214947643,34
"515","5bc0981274e76c00019e94cd","whistle","calibrator_conc_no_feedback","Concrete","VC",1736433802647,"concrete",1631,"A","abstract;concrete","","A",7.39694860262101,35
"516","5bc0981274e76c00019e94cd","shirt","calibrator_conc_no_feedback","Concrete","VC",1736433804030,"concrete",625,"A","abstract;concrete","","A",6.4377516497364,36
"517","5bc0981274e76c00019e94cd","insecure","calibrator_conc_no_feedback","Concrete","VC",1736433806118,"abstract",1325,"A","abstract;concrete","","A",7.18916773842032,37
"518","5bc0981274e76c00019e94cd","theory","calibrator_conc_no_feedback","Concrete","VC",1736433807894,"abstract",1019,"A","abstract;concrete","","A",6.92657703322272,38
"519","5bc0981274e76c00019e94cd","gas","calibrator_conc_no_feedback","Concrete","VC",1736433810278,"concrete",1624,"A","abstract;concrete","","A",7.39264752072162,39
"520","5bc0981274e76c00019e94cd","sugar","calibrator_conc_no_feedback","Concrete","VC",1736433811654,"concrete",618,"A","abstract;concrete","","A",6.42648845745769,40
"521","65e7795d1685521fd01bd49a","theory","calibrator_conc_feedback","Concrete","CV",1736430467982,"abstract",1962,"abstract","concrete","abstract;concrete","A",7.58171964012531,1
"522","65e7795d1685521fd01bd49a","marriage","calibrator_conc_feedback","Concrete","CV",1736430474799,"abstract",4049,"abstract","concrete","abstract;concrete","A",8.30622521603216,2
"523","65e7795d1685521fd01bd49a","polite","calibrator_conc_feedback","Concrete","CV",1736430479995,"abstract",2431,"abstract","concrete","abstract;concrete","A",7.79605797431612,3
"524","65e7795d1685521fd01bd49a","sugar","calibrator_conc_feedback","Concrete","CV",1736430483757,"concrete",1004,"abstract","concrete","abstract;concrete","A",6.91174730025167,4
"525","65e7795d1685521fd01bd49a","whistle","calibrator_conc_feedback","Concrete","CV",1736430488037,"concrete",1521,"abstract","concrete","abstract;concrete","A",7.32712329225929,5
"526","65e7795d1685521fd01bd49a","insecure","calibrator_conc_feedback","Concrete","CV",1736430492056,"abstract",1258,"abstract","concrete","abstract;concrete","A",7.13727843726039,6
"527","65e7795d1685521fd01bd49a","grasshopper","calibrator_conc_feedback","Concrete","CV",1736430495997,"concrete",1180,"abstract","concrete","abstract;concrete","A",7.07326971745971,7
"528","65e7795d1685521fd01bd49a","gas","calibrator_conc_feedback","Concrete","CV",1736430500131,"concrete",1373,"abstract","concrete","abstract;concrete","A",7.22475340576797,8
"529","65e7795d1685521fd01bd49a","shirt","calibrator_conc_feedback","Concrete","CV",1736430504076,"concrete",1185,"abstract","concrete","abstract;concrete","A",7.07749805356923,9
"530","65e7795d1685521fd01bd49a","kick","calibrator_conc_feedback","Concrete","CV",1736430507836,"concrete",1001,"abstract","concrete","abstract;concrete","A",6.90875477931522,10
"531","65e7795d1685521fd01bd49a","theory","calibrator_conc_no_feedback","Concrete","CV",1736430511443,"abstract",843,"A","abstract;concrete","","A",6.73696695800186,11
"532","65e7795d1685521fd01bd49a","gas","calibrator_conc_no_feedback","Concrete","CV",1736430513162,"concrete",958,"A","abstract;concrete","","A",6.86484777797086,12
"533","65e7795d1685521fd01bd49a","grasshopper","calibrator_conc_no_feedback","Concrete","CV",1736430514734,"concrete",812,"A","abstract;concrete","","A",6.69950034016168,13
"534","65e7795d1685521fd01bd49a","whistle","calibrator_conc_no_feedback","Concrete","CV",1736430516343,"concrete",852,"A","abstract;concrete","","A",6.74758652682932,14
"535","65e7795d1685521fd01bd49a","insecure","calibrator_conc_no_feedback","Concrete","CV",1736430517982,"abstract",882,"A","abstract;concrete","","A",6.78219205600679,15
"536","65e7795d1685521fd01bd49a","sugar","calibrator_conc_no_feedback","Concrete","CV",1736430519569,"concrete",828,"A","abstract;concrete","","A",6.71901315438526,16
"537","65e7795d1685521fd01bd49a","shirt","calibrator_conc_no_feedback","Concrete","CV",1736430521158,"concrete",832,"A","abstract;concrete","","A",6.72383244082121,17
"538","65e7795d1685521fd01bd49a","kick","calibrator_conc_no_feedback","Concrete","CV",1736430522674,"concrete",758,"A","abstract;concrete","","A",6.63068338564237,18
"539","65e7795d1685521fd01bd49a","marriage","calibrator_conc_no_feedback","Concrete","CV",1736430524243,"abstract",809,"A","abstract;concrete","","A",6.69579891705849,19
"540","65e7795d1685521fd01bd49a","polite","calibrator_conc_no_feedback","Concrete","CV",1736430525837,"abstract",839,"A","abstract;concrete","","A",6.73221070646721,20
"541","65e7795d1685521fd01bd49a","grin","calibrator_val_feedback","Valence","CV",1736430838554,"positive",1719,"negative","positive","negative;positive","A",7.44949800538285,21
"542","65e7795d1685521fd01bd49a","invader","calibrator_val_feedback","Valence","CV",1736430842774,"negative",1462,"negative","positive","negative;positive","A",7.28756064030972,22
"543","65e7795d1685521fd01bd49a","insecure","calibrator_val_feedback","Valence","CV",1736430847634,"negative",2101,"negative","positive","negative;positive","A",7.650168700845,23
"544","65e7795d1685521fd01bd49a","kitten","calibrator_val_feedback","Valence","CV",1736430851173,"positive",778,"negative","positive","negative;positive","A",6.65672652417839,24
"545","65e7795d1685521fd01bd49a","icebox","calibrator_val_feedback","Valence","CV",1736430855850,"positive",1919,"negative","positive","negative;positive","A",7.5595594960077,25
"546","65e7795d1685521fd01bd49a","jail","calibrator_val_feedback","Valence","CV",1736430859614,"negative",1003,"negative","positive","negative;positive","A",6.91075078796194,26
"547","65e7795d1685521fd01bd49a","joke","calibrator_val_feedback","Valence","CV",1736430863582,"positive",1209,"negative","positive","negative;positive","A",7.09754885061479,27
"548","65e7795d1685521fd01bd49a","industry","calibrator_val_feedback","Valence","CV",1736430874463,"negative",8115,"negative","positive","negative;positive","A",9.00146947994869,28
"549","65e7795d1685521fd01bd49a","hat","calibrator_val_feedback","Valence","CV",1736430878792,"positive",1569,"negative","positive","negative;positive","A",7.35819375273303,29
"550","65e7795d1685521fd01bd49a","free","calibrator_val_feedback","Valence","CV",1736430882615,"positive",1065,"negative","positive","negative;positive","A",6.97073007814353,30
"551","65e7795d1685521fd01bd49a","industry","calibrator_val_no_feedback","Valence","CV",1736430889834,"negative",4455,"A","negative;positive","","A",8.40178233990491,31
"552","65e7795d1685521fd01bd49a","invader","calibrator_val_no_feedback","Valence","CV",1736430891663,"negative",1073,"A","negative;positive","","A",6.9782137426307,32
"553","65e7795d1685521fd01bd49a","icebox","calibrator_val_no_feedback","Valence","CV",1736430893581,"positive",1160,"A","negative;positive","","A",7.05617528410041,33
"554","65e7795d1685521fd01bd49a","hat","calibrator_val_no_feedback","Valence","CV",1736430895255,"positive",920,"A","negative;positive","","A",6.82437367004309,34
"555","65e7795d1685521fd01bd49a","free","calibrator_val_no_feedback","Valence","CV",1736430896843,"positive",830,"A","negative;positive","","A",6.72142570079064,35
"556","65e7795d1685521fd01bd49a","insecure","calibrator_val_no_feedback","Valence","CV",1736430899023,"negative",1426,"A","negative;positive","","A",7.26262860097424,36
"557","65e7795d1685521fd01bd49a","grin","calibrator_val_no_feedback","Valence","CV",1736430900679,"positive",897,"A","negative;positive","","A",6.7990558620588,37
"558","65e7795d1685521fd01bd49a","joke","calibrator_val_no_feedback","Valence","CV",1736430902014,"positive",580,"A","negative;positive","","A",6.36302810354046,38
"559","65e7795d1685521fd01bd49a","kitten","calibrator_val_no_feedback","Valence","CV",1736430903468,"positive",700,"A","negative;positive","","A",6.5510803350434,39
"560","65e7795d1685521fd01bd49a","jail","calibrator_val_no_feedback","Valence","CV",1736430905255,"negative",1029,"A","negative;positive","","A",6.93634273583405,40
"561","5a2add709408dc00016f57d3","grasshopper","calibrator_conc_feedback","Concrete","CV",1736430308353,"concrete",2407,"abstract","concrete","abstract;concrete","A",7.78613643778307,1
"562","5a2add709408dc00016f57d3","polite","calibrator_conc_feedback","Concrete","CV",1736430314403,"concrete",2622,"abstract","concrete","abstract;concrete","A",7.87169266432365,2
"563","5a2add709408dc00016f57d3","shirt","calibrator_conc_feedback","Concrete","CV",1736430318153,"abstract",1657,"abstract","concrete","abstract;concrete","A",7.41276401742656,3
"564","5a2add709408dc00016f57d3","marriage","calibrator_conc_feedback","Concrete","CV",1736430325173,"abstract",4260,"abstract","concrete","abstract;concrete","A",8.35702443926342,4
"565","5a2add709408dc00016f57d3","insecure","calibrator_conc_feedback","Concrete","CV",1736430331316,"abstract",3380,"abstract","concrete","abstract;concrete","A",8.12563098847706,5
"566","5a2add709408dc00016f57d3","whistle","calibrator_conc_feedback","Concrete","CV",1736430335252,"concrete",1181,"abstract","concrete","abstract;concrete","A",7.07411681619736,6
"567","5a2add709408dc00016f57d3","sugar","calibrator_conc_feedback","Concrete","CV",1736430340457,"concrete",2443,"abstract","concrete","abstract;concrete","A",7.80098207125774,7
"568","5a2add709408dc00016f57d3","kick","calibrator_conc_feedback","Concrete","CV",1736430344293,"abstract",1075,"abstract","concrete","abstract;concrete","A",6.98007594056176,8
"569","5a2add709408dc00016f57d3","theory","calibrator_conc_feedback","Concrete","CV",1736430348313,"abstract",1258,"abstract","concrete","abstract;concrete","A",7.13727843726039,9
"570","5a2add709408dc00016f57d3","gas","calibrator_conc_feedback","Concrete","CV",1736430353441,"concrete",2365,"abstract","concrete","abstract;concrete","A",7.76853330092603,10
"571","5a2add709408dc00016f57d3","kick","calibrator_conc_no_feedback","Concrete","CV",1736430357441,"concrete",1234,"A","abstract;concrete","","A",7.11801620446533,11
"572","5a2add709408dc00016f57d3","gas","calibrator_conc_no_feedback","Concrete","CV",1736430359737,"concrete",1540,"A","abstract;concrete","","A",7.33953769540767,12
"573","5a2add709408dc00016f57d3","sugar","calibrator_conc_no_feedback","Concrete","CV",1736430362196,"concrete",1701,"A","abstract;concrete","","A",7.43897159239586,13
"574","5a2add709408dc00016f57d3","shirt","calibrator_conc_no_feedback","Concrete","CV",1736430363953,"concrete",1000,"A","abstract;concrete","","A",6.90775527898214,14
"575","5a2add709408dc00016f57d3","grasshopper","calibrator_conc_no_feedback","Concrete","CV",1736430365564,"concrete",852,"A","abstract;concrete","","A",6.74758652682932,15
"576","5a2add709408dc00016f57d3","polite","calibrator_conc_no_feedback","Concrete","CV",1736430367072,"abstract",754,"A","abstract;concrete","","A",6.62539236800796,16
"577","5a2add709408dc00016f57d3","insecure","calibrator_conc_no_feedback","Concrete","CV",1736430368728,"abstract",896,"A","abstract;concrete","","A",6.79794041297493,17
