#
# Results on Thu, 09 Jan 2025 16:31:49 GMT
# USER AGENT: Mozilla/5.0 (Windows NT 10.0; Win64; x64) AppleWebKit/537.36 (KHTML, like Gecko) Chrome/131.0.0.0 Safari/537.36
# Design number was non-random = 0
#
# Columns below this comment are as follows:
# 1. Results reception time.
# 2. MD5 hash of participant's IP address.
# 3. Controller name.
# 4. Order number of item.
# 5. Inner element number.
# 6. Label.
# 7. Latin Square Group.
# 8. PennElementType.
# 9. PennElementName.
# 10. Parameter.
# 11. Value.
# 12. EventTime.
# 13. Comments.
1736440309,77df19ca02b523ce7a45f54570c73552,PennController,1,0,welcome,NULL,PennController,0,_Trial_,Start,1736439359995,NULL
1736440309,77df19ca02b523ce7a45f54570c73552,PennController,1,0,welcome,NULL,PennController,0,_Header_,Start,1736439359995,NULL
1736440309,77df19ca02b523ce7a45f54570c73552,PennController,1,0,welcome,NULL,PennController,0,_Header_,End,1736439360247,NULL
1736440309,77df19ca02b523ce7a45f54570c73552,PennController,1,0,welcome,NULL,PennController,0,_Trial_,End,1736439419192,NULL
# 13. ID.
# 14. Comments.
1736440309,77df19ca02b523ce7a45f54570c73552,PennController,124,0,consent,NULL,PennController,2,_Trial_,Start,1736439419197,5c510b41e459660001e38861,NULL
1736440309,77df19ca02b523ce7a45f54570c73552,PennController,124,0,consent,NULL,PennController,2,_Header_,Start,1736439419197,5c510b41e459660001e38861,NULL
1736440309,77df19ca02b523ce7a45f54570c73552,PennController,124,0,consent,NULL,PennController,2,_Header_,End,1736439419452,5c510b41e459660001e38861,NULL
1736440309,77df19ca02b523ce7a45f54570c73552,PennController,124,0,consent,NULL,TextInput,ID,EnterReturn,5c510b41e459660001e38861,1736439473518,5c510b41e459660001e38861,NULL
1736440309,77df19ca02b523ce7a45f54570c73552,PennController,124,0,consent,NULL,TextInput,ID,Final,5c510b41e459660001e38861,1736439478538,5c510b41e459660001e38861,NULL
1736440309,77df19ca02b523ce7a45f54570c73552,PennController,124,0,consent,NULL,TextInput,ID,First,5c510b41e459660001e38861,1736439473518,5c510b41e459660001e38861,Enter
1736440309,77df19ca02b523ce7a45f54570c73552,PennController,124,0,consent,NULL,PennController,2,_Trial_,End,1736439478539,5c510b41e459660001e38861,NULL
# 13. Comments.
1736440309,77df19ca02b523ce7a45f54570c73552,PennController,126,0,instructions1_val,NULL,PennController,4,_Trial_,Start,1736439478541,NULL
1736440309,77df19ca02b523ce7a45f54570c73552,PennController,126,0,instructions1_val,NULL,PennController,4,_Header_,Start,1736439478541,NULL
1736440309,77df19ca02b523ce7a45f54570c73552,PennController,126,0,instructions1_val,NULL,PennController,4,_Header_,End,1736439478793,NULL
1736440309,77df19ca02b523ce7a45f54570c73552,PennController,126,0,instructions1_val,NULL,PennController,4,_Trial_,End,1736439534416,NULL
1736440309,77df19ca02b523ce7a45f54570c73552,PennController,127,0,instructions2_val,NULL,PennController,5,_Trial_,Start,1736439534418,NULL
1736440309,77df19ca02b523ce7a45f54570c73552,PennController,127,0,instructions2_val,NULL,PennController,5,_Header_,Start,1736439534418,NULL
1736440309,77df19ca02b523ce7a45f54570c73552,PennController,127,0,instructions2_val,NULL,PennController,5,_Header_,End,1736439534671,NULL
1736440309,77df19ca02b523ce7a45f54570c73552,PennController,127,0,instructions2_val,NULL,PennController,5,_Trial_,End,1736439546506,NULL
1736440309,77df19ca02b523ce7a45f54570c73552,PennController,128,0,instructions3_hands,NULL,PennController,6,_Trial_,Start,1736439546507,NULL
1736440309,77df19ca02b523ce7a45f54570c73552,PennController,128,0,instructions3_hands,NULL,PennController,6,_Header_,Start,1736439546507,NULL
1736440309,77df19ca02b523ce7a45f54570c73552,PennController,128,0,instructions3_hands,NULL,PennController,6,_Header_,End,1736439546759,NULL
1736440309,77df19ca02b523ce7a45f54570c73552,PennController,128,0,instructions3_hands,NULL,PennController,6,_Trial_,End,1736439574365,NULL
1736440309,77df19ca02b523ce7a45f54570c73552,PennController,129,0,practice_intro_val,NULL,PennController,7,_Trial_,Start,1736439574366,NULL
1736440309,77df19ca02b523ce7a45f54570c73552,PennController,129,0,practice_intro_val,NULL,PennController,7,_Header_,Start,1736439574366,NULL
1736440309,77df19ca02b523ce7a45f54570c73552,PennController,129,0,practice_intro_val,NULL,PennController,7,_Header_,End,1736439574618,NULL
1736440309,77df19ca02b523ce7a45f54570c73552,PennController,129,0,practice_intro_val,NULL,PennController,7,_Trial_,End,1736439577064,NULL
# 13. ID.
# 14. ReactionTime.
# 15. Word.
# 16. selectedKey.
# 17. selectedValue.
# 18. Key_value_F.
# 19. Key_value_J.
# 20. Group.
# 21. Comments.
1736440309,77df19ca02b523ce7a45f54570c73552,PennController,107,0,calibrator_val_feedback,NULL,PennController,118,_Trial_,Start,1736439577066,undefined,1669,icebox,undefined,positive,negative,positive,A,NULL
1736440309,77df19ca02b523ce7a45f54570c73552,PennController,107,0,calibrator_val_feedback,NULL,PennController,118,_Header_,Start,1736439577066,undefined,1669,icebox,undefined,positive,negative,positive,A,NULL
1736440309,77df19ca02b523ce7a45f54570c73552,PennController,107,0,calibrator_val_feedback,NULL,PennController,118,_Header_,End,1736439577319,undefined,1669,icebox,undefined,positive,negative,positive,A,NULL
1736440309,77df19ca02b523ce7a45f54570c73552,PennController,107,0,calibrator_val_feedback,NULL,Selector,Selection,Selection,positive,1736439581140,undefined,1669,icebox,undefined,positive,negative,positive,A,negative;positive
1736440309,77df19ca02b523ce7a45f54570c73552,PennController,107,0,calibrator_val_feedback,NULL,PennController,118,_Trial_,End,1736439581501,undefined,1669,icebox,undefined,positive,negative,positive,A,NULL
1736440309,77df19ca02b523ce7a45f54570c73552,PennController,109,0,calibrator_val_feedback,NULL,PennController,120,_Trial_,Start,1736439581505,undefined,2835,insecure,undefined,positive,negative,positive,A,NULL
1736440309,77df19ca02b523ce7a45f54570c73552,PennController,109,0,calibrator_val_feedback,NULL,PennController,120,_Header_,Start,1736439581505,undefined,2835,insecure,undefined,positive,negative,positive,A,NULL
1736440309,77df19ca02b523ce7a45f54570c73552,PennController,109,0,calibrator_val_feedback,NULL,PennController,120,_Header_,End,1736439581757,undefined,2835,insecure,undefined,positive,negative,positive,A,NULL
1736440309,77df19ca02b523ce7a45f54570c73552,PennController,109,0,calibrator_val_feedback,NULL,Selector,Selection,Selection,negative,1736439585094,undefined,2835,insecure,undefined,positive,negative,positive,A,negative;positive
1736440309,77df19ca02b523ce7a45f54570c73552,PennController,109,0,calibrator_val_feedback,NULL,PennController,120,_Trial_,End,1736439587100,undefined,2835,insecure,undefined,positive,negative,positive,A,NULL
1736440309,77df19ca02b523ce7a45f54570c73552,PennController,106,0,calibrator_val_feedback,NULL,PennController,117,_Trial_,Start,1736439587103,undefined,1912,hat,undefined,positive,negative,positive,A,NULL
1736440309,77df19ca02b523ce7a45f54570c73552,PennController,106,0,calibrator_val_feedback,NULL,PennController,117,_Header_,Start,1736439587103,undefined,1912,hat,undefined,positive,negative,positive,A,NULL
1736440309,77df19ca02b523ce7a45f54570c73552,PennController,106,0,calibrator_val_feedback,NULL,PennController,117,_Header_,End,1736439587356,undefined,1912,hat,undefined,positive,negative,positive,A,NULL
1736440309,77df19ca02b523ce7a45f54570c73552,PennController,106,0,calibrator_val_feedback,NULL,Selector,Selection,Selection,positive,1736439589773,undefined,1912,hat,undefined,positive,negative,positive,A,negative;positive
1736440309,77df19ca02b523ce7a45f54570c73552,PennController,106,0,calibrator_val_feedback,NULL,PennController,117,_Trial_,End,1736439591783,undefined,1912,hat,undefined,positive,negative,positive,A,NULL
1736440309,77df19ca02b523ce7a45f54570c73552,PennController,104,0,calibrator_val_feedback,NULL,PennController,115,_Trial_,Start,1736439591786,undefined,1350,free,undefined,positive,negative,positive,A,NULL
1736440309,77df19ca02b523ce7a45f54570c73552,PennController,104,0,calibrator_val_feedback,NULL,PennController,115,_Header_,Start,1736439591786,undefined,1350,free,undefined,positive,negative,positive,A,NULL
1736440309,77df19ca02b523ce7a45f54570c73552,PennController,104,0,calibrator_val_feedback,NULL,PennController,115,_Header_,End,1736439592037,undefined,1350,free,undefined,positive,negative,positive,A,NULL
1736440309,77df19ca02b523ce7a45f54570c73552,PennController,104,0,calibrator_val_feedback,NULL,Selector,Selection,Selection,positive,1736439593891,undefined,1350,free,undefined,positive,negative,positive,A,negative;positive
1736440309,77df19ca02b523ce7a45f54570c73552,PennController,104,0,calibrator_val_feedback,NULL,PennController,115,_Trial_,End,1736439595897,undefined,1350,free,undefined,positive,negative,positive,A,NULL
1736440309,77df19ca02b523ce7a45f54570c73552,PennController,105,0,calibrator_val_feedback,NULL,PennController,116,_Trial_,Start,1736439595901,undefined,2202,grin,undefined,positive,negative,positive,A,NULL
1736440309,77df19ca02b523ce7a45f54570c73552,PennController,105,0,calibrator_val_feedback,NULL,PennController,116,_Header_,Start,1736439595901,undefined,2202,grin,undefined,positive,negative,positive,A,NULL
1736440309,77df19ca02b523ce7a45f54570c73552,PennController,105,0,calibrator_val_feedback,NULL,PennController,116,_Header_,End,1736439596156,undefined,2202,grin,undefined,positive,negative,positive,A,NULL
1736440309,77df19ca02b523ce7a45f54570c73552,PennController,105,0,calibrator_val_feedback,NULL,Selector,Selection,Selection,positive,1736439598865,undefined,2202,grin,undefined,positive,negative,positive,A,negative;positive
1736440309,77df19ca02b523ce7a45f54570c73552,PennController,105,0,calibrator_val_feedback,NULL,PennController,116,_Trial_,End,1736439600869,undefined,2202,grin,undefined,positive,negative,positive,A,NULL
1736440309,77df19ca02b523ce7a45f54570c73552,PennController,111,0,calibrator_val_feedback,NULL,PennController,122,_Trial_,Start,1736439600874,undefined,1351,jail,undefined,positive,negative,positive,A,NULL
1736440309,77df19ca02b523ce7a45f54570c73552,PennController,111,0,calibrator_val_feedback,NULL,PennController,122,_Header_,Start,1736439600874,undefined,1351,jail,undefined,positive,negative,positive,A,NULL
1736440309,77df19ca02b523ce7a45f54570c73552,PennController,111,0,calibrator_val_feedback,NULL,PennController,122,_Header_,End,1736439601125,undefined,1351,jail,undefined,positive,negative,positive,A,NULL
1736440309,77df19ca02b523ce7a45f54570c73552,PennController,111,0,calibrator_val_feedback,NULL,Selector,Selection,Selection,negative,1736439602981,undefined,1351,jail,undefined,positive,negative,positive,A,negative;positive
1736440309,77df19ca02b523ce7a45f54570c73552,PennController,111,0,calibrator_val_feedback,NULL,PennController,122,_Trial_,End,1736439604989,undefined,1351,jail,undefined,positive,negative,positive,A,NULL
1736440309,77df19ca02b523ce7a45f54570c73552,PennController,108,0,calibrator_val_feedback,NULL,PennController,119,_Trial_,Start,1736439604992,undefined,1601,industry,undefined,positive,negative,positive,A,NULL
1736440309,77df19ca02b523ce7a45f54570c73552,PennController,108,0,calibrator_val_feedback,NULL,PennController,119,_Header_,Start,1736439604992,undefined,1601,industry,undefined,positive,negative,positive,A,NULL
1736440309,77df19ca02b523ce7a45f54570c73552,PennController,108,0,calibrator_val_feedback,NULL,PennController,119,_Header_,End,1736439605243,undefined,1601,industry,undefined,positive,negative,positive,A,NULL
1736440309,77df19ca02b523ce7a45f54570c73552,PennController,108,0,calibrator_val_feedback,NULL,Selector,Selection,Selection,positive,1736439607347,undefined,1601,industry,undefined,positive,negative,positive,A,negative;positive
1736440309,77df19ca02b523ce7a45f54570c73552,PennController,108,0,calibrator_val_feedback,NULL,PennController,119,_Trial_,End,1736439609356,undefined,1601,industry,undefined,positive,negative,positive,A,NULL
1736440309,77df19ca02b523ce7a45f54570c73552,PennController,112,0,calibrator_val_feedback,NULL,PennController,123,_Trial_,Start,1736439609358,undefined,2069,joke,undefined,positive,negative,positive,A,NULL
1736440309,77df19ca02b523ce7a45f54570c73552,PennController,112,0,calibrator_val_feedback,NULL,PennController,123,_Header_,Start,1736439609358,undefined,2069,joke,undefined,positive,negative,positive,A,NULL
1736440309,77df19ca02b523ce7a45f54570c73552,PennController,112,0,calibrator_val_feedback,NULL,PennController,123,_Header_,End,1736439609612,undefined,2069,joke,undefined,positive,negative,positive,A,NULL
1736440309,77df19ca02b523ce7a45f54570c73552,PennController,112,0,calibrator_val_feedback,NULL,Selector,Selection,Selection,positive,1736439612186,undefined,2069,joke,undefined,positive,negative,positive,A,negative;positive
1736440309,77df19ca02b523ce7a45f54570c73552,PennController,112,0,calibrator_val_feedback,NULL,PennController,123,_Trial_,End,1736439614194,undefined,2069,joke,undefined,positive,negative,positive,A,NULL
1736440309,77df19ca02b523ce7a45f54570c73552,PennController,113,0,calibrator_val_feedback,NULL,PennController,124,_Trial_,Start,1736439614197,undefined,1123,kitten,undefined,positive,negative,positive,A,NULL
1736440309,77df19ca02b523ce7a45f54570c73552,PennController,113,0,calibrator_val_feedback,NULL,PennController,124,_Header_,Start,1736439614197,undefined,1123,kitten,undefined,positive,negative,positive,A,NULL
1736440309,77df19ca02b523ce7a45f54570c73552,PennController,113,0,calibrator_val_feedback,NULL,PennController,124,_Header_,End,1736439614449,undefined,1123,kitten,undefined,positive,negative,positive,A,NULL
1736440309,77df19ca02b523ce7a45f54570c73552,PennController,113,0,calibrator_val_feedback,NULL,Selector,Selection,Selection,positive,1736439616076,undefined,1123,kitten,undefined,positive,negative,positive,A,negative;positive
1736440309,77df19ca02b523ce7a45f54570c73552,PennController,113,0,calibrator_val_feedback,NULL,PennController,124,_Trial_,End,1736439618086,undefined,1123,kitten,undefined,positive,negative,positive,A,NULL
1736440309,77df19ca02b523ce7a45f54570c73552,PennController,110,0,calibrator_val_feedback,NULL,PennController,121,_Trial_,Start,1736439618088,undefined,1125,invader,undefined,positive,negative,positive,A,NULL
1736440309,77df19ca02b523ce7a45f54570c73552,PennController,110,0,calibrator_val_feedback,NULL,PennController,121,_Header_,Start,1736439618088,undefined,1125,invader,undefined,positive,negative,positive,A,NULL
1736440309,77df19ca02b523ce7a45f54570c73552,PennController,110,0,calibrator_val_feedback,NULL,PennController,121,_Header_,End,1736439618341,undefined,1125,invader,undefined,positive,negative,positive,A,NULL
1736440309,77df19ca02b523ce7a45f54570c73552,PennController,110,0,calibrator_val_feedback,NULL,Selector,Selection,Selection,negative,1736439619969,undefined,1125,invader,undefined,positive,negative,positive,A,negative;positive
1736440309,77df19ca02b523ce7a45f54570c73552,PennController,110,0,calibrator_val_feedback,NULL,PennController,121,_Trial_,End,1736439621978,undefined,1125,invader,undefined,positive,negative,positive,A,NULL
# 16. Key_value_F.
# 17. Key_value_J.
# 18. Group.
# 19. Comments.
1736440309,77df19ca02b523ce7a45f54570c73552,PennController,120,0,calibrator_val_no_feedback,NULL,PennController,131,_Trial_,Start,1736439621982,undefined,1793,invader,negative,positive,A,NULL
1736440309,77df19ca02b523ce7a45f54570c73552,PennController,120,0,calibrator_val_no_feedback,NULL,PennController,131,_Header_,Start,1736439621982,undefined,1793,invader,negative,positive,A,NULL
1736440309,77df19ca02b523ce7a45f54570c73552,PennController,120,0,calibrator_val_no_feedback,NULL,PennController,131,_Header_,End,1736439622236,undefined,1793,invader,negative,positive,A,NULL
1736440309,77df19ca02b523ce7a45f54570c73552,PennController,120,0,calibrator_val_no_feedback,NULL,Selector,unnamed-Selector,Selection,negative,1736439624537,undefined,1793,invader,negative,positive,A,negative;positive
1736440309,77df19ca02b523ce7a45f54570c73552,PennController,120,0,calibrator_val_no_feedback,NULL,PennController,131,_Trial_,End,1736439624539,undefined,1793,invader,negative,positive,A,NULL
1736440309,77df19ca02b523ce7a45f54570c73552,PennController,118,0,calibrator_val_no_feedback,NULL,PennController,129,_Trial_,Start,1736439624542,undefined,1134,industry,negative,positive,A,NULL
1736440309,77df19ca02b523ce7a45f54570c73552,PennController,118,0,calibrator_val_no_feedback,NULL,PennController,129,_Header_,Start,1736439624542,undefined,1134,industry,negative,positive,A,NULL
1736440309,77df19ca02b523ce7a45f54570c73552,PennController,118,0,calibrator_val_no_feedback,NULL,PennController,129,_Header_,End,1736439624793,undefined,1134,industry,negative,positive,A,NULL
1736440309,77df19ca02b523ce7a45f54570c73552,PennController,118,0,calibrator_val_no_feedback,NULL,Selector,unnamed-Selector,Selection,positive,1736439626433,undefined,1134,industry,negative,positive,A,negative;positive
1736440309,77df19ca02b523ce7a45f54570c73552,PennController,118,0,calibrator_val_no_feedback,NULL,PennController,129,_Trial_,End,1736439626435,undefined,1134,industry,negative,positive,A,NULL
1736440309,77df19ca02b523ce7a45f54570c73552,PennController,116,0,calibrator_val_no_feedback,NULL,PennController,127,_Trial_,Start,1736439626437,undefined,1307,hat,negative,positive,A,NULL
1736440309,77df19ca02b523ce7a45f54570c73552,PennController,116,0,calibrator_val_no_feedback,NULL,PennController,127,_Header_,Start,1736439626437,undefined,1307,hat,negative,positive,A,NULL
1736440309,77df19ca02b523ce7a45f54570c73552,PennController,116,0,calibrator_val_no_feedback,NULL,PennController,127,_Header_,End,1736439626689,undefined,1307,hat,negative,positive,A,NULL
1736440309,77df19ca02b523ce7a45f54570c73552,PennController,116,0,calibrator_val_no_feedback,NULL,Selector,unnamed-Selector,Selection,positive,1736439628501,undefined,1307,hat,negative,positive,A,negative;positive
1736440309,77df19ca02b523ce7a45f54570c73552,PennController,116,0,calibrator_val_no_feedback,NULL,PennController,127,_Trial_,End,1736439628503,undefined,1307,hat,negative,positive,A,NULL
1736440309,77df19ca02b523ce7a45f54570c73552,PennController,121,0,calibrator_val_no_feedback,NULL,PennController,132,_Trial_,Start,1736439628506,undefined,1514,jail,negative,positive,A,NULL
1736440309,77df19ca02b523ce7a45f54570c73552,PennController,121,0,calibrator_val_no_feedback,NULL,PennController,132,_Header_,Start,1736439628506,undefined,1514,jail,negative,positive,A,NULL
1736440309,77df19ca02b523ce7a45f54570c73552,PennController,121,0,calibrator_val_no_feedback,NULL,PennController,132,_Header_,End,1736439628757,undefined,1514,jail,negative,positive,A,NULL
1736440309,77df19ca02b523ce7a45f54570c73552,PennController,121,0,calibrator_val_no_feedback,NULL,Selector,unnamed-Selector,Selection,negative,1736439630774,undefined,1514,jail,negative,positive,A,negative;positive
1736440309,77df19ca02b523ce7a45f54570c73552,PennController,121,0,calibrator_val_no_feedback,NULL,PennController,132,_Trial_,End,1736439630776,undefined,1514,jail,negative,positive,A,NULL
1736440309,77df19ca02b523ce7a45f54570c73552,PennController,123,0,calibrator_val_no_feedback,NULL,PennController,134,_Trial_,Start,1736439630779,undefined,899,kitten,negative,positive,A,NULL
1736440309,77df19ca02b523ce7a45f54570c73552,PennController,123,0,calibrator_val_no_feedback,NULL,PennController,134,_Header_,Start,1736439630779,undefined,899,kitten,negative,positive,A,NULL
1736440309,77df19ca02b523ce7a45f54570c73552,PennController,123,0,calibrator_val_no_feedback,NULL,PennController,134,_Header_,End,1736439631031,undefined,899,kitten,negative,positive,A,NULL
1736440309,77df19ca02b523ce7a45f54570c73552,PennController,123,0,calibrator_val_no_feedback,NULL,Selector,unnamed-Selector,Selection,positive,1736439632437,undefined,899,kitten,negative,positive,A,negative;positive
1736440309,77df19ca02b523ce7a45f54570c73552,PennController,123,0,calibrator_val_no_feedback,NULL,PennController,134,_Trial_,End,1736439632438,undefined,899,kitten,negative,positive,A,NULL
1736440309,77df19ca02b523ce7a45f54570c73552,PennController,114,0,calibrator_val_no_feedback,NULL,PennController,125,_Trial_,Start,1736439632439,undefined,2253,free,negative,positive,A,NULL
1736440309,77df19ca02b523ce7a45f54570c73552,PennController,114,0,calibrator_val_no_feedback,NULL,PennController,125,_Header_,Start,1736439632439,undefined,2253,free,negative,positive,A,NULL
1736440309,77df19ca02b523ce7a45f54570c73552,PennController,114,0,calibrator_val_no_feedback,NULL,PennController,125,_Header_,End,1736439632691,undefined,2253,free,negative,positive,A,NULL
1736440309,77df19ca02b523ce7a45f54570c73552,PennController,114,0,calibrator_val_no_feedback,NULL,Selector,unnamed-Selector,Selection,negative,1736439635450,undefined,2253,free,negative,positive,A,negative;positive
1736440309,77df19ca02b523ce7a45f54570c73552,PennController,114,0,calibrator_val_no_feedback,NULL,PennController,125,_Trial_,End,1736439635452,undefined,2253,free,negative,positive,A,NULL
1736440309,77df19ca02b523ce7a45f54570c73552,PennController,117,0,calibrator_val_no_feedback,NULL,PennController,128,_Trial_,Start,1736439635455,undefined,2203,icebox,negative,positive,A,NULL
1736440309,77df19ca02b523ce7a45f54570c73552,PennController,117,0,calibrator_val_no_feedback,NULL,PennController,128,_Header_,Start,1736439635455,undefined,2203,icebox,negative,positive,A,NULL
1736440309,77df19ca02b523ce7a45f54570c73552,PennController,117,0,calibrator_val_no_feedback,NULL,PennController,128,_Header_,End,1736439635708,undefined,2203,icebox,negative,positive,A,NULL
1736440309,77df19ca02b523ce7a45f54570c73552,PennController,117,0,calibrator_val_no_feedback,NULL,Selector,unnamed-Selector,Selection,positive,1736439638419,undefined,2203,icebox,negative,positive,A,negative;positive
1736440309,77df19ca02b523ce7a45f54570c73552,PennController,117,0,calibrator_val_no_feedback,NULL,PennController,128,_Trial_,End,1736439638422,undefined,2203,icebox,negative,positive,A,NULL
1736440309,77df19ca02b523ce7a45f54570c73552,PennController,122,0,calibrator_val_no_feedback,NULL,PennController,133,_Trial_,Start,1736439638424,undefined,2027,joke,negative,positive,A,NULL
1736440309,77df19ca02b523ce7a45f54570c73552,PennController,122,0,calibrator_val_no_feedback,NULL,PennController,133,_Header_,Start,1736439638424,undefined,2027,joke,negative,positive,A,NULL
1736440309,77df19ca02b523ce7a45f54570c73552,PennController,122,0,calibrator_val_no_feedback,NULL,PennController,133,_Header_,End,1736439638674,undefined,2027,joke,negative,positive,A,NULL
1736440309,77df19ca02b523ce7a45f54570c73552,PennController,122,0,calibrator_val_no_feedback,NULL,Selector,unnamed-Selector,Selection,positive,1736439641206,undefined,2027,joke,negative,positive,A,negative;positive
1736440309,77df19ca02b523ce7a45f54570c73552,PennController,122,0,calibrator_val_no_feedback,NULL,PennController,133,_Trial_,End,1736439641207,undefined,2027,joke,negative,positive,A,NULL
1736440309,77df19ca02b523ce7a45f54570c73552,PennController,119,0,calibrator_val_no_feedback,NULL,PennController,130,_Trial_,Start,1736439641208,undefined,2915,insecure,negative,positive,A,NULL
1736440309,77df19ca02b523ce7a45f54570c73552,PennController,119,0,calibrator_val_no_feedback,NULL,PennController,130,_Header_,Start,1736439641208,undefined,2915,insecure,negative,positive,A,NULL
1736440309,77df19ca02b523ce7a45f54570c73552,PennController,119,0,calibrator_val_no_feedback,NULL,PennController,130,_Header_,End,1736439641458,undefined,2915,insecure,negative,positive,A,NULL
1736440309,77df19ca02b523ce7a45f54570c73552,PennController,119,0,calibrator_val_no_feedback,NULL,Selector,unnamed-Selector,Selection,negative,1736439644877,undefined,2915,insecure,negative,positive,A,negative;positive
1736440309,77df19ca02b523ce7a45f54570c73552,PennController,119,0,calibrator_val_no_feedback,NULL,PennController,130,_Trial_,End,1736439644879,undefined,2915,insecure,negative,positive,A,NULL
1736440309,77df19ca02b523ce7a45f54570c73552,PennController,115,0,calibrator_val_no_feedback,NULL,PennController,126,_Trial_,Start,1736439644881,undefined,2320,grin,negative,positive,A,NULL
1736440309,77df19ca02b523ce7a45f54570c73552,PennController,115,0,calibrator_val_no_feedback,NULL,PennController,126,_Header_,Start,1736439644881,undefined,2320,grin,negative,positive,A,NULL
1736440309,77df19ca02b523ce7a45f54570c73552,PennController,115,0,calibrator_val_no_feedback,NULL,PennController,126,_Header_,End,1736439645132,undefined,2320,grin,negative,positive,A,NULL
1736440309,77df19ca02b523ce7a45f54570c73552,PennController,115,0,calibrator_val_no_feedback,NULL,Selector,unnamed-Selector,Selection,negative,1736439647960,undefined,2320,grin,negative,positive,A,negative;positive
1736440309,77df19ca02b523ce7a45f54570c73552,PennController,115,0,calibrator_val_no_feedback,NULL,PennController,126,_Trial_,End,1736439647962,undefined,2320,grin,negative,positive,A,NULL
# 13. Comments.
1736440309,77df19ca02b523ce7a45f54570c73552,PennController,130,0,endinstructions_val,NULL,PennController,8,_Trial_,Start,1736439647964,NULL
1736440309,77df19ca02b523ce7a45f54570c73552,PennController,130,0,endinstructions_val,NULL,PennController,8,_Header_,Start,1736439647964,NULL
1736440309,77df19ca02b523ce7a45f54570c73552,PennController,130,0,endinstructions_val,NULL,PennController,8,_Header_,End,1736439648218,NULL
1736440309,77df19ca02b523ce7a45f54570c73552,PennController,130,0,endinstructions_val,NULL,PennController,8,_Trial_,End,1736439654353,NULL
# 13. ID.
# 14. ReactionTime.
# 15. Word.
# 16. ConcValCombo.
# 17. Key_value_F.
# 18. Key_value_J.
# 19. Group.
# 20. Comments.
1736440309,77df19ca02b523ce7a45f54570c73552,PennController,44,0,test_val,NULL,PennController,55,_Trial_,Start,1736439654355,undefined,1960,fascism,abstract-negative,positive,negative,B,NULL
1736440309,77df19ca02b523ce7a45f54570c73552,PennController,44,0,test_val,NULL,PennController,55,_Header_,Start,1736439654355,undefined,1960,fascism,abstract-negative,positive,negative,B,NULL
1736440309,77df19ca02b523ce7a45f54570c73552,PennController,44,0,test_val,NULL,PennController,55,_Header_,End,1736439654607,undefined,1960,fascism,abstract-negative,positive,negative,B,NULL
1736440309,77df19ca02b523ce7a45f54570c73552,PennController,44,0,test_val,NULL,Selector,unnamed-Selector,Selection,positive,1736439657072,undefined,1960,fascism,abstract-negative,positive,negative,B,positive;negative
1736440309,77df19ca02b523ce7a45f54570c73552,PennController,44,0,test_val,NULL,PennController,55,_Trial_,End,1736439657075,undefined,1960,fascism,abstract-negative,positive,negative,B,NULL
1736440309,77df19ca02b523ce7a45f54570c73552,PennController,51,0,test_val,NULL,PennController,62,_Trial_,Start,1736439657077,undefined,1272,revenge,abstract-negative,positive,negative,B,NULL
1736440309,77df19ca02b523ce7a45f54570c73552,PennController,51,0,test_val,NULL,PennController,62,_Header_,Start,1736439657077,undefined,1272,revenge,abstract-negative,positive,negative,B,NULL
1736440309,77df19ca02b523ce7a45f54570c73552,PennController,51,0,test_val,NULL,PennController,62,_Header_,End,1736439657327,undefined,1272,revenge,abstract-negative,positive,negative,B,NULL
1736440309,77df19ca02b523ce7a45f54570c73552,PennController,51,0,test_val,NULL,Selector,unnamed-Selector,Selection,negative,1736439659102,undefined,1272,revenge,abstract-negative,positive,negative,B,positive;negative
1736440309,77df19ca02b523ce7a45f54570c73552,PennController,51,0,test_val,NULL,PennController,62,_Trial_,End,1736439659105,undefined,1272,revenge,abstract-negative,positive,negative,B,NULL
1736440309,77df19ca02b523ce7a45f54570c73552,PennController,60,0,test_val,NULL,PennController,71,_Trial_,Start,1736439659107,undefined,1801,blanket,concrete-positive,positive,negative,B,NULL
1736440309,77df19ca02b523ce7a45f54570c73552,PennController,60,0,test_val,NULL,PennController,71,_Header_,Start,1736439659107,undefined,1801,blanket,concrete-positive,positive,negative,B,NULL
1736440309,77df19ca02b523ce7a45f54570c73552,PennController,60,0,test_val,NULL,PennController,71,_Header_,End,1736439659357,undefined,1801,blanket,concrete-positive,positive,negative,B,NULL
1736440309,77df19ca02b523ce7a45f54570c73552,PennController,60,0,test_val,NULL,Selector,unnamed-Selector,Selection,positive,1736439661662,undefined,1801,blanket,concrete-positive,positive,negative,B,positive;negative
1736440309,77df19ca02b523ce7a45f54570c73552,PennController,60,0,test_val,NULL,PennController,71,_Trial_,End,1736439661665,undefined,1801,blanket,concrete-positive,positive,negative,B,NULL
1736440309,77df19ca02b523ce7a45f54570c73552,PennController,54,0,test_val,NULL,PennController,65,_Trial_,Start,1736439661667,undefined,1354,pizza,concrete-positive,positive,negative,B,NULL
1736440309,77df19ca02b523ce7a45f54570c73552,PennController,54,0,test_val,NULL,PennController,65,_Header_,Start,1736439661667,undefined,1354,pizza,concrete-positive,positive,negative,B,NULL
1736440309,77df19ca02b523ce7a45f54570c73552,PennController,54,0,test_val,NULL,PennController,65,_Header_,End,1736439661919,undefined,1354,pizza,concrete-positive,positive,negative,B,NULL
1736440309,77df19ca02b523ce7a45f54570c73552,PennController,54,0,test_val,NULL,Selector,unnamed-Selector,Selection,positive,1736439663778,undefined,1354,pizza,concrete-positive,positive,negative,B,positive;negative
1736440309,77df19ca02b523ce7a45f54570c73552,PennController,54,0,test_val,NULL,PennController,65,_Trial_,End,1736439663779,undefined,1354,pizza,concrete-positive,positive,negative,B,NULL
1736440309,77df19ca02b523ce7a45f54570c73552,PennController,71,0,test_val,NULL,PennController,82,_Trial_,Start,1736439663780,undefined,1150,wellness,abstract-positive,positive,negative,B,NULL
1736440309,77df19ca02b523ce7a45f54570c73552,PennController,71,0,test_val,NULL,PennController,82,_Header_,Start,1736439663780,undefined,1150,wellness,abstract-positive,positive,negative,B,NULL
1736440309,77df19ca02b523ce7a45f54570c73552,PennController,71,0,test_val,NULL,PennController,82,_Header_,End,1736439664034,undefined,1150,wellness,abstract-positive,positive,negative,B,NULL
1736440309,77df19ca02b523ce7a45f54570c73552,PennController,71,0,test_val,NULL,Selector,unnamed-Selector,Selection,positive,1736439665692,undefined,1150,wellness,abstract-positive,positive,negative,B,positive;negative
1736440309,77df19ca02b523ce7a45f54570c73552,PennController,71,0,test_val,NULL,PennController,82,_Trial_,End,1736439665693,undefined,1150,wellness,abstract-positive,positive,negative,B,NULL
1736440309,77df19ca02b523ce7a45f54570c73552,PennController,65,0,test_val,NULL,PennController,76,_Trial_,Start,1736439665694,undefined,955,greatness,abstract-positive,positive,negative,B,NULL
1736440309,77df19ca02b523ce7a45f54570c73552,PennController,65,0,test_val,NULL,PennController,76,_Header_,Start,1736439665694,undefined,955,greatness,abstract-positive,positive,negative,B,NULL
1736440309,77df19ca02b523ce7a45f54570c73552,PennController,65,0,test_val,NULL,PennController,76,_Header_,End,1736439665946,undefined,955,greatness,abstract-positive,positive,negative,B,NULL
1736440309,77df19ca02b523ce7a45f54570c73552,PennController,65,0,test_val,NULL,Selector,unnamed-Selector,Selection,positive,1736439667404,undefined,955,greatness,abstract-positive,positive,negative,B,positive;negative
1736440309,77df19ca02b523ce7a45f54570c73552,PennController,65,0,test_val,NULL,PennController,76,_Trial_,End,1736439667407,undefined,955,greatness,abstract-positive,positive,negative,B,NULL
1736440309,77df19ca02b523ce7a45f54570c73552,PennController,79,0,test_val,NULL,PennController,90,_Trial_,Start,1736439667409,undefined,1265,cockroach,concrete-negative,positive,negative,B,NULL
1736440309,77df19ca02b523ce7a45f54570c73552,PennController,79,0,test_val,NULL,PennController,90,_Header_,Start,1736439667409,undefined,1265,cockroach,concrete-negative,positive,negative,B,NULL
1736440309,77df19ca02b523ce7a45f54570c73552,PennController,79,0,test_val,NULL,PennController,90,_Header_,End,1736439667660,undefined,1265,cockroach,concrete-negative,positive,negative,B,NULL
1736440309,77df19ca02b523ce7a45f54570c73552,PennController,79,0,test_val,NULL,Selector,unnamed-Selector,Selection,negative,1736439669429,undefined,1265,cockroach,concrete-negative,positive,negative,B,positive;negative
1736440309,77df19ca02b523ce7a45f54570c73552,PennController,79,0,test_val,NULL,PennController,90,_Trial_,End,1736439669432,undefined,1265,cockroach,concrete-negative,positive,negative,B,NULL
1736440309,77df19ca02b523ce7a45f54570c73552,PennController,57,0,test_val,NULL,PennController,68,_Trial_,Start,1736439669434,undefined,1820,duckling,concrete-positive,positive,negative,B,NULL
1736440309,77df19ca02b523ce7a45f54570c73552,PennController,57,0,test_val,NULL,PennController,68,_Header_,Start,1736439669434,undefined,1820,duckling,concrete-positive,positive,negative,B,NULL
1736440309,77df19ca02b523ce7a45f54570c73552,PennController,57,0,test_val,NULL,PennController,68,_Header_,End,1736439669686,undefined,1820,duckling,concrete-positive,positive,negative,B,NULL
1736440309,77df19ca02b523ce7a45f54570c73552,PennController,57,0,test_val,NULL,Selector,unnamed-Selector,Selection,positive,1736439672013,undefined,1820,duckling,concrete-positive,positive,negative,B,positive;negative
1736440309,77df19ca02b523ce7a45f54570c73552,PennController,57,0,test_val,NULL,PennController,68,_Trial_,End,1736439672015,undefined,1820,duckling,concrete-positive,positive,negative,B,NULL
1736440309,77df19ca02b523ce7a45f54570c73552,PennController,49,0,test_val,NULL,PennController,60,_Trial_,Start,1736439672017,undefined,1934,madness,abstract-negative,positive,negative,B,NULL
1736440309,77df19ca02b523ce7a45f54570c73552,PennController,49,0,test_val,NULL,PennController,60,_Header_,Start,1736439672017,undefined,1934,madness,abstract-negative,positive,negative,B,NULL
1736440309,77df19ca02b523ce7a45f54570c73552,PennController,49,0,test_val,NULL,PennController,60,_Header_,End,1736439672270,undefined,1934,madness,abstract-negative,positive,negative,B,NULL
1736440309,77df19ca02b523ce7a45f54570c73552,PennController,49,0,test_val,NULL,Selector,unnamed-Selector,Selection,negative,1736439674707,undefined,1934,madness,abstract-negative,positive,negative,B,positive;negative
1736440309,77df19ca02b523ce7a45f54570c73552,PennController,49,0,test_val,NULL,PennController,60,_Trial_,End,1736439674708,undefined,1934,madness,abstract-negative,positive,negative,B,NULL
1736440309,77df19ca02b523ce7a45f54570c73552,PennController,66,0,test_val,NULL,PennController,77,_Trial_,Start,1736439674708,undefined,1859,fondness,abstract-positive,positive,negative,B,NULL
1736440309,77df19ca02b523ce7a45f54570c73552,PennController,66,0,test_val,NULL,PennController,77,_Header_,Start,1736439674708,undefined,1859,fondness,abstract-positive,positive,negative,B,NULL
1736440309,77df19ca02b523ce7a45f54570c73552,PennController,66,0,test_val,NULL,PennController,77,_Header_,End,1736439674958,undefined,1859,fondness,abstract-positive,positive,negative,B,NULL
1736440309,77df19ca02b523ce7a45f54570c73552,PennController,66,0,test_val,NULL,Selector,unnamed-Selector,Selection,positive,1736439677322,undefined,1859,fondness,abstract-positive,positive,negative,B,positive;negative
1736440309,77df19ca02b523ce7a45f54570c73552,PennController,66,0,test_val,NULL,PennController,77,_Trial_,End,1736439677325,undefined,1859,fondness,abstract-positive,positive,negative,B,NULL
1736440309,77df19ca02b523ce7a45f54570c73552,PennController,62,0,test_val,NULL,PennController,73,_Trial_,Start,1736439677327,undefined,1360,pancake,concrete-positive,positive,negative,B,NULL
1736440309,77df19ca02b523ce7a45f54570c73552,PennController,62,0,test_val,NULL,PennController,73,_Header_,Start,1736439677327,undefined,1360,pancake,concrete-positive,positive,negative,B,NULL
1736440309,77df19ca02b523ce7a45f54570c73552,PennController,62,0,test_val,NULL,PennController,73,_Header_,End,1736439677580,undefined,1360,pancake,concrete-positive,positive,negative,B,NULL
1736440309,77df19ca02b523ce7a45f54570c73552,PennController,62,0,test_val,NULL,Selector,unnamed-Selector,Selection,positive,1736439679442,undefined,1360,pancake,concrete-positive,positive,negative,B,positive;negative
1736440309,77df19ca02b523ce7a45f54570c73552,PennController,62,0,test_val,NULL,PennController,73,_Trial_,End,1736439679445,undefined,1360,pancake,concrete-positive,positive,negative,B,NULL
1736440309,77df19ca02b523ce7a45f54570c73552,PennController,72,0,test_val,NULL,PennController,83,_Trial_,Start,1736439679447,undefined,1549,justice,abstract-positive,positive,negative,B,NULL
1736440309,77df19ca02b523ce7a45f54570c73552,PennController,72,0,test_val,NULL,PennController,83,_Header_,Start,1736439679447,undefined,1549,justice,abstract-positive,positive,negative,B,NULL
1736440309,77df19ca02b523ce7a45f54570c73552,PennController,72,0,test_val,NULL,PennController,83,_Header_,End,1736439679702,undefined,1549,justice,abstract-positive,positive,negative,B,NULL
1736440309,77df19ca02b523ce7a45f54570c73552,PennController,72,0,test_val,NULL,Selector,unnamed-Selector,Selection,positive,1736439681755,undefined,1549,justice,abstract-positive,positive,negative,B,positive;negative
1736440309,77df19ca02b523ce7a45f54570c73552,PennController,72,0,test_val,NULL,PennController,83,_Trial_,End,1736439681757,undefined,1549,justice,abstract-positive,positive,negative,B,NULL
1736440309,77df19ca02b523ce7a45f54570c73552,PennController,56,0,test_val,NULL,PennController,67,_Trial_,Start,1736439681759,undefined,1555,doughnut,concrete-positive,positive,negative,B,NULL
1736440309,77df19ca02b523ce7a45f54570c73552,PennController,56,0,test_val,NULL,PennController,67,_Header_,Start,1736439681759,undefined,1555,doughnut,concrete-positive,positive,negative,B,NULL
1736440309,77df19ca02b523ce7a45f54570c73552,PennController,56,0,test_val,NULL,PennController,67,_Header_,End,1736439682012,undefined,1555,doughnut,concrete-positive,positive,negative,B,NULL
1736440309,77df19ca02b523ce7a45f54570c73552,PennController,56,0,test_val,NULL,Selector,unnamed-Selector,Selection,positive,1736439684073,undefined,1555,doughnut,concrete-positive,positive,negative,B,positive;negative
1736440309,77df19ca02b523ce7a45f54570c73552,PennController,56,0,test_val,NULL,PennController,67,_Trial_,End,1736439684075,undefined,1555,doughnut,concrete-positive,positive,negative,B,NULL
1736440309,77df19ca02b523ce7a45f54570c73552,PennController,55,0,test_val,NULL,PennController,66,_Trial_,Start,1736439684077,undefined,1736,popcorn,concrete-positive,positive,negative,B,NULL
1736440309,77df19ca02b523ce7a45f54570c73552,PennController,55,0,test_val,NULL,PennController,66,_Header_,Start,1736439684077,undefined,1736,popcorn,concrete-positive,positive,negative,B,NULL
1736440309,77df19ca02b523ce7a45f54570c73552,PennController,55,0,test_val,NULL,PennController,66,_Header_,End,1736439684328,undefined,1736,popcorn,concrete-positive,positive,negative,B,NULL
1736440309,77df19ca02b523ce7a45f54570c73552,PennController,55,0,test_val,NULL,Selector,unnamed-Selector,Selection,positive,1736439686569,undefined,1736,popcorn,concrete-positive,positive,negative,B,positive;negative
1736440309,77df19ca02b523ce7a45f54570c73552,PennController,55,0,test_val,NULL,PennController,66,_Trial_,End,1736439686571,undefined,1736,popcorn,concrete-positive,positive,negative,B,NULL
1736440309,77df19ca02b523ce7a45f54570c73552,PennController,53,0,test_val,NULL,PennController,64,_Trial_,Start,1736439686573,undefined,1536,bummer,abstract-negative,positive,negative,B,NULL
1736440309,77df19ca02b523ce7a45f54570c73552,PennController,53,0,test_val,NULL,PennController,64,_Header_,Start,1736439686573,undefined,1536,bummer,abstract-negative,positive,negative,B,NULL
1736440309,77df19ca02b523ce7a45f54570c73552,PennController,53,0,test_val,NULL,PennController,64,_Header_,End,1736439686824,undefined,1536,bummer,abstract-negative,positive,negative,B,NULL
1736440309,77df19ca02b523ce7a45f54570c73552,PennController,53,0,test_val,NULL,Selector,unnamed-Selector,Selection,negative,1736439688865,undefined,1536,bummer,abstract-negative,positive,negative,B,positive;negative
1736440309,77df19ca02b523ce7a45f54570c73552,PennController,53,0,test_val,NULL,PennController,64,_Trial_,End,1736439688867,undefined,1536,bummer,abstract-negative,positive,negative,B,NULL
1736440309,77df19ca02b523ce7a45f54570c73552,PennController,76,0,test_val,NULL,PennController,87,_Trial_,Start,1736439688869,undefined,1489,rapist,concrete-negative,positive,negative,B,NULL
1736440309,77df19ca02b523ce7a45f54570c73552,PennController,76,0,test_val,NULL,PennController,87,_Header_,Start,1736439688869,undefined,1489,rapist,concrete-negative,positive,negative,B,NULL
1736440309,77df19ca02b523ce7a45f54570c73552,PennController,76,0,test_val,NULL,PennController,87,_Header_,End,1736439689122,undefined,1489,rapist,concrete-negative,positive,negative,B,NULL
1736440309,77df19ca02b523ce7a45f54570c73552,PennController,76,0,test_val,NULL,Selector,unnamed-Selector,Selection,negative,1736439691115,undefined,1489,rapist,concrete-negative,positive,negative,B,positive;negative
1736440309,77df19ca02b523ce7a45f54570c73552,PennController,76,0,test_val,NULL,PennController,87,_Trial_,End,1736439691117,undefined,1489,rapist,concrete-negative,positive,negative,B,NULL
1736440309,77df19ca02b523ce7a45f54570c73552,PennController,77,0,test_val,NULL,PennController,88,_Trial_,Start,1736439691119,undefined,2032,traffic,concrete-negative,positive,negative,B,NULL
1736440309,77df19ca02b523ce7a45f54570c73552,PennController,77,0,test_val,NULL,PennController,88,_Header_,Start,1736439691119,undefined,2032,traffic,concrete-negative,positive,negative,B,NULL
1736440309,77df19ca02b523ce7a45f54570c73552,PennController,77,0,test_val,NULL,PennController,88,_Header_,End,1736439691370,undefined,2032,traffic,concrete-negative,positive,negative,B,NULL
1736440309,77df19ca02b523ce7a45f54570c73552,PennController,77,0,test_val,NULL,Selector,unnamed-Selector,Selection,positive,1736439693905,undefined,2032,traffic,concrete-negative,positive,negative,B,positive;negative
1736440309,77df19ca02b523ce7a45f54570c73552,PennController,77,0,test_val,NULL,PennController,88,_Trial_,End,1736439693907,undefined,2032,traffic,concrete-negative,positive,negative,B,NULL
1736440309,77df19ca02b523ce7a45f54570c73552,PennController,47,0,test_val,NULL,PennController,58,_Trial_,Start,1736439693910,undefined,1511,breakup,abstract-negative,positive,negative,B,NULL
1736440309,77df19ca02b523ce7a45f54570c73552,PennController,47,0,test_val,NULL,PennController,58,_Header_,Start,1736439693910,undefined,1511,breakup,abstract-negative,positive,negative,B,NULL
1736440309,77df19ca02b523ce7a45f54570c73552,PennController,47,0,test_val,NULL,PennController,58,_Header_,End,1736439694161,undefined,1511,breakup,abstract-negative,positive,negative,B,NULL
1736440309,77df19ca02b523ce7a45f54570c73552,PennController,47,0,test_val,NULL,Selector,unnamed-Selector,Selection,negative,1736439696177,undefined,1511,breakup,abstract-negative,positive,negative,B,positive;negative
1736440309,77df19ca02b523ce7a45f54570c73552,PennController,47,0,test_val,NULL,PennController,58,_Trial_,End,1736439696180,undefined,1511,breakup,abstract-negative,positive,negative,B,NULL
1736440309,77df19ca02b523ce7a45f54570c73552,PennController,68,0,test_val,NULL,PennController,79,_Trial_,Start,1736439696182,undefined,1405,goodness,abstract-positive,positive,negative,B,NULL
1736440309,77df19ca02b523ce7a45f54570c73552,PennController,68,0,test_val,NULL,PennController,79,_Header_,Start,1736439696182,undefined,1405,goodness,abstract-positive,positive,negative,B,NULL
1736440309,77df19ca02b523ce7a45f54570c73552,PennController,68,0,test_val,NULL,PennController,79,_Header_,End,1736439696433,undefined,1405,goodness,abstract-positive,positive,negative,B,NULL
1736440309,77df19ca02b523ce7a45f54570c73552,PennController,68,0,test_val,NULL,Selector,unnamed-Selector,Selection,positive,1736439698344,undefined,1405,goodness,abstract-positive,positive,negative,B,positive;negative
1736440309,77df19ca02b523ce7a45f54570c73552,PennController,68,0,test_val,NULL,PennController,79,_Trial_,End,1736439698346,undefined,1405,goodness,abstract-positive,positive,negative,B,NULL
1736440309,77df19ca02b523ce7a45f54570c73552,PennController,52,0,test_val,NULL,PennController,63,_Trial_,Start,1736439698349,undefined,1683,sadness,abstract-negative,positive,negative,B,NULL
1736440309,77df19ca02b523ce7a45f54570c73552,PennController,52,0,test_val,NULL,PennController,63,_Header_,Start,1736439698349,undefined,1683,sadness,abstract-negative,positive,negative,B,NULL
1736440309,77df19ca02b523ce7a45f54570c73552,PennController,52,0,test_val,NULL,PennController,63,_Header_,End,1736439698603,undefined,1683,sadness,abstract-negative,positive,negative,B,NULL
1736440309,77df19ca02b523ce7a45f54570c73552,PennController,52,0,test_val,NULL,Selector,unnamed-Selector,Selection,negative,1736439700790,undefined,1683,sadness,abstract-negative,positive,negative,B,positive;negative
1736440309,77df19ca02b523ce7a45f54570c73552,PennController,52,0,test_val,NULL,PennController,63,_Trial_,End,1736439700792,undefined,1683,sadness,abstract-negative,positive,negative,B,NULL
1736440309,77df19ca02b523ce7a45f54570c73552,PennController,82,0,test_val,NULL,PennController,93,_Trial_,Start,1736439700795,undefined,1804,lynching,concrete-negative,positive,negative,B,NULL
1736440309,77df19ca02b523ce7a45f54570c73552,PennController,82,0,test_val,NULL,PennController,93,_Header_,Start,1736439700795,undefined,1804,lynching,concrete-negative,positive,negative,B,NULL
1736440309,77df19ca02b523ce7a45f54570c73552,PennController,82,0,test_val,NULL,PennController,93,_Header_,End,1736439701047,undefined,1804,lynching,concrete-negative,positive,negative,B,NULL
1736440309,77df19ca02b523ce7a45f54570c73552,PennController,82,0,test_val,NULL,Selector,unnamed-Selector,Selection,negative,1736439703355,undefined,1804,lynching,concrete-negative,positive,negative,B,positive;negative
1736440309,77df19ca02b523ce7a45f54570c73552,PennController,82,0,test_val,NULL,PennController,93,_Trial_,End,1736439703359,undefined,1804,lynching,concrete-negative,positive,negative,B,NULL
1736440309,77df19ca02b523ce7a45f54570c73552,PennController,80,0,test_val,NULL,PennController,91,_Trial_,Start,1736439703361,undefined,1757,bedpan,concrete-negative,positive,negative,B,NULL
1736440309,77df19ca02b523ce7a45f54570c73552,PennController,80,0,test_val,NULL,PennController,91,_Header_,Start,1736439703361,undefined,1757,bedpan,concrete-negative,positive,negative,B,NULL
1736440309,77df19ca02b523ce7a45f54570c73552,PennController,80,0,test_val,NULL,PennController,91,_Header_,End,1736439703614,undefined,1757,bedpan,concrete-negative,positive,negative,B,NULL
1736440309,77df19ca02b523ce7a45f54570c73552,PennController,80,0,test_val,NULL,Selector,unnamed-Selector,Selection,negative,1736439705875,undefined,1757,bedpan,concrete-negative,positive,negative,B,positive;negative
1736440309,77df19ca02b523ce7a45f54570c73552,PennController,80,0,test_val,NULL,PennController,91,_Trial_,End,1736439705877,undefined,1757,bedpan,concrete-negative,positive,negative,B,NULL
1736440309,77df19ca02b523ce7a45f54570c73552,PennController,67,0,test_val,NULL,PennController,78,_Trial_,Start,1736439705879,undefined,1599,courage,abstract-positive,positive,negative,B,NULL
1736440309,77df19ca02b523ce7a45f54570c73552,PennController,67,0,test_val,NULL,PennController,78,_Header_,Start,1736439705879,undefined,1599,courage,abstract-positive,positive,negative,B,NULL
1736440309,77df19ca02b523ce7a45f54570c73552,PennController,67,0,test_val,NULL,PennController,78,_Header_,End,1736439706133,undefined,1599,courage,abstract-positive,positive,negative,B,NULL
1736440309,77df19ca02b523ce7a45f54570c73552,PennController,67,0,test_val,NULL,Selector,unnamed-Selector,Selection,positive,1736439708237,undefined,1599,courage,abstract-positive,positive,negative,B,positive;negative
1736440309,77df19ca02b523ce7a45f54570c73552,PennController,67,0,test_val,NULL,PennController,78,_Trial_,End,1736439708240,undefined,1599,courage,abstract-positive,positive,negative,B,NULL
1736440309,77df19ca02b523ce7a45f54570c73552,PennController,64,0,test_val,NULL,PennController,75,_Trial_,Start,1736439708242,undefined,886,wisdom,abstract-positive,positive,negative,B,NULL
1736440309,77df19ca02b523ce7a45f54570c73552,PennController,64,0,test_val,NULL,PennController,75,_Header_,Start,1736439708242,undefined,886,wisdom,abstract-positive,positive,negative,B,NULL
1736440309,77df19ca02b523ce7a45f54570c73552,PennController,64,0,test_val,NULL,PennController,75,_Header_,End,1736439708493,undefined,886,wisdom,abstract-positive,positive,negative,B,NULL
1736440309,77df19ca02b523ce7a45f54570c73552,PennController,64,0,test_val,NULL,Selector,unnamed-Selector,Selection,positive,1736439709885,undefined,886,wisdom,abstract-positive,positive,negative,B,positive;negative
1736440309,77df19ca02b523ce7a45f54570c73552,PennController,64,0,test_val,NULL,PennController,75,_Trial_,End,1736439709887,undefined,886,wisdom,abstract-positive,positive,negative,B,NULL
1736440309,77df19ca02b523ce7a45f54570c73552,PennController,70,0,test_val,NULL,PennController,81,_Trial_,Start,1736439709889,undefined,1330,fairness,abstract-positive,positive,negative,B,NULL
1736440309,77df19ca02b523ce7a45f54570c73552,PennController,70,0,test_val,NULL,PennController,81,_Header_,Start,1736439709889,undefined,1330,fairness,abstract-positive,positive,negative,B,NULL
1736440309,77df19ca02b523ce7a45f54570c73552,PennController,70,0,test_val,NULL,PennController,81,_Header_,End,1736439710141,undefined,1330,fairness,abstract-positive,positive,negative,B,NULL
1736440309,77df19ca02b523ce7a45f54570c73552,PennController,70,0,test_val,NULL,Selector,unnamed-Selector,Selection,positive,1736439711977,undefined,1330,fairness,abstract-positive,positive,negative,B,positive;negative
1736440309,77df19ca02b523ce7a45f54570c73552,PennController,70,0,test_val,NULL,PennController,81,_Trial_,End,1736439711980,undefined,1330,fairness,abstract-positive,positive,negative,B,NULL
1736440309,77df19ca02b523ce7a45f54570c73552,PennController,59,0,test_val,NULL,PennController,70,_Trial_,Start,1736439711982,undefined,1195,dollar,concrete-positive,positive,negative,B,NULL
1736440309,77df19ca02b523ce7a45f54570c73552,PennController,59,0,test_val,NULL,PennController,70,_Header_,Start,1736439711982,undefined,1195,dollar,concrete-positive,positive,negative,B,NULL
1736440309,77df19ca02b523ce7a45f54570c73552,PennController,59,0,test_val,NULL,PennController,70,_Header_,End,1736439712234,undefined,1195,dollar,concrete-positive,positive,negative,B,NULL
1736440309,77df19ca02b523ce7a45f54570c73552,PennController,59,0,test_val,NULL,Selector,unnamed-Selector,Selection,positive,1736439713935,undefined,1195,dollar,concrete-positive,positive,negative,B,positive;negative
1736440309,77df19ca02b523ce7a45f54570c73552,PennController,59,0,test_val,NULL,PennController,70,_Trial_,End,1736439713938,undefined,1195,dollar,concrete-positive,positive,negative,B,NULL
1736440309,77df19ca02b523ce7a45f54570c73552,PennController,58,0,test_val,NULL,PennController,69,_Trial_,Start,1736439713941,undefined,1085,bunny,concrete-positive,positive,negative,B,NULL
1736440309,77df19ca02b523ce7a45f54570c73552,PennController,58,0,test_val,NULL,PennController,69,_Header_,Start,1736439713941,undefined,1085,bunny,concrete-positive,positive,negative,B,NULL
1736440309,77df19ca02b523ce7a45f54570c73552,PennController,58,0,test_val,NULL,PennController,69,_Header_,End,1736439714193,undefined,1085,bunny,concrete-positive,positive,negative,B,NULL
1736440309,77df19ca02b523ce7a45f54570c73552,PennController,58,0,test_val,NULL,Selector,unnamed-Selector,Selection,positive,1736439715780,undefined,1085,bunny,concrete-positive,positive,negative,B,positive;negative
1736440309,77df19ca02b523ce7a45f54570c73552,PennController,58,0,test_val,NULL,PennController,69,_Trial_,End,1736439715782,undefined,1085,bunny,concrete-positive,positive,negative,B,NULL
1736440309,77df19ca02b523ce7a45f54570c73552,PennController,45,0,test_val,NULL,PennController,56,_Trial_,Start,1736439715784,undefined,881,betrayal,abstract-negative,positive,negative,B,NULL
1736440309,77df19ca02b523ce7a45f54570c73552,PennController,45,0,test_val,NULL,PennController,56,_Header_,Start,1736439715784,undefined,881,betrayal,abstract-negative,positive,negative,B,NULL
1736440309,77df19ca02b523ce7a45f54570c73552,PennController,45,0,test_val,NULL,PennController,56,_Header_,End,1736439716036,undefined,881,betrayal,abstract-negative,positive,negative,B,NULL
1736440309,77df19ca02b523ce7a45f54570c73552,PennController,45,0,test_val,NULL,Selector,unnamed-Selector,Selection,negative,1736439717424,undefined,881,betrayal,abstract-negative,positive,negative,B,positive;negative
1736440309,77df19ca02b523ce7a45f54570c73552,PennController,45,0,test_val,NULL,PennController,56,_Trial_,End,1736439717427,undefined,881,betrayal,abstract-negative,positive,negative,B,NULL
1736440309,77df19ca02b523ce7a45f54570c73552,PennController,46,0,test_val,NULL,PennController,57,_Trial_,Start,1736439717427,undefined,1151,hatred,abstract-negative,positive,negative,B,NULL
1736440309,77df19ca02b523ce7a45f54570c73552,PennController,46,0,test_val,NULL,PennController,57,_Header_,Start,1736439717427,undefined,1151,hatred,abstract-negative,positive,negative,B,NULL
1736440309,77df19ca02b523ce7a45f54570c73552,PennController,46,0,test_val,NULL,PennController,57,_Header_,End,1736439717679,undefined,1151,hatred,abstract-negative,positive,negative,B,NULL
1736440309,77df19ca02b523ce7a45f54570c73552,PennController,46,0,test_val,NULL,Selector,unnamed-Selector,Selection,negative,1736439719335,undefined,1151,hatred,abstract-negative,positive,negative,B,positive;negative
1736440309,77df19ca02b523ce7a45f54570c73552,PennController,46,0,test_val,NULL,PennController,57,_Trial_,End,1736439719337,undefined,1151,hatred,abstract-negative,positive,negative,B,NULL
1736440309,77df19ca02b523ce7a45f54570c73552,PennController,48,0,test_val,NULL,PennController,59,_Trial_,Start,1736439719339,undefined,770,loathing,abstract-negative,positive,negative,B,NULL
1736440309,77df19ca02b523ce7a45f54570c73552,PennController,48,0,test_val,NULL,PennController,59,_Header_,Start,1736439719339,undefined,770,loathing,abstract-negative,positive,negative,B,NULL
1736440309,77df19ca02b523ce7a45f54570c73552,PennController,48,0,test_val,NULL,PennController,59,_Header_,End,1736439719591,undefined,770,loathing,abstract-negative,positive,negative,B,NULL
1736440309,77df19ca02b523ce7a45f54570c73552,PennController,48,0,test_val,NULL,Selector,unnamed-Selector,Selection,negative,1736439720864,undefined,770,loathing,abstract-negative,positive,negative,B,positive;negative
1736440309,77df19ca02b523ce7a45f54570c73552,PennController,48,0,test_val,NULL,PennController,59,_Trial_,End,1736439720867,undefined,770,loathing,abstract-negative,positive,negative,B,NULL
1736440309,77df19ca02b523ce7a45f54570c73552,PennController,69,0,test_val,NULL,PennController,80,_Trial_,Start,1736439720869,undefined,883,splendor,abstract-positive,positive,negative,B,NULL
1736440309,77df19ca02b523ce7a45f54570c73552,PennController,69,0,test_val,NULL,PennController,80,_Header_,Start,1736439720869,undefined,883,splendor,abstract-positive,positive,negative,B,NULL
1736440309,77df19ca02b523ce7a45f54570c73552,PennController,69,0,test_val,NULL,PennController,80,_Header_,End,1736439721121,undefined,883,splendor,abstract-positive,positive,negative,B,NULL
1736440309,77df19ca02b523ce7a45f54570c73552,PennController,69,0,test_val,NULL,Selector,unnamed-Selector,Selection,positive,1736439722508,undefined,883,splendor,abstract-positive,positive,negative,B,positive;negative
1736440309,77df19ca02b523ce7a45f54570c73552,PennController,69,0,test_val,NULL,PennController,80,_Trial_,End,1736439722510,undefined,883,splendor,abstract-positive,positive,negative,B,NULL
1736440309,77df19ca02b523ce7a45f54570c73552,PennController,74,0,test_val,NULL,PennController,85,_Trial_,Start,1736439722512,undefined,1821,feces,concrete-negative,positive,negative,B,NULL
1736440309,77df19ca02b523ce7a45f54570c73552,PennController,74,0,test_val,NULL,PennController,85,_Header_,Start,1736439722512,undefined,1821,feces,concrete-negative,positive,negative,B,NULL
1736440309,77df19ca02b523ce7a45f54570c73552,PennController,74,0,test_val,NULL,PennController,85,_Header_,End,1736439722764,undefined,1821,feces,concrete-negative,positive,negative,B,NULL
1736440309,77df19ca02b523ce7a45f54570c73552,PennController,74,0,test_val,NULL,Selector,unnamed-Selector,Selection,positive,1736439725091,undefined,1821,feces,concrete-negative,positive,negative,B,positive;negative
1736440309,77df19ca02b523ce7a45f54570c73552,PennController,74,0,test_val,NULL,PennController,85,_Trial_,End,1736439725093,undefined,1821,feces,concrete-negative,positive,negative,B,NULL
1736440309,77df19ca02b523ce7a45f54570c73552,PennController,73,0,test_val,NULL,PennController,84,_Trial_,Start,1736439725095,undefined,2499,knowledge,abstract-positive,positive,negative,B,NULL
1736440309,77df19ca02b523ce7a45f54570c73552,PennController,73,0,test_val,NULL,PennController,84,_Header_,Start,1736439725095,undefined,2499,knowledge,abstract-positive,positive,negative,B,NULL
1736440309,77df19ca02b523ce7a45f54570c73552,PennController,73,0,test_val,NULL,PennController,84,_Header_,End,1736439725347,undefined,2499,knowledge,abstract-positive,positive,negative,B,NULL
1736440309,77df19ca02b523ce7a45f54570c73552,PennController,73,0,test_val,NULL,Selector,unnamed-Selector,Selection,positive,1736439728353,undefined,2499,knowledge,abstract-positive,positive,negative,B,positive;negative
1736440309,77df19ca02b523ce7a45f54570c73552,PennController,73,0,test_val,NULL,PennController,84,_Trial_,End,1736439728355,undefined,2499,knowledge,abstract-positive,positive,negative,B,NULL
1736440309,77df19ca02b523ce7a45f54570c73552,PennController,81,0,test_val,NULL,PennController,92,_Trial_,Start,1736439728357,undefined,1219,prison,concrete-negative,positive,negative,B,NULL
1736440309,77df19ca02b523ce7a45f54570c73552,PennController,81,0,test_val,NULL,PennController,92,_Header_,Start,1736439728357,undefined,1219,prison,concrete-negative,positive,negative,B,NULL
1736440309,77df19ca02b523ce7a45f54570c73552,PennController,81,0,test_val,NULL,PennController,92,_Header_,End,1736439728610,undefined,1219,prison,concrete-negative,positive,negative,B,NULL
1736440309,77df19ca02b523ce7a45f54570c73552,PennController,81,0,test_val,NULL,Selector,unnamed-Selector,Selection,negative,1736439730335,undefined,1219,prison,concrete-negative,positive,negative,B,positive;negative
1736440309,77df19ca02b523ce7a45f54570c73552,PennController,81,0,test_val,NULL,PennController,92,_Trial_,End,1736439730336,undefined,1219,prison,concrete-negative,positive,negative,B,NULL
1736440309,77df19ca02b523ce7a45f54570c73552,PennController,75,0,test_val,NULL,PennController,86,_Trial_,Start,1736439730337,undefined,1265,maggot,concrete-negative,positive,negative,B,NULL
1736440309,77df19ca02b523ce7a45f54570c73552,PennController,75,0,test_val,NULL,PennController,86,_Header_,Start,1736439730337,undefined,1265,maggot,concrete-negative,positive,negative,B,NULL
1736440309,77df19ca02b523ce7a45f54570c73552,PennController,75,0,test_val,NULL,PennController,86,_Header_,End,1736439730591,undefined,1265,maggot,concrete-negative,positive,negative,B,NULL
1736440309,77df19ca02b523ce7a45f54570c73552,PennController,75,0,test_val,NULL,Selector,unnamed-Selector,Selection,negative,1736439732360,undefined,1265,maggot,concrete-negative,positive,negative,B,positive;negative
1736440309,77df19ca02b523ce7a45f54570c73552,PennController,75,0,test_val,NULL,PennController,86,_Trial_,End,1736439732362,undefined,1265,maggot,concrete-negative,positive,negative,B,NULL
1736440309,77df19ca02b523ce7a45f54570c73552,PennController,78,0,test_val,NULL,PennController,89,_Trial_,Start,1736439732363,undefined,1601,casket,concrete-negative,positive,negative,B,NULL
1736440309,77df19ca02b523ce7a45f54570c73552,PennController,78,0,test_val,NULL,PennController,89,_Header_,Start,1736439732363,undefined,1601,casket,concrete-negative,positive,negative,B,NULL
1736440309,77df19ca02b523ce7a45f54570c73552,PennController,78,0,test_val,NULL,PennController,89,_Header_,End,1736439732615,undefined,1601,casket,concrete-negative,positive,negative,B,NULL
1736440309,77df19ca02b523ce7a45f54570c73552,PennController,78,0,test_val,NULL,Selector,unnamed-Selector,Selection,negative,1736439734721,undefined,1601,casket,concrete-negative,positive,negative,B,positive;negative
1736440309,77df19ca02b523ce7a45f54570c73552,PennController,78,0,test_val,NULL,PennController,89,_Trial_,End,1736439734724,undefined,1601,casket,concrete-negative,positive,negative,B,NULL
1736440309,77df19ca02b523ce7a45f54570c73552,PennController,61,0,test_val,NULL,PennController,72,_Trial_,Start,1736439734726,undefined,1647,chipmunk,concrete-positive,positive,negative,B,NULL
1736440309,77df19ca02b523ce7a45f54570c73552,PennController,61,0,test_val,NULL,PennController,72,_Header_,Start,1736439734726,undefined,1647,chipmunk,concrete-positive,positive,negative,B,NULL
1736440309,77df19ca02b523ce7a45f54570c73552,PennController,61,0,test_val,NULL,PennController,72,_Header_,End,1736439734977,undefined,1647,chipmunk,concrete-positive,positive,negative,B,NULL
1736440309,77df19ca02b523ce7a45f54570c73552,PennController,61,0,test_val,NULL,Selector,unnamed-Selector,Selection,positive,1736439737129,undefined,1647,chipmunk,concrete-positive,positive,negative,B,positive;negative
1736440309,77df19ca02b523ce7a45f54570c73552,PennController,61,0,test_val,NULL,PennController,72,_Trial_,End,1736439737132,undefined,1647,chipmunk,concrete-positive,positive,negative,B,NULL
1736440309,77df19ca02b523ce7a45f54570c73552,PennController,63,0,test_val,NULL,PennController,74,_Trial_,Start,1736439737134,undefined,1178,sandwich,concrete-positive,positive,negative,B,NULL
1736440309,77df19ca02b523ce7a45f54570c73552,PennController,63,0,test_val,NULL,PennController,74,_Header_,Start,1736439737134,undefined,1178,sandwich,concrete-positive,positive,negative,B,NULL
1736440309,77df19ca02b523ce7a45f54570c73552,PennController,63,0,test_val,NULL,PennController,74,_Header_,End,1736439737387,undefined,1178,sandwich,concrete-positive,positive,negative,B,NULL
1736440309,77df19ca02b523ce7a45f54570c73552,PennController,63,0,test_val,NULL,Selector,unnamed-Selector,Selection,positive,1736439739067,undefined,1178,sandwich,concrete-positive,positive,negative,B,positive;negative
1736440309,77df19ca02b523ce7a45f54570c73552,PennController,63,0,test_val,NULL,PennController,74,_Trial_,End,1736439739070,undefined,1178,sandwich,concrete-positive,positive,negative,B,NULL
1736440309,77df19ca02b523ce7a45f54570c73552,PennController,83,0,test_val,NULL,PennController,94,_Trial_,Start,1736439739072,undefined,2813,frostbite,concrete-negative,positive,negative,B,NULL
1736440309,77df19ca02b523ce7a45f54570c73552,PennController,83,0,test_val,NULL,PennController,94,_Header_,Start,1736439739072,undefined,2813,frostbite,concrete-negative,positive,negative,B,NULL
1736440309,77df19ca02b523ce7a45f54570c73552,PennController,83,0,test_val,NULL,PennController,94,_Header_,End,1736439739323,undefined,2813,frostbite,concrete-negative,positive,negative,B,NULL
1736440309,77df19ca02b523ce7a45f54570c73552,PennController,83,0,test_val,NULL,Selector,unnamed-Selector,Selection,negative,1736439742642,undefined,2813,frostbite,concrete-negative,positive,negative,B,positive;negative
1736440309,77df19ca02b523ce7a45f54570c73552,PennController,83,0,test_val,NULL,PennController,94,_Trial_,End,1736439742644,undefined,2813,frostbite,concrete-negative,positive,negative,B,NULL
1736440309,77df19ca02b523ce7a45f54570c73552,PennController,50,0,test_val,NULL,PennController,61,_Trial_,Start,1736439742646,undefined,1018,contempt,abstract-negative,positive,negative,B,NULL
1736440309,77df19ca02b523ce7a45f54570c73552,PennController,50,0,test_val,NULL,PennController,61,_Header_,Start,1736439742646,undefined,1018,contempt,abstract-negative,positive,negative,B,NULL
1736440309,77df19ca02b523ce7a45f54570c73552,PennController,50,0,test_val,NULL,PennController,61,_Header_,End,1736439742898,undefined,1018,contempt,abstract-negative,positive,negative,B,NULL
1736440309,77df19ca02b523ce7a45f54570c73552,PennController,50,0,test_val,NULL,Selector,unnamed-Selector,Selection,negative,1736439744422,undefined,1018,contempt,abstract-negative,positive,negative,B,positive;negative
1736440309,77df19ca02b523ce7a45f54570c73552,PennController,50,0,test_val,NULL,PennController,61,_Trial_,End,1736439744425,undefined,1018,contempt,abstract-negative,positive,negative,B,NULL
1736440309,77df19ca02b523ce7a45f54570c73552,PennController,73,0,test_val,NULL,PennController,84,_Trial_,Start,1736439744427,undefined,1300,knowledge,abstract-positive,positive,negative,B,NULL
1736440309,77df19ca02b523ce7a45f54570c73552,PennController,73,0,test_val,NULL,PennController,84,_Header_,Start,1736439744427,undefined,1300,knowledge,abstract-positive,positive,negative,B,NULL
1736440309,77df19ca02b523ce7a45f54570c73552,PennController,73,0,test_val,NULL,PennController,84,_Header_,End,1736439744685,undefined,1300,knowledge,abstract-positive,positive,negative,B,NULL
1736440309,77df19ca02b523ce7a45f54570c73552,PennController,73,0,test_val,NULL,Selector,unnamed-Selector,Selection,positive,1736439746490,undefined,1300,knowledge,abstract-positive,positive,negative,B,positive;negative
1736440309,77df19ca02b523ce7a45f54570c73552,PennController,73,0,test_val,NULL,PennController,84,_Trial_,End,1736439746491,undefined,1300,knowledge,abstract-positive,positive,negative,B,NULL
1736440309,77df19ca02b523ce7a45f54570c73552,PennController,75,0,test_val,NULL,PennController,86,_Trial_,Start,1736439746492,undefined,977,maggot,concrete-negative,positive,negative,B,NULL
1736440309,77df19ca02b523ce7a45f54570c73552,PennController,75,0,test_val,NULL,PennController,86,_Header_,Start,1736439746492,undefined,977,maggot,concrete-negative,positive,negative,B,NULL
1736440309,77df19ca02b523ce7a45f54570c73552,PennController,75,0,test_val,NULL,PennController,86,_Header_,End,1736439746745,undefined,977,maggot,concrete-negative,positive,negative,B,NULL
1736440309,77df19ca02b523ce7a45f54570c73552,PennController,75,0,test_val,NULL,Selector,unnamed-Selector,Selection,negative,1736439748226,undefined,977,maggot,concrete-negative,positive,negative,B,positive;negative
1736440309,77df19ca02b523ce7a45f54570c73552,PennController,75,0,test_val,NULL,PennController,86,_Trial_,End,1736439748228,undefined,977,maggot,concrete-negative,positive,negative,B,NULL
1736440309,77df19ca02b523ce7a45f54570c73552,PennController,66,0,test_val,NULL,PennController,77,_Trial_,Start,1736439748230,undefined,974,fondness,abstract-positive,positive,negative,B,NULL
1736440309,77df19ca02b523ce7a45f54570c73552,PennController,66,0,test_val,NULL,PennController,77,_Header_,Start,1736439748230,undefined,974,fondness,abstract-positive,positive,negative,B,NULL
1736440309,77df19ca02b523ce7a45f54570c73552,PennController,66,0,test_val,NULL,PennController,77,_Header_,End,1736439748480,undefined,974,fondness,abstract-positive,positive,negative,B,NULL
1736440309,77df19ca02b523ce7a45f54570c73552,PennController,66,0,test_val,NULL,Selector,unnamed-Selector,Selection,positive,1736439749957,undefined,974,fondness,abstract-positive,positive,negative,B,positive;negative
1736440309,77df19ca02b523ce7a45f54570c73552,PennController,66,0,test_val,NULL,PennController,77,_Trial_,End,1736439749960,undefined,974,fondness,abstract-positive,positive,negative,B,NULL
1736440309,77df19ca02b523ce7a45f54570c73552,PennController,67,0,test_val,NULL,PennController,78,_Trial_,Start,1736439749962,undefined,1195,courage,abstract-positive,positive,negative,B,NULL
1736440309,77df19ca02b523ce7a45f54570c73552,PennController,67,0,test_val,NULL,PennController,78,_Header_,Start,1736439749962,undefined,1195,courage,abstract-positive,positive,negative,B,NULL
1736440309,77df19ca02b523ce7a45f54570c73552,PennController,67,0,test_val,NULL,PennController,78,_Header_,End,1736439750214,undefined,1195,courage,abstract-positive,positive,negative,B,NULL
1736440309,77df19ca02b523ce7a45f54570c73552,PennController,67,0,test_val,NULL,Selector,unnamed-Selector,Selection,positive,1736439751915,undefined,1195,courage,abstract-positive,positive,negative,B,positive;negative
1736440309,77df19ca02b523ce7a45f54570c73552,PennController,67,0,test_val,NULL,PennController,78,_Trial_,End,1736439751917,undefined,1195,courage,abstract-positive,positive,negative,B,NULL
1736440309,77df19ca02b523ce7a45f54570c73552,PennController,59,0,test_val,NULL,PennController,70,_Trial_,Start,1736439751919,undefined,950,dollar,concrete-positive,positive,negative,B,NULL
1736440309,77df19ca02b523ce7a45f54570c73552,PennController,59,0,test_val,NULL,PennController,70,_Header_,Start,1736439751919,undefined,950,dollar,concrete-positive,positive,negative,B,NULL
1736440309,77df19ca02b523ce7a45f54570c73552,PennController,59,0,test_val,NULL,PennController,70,_Header_,End,1736439752171,undefined,950,dollar,concrete-positive,positive,negative,B,NULL
1736440309,77df19ca02b523ce7a45f54570c73552,PennController,59,0,test_val,NULL,Selector,unnamed-Selector,Selection,positive,1736439753625,undefined,950,dollar,concrete-positive,positive,negative,B,positive;negative
1736440309,77df19ca02b523ce7a45f54570c73552,PennController,59,0,test_val,NULL,PennController,70,_Trial_,End,1736439753628,undefined,950,dollar,concrete-positive,positive,negative,B,NULL
1736440309,77df19ca02b523ce7a45f54570c73552,PennController,60,0,test_val,NULL,PennController,71,_Trial_,Start,1736439753629,undefined,882,blanket,concrete-positive,positive,negative,B,NULL
1736440309,77df19ca02b523ce7a45f54570c73552,PennController,60,0,test_val,NULL,PennController,71,_Header_,Start,1736439753629,undefined,882,blanket,concrete-positive,positive,negative,B,NULL
1736440309,77df19ca02b523ce7a45f54570c73552,PennController,60,0,test_val,NULL,PennController,71,_Header_,End,1736439753882,undefined,882,blanket,concrete-positive,positive,negative,B,NULL
1736440309,77df19ca02b523ce7a45f54570c73552,PennController,60,0,test_val,NULL,Selector,unnamed-Selector,Selection,positive,1736439755268,undefined,882,blanket,concrete-positive,positive,negative,B,positive;negative
1736440309,77df19ca02b523ce7a45f54570c73552,PennController,60,0,test_val,NULL,PennController,71,_Trial_,End,1736439755270,undefined,882,blanket,concrete-positive,positive,negative,B,NULL
1736440309,77df19ca02b523ce7a45f54570c73552,PennController,62,0,test_val,NULL,PennController,73,_Trial_,Start,1736439755272,undefined,921,pancake,concrete-positive,positive,negative,B,NULL
1736440309,77df19ca02b523ce7a45f54570c73552,PennController,62,0,test_val,NULL,PennController,73,_Header_,Start,1736439755272,undefined,921,pancake,concrete-positive,positive,negative,B,NULL
1736440309,77df19ca02b523ce7a45f54570c73552,PennController,62,0,test_val,NULL,PennController,73,_Header_,End,1736439755526,undefined,921,pancake,concrete-positive,positive,negative,B,NULL
1736440309,77df19ca02b523ce7a45f54570c73552,PennController,62,0,test_val,NULL,Selector,unnamed-Selector,Selection,positive,1736439756955,undefined,921,pancake,concrete-positive,positive,negative,B,positive;negative
1736440309,77df19ca02b523ce7a45f54570c73552,PennController,62,0,test_val,NULL,PennController,73,_Trial_,End,1736439756957,undefined,921,pancake,concrete-positive,positive,negative,B,NULL
1736440309,77df19ca02b523ce7a45f54570c73552,PennController,80,0,test_val,NULL,PennController,91,_Trial_,Start,1736439756959,undefined,1284,bedpan,concrete-negative,positive,negative,B,NULL
1736440309,77df19ca02b523ce7a45f54570c73552,PennController,80,0,test_val,NULL,PennController,91,_Header_,Start,1736439756959,undefined,1284,bedpan,concrete-negative,positive,negative,B,NULL
1736440309,77df19ca02b523ce7a45f54570c73552,PennController,80,0,test_val,NULL,PennController,91,_Header_,End,1736439757212,undefined,1284,bedpan,concrete-negative,positive,negative,B,NULL
1736440309,77df19ca02b523ce7a45f54570c73552,PennController,80,0,test_val,NULL,Selector,unnamed-Selector,Selection,negative,1736439759003,undefined,1284,bedpan,concrete-negative,positive,negative,B,positive;negative
1736440309,77df19ca02b523ce7a45f54570c73552,PennController,80,0,test_val,NULL,PennController,91,_Trial_,End,1736439759005,undefined,1284,bedpan,concrete-negative,positive,negative,B,NULL
1736440309,77df19ca02b523ce7a45f54570c73552,PennController,63,0,test_val,NULL,PennController,74,_Trial_,Start,1736439759007,undefined,969,sandwich,concrete-positive,positive,negative,B,NULL
1736440309,77df19ca02b523ce7a45f54570c73552,PennController,63,0,test_val,NULL,PennController,74,_Header_,Start,1736439759007,undefined,969,sandwich,concrete-positive,positive,negative,B,NULL
1736440309,77df19ca02b523ce7a45f54570c73552,PennController,63,0,test_val,NULL,PennController,74,_Header_,End,1736439759261,undefined,969,sandwich,concrete-positive,positive,negative,B,NULL
1736440309,77df19ca02b523ce7a45f54570c73552,PennController,63,0,test_val,NULL,Selector,unnamed-Selector,Selection,positive,1736439760734,undefined,969,sandwich,concrete-positive,positive,negative,B,positive;negative
1736440309,77df19ca02b523ce7a45f54570c73552,PennController,63,0,test_val,NULL,PennController,74,_Trial_,End,1736439760736,undefined,969,sandwich,concrete-positive,positive,negative,B,NULL
1736440309,77df19ca02b523ce7a45f54570c73552,PennController,82,0,test_val,NULL,PennController,93,_Trial_,Start,1736439760736,undefined,1425,lynching,concrete-negative,positive,negative,B,NULL
1736440309,77df19ca02b523ce7a45f54570c73552,PennController,82,0,test_val,NULL,PennController,93,_Header_,Start,1736439760736,undefined,1425,lynching,concrete-negative,positive,negative,B,NULL
1736440309,77df19ca02b523ce7a45f54570c73552,PennController,82,0,test_val,NULL,PennController,93,_Header_,End,1736439760990,undefined,1425,lynching,concrete-negative,positive,negative,B,NULL
1736440309,77df19ca02b523ce7a45f54570c73552,PennController,82,0,test_val,NULL,Selector,unnamed-Selector,Selection,negative,1736439762917,undefined,1425,lynching,concrete-negative,positive,negative,B,positive;negative
1736440309,77df19ca02b523ce7a45f54570c73552,PennController,82,0,test_val,NULL,PennController,93,_Trial_,End,1736439762919,undefined,1425,lynching,concrete-negative,positive,negative,B,NULL
1736440309,77df19ca02b523ce7a45f54570c73552,PennController,49,0,test_val,NULL,PennController,60,_Trial_,Start,1736439762921,undefined,970,madness,abstract-negative,positive,negative,B,NULL
1736440309,77df19ca02b523ce7a45f54570c73552,PennController,49,0,test_val,NULL,PennController,60,_Header_,Start,1736439762921,undefined,970,madness,abstract-negative,positive,negative,B,NULL
1736440309,77df19ca02b523ce7a45f54570c73552,PennController,49,0,test_val,NULL,PennController,60,_Header_,End,1736439763172,undefined,970,madness,abstract-negative,positive,negative,B,NULL
1736440309,77df19ca02b523ce7a45f54570c73552,PennController,49,0,test_val,NULL,Selector,unnamed-Selector,Selection,negative,1736439764649,undefined,970,madness,abstract-negative,positive,negative,B,positive;negative
1736440309,77df19ca02b523ce7a45f54570c73552,PennController,49,0,test_val,NULL,PennController,60,_Trial_,End,1736439764651,undefined,970,madness,abstract-negative,positive,negative,B,NULL
1736440309,77df19ca02b523ce7a45f54570c73552,PennController,52,0,test_val,NULL,PennController,63,_Trial_,Start,1736439764653,undefined,705,sadness,abstract-negative,positive,negative,B,NULL
1736440309,77df19ca02b523ce7a45f54570c73552,PennController,52,0,test_val,NULL,PennController,63,_Header_,Start,1736439764653,undefined,705,sadness,abstract-negative,positive,negative,B,NULL
1736440309,77df19ca02b523ce7a45f54570c73552,PennController,52,0,test_val,NULL,PennController,63,_Header_,End,1736439764906,undefined,705,sadness,abstract-negative,positive,negative,B,NULL
1736440309,77df19ca02b523ce7a45f54570c73552,PennController,52,0,test_val,NULL,Selector,unnamed-Selector,Selection,negative,1736439766114,undefined,705,sadness,abstract-negative,positive,negative,B,positive;negative
1736440309,77df19ca02b523ce7a45f54570c73552,PennController,52,0,test_val,NULL,PennController,63,_Trial_,End,1736439766116,undefined,705,sadness,abstract-negative,positive,negative,B,NULL
1736440309,77df19ca02b523ce7a45f54570c73552,PennController,54,0,test_val,NULL,PennController,65,_Trial_,Start,1736439766118,undefined,876,pizza,concrete-positive,positive,negative,B,NULL
1736440309,77df19ca02b523ce7a45f54570c73552,PennController,54,0,test_val,NULL,PennController,65,_Header_,Start,1736439766118,undefined,876,pizza,concrete-positive,positive,negative,B,NULL
1736440309,77df19ca02b523ce7a45f54570c73552,PennController,54,0,test_val,NULL,PennController,65,_Header_,End,1736439766372,undefined,876,pizza,concrete-positive,positive,negative,B,NULL
1736440309,77df19ca02b523ce7a45f54570c73552,PennController,54,0,test_val,NULL,Selector,unnamed-Selector,Selection,positive,1736439767755,undefined,876,pizza,concrete-positive,positive,negative,B,positive;negative
1736440309,77df19ca02b523ce7a45f54570c73552,PennController,54,0,test_val,NULL,PennController,65,_Trial_,End,1736439767757,undefined,876,pizza,concrete-positive,positive,negative,B,NULL
1736440309,77df19ca02b523ce7a45f54570c73552,PennController,55,0,test_val,NULL,PennController,66,_Trial_,Start,1736439767760,undefined,702,popcorn,concrete-positive,positive,negative,B,NULL
1736440309,77df19ca02b523ce7a45f54570c73552,PennController,55,0,test_val,NULL,PennController,66,_Header_,Start,1736439767760,undefined,702,popcorn,concrete-positive,positive,negative,B,NULL
1736440309,77df19ca02b523ce7a45f54570c73552,PennController,55,0,test_val,NULL,PennController,66,_Header_,End,1736439768012,undefined,702,popcorn,concrete-positive,positive,negative,B,NULL
1736440309,77df19ca02b523ce7a45f54570c73552,PennController,55,0,test_val,NULL,Selector,unnamed-Selector,Selection,positive,1736439769218,undefined,702,popcorn,concrete-positive,positive,negative,B,positive;negative
1736440309,77df19ca02b523ce7a45f54570c73552,PennController,55,0,test_val,NULL,PennController,66,_Trial_,End,1736439769221,undefined,702,popcorn,concrete-positive,positive,negative,B,NULL
1736440309,77df19ca02b523ce7a45f54570c73552,PennController,57,0,test_val,NULL,PennController,68,_Trial_,Start,1736439769223,undefined,1012,duckling,concrete-positive,positive,negative,B,NULL
1736440309,77df19ca02b523ce7a45f54570c73552,PennController,57,0,test_val,NULL,PennController,68,_Header_,Start,1736439769223,undefined,1012,duckling,concrete-positive,positive,negative,B,NULL
1736440309,77df19ca02b523ce7a45f54570c73552,PennController,57,0,test_val,NULL,PennController,68,_Header_,End,1736439769476,undefined,1012,duckling,concrete-positive,positive,negative,B,NULL
1736440309,77df19ca02b523ce7a45f54570c73552,PennController,57,0,test_val,NULL,Selector,unnamed-Selector,Selection,positive,1736439770995,undefined,1012,duckling,concrete-positive,positive,negative,B,positive;negative
1736440309,77df19ca02b523ce7a45f54570c73552,PennController,57,0,test_val,NULL,PennController,68,_Trial_,End,1736439770997,undefined,1012,duckling,concrete-positive,positive,negative,B,NULL
1736440309,77df19ca02b523ce7a45f54570c73552,PennController,83,0,test_val,NULL,PennController,94,_Trial_,Start,1736439771000,undefined,1197,frostbite,concrete-negative,positive,negative,B,NULL
1736440309,77df19ca02b523ce7a45f54570c73552,PennController,83,0,test_val,NULL,PennController,94,_Header_,Start,1736439771000,undefined,1197,frostbite,concrete-negative,positive,negative,B,NULL
1736440309,77df19ca02b523ce7a45f54570c73552,PennController,83,0,test_val,NULL,PennController,94,_Header_,End,1736439771251,undefined,1197,frostbite,concrete-negative,positive,negative,B,NULL
1736440309,77df19ca02b523ce7a45f54570c73552,PennController,83,0,test_val,NULL,Selector,unnamed-Selector,Selection,negative,1736439772953,undefined,1197,frostbite,concrete-negative,positive,negative,B,positive;negative
1736440309,77df19ca02b523ce7a45f54570c73552,PennController,83,0,test_val,NULL,PennController,94,_Trial_,End,1736439772955,undefined,1197,frostbite,concrete-negative,positive,negative,B,NULL
1736440309,77df19ca02b523ce7a45f54570c73552,PennController,46,0,test_val,NULL,PennController,57,_Trial_,Start,1736439772957,undefined,952,hatred,abstract-negative,positive,negative,B,NULL
1736440309,77df19ca02b523ce7a45f54570c73552,PennController,46,0,test_val,NULL,PennController,57,_Header_,Start,1736439772957,undefined,952,hatred,abstract-negative,positive,negative,B,NULL
1736440309,77df19ca02b523ce7a45f54570c73552,PennController,46,0,test_val,NULL,PennController,57,_Header_,End,1736439773209,undefined,952,hatred,abstract-negative,positive,negative,B,NULL
1736440309,77df19ca02b523ce7a45f54570c73552,PennController,46,0,test_val,NULL,Selector,unnamed-Selector,Selection,negative,1736439774664,undefined,952,hatred,abstract-negative,positive,negative,B,positive;negative
1736440309,77df19ca02b523ce7a45f54570c73552,PennController,46,0,test_val,NULL,PennController,57,_Trial_,End,1736439774666,undefined,952,hatred,abstract-negative,positive,negative,B,NULL
1736440309,77df19ca02b523ce7a45f54570c73552,PennController,78,0,test_val,NULL,PennController,89,_Trial_,Start,1736439774668,undefined,792,casket,concrete-negative,positive,negative,B,NULL
1736440309,77df19ca02b523ce7a45f54570c73552,PennController,78,0,test_val,NULL,PennController,89,_Header_,Start,1736439774668,undefined,792,casket,concrete-negative,positive,negative,B,NULL
1736440309,77df19ca02b523ce7a45f54570c73552,PennController,78,0,test_val,NULL,PennController,89,_Header_,End,1736439774920,undefined,792,casket,concrete-negative,positive,negative,B,NULL
1736440309,77df19ca02b523ce7a45f54570c73552,PennController,78,0,test_val,NULL,Selector,unnamed-Selector,Selection,negative,1736439776216,undefined,792,casket,concrete-negative,positive,negative,B,positive;negative
1736440309,77df19ca02b523ce7a45f54570c73552,PennController,78,0,test_val,NULL,PennController,89,_Trial_,End,1736439776219,undefined,792,casket,concrete-negative,positive,negative,B,NULL
1736440309,77df19ca02b523ce7a45f54570c73552,PennController,77,0,test_val,NULL,PennController,88,_Trial_,Start,1736439776221,undefined,901,traffic,concrete-negative,positive,negative,B,NULL
1736440309,77df19ca02b523ce7a45f54570c73552,PennController,77,0,test_val,NULL,PennController,88,_Header_,Start,1736439776221,undefined,901,traffic,concrete-negative,positive,negative,B,NULL
1736440309,77df19ca02b523ce7a45f54570c73552,PennController,77,0,test_val,NULL,PennController,88,_Header_,End,1736439776475,undefined,901,traffic,concrete-negative,positive,negative,B,NULL
1736440309,77df19ca02b523ce7a45f54570c73552,PennController,77,0,test_val,NULL,Selector,unnamed-Selector,Selection,negative,1736439777880,undefined,901,traffic,concrete-negative,positive,negative,B,positive;negative
1736440309,77df19ca02b523ce7a45f54570c73552,PennController,77,0,test_val,NULL,PennController,88,_Trial_,End,1736439777883,undefined,901,traffic,concrete-negative,positive,negative,B,NULL
1736440309,77df19ca02b523ce7a45f54570c73552,PennController,68,0,test_val,NULL,PennController,79,_Trial_,Start,1736439777886,undefined,967,goodness,abstract-positive,positive,negative,B,NULL
1736440309,77df19ca02b523ce7a45f54570c73552,PennController,68,0,test_val,NULL,PennController,79,_Header_,Start,1736439777886,undefined,967,goodness,abstract-positive,positive,negative,B,NULL
1736440309,77df19ca02b523ce7a45f54570c73552,PennController,68,0,test_val,NULL,PennController,79,_Header_,End,1736439778139,undefined,967,goodness,abstract-positive,positive,negative,B,NULL
1736440309,77df19ca02b523ce7a45f54570c73552,PennController,68,0,test_val,NULL,Selector,unnamed-Selector,Selection,positive,1736439779611,undefined,967,goodness,abstract-positive,positive,negative,B,positive;negative
1736440309,77df19ca02b523ce7a45f54570c73552,PennController,68,0,test_val,NULL,PennController,79,_Trial_,End,1736439779612,undefined,967,goodness,abstract-positive,positive,negative,B,NULL
1736440309,77df19ca02b523ce7a45f54570c73552,PennController,50,0,test_val,NULL,PennController,61,_Trial_,Start,1736439779613,undefined,688,contempt,abstract-negative,positive,negative,B,NULL
1736440309,77df19ca02b523ce7a45f54570c73552,PennController,50,0,test_val,NULL,PennController,61,_Header_,Start,1736439779613,undefined,688,contempt,abstract-negative,positive,negative,B,NULL
1736440309,77df19ca02b523ce7a45f54570c73552,PennController,50,0,test_val,NULL,PennController,61,_Header_,End,1736439779864,undefined,688,contempt,abstract-negative,positive,negative,B,NULL
1736440309,77df19ca02b523ce7a45f54570c73552,PennController,50,0,test_val,NULL,Selector,unnamed-Selector,Selection,negative,1736439781054,undefined,688,contempt,abstract-negative,positive,negative,B,positive;negative
1736440309,77df19ca02b523ce7a45f54570c73552,PennController,50,0,test_val,NULL,PennController,61,_Trial_,End,1736439781057,undefined,688,contempt,abstract-negative,positive,negative,B,NULL
1736440309,77df19ca02b523ce7a45f54570c73552,PennController,56,0,test_val,NULL,PennController,67,_Trial_,Start,1736439781059,undefined,791,doughnut,concrete-positive,positive,negative,B,NULL
1736440309,77df19ca02b523ce7a45f54570c73552,PennController,56,0,test_val,NULL,PennController,67,_Header_,Start,1736439781059,undefined,791,doughnut,concrete-positive,positive,negative,B,NULL
1736440309,77df19ca02b523ce7a45f54570c73552,PennController,56,0,test_val,NULL,PennController,67,_Header_,End,1736439781310,undefined,791,doughnut,concrete-positive,positive,negative,B,NULL
1736440309,77df19ca02b523ce7a45f54570c73552,PennController,56,0,test_val,NULL,Selector,unnamed-Selector,Selection,positive,1736439782606,undefined,791,doughnut,concrete-positive,positive,negative,B,positive;negative
1736440309,77df19ca02b523ce7a45f54570c73552,PennController,56,0,test_val,NULL,PennController,67,_Trial_,End,1736439782608,undefined,791,doughnut,concrete-positive,positive,negative,B,NULL
1736440309,77df19ca02b523ce7a45f54570c73552,PennController,70,0,test_val,NULL,PennController,81,_Trial_,Start,1736439782610,undefined,1577,fairness,abstract-positive,positive,negative,B,NULL
1736440309,77df19ca02b523ce7a45f54570c73552,PennController,70,0,test_val,NULL,PennController,81,_Header_,Start,1736439782610,undefined,1577,fairness,abstract-positive,positive,negative,B,NULL
1736440309,77df19ca02b523ce7a45f54570c73552,PennController,70,0,test_val,NULL,PennController,81,_Header_,End,1736439782863,undefined,1577,fairness,abstract-positive,positive,negative,B,NULL
1736440309,77df19ca02b523ce7a45f54570c73552,PennController,70,0,test_val,NULL,Selector,unnamed-Selector,Selection,positive,1736439784941,undefined,1577,fairness,abstract-positive,positive,negative,B,positive;negative
1736440309,77df19ca02b523ce7a45f54570c73552,PennController,70,0,test_val,NULL,PennController,81,_Trial_,End,1736439784943,undefined,1577,fairness,abstract-positive,positive,negative,B,NULL
1736440309,77df19ca02b523ce7a45f54570c73552,PennController,71,0,test_val,NULL,PennController,82,_Trial_,Start,1736439784945,undefined,819,wellness,abstract-positive,positive,negative,B,NULL
1736440309,77df19ca02b523ce7a45f54570c73552,PennController,71,0,test_val,NULL,PennController,82,_Header_,Start,1736439784945,undefined,819,wellness,abstract-positive,positive,negative,B,NULL
1736440309,77df19ca02b523ce7a45f54570c73552,PennController,71,0,test_val,NULL,PennController,82,_Header_,End,1736439785196,undefined,819,wellness,abstract-positive,positive,negative,B,NULL
1736440309,77df19ca02b523ce7a45f54570c73552,PennController,71,0,test_val,NULL,Selector,unnamed-Selector,Selection,positive,1736439786521,undefined,819,wellness,abstract-positive,positive,negative,B,positive;negative
1736440309,77df19ca02b523ce7a45f54570c73552,PennController,71,0,test_val,NULL,PennController,82,_Trial_,End,1736439786523,undefined,819,wellness,abstract-positive,positive,negative,B,NULL
1736440309,77df19ca02b523ce7a45f54570c73552,PennController,79,0,test_val,NULL,PennController,90,_Trial_,Start,1736439786525,undefined,768,cockroach,concrete-negative,positive,negative,B,NULL
1736440309,77df19ca02b523ce7a45f54570c73552,PennController,79,0,test_val,NULL,PennController,90,_Header_,Start,1736439786525,undefined,768,cockroach,concrete-negative,positive,negative,B,NULL
1736440309,77df19ca02b523ce7a45f54570c73552,PennController,79,0,test_val,NULL,PennController,90,_Header_,End,1736439786777,undefined,768,cockroach,concrete-negative,positive,negative,B,NULL
1736440309,77df19ca02b523ce7a45f54570c73552,PennController,79,0,test_val,NULL,Selector,unnamed-Selector,Selection,negative,1736439788047,undefined,768,cockroach,concrete-negative,positive,negative,B,positive;negative
1736440309,77df19ca02b523ce7a45f54570c73552,PennController,79,0,test_val,NULL,PennController,90,_Trial_,End,1736439788048,undefined,768,cockroach,concrete-negative,positive,negative,B,NULL
1736440309,77df19ca02b523ce7a45f54570c73552,PennController,64,0,test_val,NULL,PennController,75,_Trial_,Start,1736439788049,undefined,819,wisdom,abstract-positive,positive,negative,B,NULL
1736440309,77df19ca02b523ce7a45f54570c73552,PennController,64,0,test_val,NULL,PennController,75,_Header_,Start,1736439788049,undefined,819,wisdom,abstract-positive,positive,negative,B,NULL
1736440309,77df19ca02b523ce7a45f54570c73552,PennController,64,0,test_val,NULL,PennController,75,_Header_,End,1736439788299,undefined,819,wisdom,abstract-positive,positive,negative,B,NULL
1736440309,77df19ca02b523ce7a45f54570c73552,PennController,64,0,test_val,NULL,Selector,unnamed-Selector,Selection,positive,1736439789624,undefined,819,wisdom,abstract-positive,positive,negative,B,positive;negative
1736440309,77df19ca02b523ce7a45f54570c73552,PennController,64,0,test_val,NULL,PennController,75,_Trial_,End,1736439789626,undefined,819,wisdom,abstract-positive,positive,negative,B,NULL
1736440309,77df19ca02b523ce7a45f54570c73552,PennController,76,0,test_val,NULL,PennController,87,_Trial_,Start,1736439789628,undefined,706,rapist,concrete-negative,positive,negative,B,NULL
1736440309,77df19ca02b523ce7a45f54570c73552,PennController,76,0,test_val,NULL,PennController,87,_Header_,Start,1736439789628,undefined,706,rapist,concrete-negative,positive,negative,B,NULL
1736440309,77df19ca02b523ce7a45f54570c73552,PennController,76,0,test_val,NULL,PennController,87,_Header_,End,1736439789878,undefined,706,rapist,concrete-negative,positive,negative,B,NULL
1736440309,77df19ca02b523ce7a45f54570c73552,PennController,76,0,test_val,NULL,Selector,unnamed-Selector,Selection,negative,1736439791089,undefined,706,rapist,concrete-negative,positive,negative,B,positive;negative
1736440309,77df19ca02b523ce7a45f54570c73552,PennController,76,0,test_val,NULL,PennController,87,_Trial_,End,1736439791092,undefined,706,rapist,concrete-negative,positive,negative,B,NULL
1736440309,77df19ca02b523ce7a45f54570c73552,PennController,65,0,test_val,NULL,PennController,76,_Trial_,Start,1736439791094,undefined,721,greatness,abstract-positive,positive,negative,B,NULL
1736440309,77df19ca02b523ce7a45f54570c73552,PennController,65,0,test_val,NULL,PennController,76,_Header_,Start,1736439791094,undefined,721,greatness,abstract-positive,positive,negative,B,NULL
1736440309,77df19ca02b523ce7a45f54570c73552,PennController,65,0,test_val,NULL,PennController,76,_Header_,End,1736439791345,undefined,721,greatness,abstract-positive,positive,negative,B,NULL
1736440309,77df19ca02b523ce7a45f54570c73552,PennController,65,0,test_val,NULL,Selector,unnamed-Selector,Selection,positive,1736439792573,undefined,721,greatness,abstract-positive,positive,negative,B,positive;negative
1736440309,77df19ca02b523ce7a45f54570c73552,PennController,65,0,test_val,NULL,PennController,76,_Trial_,End,1736439792575,undefined,721,greatness,abstract-positive,positive,negative,B,NULL
1736440309,77df19ca02b523ce7a45f54570c73552,PennController,69,0,test_val,NULL,PennController,80,_Trial_,Start,1736439792577,undefined,653,splendor,abstract-positive,positive,negative,B,NULL
1736440309,77df19ca02b523ce7a45f54570c73552,PennController,69,0,test_val,NULL,PennController,80,_Header_,Start,1736439792577,undefined,653,splendor,abstract-positive,positive,negative,B,NULL
1736440309,77df19ca02b523ce7a45f54570c73552,PennController,69,0,test_val,NULL,PennController,80,_Header_,End,1736439792831,undefined,653,splendor,abstract-positive,positive,negative,B,NULL
1736440309,77df19ca02b523ce7a45f54570c73552,PennController,69,0,test_val,NULL,Selector,unnamed-Selector,Selection,positive,1736439793991,undefined,653,splendor,abstract-positive,positive,negative,B,positive;negative
1736440309,77df19ca02b523ce7a45f54570c73552,PennController,69,0,test_val,NULL,PennController,80,_Trial_,End,1736439793993,undefined,653,splendor,abstract-positive,positive,negative,B,NULL
1736440309,77df19ca02b523ce7a45f54570c73552,PennController,74,0,test_val,NULL,PennController,85,_Trial_,Start,1736439793995,undefined,1911,feces,concrete-negative,positive,negative,B,NULL
1736440309,77df19ca02b523ce7a45f54570c73552,PennController,74,0,test_val,NULL,PennController,85,_Header_,Start,1736439793995,undefined,1911,feces,concrete-negative,positive,negative,B,NULL
1736440309,77df19ca02b523ce7a45f54570c73552,PennController,74,0,test_val,NULL,PennController,85,_Header_,End,1736439794247,undefined,1911,feces,concrete-negative,positive,negative,B,NULL
1736440309,77df19ca02b523ce7a45f54570c73552,PennController,74,0,test_val,NULL,Selector,unnamed-Selector,Selection,negative,1736439796664,undefined,1911,feces,concrete-negative,positive,negative,B,positive;negative
1736440309,77df19ca02b523ce7a45f54570c73552,PennController,74,0,test_val,NULL,PennController,85,_Trial_,End,1736439796666,undefined,1911,feces,concrete-negative,positive,negative,B,NULL
1736440309,77df19ca02b523ce7a45f54570c73552,PennController,48,0,test_val,NULL,PennController,59,_Trial_,Start,1736439796668,undefined,816,loathing,abstract-negative,positive,negative,B,NULL
1736440309,77df19ca02b523ce7a45f54570c73552,PennController,48,0,test_val,NULL,PennController,59,_Header_,Start,1736439796668,undefined,816,loathing,abstract-negative,positive,negative,B,NULL
1736440309,77df19ca02b523ce7a45f54570c73552,PennController,48,0,test_val,NULL,PennController,59,_Header_,End,1736439796922,undefined,816,loathing,abstract-negative,positive,negative,B,NULL
1736440309,77df19ca02b523ce7a45f54570c73552,PennController,48,0,test_val,NULL,Selector,unnamed-Selector,Selection,negative,1736439798244,undefined,816,loathing,abstract-negative,positive,negative,B,positive;negative
1736440309,77df19ca02b523ce7a45f54570c73552,PennController,48,0,test_val,NULL,PennController,59,_Trial_,End,1736439798246,undefined,816,loathing,abstract-negative,positive,negative,B,NULL
1736440309,77df19ca02b523ce7a45f54570c73552,PennController,81,0,test_val,NULL,PennController,92,_Trial_,Start,1736439798248,undefined,788,prison,concrete-negative,positive,negative,B,NULL
1736440309,77df19ca02b523ce7a45f54570c73552,PennController,81,0,test_val,NULL,PennController,92,_Header_,Start,1736439798248,undefined,788,prison,concrete-negative,positive,negative,B,NULL
1736440309,77df19ca02b523ce7a45f54570c73552,PennController,81,0,test_val,NULL,PennController,92,_Header_,End,1736439798502,undefined,788,prison,concrete-negative,positive,negative,B,NULL
1736440309,77df19ca02b523ce7a45f54570c73552,PennController,81,0,test_val,NULL,Selector,unnamed-Selector,Selection,negative,1736439799795,undefined,788,prison,concrete-negative,positive,negative,B,positive;negative
1736440309,77df19ca02b523ce7a45f54570c73552,PennController,81,0,test_val,NULL,PennController,92,_Trial_,End,1736439799798,undefined,788,prison,concrete-negative,positive,negative,B,NULL
1736440309,77df19ca02b523ce7a45f54570c73552,PennController,72,0,test_val,NULL,PennController,83,_Trial_,Start,1736439799800,undefined,748,justice,abstract-positive,positive,negative,B,NULL
1736440309,77df19ca02b523ce7a45f54570c73552,PennController,72,0,test_val,NULL,PennController,83,_Header_,Start,1736439799800,undefined,748,justice,abstract-positive,positive,negative,B,NULL
1736440309,77df19ca02b523ce7a45f54570c73552,PennController,72,0,test_val,NULL,PennController,83,_Header_,End,1736439800050,undefined,748,justice,abstract-positive,positive,negative,B,NULL
1736440309,77df19ca02b523ce7a45f54570c73552,PennController,72,0,test_val,NULL,Selector,unnamed-Selector,Selection,positive,1736439801303,undefined,748,justice,abstract-positive,positive,negative,B,positive;negative
1736440309,77df19ca02b523ce7a45f54570c73552,PennController,72,0,test_val,NULL,PennController,83,_Trial_,End,1736439801306,undefined,748,justice,abstract-positive,positive,negative,B,NULL
1736440309,77df19ca02b523ce7a45f54570c73552,PennController,45,0,test_val,NULL,PennController,56,_Trial_,Start,1736439801308,undefined,881,betrayal,abstract-negative,positive,negative,B,NULL
1736440309,77df19ca02b523ce7a45f54570c73552,PennController,45,0,test_val,NULL,PennController,56,_Header_,Start,1736439801308,undefined,881,betrayal,abstract-negative,positive,negative,B,NULL
1736440309,77df19ca02b523ce7a45f54570c73552,PennController,45,0,test_val,NULL,PennController,56,_Header_,End,1736439801558,undefined,881,betrayal,abstract-negative,positive,negative,B,NULL
1736440309,77df19ca02b523ce7a45f54570c73552,PennController,45,0,test_val,NULL,Selector,unnamed-Selector,Selection,negative,1736439802943,undefined,881,betrayal,abstract-negative,positive,negative,B,positive;negative
1736440309,77df19ca02b523ce7a45f54570c73552,PennController,45,0,test_val,NULL,PennController,56,_Trial_,End,1736439802945,undefined,881,betrayal,abstract-negative,positive,negative,B,NULL
1736440309,77df19ca02b523ce7a45f54570c73552,PennController,58,0,test_val,NULL,PennController,69,_Trial_,Start,1736439802946,undefined,815,bunny,concrete-positive,positive,negative,B,NULL
1736440309,77df19ca02b523ce7a45f54570c73552,PennController,58,0,test_val,NULL,PennController,69,_Header_,Start,1736439802946,undefined,815,bunny,concrete-positive,positive,negative,B,NULL
1736440309,77df19ca02b523ce7a45f54570c73552,PennController,58,0,test_val,NULL,PennController,69,_Header_,End,1736439803200,undefined,815,bunny,concrete-positive,positive,negative,B,NULL
1736440309,77df19ca02b523ce7a45f54570c73552,PennController,58,0,test_val,NULL,Selector,unnamed-Selector,Selection,positive,1736439804518,undefined,815,bunny,concrete-positive,positive,negative,B,positive;negative
1736440309,77df19ca02b523ce7a45f54570c73552,PennController,58,0,test_val,NULL,PennController,69,_Trial_,End,1736439804520,undefined,815,bunny,concrete-positive,positive,negative,B,NULL
1736440309,77df19ca02b523ce7a45f54570c73552,PennController,61,0,test_val,NULL,PennController,72,_Trial_,Start,1736439804521,undefined,861,chipmunk,concrete-positive,positive,negative,B,NULL
1736440309,77df19ca02b523ce7a45f54570c73552,PennController,61,0,test_val,NULL,PennController,72,_Header_,Start,1736439804521,undefined,861,chipmunk,concrete-positive,positive,negative,B,NULL
1736440309,77df19ca02b523ce7a45f54570c73552,PennController,61,0,test_val,NULL,PennController,72,_Header_,End,1736439804774,undefined,861,chipmunk,concrete-positive,positive,negative,B,NULL
1736440309,77df19ca02b523ce7a45f54570c73552,PennController,61,0,test_val,NULL,Selector,unnamed-Selector,Selection,positive,1736439806141,undefined,861,chipmunk,concrete-positive,positive,negative,B,positive;negative
1736440309,77df19ca02b523ce7a45f54570c73552,PennController,61,0,test_val,NULL,PennController,72,_Trial_,End,1736439806143,undefined,861,chipmunk,concrete-positive,positive,negative,B,NULL
1736440309,77df19ca02b523ce7a45f54570c73552,PennController,47,0,test_val,NULL,PennController,58,_Trial_,Start,1736439806146,undefined,721,breakup,abstract-negative,positive,negative,B,NULL
1736440309,77df19ca02b523ce7a45f54570c73552,PennController,47,0,test_val,NULL,PennController,58,_Header_,Start,1736439806146,undefined,721,breakup,abstract-negative,positive,negative,B,NULL
