#
# Results on Thu, 09 Jan 2025 13:54:43 GMT
# USER AGENT: Mozilla/5.0 (Windows NT 10.0; Win64; x64) AppleWebKit/537.36 (KHTML, like Gecko) Chrome/131.0.0.0 Safari/537.36
# Design number was non-random = 0
#
# Columns below this comment are as follows:
# 1. Results reception time.
# 2. MD5 hash of participant's IP address.
# 3. Controller name.
# 4. Order number of item.
# 5. Inner element number.
# 6. Label.
# 7. Latin Square Group.
# 8. PennElementType.
# 9. PennElementName.
# 10. Parameter.
# 11. Value.
# 12. EventTime.
# 13. Comments.
1736430883,af1580815e881e7f752925d65ac47d56,PennController,1,0,welcome,NULL,PennController,0,_Trial_,Start,1736430243601,NULL
1736430883,af1580815e881e7f752925d65ac47d56,PennController,1,0,welcome,NULL,PennController,0,_Header_,Start,1736430243601,NULL
1736430883,af1580815e881e7f752925d65ac47d56,PennController,1,0,welcome,NULL,PennController,0,_Header_,End,1736430243852,NULL
1736430883,af1580815e881e7f752925d65ac47d56,PennController,1,0,welcome,NULL,PennController,0,_Trial_,End,1736430252092,NULL
# 13. ID.
# 14. Comments.
1736430883,af1580815e881e7f752925d65ac47d56,PennController,124,0,consent,NULL,PennController,2,_Trial_,Start,1736430252094,5a2add709408dc00016f57d3,NULL
1736430883,af1580815e881e7f752925d65ac47d56,PennController,124,0,consent,NULL,PennController,2,_Header_,Start,1736430252094,5a2add709408dc00016f57d3,NULL
1736430883,af1580815e881e7f752925d65ac47d56,PennController,124,0,consent,NULL,PennController,2,_Header_,End,1736430252347,5a2add709408dc00016f57d3,NULL
1736430883,af1580815e881e7f752925d65ac47d56,PennController,124,0,consent,NULL,TextInput,ID,Final,5a2add709408dc00016f57d3,1736430276198,5a2add709408dc00016f57d3,NULL
1736430883,af1580815e881e7f752925d65ac47d56,PennController,124,0,consent,NULL,TextInput,ID,First,,1736430259385,5a2add709408dc00016f57d3,Control
1736430883,af1580815e881e7f752925d65ac47d56,PennController,124,0,consent,NULL,PennController,2,_Trial_,End,1736430276205,5a2add709408dc00016f57d3,NULL
# 13. Comments.
1736430883,af1580815e881e7f752925d65ac47d56,PennController,126,0,instructions1_conc,NULL,PennController,4,_Trial_,Start,1736430276207,NULL
1736430883,af1580815e881e7f752925d65ac47d56,PennController,126,0,instructions1_conc,NULL,PennController,4,_Header_,Start,1736430276207,NULL
1736430883,af1580815e881e7f752925d65ac47d56,PennController,126,0,instructions1_conc,NULL,PennController,4,_Header_,End,1736430276460,NULL
1736430883,af1580815e881e7f752925d65ac47d56,PennController,126,0,instructions1_conc,NULL,PennController,4,_Trial_,End,1736430290974,NULL
1736430883,af1580815e881e7f752925d65ac47d56,PennController,127,0,instructions2_conc,NULL,PennController,5,_Trial_,Start,1736430290975,NULL
1736430883,af1580815e881e7f752925d65ac47d56,PennController,127,0,instructions2_conc,NULL,PennController,5,_Header_,Start,1736430290975,NULL
1736430883,af1580815e881e7f752925d65ac47d56,PennController,127,0,instructions2_conc,NULL,PennController,5,_Header_,End,1736430291230,NULL
1736430883,af1580815e881e7f752925d65ac47d56,PennController,127,0,instructions2_conc,NULL,PennController,5,_Trial_,End,1736430293382,NULL
1736430883,af1580815e881e7f752925d65ac47d56,PennController,134,0,instructions3_hands,NULL,PennController,12,_Trial_,Start,1736430293383,NULL
1736430883,af1580815e881e7f752925d65ac47d56,PennController,134,0,instructions3_hands,NULL,PennController,12,_Header_,Start,1736430293383,NULL
1736430883,af1580815e881e7f752925d65ac47d56,PennController,134,0,instructions3_hands,NULL,PennController,12,_Header_,End,1736430293633,NULL
1736430883,af1580815e881e7f752925d65ac47d56,PennController,134,0,instructions3_hands,NULL,PennController,12,_Trial_,End,1736430303306,NULL
1736430883,af1580815e881e7f752925d65ac47d56,PennController,129,0,practice_intro_conc,NULL,PennController,7,_Trial_,Start,1736430303307,NULL
1736430883,af1580815e881e7f752925d65ac47d56,PennController,129,0,practice_intro_conc,NULL,PennController,7,_Header_,Start,1736430303307,NULL
1736430883,af1580815e881e7f752925d65ac47d56,PennController,129,0,practice_intro_conc,NULL,PennController,7,_Header_,End,1736430303557,NULL
1736430883,af1580815e881e7f752925d65ac47d56,PennController,129,0,practice_intro_conc,NULL,PennController,7,_Trial_,End,1736430305194,NULL
# 13. ID.
# 14. ReactionTime.
# 15. Word.
# 16. selectedKey.
# 17. selectedValue.
# 18. Key_value_F.
# 19. Key_value_J.
# 20. Group.
# 21. Comments.
1736430883,af1580815e881e7f752925d65ac47d56,PennController,85,0,calibrator_conc_feedback,NULL,PennController,96,_Trial_,Start,1736430305195,undefined,2407,grasshopper,undefined,concrete,abstract,concrete,A,NULL
1736430883,af1580815e881e7f752925d65ac47d56,PennController,85,0,calibrator_conc_feedback,NULL,PennController,96,_Header_,Start,1736430305195,undefined,2407,grasshopper,undefined,concrete,abstract,concrete,A,NULL
1736430883,af1580815e881e7f752925d65ac47d56,PennController,85,0,calibrator_conc_feedback,NULL,PennController,96,_Header_,End,1736430305445,undefined,2407,grasshopper,undefined,concrete,abstract,concrete,A,NULL
1736430883,af1580815e881e7f752925d65ac47d56,PennController,85,0,calibrator_conc_feedback,NULL,Selector,Selection,Selection,concrete,1736430308353,undefined,2407,grasshopper,undefined,concrete,abstract,concrete,A,abstract;concrete
1736430883,af1580815e881e7f752925d65ac47d56,PennController,85,0,calibrator_conc_feedback,NULL,PennController,96,_Trial_,End,1736430310357,undefined,2407,grasshopper,undefined,concrete,abstract,concrete,A,NULL
1736430883,af1580815e881e7f752925d65ac47d56,PennController,88,0,calibrator_conc_feedback,NULL,PennController,99,_Trial_,Start,1736430310358,undefined,2622,polite,undefined,concrete,abstract,concrete,A,NULL
1736430883,af1580815e881e7f752925d65ac47d56,PennController,88,0,calibrator_conc_feedback,NULL,PennController,99,_Header_,Start,1736430310358,undefined,2622,polite,undefined,concrete,abstract,concrete,A,NULL
1736430883,af1580815e881e7f752925d65ac47d56,PennController,88,0,calibrator_conc_feedback,NULL,PennController,99,_Header_,End,1736430310611,undefined,2622,polite,undefined,concrete,abstract,concrete,A,NULL
1736430883,af1580815e881e7f752925d65ac47d56,PennController,88,0,calibrator_conc_feedback,NULL,Selector,Selection,Selection,concrete,1736430314403,undefined,2622,polite,undefined,concrete,abstract,concrete,A,abstract;concrete
1736430883,af1580815e881e7f752925d65ac47d56,PennController,88,0,calibrator_conc_feedback,NULL,PennController,99,_Trial_,End,1736430315742,undefined,2622,polite,undefined,concrete,abstract,concrete,A,NULL
1736430883,af1580815e881e7f752925d65ac47d56,PennController,89,0,calibrator_conc_feedback,NULL,PennController,100,_Trial_,Start,1736430315743,undefined,1657,shirt,undefined,concrete,abstract,concrete,A,NULL
1736430883,af1580815e881e7f752925d65ac47d56,PennController,89,0,calibrator_conc_feedback,NULL,PennController,100,_Header_,Start,1736430315743,undefined,1657,shirt,undefined,concrete,abstract,concrete,A,NULL
1736430883,af1580815e881e7f752925d65ac47d56,PennController,89,0,calibrator_conc_feedback,NULL,PennController,100,_Header_,End,1736430315996,undefined,1657,shirt,undefined,concrete,abstract,concrete,A,NULL
1736430883,af1580815e881e7f752925d65ac47d56,PennController,89,0,calibrator_conc_feedback,NULL,Selector,Selection,Selection,abstract,1736430318153,undefined,1657,shirt,undefined,concrete,abstract,concrete,A,abstract;concrete
1736430883,af1580815e881e7f752925d65ac47d56,PennController,89,0,calibrator_conc_feedback,NULL,PennController,100,_Trial_,End,1736430320157,undefined,1657,shirt,undefined,concrete,abstract,concrete,A,NULL
1736430883,af1580815e881e7f752925d65ac47d56,PennController,87,0,calibrator_conc_feedback,NULL,PennController,98,_Trial_,Start,1736430320158,undefined,4260,marriage,undefined,concrete,abstract,concrete,A,NULL
1736430883,af1580815e881e7f752925d65ac47d56,PennController,87,0,calibrator_conc_feedback,NULL,PennController,98,_Header_,Start,1736430320158,undefined,4260,marriage,undefined,concrete,abstract,concrete,A,NULL
1736430883,af1580815e881e7f752925d65ac47d56,PennController,87,0,calibrator_conc_feedback,NULL,PennController,98,_Header_,End,1736430320412,undefined,4260,marriage,undefined,concrete,abstract,concrete,A,NULL
1736430883,af1580815e881e7f752925d65ac47d56,PennController,87,0,calibrator_conc_feedback,NULL,Selector,Selection,Selection,abstract,1736430325173,undefined,4260,marriage,undefined,concrete,abstract,concrete,A,abstract;concrete
1736430883,af1580815e881e7f752925d65ac47d56,PennController,87,0,calibrator_conc_feedback,NULL,PennController,98,_Trial_,End,1736430327178,undefined,4260,marriage,undefined,concrete,abstract,concrete,A,NULL
1736430883,af1580815e881e7f752925d65ac47d56,PennController,93,0,calibrator_conc_feedback,NULL,PennController,104,_Trial_,Start,1736430327179,undefined,3380,insecure,undefined,concrete,abstract,concrete,A,NULL
1736430883,af1580815e881e7f752925d65ac47d56,PennController,93,0,calibrator_conc_feedback,NULL,PennController,104,_Header_,Start,1736430327179,undefined,3380,insecure,undefined,concrete,abstract,concrete,A,NULL
1736430883,af1580815e881e7f752925d65ac47d56,PennController,93,0,calibrator_conc_feedback,NULL,PennController,104,_Header_,End,1736430327431,undefined,3380,insecure,undefined,concrete,abstract,concrete,A,NULL
1736430883,af1580815e881e7f752925d65ac47d56,PennController,93,0,calibrator_conc_feedback,NULL,Selector,Selection,Selection,abstract,1736430331316,undefined,3380,insecure,undefined,concrete,abstract,concrete,A,abstract;concrete
1736430883,af1580815e881e7f752925d65ac47d56,PennController,93,0,calibrator_conc_feedback,NULL,PennController,104,_Trial_,End,1736430333319,undefined,3380,insecure,undefined,concrete,abstract,concrete,A,NULL
1736430883,af1580815e881e7f752925d65ac47d56,PennController,92,0,calibrator_conc_feedback,NULL,PennController,103,_Trial_,Start,1736430333320,undefined,1181,whistle,undefined,concrete,abstract,concrete,A,NULL
1736430883,af1580815e881e7f752925d65ac47d56,PennController,92,0,calibrator_conc_feedback,NULL,PennController,103,_Header_,Start,1736430333320,undefined,1181,whistle,undefined,concrete,abstract,concrete,A,NULL
1736430883,af1580815e881e7f752925d65ac47d56,PennController,92,0,calibrator_conc_feedback,NULL,PennController,103,_Header_,End,1736430333570,undefined,1181,whistle,undefined,concrete,abstract,concrete,A,NULL
1736430883,af1580815e881e7f752925d65ac47d56,PennController,92,0,calibrator_conc_feedback,NULL,Selector,Selection,Selection,concrete,1736430335252,undefined,1181,whistle,undefined,concrete,abstract,concrete,A,abstract;concrete
1736430883,af1580815e881e7f752925d65ac47d56,PennController,92,0,calibrator_conc_feedback,NULL,PennController,103,_Trial_,End,1736430337256,undefined,1181,whistle,undefined,concrete,abstract,concrete,A,NULL
1736430883,af1580815e881e7f752925d65ac47d56,PennController,90,0,calibrator_conc_feedback,NULL,PennController,101,_Trial_,Start,1736430337257,undefined,2443,sugar,undefined,concrete,abstract,concrete,A,NULL
1736430883,af1580815e881e7f752925d65ac47d56,PennController,90,0,calibrator_conc_feedback,NULL,PennController,101,_Header_,Start,1736430337257,undefined,2443,sugar,undefined,concrete,abstract,concrete,A,NULL
1736430883,af1580815e881e7f752925d65ac47d56,PennController,90,0,calibrator_conc_feedback,NULL,PennController,101,_Header_,End,1736430337511,undefined,2443,sugar,undefined,concrete,abstract,concrete,A,NULL
1736430883,af1580815e881e7f752925d65ac47d56,PennController,90,0,calibrator_conc_feedback,NULL,Selector,Selection,Selection,concrete,1736430340457,undefined,2443,sugar,undefined,concrete,abstract,concrete,A,abstract;concrete
1736430883,af1580815e881e7f752925d65ac47d56,PennController,90,0,calibrator_conc_feedback,NULL,PennController,101,_Trial_,End,1736430342460,undefined,2443,sugar,undefined,concrete,abstract,concrete,A,NULL
1736430883,af1580815e881e7f752925d65ac47d56,PennController,86,0,calibrator_conc_feedback,NULL,PennController,97,_Trial_,Start,1736430342461,undefined,1075,kick,undefined,concrete,abstract,concrete,A,NULL
1736430883,af1580815e881e7f752925d65ac47d56,PennController,86,0,calibrator_conc_feedback,NULL,PennController,97,_Header_,Start,1736430342461,undefined,1075,kick,undefined,concrete,abstract,concrete,A,NULL
1736430883,af1580815e881e7f752925d65ac47d56,PennController,86,0,calibrator_conc_feedback,NULL,PennController,97,_Header_,End,1736430342714,undefined,1075,kick,undefined,concrete,abstract,concrete,A,NULL
1736430883,af1580815e881e7f752925d65ac47d56,PennController,86,0,calibrator_conc_feedback,NULL,Selector,Selection,Selection,abstract,1736430344293,undefined,1075,kick,undefined,concrete,abstract,concrete,A,abstract;concrete
1736430883,af1580815e881e7f752925d65ac47d56,PennController,86,0,calibrator_conc_feedback,NULL,PennController,97,_Trial_,End,1736430346296,undefined,1075,kick,undefined,concrete,abstract,concrete,A,NULL
1736430883,af1580815e881e7f752925d65ac47d56,PennController,91,0,calibrator_conc_feedback,NULL,PennController,102,_Trial_,Start,1736430346297,undefined,1258,theory,undefined,concrete,abstract,concrete,A,NULL
1736430883,af1580815e881e7f752925d65ac47d56,PennController,91,0,calibrator_conc_feedback,NULL,PennController,102,_Header_,Start,1736430346297,undefined,1258,theory,undefined,concrete,abstract,concrete,A,NULL
1736430883,af1580815e881e7f752925d65ac47d56,PennController,91,0,calibrator_conc_feedback,NULL,PennController,102,_Header_,End,1736430346552,undefined,1258,theory,undefined,concrete,abstract,concrete,A,NULL
1736430883,af1580815e881e7f752925d65ac47d56,PennController,91,0,calibrator_conc_feedback,NULL,Selector,Selection,Selection,abstract,1736430348313,undefined,1258,theory,undefined,concrete,abstract,concrete,A,abstract;concrete
1736430883,af1580815e881e7f752925d65ac47d56,PennController,91,0,calibrator_conc_feedback,NULL,PennController,102,_Trial_,End,1736430350315,undefined,1258,theory,undefined,concrete,abstract,concrete,A,NULL
1736430883,af1580815e881e7f752925d65ac47d56,PennController,84,0,calibrator_conc_feedback,NULL,PennController,95,_Trial_,Start,1736430350316,undefined,2365,gas,undefined,concrete,abstract,concrete,A,NULL
1736430883,af1580815e881e7f752925d65ac47d56,PennController,84,0,calibrator_conc_feedback,NULL,PennController,95,_Header_,Start,1736430350316,undefined,2365,gas,undefined,concrete,abstract,concrete,A,NULL
1736430883,af1580815e881e7f752925d65ac47d56,PennController,84,0,calibrator_conc_feedback,NULL,PennController,95,_Header_,End,1736430350570,undefined,2365,gas,undefined,concrete,abstract,concrete,A,NULL
1736430883,af1580815e881e7f752925d65ac47d56,PennController,84,0,calibrator_conc_feedback,NULL,Selector,Selection,Selection,concrete,1736430353441,undefined,2365,gas,undefined,concrete,abstract,concrete,A,abstract;concrete
1736430883,af1580815e881e7f752925d65ac47d56,PennController,84,0,calibrator_conc_feedback,NULL,PennController,95,_Trial_,End,1736430355447,undefined,2365,gas,undefined,concrete,abstract,concrete,A,NULL
# 16. Key_value_F.
# 17. Key_value_J.
# 18. Group.
# 19. Comments.
1736430883,af1580815e881e7f752925d65ac47d56,PennController,96,0,calibrator_conc_no_feedback,NULL,PennController,107,_Trial_,Start,1736430355448,undefined,1234,kick,abstract,concrete,A,NULL
1736430883,af1580815e881e7f752925d65ac47d56,PennController,96,0,calibrator_conc_no_feedback,NULL,PennController,107,_Header_,Start,1736430355448,undefined,1234,kick,abstract,concrete,A,NULL
1736430883,af1580815e881e7f752925d65ac47d56,PennController,96,0,calibrator_conc_no_feedback,NULL,PennController,107,_Header_,End,1736430355702,undefined,1234,kick,abstract,concrete,A,NULL
1736430883,af1580815e881e7f752925d65ac47d56,PennController,96,0,calibrator_conc_no_feedback,NULL,Selector,unnamed-Selector,Selection,concrete,1736430357441,undefined,1234,kick,abstract,concrete,A,abstract;concrete
1736430883,af1580815e881e7f752925d65ac47d56,PennController,96,0,calibrator_conc_no_feedback,NULL,PennController,107,_Trial_,End,1736430357442,undefined,1234,kick,abstract,concrete,A,NULL
1736430883,af1580815e881e7f752925d65ac47d56,PennController,94,0,calibrator_conc_no_feedback,NULL,PennController,105,_Trial_,Start,1736430357443,undefined,1540,gas,abstract,concrete,A,NULL
1736430883,af1580815e881e7f752925d65ac47d56,PennController,94,0,calibrator_conc_no_feedback,NULL,PennController,105,_Header_,Start,1736430357443,undefined,1540,gas,abstract,concrete,A,NULL
1736430883,af1580815e881e7f752925d65ac47d56,PennController,94,0,calibrator_conc_no_feedback,NULL,PennController,105,_Header_,End,1736430357693,undefined,1540,gas,abstract,concrete,A,NULL
1736430883,af1580815e881e7f752925d65ac47d56,PennController,94,0,calibrator_conc_no_feedback,NULL,Selector,unnamed-Selector,Selection,concrete,1736430359737,undefined,1540,gas,abstract,concrete,A,abstract;concrete
1736430883,af1580815e881e7f752925d65ac47d56,PennController,94,0,calibrator_conc_no_feedback,NULL,PennController,105,_Trial_,End,1736430359738,undefined,1540,gas,abstract,concrete,A,NULL
1736430883,af1580815e881e7f752925d65ac47d56,PennController,100,0,calibrator_conc_no_feedback,NULL,PennController,111,_Trial_,Start,1736430359739,undefined,1701,sugar,abstract,concrete,A,NULL
1736430883,af1580815e881e7f752925d65ac47d56,PennController,100,0,calibrator_conc_no_feedback,NULL,PennController,111,_Header_,Start,1736430359739,undefined,1701,sugar,abstract,concrete,A,NULL
1736430883,af1580815e881e7f752925d65ac47d56,PennController,100,0,calibrator_conc_no_feedback,NULL,PennController,111,_Header_,End,1736430359993,undefined,1701,sugar,abstract,concrete,A,NULL
1736430883,af1580815e881e7f752925d65ac47d56,PennController,100,0,calibrator_conc_no_feedback,NULL,Selector,unnamed-Selector,Selection,concrete,1736430362196,undefined,1701,sugar,abstract,concrete,A,abstract;concrete
1736430883,af1580815e881e7f752925d65ac47d56,PennController,100,0,calibrator_conc_no_feedback,NULL,PennController,111,_Trial_,End,1736430362197,undefined,1701,sugar,abstract,concrete,A,NULL
1736430883,af1580815e881e7f752925d65ac47d56,PennController,99,0,calibrator_conc_no_feedback,NULL,PennController,110,_Trial_,Start,1736430362198,undefined,1000,shirt,abstract,concrete,A,NULL
1736430883,af1580815e881e7f752925d65ac47d56,PennController,99,0,calibrator_conc_no_feedback,NULL,PennController,110,_Header_,Start,1736430362198,undefined,1000,shirt,abstract,concrete,A,NULL
1736430883,af1580815e881e7f752925d65ac47d56,PennController,99,0,calibrator_conc_no_feedback,NULL,PennController,110,_Header_,End,1736430362451,undefined,1000,shirt,abstract,concrete,A,NULL
1736430883,af1580815e881e7f752925d65ac47d56,PennController,99,0,calibrator_conc_no_feedback,NULL,Selector,unnamed-Selector,Selection,concrete,1736430363953,undefined,1000,shirt,abstract,concrete,A,abstract;concrete
1736430883,af1580815e881e7f752925d65ac47d56,PennController,99,0,calibrator_conc_no_feedback,NULL,PennController,110,_Trial_,End,1736430363954,undefined,1000,shirt,abstract,concrete,A,NULL
1736430883,af1580815e881e7f752925d65ac47d56,PennController,95,0,calibrator_conc_no_feedback,NULL,PennController,106,_Trial_,Start,1736430363955,undefined,852,grasshopper,abstract,concrete,A,NULL
1736430883,af1580815e881e7f752925d65ac47d56,PennController,95,0,calibrator_conc_no_feedback,NULL,PennController,106,_Header_,Start,1736430363955,undefined,852,grasshopper,abstract,concrete,A,NULL
1736430883,af1580815e881e7f752925d65ac47d56,PennController,95,0,calibrator_conc_no_feedback,NULL,PennController,106,_Header_,End,1736430364206,undefined,852,grasshopper,abstract,concrete,A,NULL
1736430883,af1580815e881e7f752925d65ac47d56,PennController,95,0,calibrator_conc_no_feedback,NULL,Selector,unnamed-Selector,Selection,concrete,1736430365564,undefined,852,grasshopper,abstract,concrete,A,abstract;concrete
1736430883,af1580815e881e7f752925d65ac47d56,PennController,95,0,calibrator_conc_no_feedback,NULL,PennController,106,_Trial_,End,1736430365565,undefined,852,grasshopper,abstract,concrete,A,NULL
1736430883,af1580815e881e7f752925d65ac47d56,PennController,98,0,calibrator_conc_no_feedback,NULL,PennController,109,_Trial_,Start,1736430365566,undefined,754,polite,abstract,concrete,A,NULL
1736430883,af1580815e881e7f752925d65ac47d56,PennController,98,0,calibrator_conc_no_feedback,NULL,PennController,109,_Header_,Start,1736430365566,undefined,754,polite,abstract,concrete,A,NULL
1736430883,af1580815e881e7f752925d65ac47d56,PennController,98,0,calibrator_conc_no_feedback,NULL,PennController,109,_Header_,End,1736430365817,undefined,754,polite,abstract,concrete,A,NULL
1736430883,af1580815e881e7f752925d65ac47d56,PennController,98,0,calibrator_conc_no_feedback,NULL,Selector,unnamed-Selector,Selection,abstract,1736430367072,undefined,754,polite,abstract,concrete,A,abstract;concrete
1736430883,af1580815e881e7f752925d65ac47d56,PennController,98,0,calibrator_conc_no_feedback,NULL,PennController,109,_Trial_,End,1736430367074,undefined,754,polite,abstract,concrete,A,NULL
1736430883,af1580815e881e7f752925d65ac47d56,PennController,103,0,calibrator_conc_no_feedback,NULL,PennController,114,_Trial_,Start,1736430367075,undefined,896,insecure,abstract,concrete,A,NULL
1736430883,af1580815e881e7f752925d65ac47d56,PennController,103,0,calibrator_conc_no_feedback,NULL,PennController,114,_Header_,Start,1736430367075,undefined,896,insecure,abstract,concrete,A,NULL
1736430883,af1580815e881e7f752925d65ac47d56,PennController,103,0,calibrator_conc_no_feedback,NULL,PennController,114,_Header_,End,1736430367328,undefined,896,insecure,abstract,concrete,A,NULL
1736430883,af1580815e881e7f752925d65ac47d56,PennController,103,0,calibrator_conc_no_feedback,NULL,Selector,unnamed-Selector,Selection,abstract,1736430368728,undefined,896,insecure,abstract,concrete,A,abstract;concrete
1736430883,af1580815e881e7f752925d65ac47d56,PennController,103,0,calibrator_conc_no_feedback,NULL,PennController,114,_Trial_,End,1736430368730,undefined,896,insecure,abstract,concrete,A,NULL
1736430883,af1580815e881e7f752925d65ac47d56,PennController,102,0,calibrator_conc_no_feedback,NULL,PennController,113,_Trial_,Start,1736430368730,undefined,743,whistle,abstract,concrete,A,NULL
1736430883,af1580815e881e7f752925d65ac47d56,PennController,102,0,calibrator_conc_no_feedback,NULL,PennController,113,_Header_,Start,1736430368730,undefined,743,whistle,abstract,concrete,A,NULL
1736430883,af1580815e881e7f752925d65ac47d56,PennController,102,0,calibrator_conc_no_feedback,NULL,PennController,113,_Header_,End,1736430368982,undefined,743,whistle,abstract,concrete,A,NULL
1736430883,af1580815e881e7f752925d65ac47d56,PennController,102,0,calibrator_conc_no_feedback,NULL,Selector,unnamed-Selector,Selection,concrete,1736430370225,undefined,743,whistle,abstract,concrete,A,abstract;concrete
1736430883,af1580815e881e7f752925d65ac47d56,PennController,102,0,calibrator_conc_no_feedback,NULL,PennController,113,_Trial_,End,1736430370226,undefined,743,whistle,abstract,concrete,A,NULL
1736430883,af1580815e881e7f752925d65ac47d56,PennController,97,0,calibrator_conc_no_feedback,NULL,PennController,108,_Trial_,Start,1736430370227,undefined,2259,marriage,abstract,concrete,A,NULL
1736430883,af1580815e881e7f752925d65ac47d56,PennController,97,0,calibrator_conc_no_feedback,NULL,PennController,108,_Header_,Start,1736430370227,undefined,2259,marriage,abstract,concrete,A,NULL
1736430883,af1580815e881e7f752925d65ac47d56,PennController,97,0,calibrator_conc_no_feedback,NULL,PennController,108,_Header_,End,1736430370480,undefined,2259,marriage,abstract,concrete,A,NULL
1736430883,af1580815e881e7f752925d65ac47d56,PennController,97,0,calibrator_conc_no_feedback,NULL,Selector,unnamed-Selector,Selection,abstract,1736430373244,undefined,2259,marriage,abstract,concrete,A,abstract;concrete
1736430883,af1580815e881e7f752925d65ac47d56,PennController,97,0,calibrator_conc_no_feedback,NULL,PennController,108,_Trial_,End,1736430373246,undefined,2259,marriage,abstract,concrete,A,NULL
1736430883,af1580815e881e7f752925d65ac47d56,PennController,101,0,calibrator_conc_no_feedback,NULL,PennController,112,_Trial_,Start,1736430373247,undefined,813,theory,abstract,concrete,A,NULL
1736430883,af1580815e881e7f752925d65ac47d56,PennController,101,0,calibrator_conc_no_feedback,NULL,PennController,112,_Header_,Start,1736430373247,undefined,813,theory,abstract,concrete,A,NULL
1736430883,af1580815e881e7f752925d65ac47d56,PennController,101,0,calibrator_conc_no_feedback,NULL,PennController,112,_Header_,End,1736430373497,undefined,813,theory,abstract,concrete,A,NULL
1736430883,af1580815e881e7f752925d65ac47d56,PennController,101,0,calibrator_conc_no_feedback,NULL,Selector,unnamed-Selector,Selection,abstract,1736430374813,undefined,813,theory,abstract,concrete,A,abstract;concrete
1736430883,af1580815e881e7f752925d65ac47d56,PennController,101,0,calibrator_conc_no_feedback,NULL,PennController,112,_Trial_,End,1736430374814,undefined,813,theory,abstract,concrete,A,NULL
# 13. Comments.
1736430883,af1580815e881e7f752925d65ac47d56,PennController,130,0,endinstructions_conc,NULL,PennController,8,_Trial_,Start,1736430374815,NULL
1736430883,af1580815e881e7f752925d65ac47d56,PennController,130,0,endinstructions_conc,NULL,PennController,8,_Header_,Start,1736430374815,NULL
1736430883,af1580815e881e7f752925d65ac47d56,PennController,130,0,endinstructions_conc,NULL,PennController,8,_Header_,End,1736430375065,NULL
1736430883,af1580815e881e7f752925d65ac47d56,PennController,130,0,endinstructions_conc,NULL,PennController,8,_Trial_,End,1736430379481,NULL
# 13. ID.
# 14. ReactionTime.
# 15. Word.
# 16. ConcValCombo.
# 17. Key_value_F.
# 18. Key_value_J.
# 19. Group.
# 20. Comments.
1736430883,af1580815e881e7f752925d65ac47d56,PennController,14,0,test_conc,NULL,PennController,25,_Trial_,Start,1736430379482,undefined,887,pizza,concrete-positive,abstract,concrete,A,NULL
1736430883,af1580815e881e7f752925d65ac47d56,PennController,14,0,test_conc,NULL,PennController,25,_Header_,Start,1736430379482,undefined,887,pizza,concrete-positive,abstract,concrete,A,NULL
1736430883,af1580815e881e7f752925d65ac47d56,PennController,14,0,test_conc,NULL,PennController,25,_Header_,End,1736430379733,undefined,887,pizza,concrete-positive,abstract,concrete,A,NULL
1736430883,af1580815e881e7f752925d65ac47d56,PennController,14,0,test_conc,NULL,Selector,unnamed-Selector,Selection,concrete,1736430381121,undefined,887,pizza,concrete-positive,abstract,concrete,A,abstract;concrete
1736430883,af1580815e881e7f752925d65ac47d56,PennController,14,0,test_conc,NULL,PennController,25,_Trial_,End,1736430381122,undefined,887,pizza,concrete-positive,abstract,concrete,A,NULL
1736430883,af1580815e881e7f752925d65ac47d56,PennController,35,0,test_conc,NULL,PennController,46,_Trial_,Start,1736430381123,undefined,715,maggot,concrete-negative,abstract,concrete,A,NULL
1736430883,af1580815e881e7f752925d65ac47d56,PennController,35,0,test_conc,NULL,PennController,46,_Header_,Start,1736430381123,undefined,715,maggot,concrete-negative,abstract,concrete,A,NULL
1736430883,af1580815e881e7f752925d65ac47d56,PennController,35,0,test_conc,NULL,PennController,46,_Header_,End,1736430381375,undefined,715,maggot,concrete-negative,abstract,concrete,A,NULL
1736430883,af1580815e881e7f752925d65ac47d56,PennController,35,0,test_conc,NULL,Selector,unnamed-Selector,Selection,concrete,1736430382593,undefined,715,maggot,concrete-negative,abstract,concrete,A,abstract;concrete
1736430883,af1580815e881e7f752925d65ac47d56,PennController,35,0,test_conc,NULL,PennController,46,_Trial_,End,1736430382594,undefined,715,maggot,concrete-negative,abstract,concrete,A,NULL
1736430883,af1580815e881e7f752925d65ac47d56,PennController,23,0,test_conc,NULL,PennController,34,_Trial_,Start,1736430382595,undefined,579,sandwich,concrete-positive,abstract,concrete,A,NULL
1736430883,af1580815e881e7f752925d65ac47d56,PennController,23,0,test_conc,NULL,PennController,34,_Header_,Start,1736430382595,undefined,579,sandwich,concrete-positive,abstract,concrete,A,NULL
1736430883,af1580815e881e7f752925d65ac47d56,PennController,23,0,test_conc,NULL,PennController,34,_Header_,End,1736430382845,undefined,579,sandwich,concrete-positive,abstract,concrete,A,NULL
1736430883,af1580815e881e7f752925d65ac47d56,PennController,23,0,test_conc,NULL,Selector,unnamed-Selector,Selection,concrete,1736430383929,undefined,579,sandwich,concrete-positive,abstract,concrete,A,abstract;concrete
1736430883,af1580815e881e7f752925d65ac47d56,PennController,23,0,test_conc,NULL,PennController,34,_Trial_,End,1736430383930,undefined,579,sandwich,concrete-positive,abstract,concrete,A,NULL
1736430883,af1580815e881e7f752925d65ac47d56,PennController,8,0,test_conc,NULL,PennController,19,_Trial_,Start,1736430383931,undefined,921,loathing,abstract-negative,abstract,concrete,A,NULL
1736430883,af1580815e881e7f752925d65ac47d56,PennController,8,0,test_conc,NULL,PennController,19,_Header_,Start,1736430383931,undefined,921,loathing,abstract-negative,abstract,concrete,A,NULL
1736430883,af1580815e881e7f752925d65ac47d56,PennController,8,0,test_conc,NULL,PennController,19,_Header_,End,1736430384181,undefined,921,loathing,abstract-negative,abstract,concrete,A,NULL
1736430883,af1580815e881e7f752925d65ac47d56,PennController,8,0,test_conc,NULL,Selector,unnamed-Selector,Selection,abstract,1736430385604,undefined,921,loathing,abstract-negative,abstract,concrete,A,abstract;concrete
1736430883,af1580815e881e7f752925d65ac47d56,PennController,8,0,test_conc,NULL,PennController,19,_Trial_,End,1736430385606,undefined,921,loathing,abstract-negative,abstract,concrete,A,NULL
1736430883,af1580815e881e7f752925d65ac47d56,PennController,36,0,test_conc,NULL,PennController,47,_Trial_,Start,1736430385607,undefined,947,rapist,concrete-negative,abstract,concrete,A,NULL
1736430883,af1580815e881e7f752925d65ac47d56,PennController,36,0,test_conc,NULL,PennController,47,_Header_,Start,1736430385607,undefined,947,rapist,concrete-negative,abstract,concrete,A,NULL
1736430883,af1580815e881e7f752925d65ac47d56,PennController,36,0,test_conc,NULL,PennController,47,_Header_,End,1736430385859,undefined,947,rapist,concrete-negative,abstract,concrete,A,NULL
1736430883,af1580815e881e7f752925d65ac47d56,PennController,36,0,test_conc,NULL,Selector,unnamed-Selector,Selection,abstract,1736430387309,undefined,947,rapist,concrete-negative,abstract,concrete,A,abstract;concrete
1736430883,af1580815e881e7f752925d65ac47d56,PennController,36,0,test_conc,NULL,PennController,47,_Trial_,End,1736430387310,undefined,947,rapist,concrete-negative,abstract,concrete,A,NULL
1736430883,af1580815e881e7f752925d65ac47d56,PennController,9,0,test_conc,NULL,PennController,20,_Trial_,Start,1736430387311,undefined,874,madness,abstract-negative,abstract,concrete,A,NULL
1736430883,af1580815e881e7f752925d65ac47d56,PennController,9,0,test_conc,NULL,PennController,20,_Header_,Start,1736430387311,undefined,874,madness,abstract-negative,abstract,concrete,A,NULL
1736430883,af1580815e881e7f752925d65ac47d56,PennController,9,0,test_conc,NULL,PennController,20,_Header_,End,1736430387564,undefined,874,madness,abstract-negative,abstract,concrete,A,NULL
1736430883,af1580815e881e7f752925d65ac47d56,PennController,9,0,test_conc,NULL,Selector,unnamed-Selector,Selection,abstract,1736430388940,undefined,874,madness,abstract-negative,abstract,concrete,A,abstract;concrete
1736430883,af1580815e881e7f752925d65ac47d56,PennController,9,0,test_conc,NULL,PennController,20,_Trial_,End,1736430388941,undefined,874,madness,abstract-negative,abstract,concrete,A,NULL
1736430883,af1580815e881e7f752925d65ac47d56,PennController,20,0,test_conc,NULL,PennController,31,_Trial_,Start,1736430388942,undefined,921,blanket,concrete-positive,abstract,concrete,A,NULL
1736430883,af1580815e881e7f752925d65ac47d56,PennController,20,0,test_conc,NULL,PennController,31,_Header_,Start,1736430388942,undefined,921,blanket,concrete-positive,abstract,concrete,A,NULL
1736430883,af1580815e881e7f752925d65ac47d56,PennController,20,0,test_conc,NULL,PennController,31,_Header_,End,1736430389195,undefined,921,blanket,concrete-positive,abstract,concrete,A,NULL
1736430883,af1580815e881e7f752925d65ac47d56,PennController,20,0,test_conc,NULL,Selector,unnamed-Selector,Selection,concrete,1736430390617,undefined,921,blanket,concrete-positive,abstract,concrete,A,abstract;concrete
1736430883,af1580815e881e7f752925d65ac47d56,PennController,20,0,test_conc,NULL,PennController,31,_Trial_,End,1736430390619,undefined,921,blanket,concrete-positive,abstract,concrete,A,NULL
1736430883,af1580815e881e7f752925d65ac47d56,PennController,41,0,test_conc,NULL,PennController,52,_Trial_,Start,1736430390619,undefined,907,prison,concrete-negative,abstract,concrete,A,NULL
1736430883,af1580815e881e7f752925d65ac47d56,PennController,41,0,test_conc,NULL,PennController,52,_Header_,Start,1736430390619,undefined,907,prison,concrete-negative,abstract,concrete,A,NULL
1736430883,af1580815e881e7f752925d65ac47d56,PennController,41,0,test_conc,NULL,PennController,52,_Header_,End,1736430390871,undefined,907,prison,concrete-negative,abstract,concrete,A,NULL
1736430883,af1580815e881e7f752925d65ac47d56,PennController,41,0,test_conc,NULL,Selector,unnamed-Selector,Selection,concrete,1736430392280,undefined,907,prison,concrete-negative,abstract,concrete,A,abstract;concrete
1736430883,af1580815e881e7f752925d65ac47d56,PennController,41,0,test_conc,NULL,PennController,52,_Trial_,End,1736430392281,undefined,907,prison,concrete-negative,abstract,concrete,A,NULL
1736430883,af1580815e881e7f752925d65ac47d56,PennController,27,0,test_conc,NULL,PennController,38,_Trial_,Start,1736430392282,undefined,842,courage,abstract-positive,abstract,concrete,A,NULL
1736430883,af1580815e881e7f752925d65ac47d56,PennController,27,0,test_conc,NULL,PennController,38,_Header_,Start,1736430392282,undefined,842,courage,abstract-positive,abstract,concrete,A,NULL
1736430883,af1580815e881e7f752925d65ac47d56,PennController,27,0,test_conc,NULL,PennController,38,_Header_,End,1736430392535,undefined,842,courage,abstract-positive,abstract,concrete,A,NULL
1736430883,af1580815e881e7f752925d65ac47d56,PennController,27,0,test_conc,NULL,Selector,unnamed-Selector,Selection,abstract,1736430393881,undefined,842,courage,abstract-positive,abstract,concrete,A,abstract;concrete
1736430883,af1580815e881e7f752925d65ac47d56,PennController,27,0,test_conc,NULL,PennController,38,_Trial_,End,1736430393883,undefined,842,courage,abstract-positive,abstract,concrete,A,NULL
1736430883,af1580815e881e7f752925d65ac47d56,PennController,38,0,test_conc,NULL,PennController,49,_Trial_,Start,1736430393884,undefined,770,casket,concrete-negative,abstract,concrete,A,NULL
1736430883,af1580815e881e7f752925d65ac47d56,PennController,38,0,test_conc,NULL,PennController,49,_Header_,Start,1736430393884,undefined,770,casket,concrete-negative,abstract,concrete,A,NULL
1736430883,af1580815e881e7f752925d65ac47d56,PennController,38,0,test_conc,NULL,PennController,49,_Header_,End,1736430394136,undefined,770,casket,concrete-negative,abstract,concrete,A,NULL
1736430883,af1580815e881e7f752925d65ac47d56,PennController,38,0,test_conc,NULL,Selector,unnamed-Selector,Selection,concrete,1736430395409,undefined,770,casket,concrete-negative,abstract,concrete,A,abstract;concrete
1736430883,af1580815e881e7f752925d65ac47d56,PennController,38,0,test_conc,NULL,PennController,49,_Trial_,End,1736430395410,undefined,770,casket,concrete-negative,abstract,concrete,A,NULL
1736430883,af1580815e881e7f752925d65ac47d56,PennController,25,0,test_conc,NULL,PennController,36,_Trial_,Start,1736430395411,undefined,771,greatness,abstract-positive,abstract,concrete,A,NULL
1736430883,af1580815e881e7f752925d65ac47d56,PennController,25,0,test_conc,NULL,PennController,36,_Header_,Start,1736430395411,undefined,771,greatness,abstract-positive,abstract,concrete,A,NULL
1736430883,af1580815e881e7f752925d65ac47d56,PennController,25,0,test_conc,NULL,PennController,36,_Header_,End,1736430395663,undefined,771,greatness,abstract-positive,abstract,concrete,A,NULL
1736430883,af1580815e881e7f752925d65ac47d56,PennController,25,0,test_conc,NULL,Selector,unnamed-Selector,Selection,abstract,1736430396937,undefined,771,greatness,abstract-positive,abstract,concrete,A,abstract;concrete
1736430883,af1580815e881e7f752925d65ac47d56,PennController,25,0,test_conc,NULL,PennController,36,_Trial_,End,1736430396938,undefined,771,greatness,abstract-positive,abstract,concrete,A,NULL
1736430883,af1580815e881e7f752925d65ac47d56,PennController,42,0,test_conc,NULL,PennController,53,_Trial_,Start,1736430396939,undefined,1538,lynching,concrete-negative,abstract,concrete,A,NULL
1736430883,af1580815e881e7f752925d65ac47d56,PennController,42,0,test_conc,NULL,PennController,53,_Header_,Start,1736430396939,undefined,1538,lynching,concrete-negative,abstract,concrete,A,NULL
1736430883,af1580815e881e7f752925d65ac47d56,PennController,42,0,test_conc,NULL,PennController,53,_Header_,End,1736430397191,undefined,1538,lynching,concrete-negative,abstract,concrete,A,NULL
1736430883,af1580815e881e7f752925d65ac47d56,PennController,42,0,test_conc,NULL,Selector,unnamed-Selector,Selection,abstract,1736430399233,undefined,1538,lynching,concrete-negative,abstract,concrete,A,abstract;concrete
1736430883,af1580815e881e7f752925d65ac47d56,PennController,42,0,test_conc,NULL,PennController,53,_Trial_,End,1736430399234,undefined,1538,lynching,concrete-negative,abstract,concrete,A,NULL
1736430883,af1580815e881e7f752925d65ac47d56,PennController,32,0,test_conc,NULL,PennController,43,_Trial_,Start,1736430399235,undefined,1194,justice,abstract-positive,abstract,concrete,A,NULL
1736430883,af1580815e881e7f752925d65ac47d56,PennController,32,0,test_conc,NULL,PennController,43,_Header_,Start,1736430399235,undefined,1194,justice,abstract-positive,abstract,concrete,A,NULL
1736430883,af1580815e881e7f752925d65ac47d56,PennController,32,0,test_conc,NULL,PennController,43,_Header_,End,1736430399489,undefined,1194,justice,abstract-positive,abstract,concrete,A,NULL
1736430883,af1580815e881e7f752925d65ac47d56,PennController,32,0,test_conc,NULL,Selector,unnamed-Selector,Selection,abstract,1736430401185,undefined,1194,justice,abstract-positive,abstract,concrete,A,abstract;concrete
1736430883,af1580815e881e7f752925d65ac47d56,PennController,32,0,test_conc,NULL,PennController,43,_Trial_,End,1736430401186,undefined,1194,justice,abstract-positive,abstract,concrete,A,NULL
1736430883,af1580815e881e7f752925d65ac47d56,PennController,4,0,test_conc,NULL,PennController,15,_Trial_,Start,1736430401187,undefined,1256,fascism,abstract-negative,abstract,concrete,A,NULL
1736430883,af1580815e881e7f752925d65ac47d56,PennController,4,0,test_conc,NULL,PennController,15,_Header_,Start,1736430401187,undefined,1256,fascism,abstract-negative,abstract,concrete,A,NULL
1736430883,af1580815e881e7f752925d65ac47d56,PennController,4,0,test_conc,NULL,PennController,15,_Header_,End,1736430401440,undefined,1256,fascism,abstract-negative,abstract,concrete,A,NULL
1736430883,af1580815e881e7f752925d65ac47d56,PennController,4,0,test_conc,NULL,Selector,unnamed-Selector,Selection,abstract,1736430403197,undefined,1256,fascism,abstract-negative,abstract,concrete,A,abstract;concrete
1736430883,af1580815e881e7f752925d65ac47d56,PennController,4,0,test_conc,NULL,PennController,15,_Trial_,End,1736430403198,undefined,1256,fascism,abstract-negative,abstract,concrete,A,NULL
1736430883,af1580815e881e7f752925d65ac47d56,PennController,29,0,test_conc,NULL,PennController,40,_Trial_,Start,1736430403199,undefined,2991,splendor,abstract-positive,abstract,concrete,A,NULL
1736430883,af1580815e881e7f752925d65ac47d56,PennController,29,0,test_conc,NULL,PennController,40,_Header_,Start,1736430403199,undefined,2991,splendor,abstract-positive,abstract,concrete,A,NULL
1736430883,af1580815e881e7f752925d65ac47d56,PennController,29,0,test_conc,NULL,PennController,40,_Header_,End,1736430403452,undefined,2991,splendor,abstract-positive,abstract,concrete,A,NULL
1736430883,af1580815e881e7f752925d65ac47d56,PennController,29,0,test_conc,NULL,Selector,unnamed-Selector,Selection,abstract,1736430406945,undefined,2991,splendor,abstract-positive,abstract,concrete,A,abstract;concrete
1736430883,af1580815e881e7f752925d65ac47d56,PennController,29,0,test_conc,NULL,PennController,40,_Trial_,End,1736430406946,undefined,2991,splendor,abstract-positive,abstract,concrete,A,NULL
1736430883,af1580815e881e7f752925d65ac47d56,PennController,21,0,test_conc,NULL,PennController,32,_Trial_,Start,1736430406947,undefined,2365,chipmunk,concrete-positive,abstract,concrete,A,NULL
1736430883,af1580815e881e7f752925d65ac47d56,PennController,21,0,test_conc,NULL,PennController,32,_Header_,Start,1736430406947,undefined,2365,chipmunk,concrete-positive,abstract,concrete,A,NULL
1736430883,af1580815e881e7f752925d65ac47d56,PennController,21,0,test_conc,NULL,PennController,32,_Header_,End,1736430407197,undefined,2365,chipmunk,concrete-positive,abstract,concrete,A,NULL
1736430883,af1580815e881e7f752925d65ac47d56,PennController,21,0,test_conc,NULL,Selector,unnamed-Selector,Selection,concrete,1736430410068,undefined,2365,chipmunk,concrete-positive,abstract,concrete,A,abstract;concrete
1736430883,af1580815e881e7f752925d65ac47d56,PennController,21,0,test_conc,NULL,PennController,32,_Trial_,End,1736430410070,undefined,2365,chipmunk,concrete-positive,abstract,concrete,A,NULL
1736430883,af1580815e881e7f752925d65ac47d56,PennController,33,0,test_conc,NULL,PennController,44,_Trial_,Start,1736430410070,undefined,1061,knowledge,abstract-positive,abstract,concrete,A,NULL
1736430883,af1580815e881e7f752925d65ac47d56,PennController,33,0,test_conc,NULL,PennController,44,_Header_,Start,1736430410070,undefined,1061,knowledge,abstract-positive,abstract,concrete,A,NULL
1736430883,af1580815e881e7f752925d65ac47d56,PennController,33,0,test_conc,NULL,PennController,44,_Header_,End,1736430410323,undefined,1061,knowledge,abstract-positive,abstract,concrete,A,NULL
1736430883,af1580815e881e7f752925d65ac47d56,PennController,33,0,test_conc,NULL,Selector,unnamed-Selector,Selection,abstract,1736430411889,undefined,1061,knowledge,abstract-positive,abstract,concrete,A,abstract;concrete
1736430883,af1580815e881e7f752925d65ac47d56,PennController,33,0,test_conc,NULL,PennController,44,_Trial_,End,1736430411890,undefined,1061,knowledge,abstract-positive,abstract,concrete,A,NULL
1736430883,af1580815e881e7f752925d65ac47d56,PennController,28,0,test_conc,NULL,PennController,39,_Trial_,Start,1736430411891,undefined,750,goodness,abstract-positive,abstract,concrete,A,NULL
1736430883,af1580815e881e7f752925d65ac47d56,PennController,28,0,test_conc,NULL,PennController,39,_Header_,Start,1736430411891,undefined,750,goodness,abstract-positive,abstract,concrete,A,NULL
1736430883,af1580815e881e7f752925d65ac47d56,PennController,28,0,test_conc,NULL,PennController,39,_Header_,End,1736430412143,undefined,750,goodness,abstract-positive,abstract,concrete,A,NULL
1736430883,af1580815e881e7f752925d65ac47d56,PennController,28,0,test_conc,NULL,Selector,unnamed-Selector,Selection,abstract,1736430413396,undefined,750,goodness,abstract-positive,abstract,concrete,A,abstract;concrete
1736430883,af1580815e881e7f752925d65ac47d56,PennController,28,0,test_conc,NULL,PennController,39,_Trial_,End,1736430413398,undefined,750,goodness,abstract-positive,abstract,concrete,A,NULL
1736430883,af1580815e881e7f752925d65ac47d56,PennController,30,0,test_conc,NULL,PennController,41,_Trial_,Start,1736430413398,undefined,582,fairness,abstract-positive,abstract,concrete,A,NULL
1736430883,af1580815e881e7f752925d65ac47d56,PennController,30,0,test_conc,NULL,PennController,41,_Header_,Start,1736430413398,undefined,582,fairness,abstract-positive,abstract,concrete,A,NULL
1736430883,af1580815e881e7f752925d65ac47d56,PennController,30,0,test_conc,NULL,PennController,41,_Header_,End,1736430413653,undefined,582,fairness,abstract-positive,abstract,concrete,A,NULL
1736430883,af1580815e881e7f752925d65ac47d56,PennController,30,0,test_conc,NULL,Selector,unnamed-Selector,Selection,abstract,1736430414740,undefined,582,fairness,abstract-positive,abstract,concrete,A,abstract;concrete
1736430883,af1580815e881e7f752925d65ac47d56,PennController,30,0,test_conc,NULL,PennController,41,_Trial_,End,1736430414741,undefined,582,fairness,abstract-positive,abstract,concrete,A,NULL
1736430883,af1580815e881e7f752925d65ac47d56,PennController,37,0,test_conc,NULL,PennController,48,_Trial_,Start,1736430414742,undefined,651,traffic,concrete-negative,abstract,concrete,A,NULL
1736430883,af1580815e881e7f752925d65ac47d56,PennController,37,0,test_conc,NULL,PennController,48,_Header_,Start,1736430414742,undefined,651,traffic,concrete-negative,abstract,concrete,A,NULL
1736430883,af1580815e881e7f752925d65ac47d56,PennController,37,0,test_conc,NULL,PennController,48,_Header_,End,1736430414994,undefined,651,traffic,concrete-negative,abstract,concrete,A,NULL
1736430883,af1580815e881e7f752925d65ac47d56,PennController,37,0,test_conc,NULL,Selector,unnamed-Selector,Selection,concrete,1736430416149,undefined,651,traffic,concrete-negative,abstract,concrete,A,abstract;concrete
1736430883,af1580815e881e7f752925d65ac47d56,PennController,37,0,test_conc,NULL,PennController,48,_Trial_,End,1736430416150,undefined,651,traffic,concrete-negative,abstract,concrete,A,NULL
1736430883,af1580815e881e7f752925d65ac47d56,PennController,19,0,test_conc,NULL,PennController,30,_Trial_,Start,1736430416151,undefined,751,dollar,concrete-positive,abstract,concrete,A,NULL
1736430883,af1580815e881e7f752925d65ac47d56,PennController,19,0,test_conc,NULL,PennController,30,_Header_,Start,1736430416151,undefined,751,dollar,concrete-positive,abstract,concrete,A,NULL
1736430883,af1580815e881e7f752925d65ac47d56,PennController,19,0,test_conc,NULL,PennController,30,_Header_,End,1736430416402,undefined,751,dollar,concrete-positive,abstract,concrete,A,NULL
1736430883,af1580815e881e7f752925d65ac47d56,PennController,19,0,test_conc,NULL,Selector,unnamed-Selector,Selection,concrete,1736430417657,undefined,751,dollar,concrete-positive,abstract,concrete,A,abstract;concrete
1736430883,af1580815e881e7f752925d65ac47d56,PennController,19,0,test_conc,NULL,PennController,30,_Trial_,End,1736430417658,undefined,751,dollar,concrete-positive,abstract,concrete,A,NULL
1736430883,af1580815e881e7f752925d65ac47d56,PennController,34,0,test_conc,NULL,PennController,45,_Trial_,Start,1736430417659,undefined,1062,feces,concrete-negative,abstract,concrete,A,NULL
1736430883,af1580815e881e7f752925d65ac47d56,PennController,34,0,test_conc,NULL,PennController,45,_Header_,Start,1736430417659,undefined,1062,feces,concrete-negative,abstract,concrete,A,NULL
1736430883,af1580815e881e7f752925d65ac47d56,PennController,34,0,test_conc,NULL,PennController,45,_Header_,End,1736430417911,undefined,1062,feces,concrete-negative,abstract,concrete,A,NULL
1736430883,af1580815e881e7f752925d65ac47d56,PennController,34,0,test_conc,NULL,Selector,unnamed-Selector,Selection,concrete,1736430419477,undefined,1062,feces,concrete-negative,abstract,concrete,A,abstract;concrete
1736430883,af1580815e881e7f752925d65ac47d56,PennController,34,0,test_conc,NULL,PennController,45,_Trial_,End,1736430419478,undefined,1062,feces,concrete-negative,abstract,concrete,A,NULL
1736430883,af1580815e881e7f752925d65ac47d56,PennController,6,0,test_conc,NULL,PennController,17,_Trial_,Start,1736430419479,undefined,844,hatred,abstract-negative,abstract,concrete,A,NULL
1736430883,af1580815e881e7f752925d65ac47d56,PennController,6,0,test_conc,NULL,PennController,17,_Header_,Start,1736430419479,undefined,844,hatred,abstract-negative,abstract,concrete,A,NULL
1736430883,af1580815e881e7f752925d65ac47d56,PennController,6,0,test_conc,NULL,PennController,17,_Header_,End,1736430419731,undefined,844,hatred,abstract-negative,abstract,concrete,A,NULL
1736430883,af1580815e881e7f752925d65ac47d56,PennController,6,0,test_conc,NULL,Selector,unnamed-Selector,Selection,abstract,1736430421081,undefined,844,hatred,abstract-negative,abstract,concrete,A,abstract;concrete
1736430883,af1580815e881e7f752925d65ac47d56,PennController,6,0,test_conc,NULL,PennController,17,_Trial_,End,1736430421082,undefined,844,hatred,abstract-negative,abstract,concrete,A,NULL
1736430883,af1580815e881e7f752925d65ac47d56,PennController,17,0,test_conc,NULL,PennController,28,_Trial_,Start,1736430421083,undefined,1018,duckling,concrete-positive,abstract,concrete,A,NULL
1736430883,af1580815e881e7f752925d65ac47d56,PennController,17,0,test_conc,NULL,PennController,28,_Header_,Start,1736430421083,undefined,1018,duckling,concrete-positive,abstract,concrete,A,NULL
1736430883,af1580815e881e7f752925d65ac47d56,PennController,17,0,test_conc,NULL,PennController,28,_Header_,End,1736430421335,undefined,1018,duckling,concrete-positive,abstract,concrete,A,NULL
1736430883,af1580815e881e7f752925d65ac47d56,PennController,17,0,test_conc,NULL,Selector,unnamed-Selector,Selection,concrete,1736430422856,undefined,1018,duckling,concrete-positive,abstract,concrete,A,abstract;concrete
1736430883,af1580815e881e7f752925d65ac47d56,PennController,17,0,test_conc,NULL,PennController,28,_Trial_,End,1736430422857,undefined,1018,duckling,concrete-positive,abstract,concrete,A,NULL
1736430883,af1580815e881e7f752925d65ac47d56,PennController,18,0,test_conc,NULL,PennController,29,_Trial_,Start,1736430422858,undefined,563,bunny,concrete-positive,abstract,concrete,A,NULL
1736430883,af1580815e881e7f752925d65ac47d56,PennController,18,0,test_conc,NULL,PennController,29,_Header_,Start,1736430422858,undefined,563,bunny,concrete-positive,abstract,concrete,A,NULL
1736430883,af1580815e881e7f752925d65ac47d56,PennController,18,0,test_conc,NULL,PennController,29,_Header_,End,1736430423112,undefined,563,bunny,concrete-positive,abstract,concrete,A,NULL
1736430883,af1580815e881e7f752925d65ac47d56,PennController,18,0,test_conc,NULL,Selector,unnamed-Selector,Selection,concrete,1736430424181,undefined,563,bunny,concrete-positive,abstract,concrete,A,abstract;concrete
1736430883,af1580815e881e7f752925d65ac47d56,PennController,18,0,test_conc,NULL,PennController,29,_Trial_,End,1736430424182,undefined,563,bunny,concrete-positive,abstract,concrete,A,NULL
1736430883,af1580815e881e7f752925d65ac47d56,PennController,5,0,test_conc,NULL,PennController,16,_Trial_,Start,1736430424183,undefined,677,betrayal,abstract-negative,abstract,concrete,A,NULL
1736430883,af1580815e881e7f752925d65ac47d56,PennController,5,0,test_conc,NULL,PennController,16,_Header_,Start,1736430424183,undefined,677,betrayal,abstract-negative,abstract,concrete,A,NULL
1736430883,af1580815e881e7f752925d65ac47d56,PennController,5,0,test_conc,NULL,PennController,16,_Header_,End,1736430424437,undefined,677,betrayal,abstract-negative,abstract,concrete,A,NULL
1736430883,af1580815e881e7f752925d65ac47d56,PennController,5,0,test_conc,NULL,Selector,unnamed-Selector,Selection,abstract,1736430425617,undefined,677,betrayal,abstract-negative,abstract,concrete,A,abstract;concrete
1736430883,af1580815e881e7f752925d65ac47d56,PennController,5,0,test_conc,NULL,PennController,16,_Trial_,End,1736430425618,undefined,677,betrayal,abstract-negative,abstract,concrete,A,NULL
1736430883,af1580815e881e7f752925d65ac47d56,PennController,24,0,test_conc,NULL,PennController,35,_Trial_,Start,1736430425619,undefined,625,wisdom,abstract-positive,abstract,concrete,A,NULL
1736430883,af1580815e881e7f752925d65ac47d56,PennController,24,0,test_conc,NULL,PennController,35,_Header_,Start,1736430425619,undefined,625,wisdom,abstract-positive,abstract,concrete,A,NULL
1736430883,af1580815e881e7f752925d65ac47d56,PennController,24,0,test_conc,NULL,PennController,35,_Header_,End,1736430425873,undefined,625,wisdom,abstract-positive,abstract,concrete,A,NULL
1736430883,af1580815e881e7f752925d65ac47d56,PennController,24,0,test_conc,NULL,Selector,unnamed-Selector,Selection,concrete,1736430427001,undefined,625,wisdom,abstract-positive,abstract,concrete,A,abstract;concrete
1736430883,af1580815e881e7f752925d65ac47d56,PennController,24,0,test_conc,NULL,PennController,35,_Trial_,End,1736430427002,undefined,625,wisdom,abstract-positive,abstract,concrete,A,NULL
1736430883,af1580815e881e7f752925d65ac47d56,PennController,40,0,test_conc,NULL,PennController,51,_Trial_,Start,1736430427003,undefined,963,bedpan,concrete-negative,abstract,concrete,A,NULL
1736430883,af1580815e881e7f752925d65ac47d56,PennController,40,0,test_conc,NULL,PennController,51,_Header_,Start,1736430427003,undefined,963,bedpan,concrete-negative,abstract,concrete,A,NULL
1736430883,af1580815e881e7f752925d65ac47d56,PennController,40,0,test_conc,NULL,PennController,51,_Header_,End,1736430427254,undefined,963,bedpan,concrete-negative,abstract,concrete,A,NULL
1736430883,af1580815e881e7f752925d65ac47d56,PennController,40,0,test_conc,NULL,Selector,unnamed-Selector,Selection,concrete,1736430428718,undefined,963,bedpan,concrete-negative,abstract,concrete,A,abstract;concrete
1736430883,af1580815e881e7f752925d65ac47d56,PennController,40,0,test_conc,NULL,PennController,51,_Trial_,End,1736430428719,undefined,963,bedpan,concrete-negative,abstract,concrete,A,NULL
1736430883,af1580815e881e7f752925d65ac47d56,PennController,10,0,test_conc,NULL,PennController,21,_Trial_,Start,1736430428720,undefined,854,contempt,abstract-negative,abstract,concrete,A,NULL
1736430883,af1580815e881e7f752925d65ac47d56,PennController,10,0,test_conc,NULL,PennController,21,_Header_,Start,1736430428720,undefined,854,contempt,abstract-negative,abstract,concrete,A,NULL
1736430883,af1580815e881e7f752925d65ac47d56,PennController,10,0,test_conc,NULL,PennController,21,_Header_,End,1736430428971,undefined,854,contempt,abstract-negative,abstract,concrete,A,NULL
1736430883,af1580815e881e7f752925d65ac47d56,PennController,10,0,test_conc,NULL,Selector,unnamed-Selector,Selection,abstract,1736430430329,undefined,854,contempt,abstract-negative,abstract,concrete,A,abstract;concrete
1736430883,af1580815e881e7f752925d65ac47d56,PennController,10,0,test_conc,NULL,PennController,21,_Trial_,End,1736430430330,undefined,854,contempt,abstract-negative,abstract,concrete,A,NULL
1736430883,af1580815e881e7f752925d65ac47d56,PennController,13,0,test_conc,NULL,PennController,24,_Trial_,Start,1736430430331,undefined,942,bummer,abstract-negative,abstract,concrete,A,NULL
1736430883,af1580815e881e7f752925d65ac47d56,PennController,13,0,test_conc,NULL,PennController,24,_Header_,Start,1736430430331,undefined,942,bummer,abstract-negative,abstract,concrete,A,NULL
1736430883,af1580815e881e7f752925d65ac47d56,PennController,13,0,test_conc,NULL,PennController,24,_Header_,End,1736430430582,undefined,942,bummer,abstract-negative,abstract,concrete,A,NULL
1736430883,af1580815e881e7f752925d65ac47d56,PennController,13,0,test_conc,NULL,Selector,unnamed-Selector,Selection,abstract,1736430432029,undefined,942,bummer,abstract-negative,abstract,concrete,A,abstract;concrete
1736430883,af1580815e881e7f752925d65ac47d56,PennController,13,0,test_conc,NULL,PennController,24,_Trial_,End,1736430432030,undefined,942,bummer,abstract-negative,abstract,concrete,A,NULL
1736430883,af1580815e881e7f752925d65ac47d56,PennController,31,0,test_conc,NULL,PennController,42,_Trial_,Start,1736430432031,undefined,930,wellness,abstract-positive,abstract,concrete,A,NULL
1736430883,af1580815e881e7f752925d65ac47d56,PennController,31,0,test_conc,NULL,PennController,42,_Header_,Start,1736430432031,undefined,930,wellness,abstract-positive,abstract,concrete,A,NULL
1736430883,af1580815e881e7f752925d65ac47d56,PennController,31,0,test_conc,NULL,PennController,42,_Header_,End,1736430432285,undefined,930,wellness,abstract-positive,abstract,concrete,A,NULL
1736430883,af1580815e881e7f752925d65ac47d56,PennController,31,0,test_conc,NULL,Selector,unnamed-Selector,Selection,abstract,1736430433717,undefined,930,wellness,abstract-positive,abstract,concrete,A,abstract;concrete
1736430883,af1580815e881e7f752925d65ac47d56,PennController,31,0,test_conc,NULL,PennController,42,_Trial_,End,1736430433718,undefined,930,wellness,abstract-positive,abstract,concrete,A,NULL
1736430883,af1580815e881e7f752925d65ac47d56,PennController,39,0,test_conc,NULL,PennController,50,_Trial_,Start,1736430433719,undefined,636,cockroach,concrete-negative,abstract,concrete,A,NULL
1736430883,af1580815e881e7f752925d65ac47d56,PennController,39,0,test_conc,NULL,PennController,50,_Header_,Start,1736430433719,undefined,636,cockroach,concrete-negative,abstract,concrete,A,NULL
1736430883,af1580815e881e7f752925d65ac47d56,PennController,39,0,test_conc,NULL,PennController,50,_Header_,End,1736430433972,undefined,636,cockroach,concrete-negative,abstract,concrete,A,NULL
1736430883,af1580815e881e7f752925d65ac47d56,PennController,39,0,test_conc,NULL,Selector,unnamed-Selector,Selection,concrete,1736430435109,undefined,636,cockroach,concrete-negative,abstract,concrete,A,abstract;concrete
1736430883,af1580815e881e7f752925d65ac47d56,PennController,39,0,test_conc,NULL,PennController,50,_Trial_,End,1736430435110,undefined,636,cockroach,concrete-negative,abstract,concrete,A,NULL
1736430883,af1580815e881e7f752925d65ac47d56,PennController,7,0,test_conc,NULL,PennController,18,_Trial_,Start,1736430435111,undefined,694,breakup,abstract-negative,abstract,concrete,A,NULL
1736430883,af1580815e881e7f752925d65ac47d56,PennController,7,0,test_conc,NULL,PennController,18,_Header_,Start,1736430435111,undefined,694,breakup,abstract-negative,abstract,concrete,A,NULL
1736430883,af1580815e881e7f752925d65ac47d56,PennController,7,0,test_conc,NULL,PennController,18,_Header_,End,1736430435361,undefined,694,breakup,abstract-negative,abstract,concrete,A,NULL
1736430883,af1580815e881e7f752925d65ac47d56,PennController,7,0,test_conc,NULL,Selector,unnamed-Selector,Selection,abstract,1736430436557,undefined,694,breakup,abstract-negative,abstract,concrete,A,abstract;concrete
1736430883,af1580815e881e7f752925d65ac47d56,PennController,7,0,test_conc,NULL,PennController,18,_Trial_,End,1736430436558,undefined,694,breakup,abstract-negative,abstract,concrete,A,NULL
1736430883,af1580815e881e7f752925d65ac47d56,PennController,16,0,test_conc,NULL,PennController,27,_Trial_,Start,1736430436559,undefined,623,doughnut,concrete-positive,abstract,concrete,A,NULL
1736430883,af1580815e881e7f752925d65ac47d56,PennController,16,0,test_conc,NULL,PennController,27,_Header_,Start,1736430436559,undefined,623,doughnut,concrete-positive,abstract,concrete,A,NULL
1736430883,af1580815e881e7f752925d65ac47d56,PennController,16,0,test_conc,NULL,PennController,27,_Header_,End,1736430436812,undefined,623,doughnut,concrete-positive,abstract,concrete,A,NULL
1736430883,af1580815e881e7f752925d65ac47d56,PennController,16,0,test_conc,NULL,Selector,unnamed-Selector,Selection,concrete,1736430437941,undefined,623,doughnut,concrete-positive,abstract,concrete,A,abstract;concrete
1736430883,af1580815e881e7f752925d65ac47d56,PennController,16,0,test_conc,NULL,PennController,27,_Trial_,End,1736430437942,undefined,623,doughnut,concrete-positive,abstract,concrete,A,NULL
1736430883,af1580815e881e7f752925d65ac47d56,PennController,26,0,test_conc,NULL,PennController,37,_Trial_,Start,1736430437942,undefined,1087,fondness,abstract-positive,abstract,concrete,A,NULL
1736430883,af1580815e881e7f752925d65ac47d56,PennController,26,0,test_conc,NULL,PennController,37,_Header_,Start,1736430437942,undefined,1087,fondness,abstract-positive,abstract,concrete,A,NULL
1736430883,af1580815e881e7f752925d65ac47d56,PennController,26,0,test_conc,NULL,PennController,37,_Header_,End,1736430438195,undefined,1087,fondness,abstract-positive,abstract,concrete,A,NULL
1736430883,af1580815e881e7f752925d65ac47d56,PennController,26,0,test_conc,NULL,Selector,unnamed-Selector,Selection,abstract,1736430439785,undefined,1087,fondness,abstract-positive,abstract,concrete,A,abstract;concrete
1736430883,af1580815e881e7f752925d65ac47d56,PennController,26,0,test_conc,NULL,PennController,37,_Trial_,End,1736430439786,undefined,1087,fondness,abstract-positive,abstract,concrete,A,NULL
1736430883,af1580815e881e7f752925d65ac47d56,PennController,12,0,test_conc,NULL,PennController,23,_Trial_,Start,1736430439787,undefined,597,sadness,abstract-negative,abstract,concrete,A,NULL
1736430883,af1580815e881e7f752925d65ac47d56,PennController,12,0,test_conc,NULL,PennController,23,_Header_,Start,1736430439787,undefined,597,sadness,abstract-negative,abstract,concrete,A,NULL
1736430883,af1580815e881e7f752925d65ac47d56,PennController,12,0,test_conc,NULL,PennController,23,_Header_,End,1736430440038,undefined,597,sadness,abstract-negative,abstract,concrete,A,NULL
1736430883,af1580815e881e7f752925d65ac47d56,PennController,12,0,test_conc,NULL,Selector,unnamed-Selector,Selection,abstract,1736430441141,undefined,597,sadness,abstract-negative,abstract,concrete,A,abstract;concrete
1736430883,af1580815e881e7f752925d65ac47d56,PennController,12,0,test_conc,NULL,PennController,23,_Trial_,End,1736430441142,undefined,597,sadness,abstract-negative,abstract,concrete,A,NULL
1736430883,af1580815e881e7f752925d65ac47d56,PennController,43,0,test_conc,NULL,PennController,54,_Trial_,Start,1736430441143,undefined,1879,frostbite,concrete-negative,abstract,concrete,A,NULL
1736430883,af1580815e881e7f752925d65ac47d56,PennController,43,0,test_conc,NULL,PennController,54,_Header_,Start,1736430441143,undefined,1879,frostbite,concrete-negative,abstract,concrete,A,NULL
1736430883,af1580815e881e7f752925d65ac47d56,PennController,43,0,test_conc,NULL,PennController,54,_Header_,End,1736430441394,undefined,1879,frostbite,concrete-negative,abstract,concrete,A,NULL
1736430883,af1580815e881e7f752925d65ac47d56,PennController,43,0,test_conc,NULL,Selector,unnamed-Selector,Selection,abstract,1736430443777,undefined,1879,frostbite,concrete-negative,abstract,concrete,A,abstract;concrete
1736430883,af1580815e881e7f752925d65ac47d56,PennController,43,0,test_conc,NULL,PennController,54,_Trial_,End,1736430443779,undefined,1879,frostbite,concrete-negative,abstract,concrete,A,NULL
1736430883,af1580815e881e7f752925d65ac47d56,PennController,11,0,test_conc,NULL,PennController,22,_Trial_,Start,1736430443779,undefined,1345,revenge,abstract-negative,abstract,concrete,A,NULL
1736430883,af1580815e881e7f752925d65ac47d56,PennController,11,0,test_conc,NULL,PennController,22,_Header_,Start,1736430443779,undefined,1345,revenge,abstract-negative,abstract,concrete,A,NULL
1736430883,af1580815e881e7f752925d65ac47d56,PennController,11,0,test_conc,NULL,PennController,22,_Header_,End,1736430444033,undefined,1345,revenge,abstract-negative,abstract,concrete,A,NULL
1736430883,af1580815e881e7f752925d65ac47d56,PennController,11,0,test_conc,NULL,Selector,unnamed-Selector,Selection,abstract,1736430445881,undefined,1345,revenge,abstract-negative,abstract,concrete,A,abstract;concrete
1736430883,af1580815e881e7f752925d65ac47d56,PennController,11,0,test_conc,NULL,PennController,22,_Trial_,End,1736430445883,undefined,1345,revenge,abstract-negative,abstract,concrete,A,NULL
1736430883,af1580815e881e7f752925d65ac47d56,PennController,15,0,test_conc,NULL,PennController,26,_Trial_,Start,1736430445883,undefined,524,popcorn,concrete-positive,abstract,concrete,A,NULL
1736430883,af1580815e881e7f752925d65ac47d56,PennController,15,0,test_conc,NULL,PennController,26,_Header_,Start,1736430445883,undefined,524,popcorn,concrete-positive,abstract,concrete,A,NULL
1736430883,af1580815e881e7f752925d65ac47d56,PennController,15,0,test_conc,NULL,PennController,26,_Header_,End,1736430446137,undefined,524,popcorn,concrete-positive,abstract,concrete,A,NULL
1736430883,af1580815e881e7f752925d65ac47d56,PennController,15,0,test_conc,NULL,Selector,unnamed-Selector,Selection,concrete,1736430447165,undefined,524,popcorn,concrete-positive,abstract,concrete,A,abstract;concrete
1736430883,af1580815e881e7f752925d65ac47d56,PennController,15,0,test_conc,NULL,PennController,26,_Trial_,End,1736430447167,undefined,524,popcorn,concrete-positive,abstract,concrete,A,NULL
1736430883,af1580815e881e7f752925d65ac47d56,PennController,22,0,test_conc,NULL,PennController,33,_Trial_,Start,1736430447167,undefined,483,pancake,concrete-positive,abstract,concrete,A,NULL
1736430883,af1580815e881e7f752925d65ac47d56,PennController,22,0,test_conc,NULL,PennController,33,_Header_,Start,1736430447167,undefined,483,pancake,concrete-positive,abstract,concrete,A,NULL
1736430883,af1580815e881e7f752925d65ac47d56,PennController,22,0,test_conc,NULL,PennController,33,_Header_,End,1736430447418,undefined,483,pancake,concrete-positive,abstract,concrete,A,NULL
1736430883,af1580815e881e7f752925d65ac47d56,PennController,22,0,test_conc,NULL,Selector,unnamed-Selector,Selection,concrete,1736430448405,undefined,483,pancake,concrete-positive,abstract,concrete,A,abstract;concrete
1736430883,af1580815e881e7f752925d65ac47d56,PennController,22,0,test_conc,NULL,PennController,33,_Trial_,End,1736430448406,undefined,483,pancake,concrete-positive,abstract,concrete,A,NULL
1736430883,af1580815e881e7f752925d65ac47d56,PennController,18,0,test_conc,NULL,PennController,29,_Trial_,Start,1736430448407,undefined,456,bunny,concrete-positive,abstract,concrete,A,NULL
1736430883,af1580815e881e7f752925d65ac47d56,PennController,18,0,test_conc,NULL,PennController,29,_Header_,Start,1736430448407,undefined,456,bunny,concrete-positive,abstract,concrete,A,NULL
1736430883,af1580815e881e7f752925d65ac47d56,PennController,18,0,test_conc,NULL,PennController,29,_Header_,End,1736430448660,undefined,456,bunny,concrete-positive,abstract,concrete,A,NULL
1736430883,af1580815e881e7f752925d65ac47d56,PennController,18,0,test_conc,NULL,Selector,unnamed-Selector,Selection,concrete,1736430449619,undefined,456,bunny,concrete-positive,abstract,concrete,A,abstract;concrete
1736430883,af1580815e881e7f752925d65ac47d56,PennController,18,0,test_conc,NULL,PennController,29,_Trial_,End,1736430449620,undefined,456,bunny,concrete-positive,abstract,concrete,A,NULL
1736430883,af1580815e881e7f752925d65ac47d56,PennController,11,0,test_conc,NULL,PennController,22,_Trial_,Start,1736430449621,undefined,607,revenge,abstract-negative,abstract,concrete,A,NULL
1736430883,af1580815e881e7f752925d65ac47d56,PennController,11,0,test_conc,NULL,PennController,22,_Header_,Start,1736430449621,undefined,607,revenge,abstract-negative,abstract,concrete,A,NULL
1736430883,af1580815e881e7f752925d65ac47d56,PennController,11,0,test_conc,NULL,PennController,22,_Header_,End,1736430449874,undefined,607,revenge,abstract-negative,abstract,concrete,A,NULL
1736430883,af1580815e881e7f752925d65ac47d56,PennController,11,0,test_conc,NULL,Selector,unnamed-Selector,Selection,abstract,1736430450984,undefined,607,revenge,abstract-negative,abstract,concrete,A,abstract;concrete
1736430883,af1580815e881e7f752925d65ac47d56,PennController,11,0,test_conc,NULL,PennController,22,_Trial_,End,1736430450985,undefined,607,revenge,abstract-negative,abstract,concrete,A,NULL
1736430883,af1580815e881e7f752925d65ac47d56,PennController,8,0,test_conc,NULL,PennController,19,_Trial_,Start,1736430450986,undefined,772,loathing,abstract-negative,abstract,concrete,A,NULL
1736430883,af1580815e881e7f752925d65ac47d56,PennController,8,0,test_conc,NULL,PennController,19,_Header_,Start,1736430450986,undefined,772,loathing,abstract-negative,abstract,concrete,A,NULL
1736430883,af1580815e881e7f752925d65ac47d56,PennController,8,0,test_conc,NULL,PennController,19,_Header_,End,1736430451240,undefined,772,loathing,abstract-negative,abstract,concrete,A,NULL
1736430883,af1580815e881e7f752925d65ac47d56,PennController,8,0,test_conc,NULL,Selector,unnamed-Selector,Selection,abstract,1736430452513,undefined,772,loathing,abstract-negative,abstract,concrete,A,abstract;concrete
1736430883,af1580815e881e7f752925d65ac47d56,PennController,8,0,test_conc,NULL,PennController,19,_Trial_,End,1736430452514,undefined,772,loathing,abstract-negative,abstract,concrete,A,NULL
1736430883,af1580815e881e7f752925d65ac47d56,PennController,10,0,test_conc,NULL,PennController,21,_Trial_,Start,1736430452515,undefined,744,contempt,abstract-negative,abstract,concrete,A,NULL
1736430883,af1580815e881e7f752925d65ac47d56,PennController,10,0,test_conc,NULL,PennController,21,_Header_,Start,1736430452515,undefined,744,contempt,abstract-negative,abstract,concrete,A,NULL
1736430883,af1580815e881e7f752925d65ac47d56,PennController,10,0,test_conc,NULL,PennController,21,_Header_,End,1736430452767,undefined,744,contempt,abstract-negative,abstract,concrete,A,NULL
1736430883,af1580815e881e7f752925d65ac47d56,PennController,10,0,test_conc,NULL,Selector,unnamed-Selector,Selection,abstract,1736430454013,undefined,744,contempt,abstract-negative,abstract,concrete,A,abstract;concrete
1736430883,af1580815e881e7f752925d65ac47d56,PennController,10,0,test_conc,NULL,PennController,21,_Trial_,End,1736430454014,undefined,744,contempt,abstract-negative,abstract,concrete,A,NULL
1736430883,af1580815e881e7f752925d65ac47d56,PennController,9,0,test_conc,NULL,PennController,20,_Trial_,Start,1736430454015,undefined,531,madness,abstract-negative,abstract,concrete,A,NULL
1736430883,af1580815e881e7f752925d65ac47d56,PennController,9,0,test_conc,NULL,PennController,20,_Header_,Start,1736430454015,undefined,531,madness,abstract-negative,abstract,concrete,A,NULL
1736430883,af1580815e881e7f752925d65ac47d56,PennController,9,0,test_conc,NULL,PennController,20,_Header_,End,1736430454267,undefined,531,madness,abstract-negative,abstract,concrete,A,NULL
1736430883,af1580815e881e7f752925d65ac47d56,PennController,9,0,test_conc,NULL,Selector,unnamed-Selector,Selection,abstract,1736430455301,undefined,531,madness,abstract-negative,abstract,concrete,A,abstract;concrete
1736430883,af1580815e881e7f752925d65ac47d56,PennController,9,0,test_conc,NULL,PennController,20,_Trial_,End,1736430455302,undefined,531,madness,abstract-negative,abstract,concrete,A,NULL
1736430883,af1580815e881e7f752925d65ac47d56,PennController,33,0,test_conc,NULL,PennController,44,_Trial_,Start,1736430455303,undefined,576,knowledge,abstract-positive,abstract,concrete,A,NULL
1736430883,af1580815e881e7f752925d65ac47d56,PennController,33,0,test_conc,NULL,PennController,44,_Header_,Start,1736430455303,undefined,576,knowledge,abstract-positive,abstract,concrete,A,NULL
1736430883,af1580815e881e7f752925d65ac47d56,PennController,33,0,test_conc,NULL,PennController,44,_Header_,End,1736430455554,undefined,576,knowledge,abstract-positive,abstract,concrete,A,NULL
1736430883,af1580815e881e7f752925d65ac47d56,PennController,33,0,test_conc,NULL,Selector,unnamed-Selector,Selection,abstract,1736430456633,undefined,576,knowledge,abstract-positive,abstract,concrete,A,abstract;concrete
1736430883,af1580815e881e7f752925d65ac47d56,PennController,33,0,test_conc,NULL,PennController,44,_Trial_,End,1736430456634,undefined,576,knowledge,abstract-positive,abstract,concrete,A,NULL
1736430883,af1580815e881e7f752925d65ac47d56,PennController,25,0,test_conc,NULL,PennController,36,_Trial_,Start,1736430456635,undefined,535,greatness,abstract-positive,abstract,concrete,A,NULL
1736430883,af1580815e881e7f752925d65ac47d56,PennController,25,0,test_conc,NULL,PennController,36,_Header_,Start,1736430456635,undefined,535,greatness,abstract-positive,abstract,concrete,A,NULL
1736430883,af1580815e881e7f752925d65ac47d56,PennController,25,0,test_conc,NULL,PennController,36,_Header_,End,1736430456888,undefined,535,greatness,abstract-positive,abstract,concrete,A,NULL
1736430883,af1580815e881e7f752925d65ac47d56,PennController,25,0,test_conc,NULL,Selector,unnamed-Selector,Selection,abstract,1736430457924,undefined,535,greatness,abstract-positive,abstract,concrete,A,abstract;concrete
1736430883,af1580815e881e7f752925d65ac47d56,PennController,25,0,test_conc,NULL,PennController,36,_Trial_,End,1736430457925,undefined,535,greatness,abstract-positive,abstract,concrete,A,NULL
1736430883,af1580815e881e7f752925d65ac47d56,PennController,37,0,test_conc,NULL,PennController,48,_Trial_,Start,1736430457926,undefined,544,traffic,concrete-negative,abstract,concrete,A,NULL
1736430883,af1580815e881e7f752925d65ac47d56,PennController,37,0,test_conc,NULL,PennController,48,_Header_,Start,1736430457926,undefined,544,traffic,concrete-negative,abstract,concrete,A,NULL
1736430883,af1580815e881e7f752925d65ac47d56,PennController,37,0,test_conc,NULL,PennController,48,_Header_,End,1736430458180,undefined,544,traffic,concrete-negative,abstract,concrete,A,NULL
1736430883,af1580815e881e7f752925d65ac47d56,PennController,37,0,test_conc,NULL,Selector,unnamed-Selector,Selection,concrete,1736430459225,undefined,544,traffic,concrete-negative,abstract,concrete,A,abstract;concrete
1736430883,af1580815e881e7f752925d65ac47d56,PennController,37,0,test_conc,NULL,PennController,48,_Trial_,End,1736430459226,undefined,544,traffic,concrete-negative,abstract,concrete,A,NULL
1736430883,af1580815e881e7f752925d65ac47d56,PennController,22,0,test_conc,NULL,PennController,33,_Trial_,Start,1736430459227,undefined,550,pancake,concrete-positive,abstract,concrete,A,NULL
1736430883,af1580815e881e7f752925d65ac47d56,PennController,22,0,test_conc,NULL,PennController,33,_Header_,Start,1736430459227,undefined,550,pancake,concrete-positive,abstract,concrete,A,NULL
1736430883,af1580815e881e7f752925d65ac47d56,PennController,22,0,test_conc,NULL,PennController,33,_Header_,End,1736430459478,undefined,550,pancake,concrete-positive,abstract,concrete,A,NULL
1736430883,af1580815e881e7f752925d65ac47d56,PennController,22,0,test_conc,NULL,Selector,unnamed-Selector,Selection,concrete,1736430460528,undefined,550,pancake,concrete-positive,abstract,concrete,A,abstract;concrete
1736430883,af1580815e881e7f752925d65ac47d56,PennController,22,0,test_conc,NULL,PennController,33,_Trial_,End,1736430460530,undefined,550,pancake,concrete-positive,abstract,concrete,A,NULL
1736430883,af1580815e881e7f752925d65ac47d56,PennController,15,0,test_conc,NULL,PennController,26,_Trial_,Start,1736430460530,undefined,493,popcorn,concrete-positive,abstract,concrete,A,NULL
1736430883,af1580815e881e7f752925d65ac47d56,PennController,15,0,test_conc,NULL,PennController,26,_Header_,Start,1736430460530,undefined,493,popcorn,concrete-positive,abstract,concrete,A,NULL
1736430883,af1580815e881e7f752925d65ac47d56,PennController,15,0,test_conc,NULL,PennController,26,_Header_,End,1736430460780,undefined,493,popcorn,concrete-positive,abstract,concrete,A,NULL
1736430883,af1580815e881e7f752925d65ac47d56,PennController,15,0,test_conc,NULL,Selector,unnamed-Selector,Selection,concrete,1736430461777,undefined,493,popcorn,concrete-positive,abstract,concrete,A,abstract;concrete
1736430883,af1580815e881e7f752925d65ac47d56,PennController,15,0,test_conc,NULL,PennController,26,_Trial_,End,1736430461778,undefined,493,popcorn,concrete-positive,abstract,concrete,A,NULL
1736430883,af1580815e881e7f752925d65ac47d56,PennController,34,0,test_conc,NULL,PennController,45,_Trial_,Start,1736430461779,undefined,630,feces,concrete-negative,abstract,concrete,A,NULL
1736430883,af1580815e881e7f752925d65ac47d56,PennController,34,0,test_conc,NULL,PennController,45,_Header_,Start,1736430461779,undefined,630,feces,concrete-negative,abstract,concrete,A,NULL
1736430883,af1580815e881e7f752925d65ac47d56,PennController,34,0,test_conc,NULL,PennController,45,_Header_,End,1736430462031,undefined,630,feces,concrete-negative,abstract,concrete,A,NULL
1736430883,af1580815e881e7f752925d65ac47d56,PennController,34,0,test_conc,NULL,Selector,unnamed-Selector,Selection,concrete,1736430463165,undefined,630,feces,concrete-negative,abstract,concrete,A,abstract;concrete
1736430883,af1580815e881e7f752925d65ac47d56,PennController,34,0,test_conc,NULL,PennController,45,_Trial_,End,1736430463166,undefined,630,feces,concrete-negative,abstract,concrete,A,NULL
1736430883,af1580815e881e7f752925d65ac47d56,PennController,24,0,test_conc,NULL,PennController,35,_Trial_,Start,1736430463167,undefined,951,wisdom,abstract-positive,abstract,concrete,A,NULL
1736430883,af1580815e881e7f752925d65ac47d56,PennController,24,0,test_conc,NULL,PennController,35,_Header_,Start,1736430463167,undefined,951,wisdom,abstract-positive,abstract,concrete,A,NULL
1736430883,af1580815e881e7f752925d65ac47d56,PennController,24,0,test_conc,NULL,PennController,35,_Header_,End,1736430463421,undefined,951,wisdom,abstract-positive,abstract,concrete,A,NULL
1736430883,af1580815e881e7f752925d65ac47d56,PennController,24,0,test_conc,NULL,Selector,unnamed-Selector,Selection,abstract,1736430464876,undefined,951,wisdom,abstract-positive,abstract,concrete,A,abstract;concrete
1736430883,af1580815e881e7f752925d65ac47d56,PennController,24,0,test_conc,NULL,PennController,35,_Trial_,End,1736430464877,undefined,951,wisdom,abstract-positive,abstract,concrete,A,NULL
1736430883,af1580815e881e7f752925d65ac47d56,PennController,27,0,test_conc,NULL,PennController,38,_Trial_,Start,1736430464878,undefined,962,courage,abstract-positive,abstract,concrete,A,NULL
1736430883,af1580815e881e7f752925d65ac47d56,PennController,27,0,test_conc,NULL,PennController,38,_Header_,Start,1736430464878,undefined,962,courage,abstract-positive,abstract,concrete,A,NULL
1736430883,af1580815e881e7f752925d65ac47d56,PennController,27,0,test_conc,NULL,PennController,38,_Header_,End,1736430465129,undefined,962,courage,abstract-positive,abstract,concrete,A,NULL
1736430883,af1580815e881e7f752925d65ac47d56,PennController,27,0,test_conc,NULL,Selector,unnamed-Selector,Selection,abstract,1736430466597,undefined,962,courage,abstract-positive,abstract,concrete,A,abstract;concrete
1736430883,af1580815e881e7f752925d65ac47d56,PennController,27,0,test_conc,NULL,PennController,38,_Trial_,End,1736430466598,undefined,962,courage,abstract-positive,abstract,concrete,A,NULL
1736430883,af1580815e881e7f752925d65ac47d56,PennController,13,0,test_conc,NULL,PennController,24,_Trial_,Start,1736430466599,undefined,1035,bummer,abstract-negative,abstract,concrete,A,NULL
1736430883,af1580815e881e7f752925d65ac47d56,PennController,13,0,test_conc,NULL,PennController,24,_Header_,Start,1736430466599,undefined,1035,bummer,abstract-negative,abstract,concrete,A,NULL
1736430883,af1580815e881e7f752925d65ac47d56,PennController,13,0,test_conc,NULL,PennController,24,_Header_,End,1736430466851,undefined,1035,bummer,abstract-negative,abstract,concrete,A,NULL
1736430883,af1580815e881e7f752925d65ac47d56,PennController,13,0,test_conc,NULL,Selector,unnamed-Selector,Selection,abstract,1736430468387,undefined,1035,bummer,abstract-negative,abstract,concrete,A,abstract;concrete
1736430883,af1580815e881e7f752925d65ac47d56,PennController,13,0,test_conc,NULL,PennController,24,_Trial_,End,1736430468389,undefined,1035,bummer,abstract-negative,abstract,concrete,A,NULL
1736430883,af1580815e881e7f752925d65ac47d56,PennController,21,0,test_conc,NULL,PennController,32,_Trial_,Start,1736430468390,undefined,857,chipmunk,concrete-positive,abstract,concrete,A,NULL
1736430883,af1580815e881e7f752925d65ac47d56,PennController,21,0,test_conc,NULL,PennController,32,_Header_,Start,1736430468390,undefined,857,chipmunk,concrete-positive,abstract,concrete,A,NULL
1736430883,af1580815e881e7f752925d65ac47d56,PennController,21,0,test_conc,NULL,PennController,32,_Header_,End,1736430468643,undefined,857,chipmunk,concrete-positive,abstract,concrete,A,NULL
1736430883,af1580815e881e7f752925d65ac47d56,PennController,21,0,test_conc,NULL,Selector,unnamed-Selector,Selection,concrete,1736430470005,undefined,857,chipmunk,concrete-positive,abstract,concrete,A,abstract;concrete
1736430883,af1580815e881e7f752925d65ac47d56,PennController,21,0,test_conc,NULL,PennController,32,_Trial_,End,1736430470006,undefined,857,chipmunk,concrete-positive,abstract,concrete,A,NULL
1736430883,af1580815e881e7f752925d65ac47d56,PennController,14,0,test_conc,NULL,PennController,25,_Trial_,Start,1736430470007,undefined,694,pizza,concrete-positive,abstract,concrete,A,NULL
1736430883,af1580815e881e7f752925d65ac47d56,PennController,14,0,test_conc,NULL,PennController,25,_Header_,Start,1736430470007,undefined,694,pizza,concrete-positive,abstract,concrete,A,NULL
1736430883,af1580815e881e7f752925d65ac47d56,PennController,14,0,test_conc,NULL,PennController,25,_Header_,End,1736430470259,undefined,694,pizza,concrete-positive,abstract,concrete,A,NULL
1736430883,af1580815e881e7f752925d65ac47d56,PennController,14,0,test_conc,NULL,Selector,unnamed-Selector,Selection,concrete,1736430471456,undefined,694,pizza,concrete-positive,abstract,concrete,A,abstract;concrete
1736430883,af1580815e881e7f752925d65ac47d56,PennController,14,0,test_conc,NULL,PennController,25,_Trial_,End,1736430471457,undefined,694,pizza,concrete-positive,abstract,concrete,A,NULL
1736430883,af1580815e881e7f752925d65ac47d56,PennController,43,0,test_conc,NULL,PennController,54,_Trial_,Start,1736430471458,undefined,721,frostbite,concrete-negative,abstract,concrete,A,NULL
1736430883,af1580815e881e7f752925d65ac47d56,PennController,43,0,test_conc,NULL,PennController,54,_Header_,Start,1736430471458,undefined,721,frostbite,concrete-negative,abstract,concrete,A,NULL
1736430883,af1580815e881e7f752925d65ac47d56,PennController,43,0,test_conc,NULL,PennController,54,_Header_,End,1736430471710,undefined,721,frostbite,concrete-negative,abstract,concrete,A,NULL
1736430883,af1580815e881e7f752925d65ac47d56,PennController,43,0,test_conc,NULL,Selector,unnamed-Selector,Selection,concrete,1736430472936,undefined,721,frostbite,concrete-negative,abstract,concrete,A,abstract;concrete
1736430883,af1580815e881e7f752925d65ac47d56,PennController,43,0,test_conc,NULL,PennController,54,_Trial_,End,1736430472937,undefined,721,frostbite,concrete-negative,abstract,concrete,A,NULL
1736430883,af1580815e881e7f752925d65ac47d56,PennController,41,0,test_conc,NULL,PennController,52,_Trial_,Start,1736430472938,undefined,1135,prison,concrete-negative,abstract,concrete,A,NULL
1736430883,af1580815e881e7f752925d65ac47d56,PennController,41,0,test_conc,NULL,PennController,52,_Header_,Start,1736430472938,undefined,1135,prison,concrete-negative,abstract,concrete,A,NULL
1736430883,af1580815e881e7f752925d65ac47d56,PennController,41,0,test_conc,NULL,PennController,52,_Header_,End,1736430473191,undefined,1135,prison,concrete-negative,abstract,concrete,A,NULL
1736430883,af1580815e881e7f752925d65ac47d56,PennController,41,0,test_conc,NULL,Selector,unnamed-Selector,Selection,concrete,1736430474829,undefined,1135,prison,concrete-negative,abstract,concrete,A,abstract;concrete
1736430883,af1580815e881e7f752925d65ac47d56,PennController,41,0,test_conc,NULL,PennController,52,_Trial_,End,1736430474830,undefined,1135,prison,concrete-negative,abstract,concrete,A,NULL
1736430883,af1580815e881e7f752925d65ac47d56,PennController,19,0,test_conc,NULL,PennController,30,_Trial_,Start,1736430474832,undefined,776,dollar,concrete-positive,abstract,concrete,A,NULL
1736430883,af1580815e881e7f752925d65ac47d56,PennController,19,0,test_conc,NULL,PennController,30,_Header_,Start,1736430474832,undefined,776,dollar,concrete-positive,abstract,concrete,A,NULL
1736430883,af1580815e881e7f752925d65ac47d56,PennController,19,0,test_conc,NULL,PennController,30,_Header_,End,1736430475084,undefined,776,dollar,concrete-positive,abstract,concrete,A,NULL
1736430883,af1580815e881e7f752925d65ac47d56,PennController,19,0,test_conc,NULL,Selector,unnamed-Selector,Selection,concrete,1736430476361,undefined,776,dollar,concrete-positive,abstract,concrete,A,abstract;concrete
1736430883,af1580815e881e7f752925d65ac47d56,PennController,19,0,test_conc,NULL,PennController,30,_Trial_,End,1736430476362,undefined,776,dollar,concrete-positive,abstract,concrete,A,NULL
1736430883,af1580815e881e7f752925d65ac47d56,PennController,39,0,test_conc,NULL,PennController,50,_Trial_,Start,1736430476363,undefined,538,cockroach,concrete-negative,abstract,concrete,A,NULL
1736430883,af1580815e881e7f752925d65ac47d56,PennController,39,0,test_conc,NULL,PennController,50,_Header_,Start,1736430476363,undefined,538,cockroach,concrete-negative,abstract,concrete,A,NULL
1736430883,af1580815e881e7f752925d65ac47d56,PennController,39,0,test_conc,NULL,PennController,50,_Header_,End,1736430476615,undefined,538,cockroach,concrete-negative,abstract,concrete,A,NULL
1736430883,af1580815e881e7f752925d65ac47d56,PennController,39,0,test_conc,NULL,Selector,unnamed-Selector,Selection,concrete,1736430477656,undefined,538,cockroach,concrete-negative,abstract,concrete,A,abstract;concrete
1736430883,af1580815e881e7f752925d65ac47d56,PennController,39,0,test_conc,NULL,PennController,50,_Trial_,End,1736430477658,undefined,538,cockroach,concrete-negative,abstract,concrete,A,NULL
1736430883,af1580815e881e7f752925d65ac47d56,PennController,5,0,test_conc,NULL,PennController,16,_Trial_,Start,1736430477658,undefined,1172,betrayal,abstract-negative,abstract,concrete,A,NULL
1736430883,af1580815e881e7f752925d65ac47d56,PennController,5,0,test_conc,NULL,PennController,16,_Header_,Start,1736430477658,undefined,1172,betrayal,abstract-negative,abstract,concrete,A,NULL
1736430883,af1580815e881e7f752925d65ac47d56,PennController,5,0,test_conc,NULL,PennController,16,_Header_,End,1736430477909,undefined,1172,betrayal,abstract-negative,abstract,concrete,A,NULL
1736430883,af1580815e881e7f752925d65ac47d56,PennController,5,0,test_conc,NULL,Selector,unnamed-Selector,Selection,abstract,1736430479585,undefined,1172,betrayal,abstract-negative,abstract,concrete,A,abstract;concrete
1736430883,af1580815e881e7f752925d65ac47d56,PennController,5,0,test_conc,NULL,PennController,16,_Trial_,End,1736430479586,undefined,1172,betrayal,abstract-negative,abstract,concrete,A,NULL
1736430883,af1580815e881e7f752925d65ac47d56,PennController,42,0,test_conc,NULL,PennController,53,_Trial_,Start,1736430479587,undefined,527,lynching,concrete-negative,abstract,concrete,A,NULL
1736430883,af1580815e881e7f752925d65ac47d56,PennController,42,0,test_conc,NULL,PennController,53,_Header_,Start,1736430479587,undefined,527,lynching,concrete-negative,abstract,concrete,A,NULL
1736430883,af1580815e881e7f752925d65ac47d56,PennController,42,0,test_conc,NULL,PennController,53,_Header_,End,1736430479837,undefined,527,lynching,concrete-negative,abstract,concrete,A,NULL
1736430883,af1580815e881e7f752925d65ac47d56,PennController,42,0,test_conc,NULL,Selector,unnamed-Selector,Selection,abstract,1736430480865,undefined,527,lynching,concrete-negative,abstract,concrete,A,abstract;concrete
1736430883,af1580815e881e7f752925d65ac47d56,PennController,42,0,test_conc,NULL,PennController,53,_Trial_,End,1736430480866,undefined,527,lynching,concrete-negative,abstract,concrete,A,NULL
1736430883,af1580815e881e7f752925d65ac47d56,PennController,23,0,test_conc,NULL,PennController,34,_Trial_,Start,1736430480867,undefined,551,sandwich,concrete-positive,abstract,concrete,A,NULL
1736430883,af1580815e881e7f752925d65ac47d56,PennController,23,0,test_conc,NULL,PennController,34,_Header_,Start,1736430480867,undefined,551,sandwich,concrete-positive,abstract,concrete,A,NULL
1736430883,af1580815e881e7f752925d65ac47d56,PennController,23,0,test_conc,NULL,PennController,34,_Header_,End,1736430481120,undefined,551,sandwich,concrete-positive,abstract,concrete,A,NULL
1736430883,af1580815e881e7f752925d65ac47d56,PennController,23,0,test_conc,NULL,Selector,unnamed-Selector,Selection,concrete,1736430482176,undefined,551,sandwich,concrete-positive,abstract,concrete,A,abstract;concrete
1736430883,af1580815e881e7f752925d65ac47d56,PennController,23,0,test_conc,NULL,PennController,34,_Trial_,End,1736430482177,undefined,551,sandwich,concrete-positive,abstract,concrete,A,NULL
1736430883,af1580815e881e7f752925d65ac47d56,PennController,12,0,test_conc,NULL,PennController,23,_Trial_,Start,1736430482178,undefined,621,sadness,abstract-negative,abstract,concrete,A,NULL
1736430883,af1580815e881e7f752925d65ac47d56,PennController,12,0,test_conc,NULL,PennController,23,_Header_,Start,1736430482178,undefined,621,sadness,abstract-negative,abstract,concrete,A,NULL
1736430883,af1580815e881e7f752925d65ac47d56,PennController,12,0,test_conc,NULL,PennController,23,_Header_,End,1736430482430,undefined,621,sadness,abstract-negative,abstract,concrete,A,NULL
1736430883,af1580815e881e7f752925d65ac47d56,PennController,12,0,test_conc,NULL,Selector,unnamed-Selector,Selection,abstract,1736430483553,undefined,621,sadness,abstract-negative,abstract,concrete,A,abstract;concrete
1736430883,af1580815e881e7f752925d65ac47d56,PennController,12,0,test_conc,NULL,PennController,23,_Trial_,End,1736430483554,undefined,621,sadness,abstract-negative,abstract,concrete,A,NULL
1736430883,af1580815e881e7f752925d65ac47d56,PennController,30,0,test_conc,NULL,PennController,41,_Trial_,Start,1736430483555,undefined,696,fairness,abstract-positive,abstract,concrete,A,NULL
1736430883,af1580815e881e7f752925d65ac47d56,PennController,30,0,test_conc,NULL,PennController,41,_Header_,Start,1736430483555,undefined,696,fairness,abstract-positive,abstract,concrete,A,NULL
1736430883,af1580815e881e7f752925d65ac47d56,PennController,30,0,test_conc,NULL,PennController,41,_Header_,End,1736430483807,undefined,696,fairness,abstract-positive,abstract,concrete,A,NULL
1736430883,af1580815e881e7f752925d65ac47d56,PennController,30,0,test_conc,NULL,Selector,unnamed-Selector,Selection,abstract,1736430485009,undefined,696,fairness,abstract-positive,abstract,concrete,A,abstract;concrete
1736430883,af1580815e881e7f752925d65ac47d56,PennController,30,0,test_conc,NULL,PennController,41,_Trial_,End,1736430485010,undefined,696,fairness,abstract-positive,abstract,concrete,A,NULL
1736430883,af1580815e881e7f752925d65ac47d56,PennController,35,0,test_conc,NULL,PennController,46,_Trial_,Start,1736430485010,undefined,695,maggot,concrete-negative,abstract,concrete,A,NULL
1736430883,af1580815e881e7f752925d65ac47d56,PennController,35,0,test_conc,NULL,PennController,46,_Header_,Start,1736430485010,undefined,695,maggot,concrete-negative,abstract,concrete,A,NULL
1736430883,af1580815e881e7f752925d65ac47d56,PennController,35,0,test_conc,NULL,PennController,46,_Header_,End,1736430485263,undefined,695,maggot,concrete-negative,abstract,concrete,A,NULL
1736430883,af1580815e881e7f752925d65ac47d56,PennController,35,0,test_conc,NULL,Selector,unnamed-Selector,Selection,concrete,1736430486461,undefined,695,maggot,concrete-negative,abstract,concrete,A,abstract;concrete
1736430883,af1580815e881e7f752925d65ac47d56,PennController,35,0,test_conc,NULL,PennController,46,_Trial_,End,1736430486462,undefined,695,maggot,concrete-negative,abstract,concrete,A,NULL
1736430883,af1580815e881e7f752925d65ac47d56,PennController,28,0,test_conc,NULL,PennController,39,_Trial_,Start,1736430486463,undefined,620,goodness,abstract-positive,abstract,concrete,A,NULL
1736430883,af1580815e881e7f752925d65ac47d56,PennController,28,0,test_conc,NULL,PennController,39,_Header_,Start,1736430486463,undefined,620,goodness,abstract-positive,abstract,concrete,A,NULL
1736430883,af1580815e881e7f752925d65ac47d56,PennController,28,0,test_conc,NULL,PennController,39,_Header_,End,1736430486715,undefined,620,goodness,abstract-positive,abstract,concrete,A,NULL
1736430883,af1580815e881e7f752925d65ac47d56,PennController,28,0,test_conc,NULL,Selector,unnamed-Selector,Selection,abstract,1736430487837,undefined,620,goodness,abstract-positive,abstract,concrete,A,abstract;concrete
1736430883,af1580815e881e7f752925d65ac47d56,PennController,28,0,test_conc,NULL,PennController,39,_Trial_,End,1736430487838,undefined,620,goodness,abstract-positive,abstract,concrete,A,NULL
1736430883,af1580815e881e7f752925d65ac47d56,PennController,38,0,test_conc,NULL,PennController,49,_Trial_,Start,1736430487839,undefined,564,casket,concrete-negative,abstract,concrete,A,NULL
1736430883,af1580815e881e7f752925d65ac47d56,PennController,38,0,test_conc,NULL,PennController,49,_Header_,Start,1736430487839,undefined,564,casket,concrete-negative,abstract,concrete,A,NULL
1736430883,af1580815e881e7f752925d65ac47d56,PennController,38,0,test_conc,NULL,PennController,49,_Header_,End,1736430488090,undefined,564,casket,concrete-negative,abstract,concrete,A,NULL
1736430883,af1580815e881e7f752925d65ac47d56,PennController,38,0,test_conc,NULL,Selector,unnamed-Selector,Selection,concrete,1736430489157,undefined,564,casket,concrete-negative,abstract,concrete,A,abstract;concrete
1736430883,af1580815e881e7f752925d65ac47d56,PennController,38,0,test_conc,NULL,PennController,49,_Trial_,End,1736430489158,undefined,564,casket,concrete-negative,abstract,concrete,A,NULL
1736430883,af1580815e881e7f752925d65ac47d56,PennController,4,0,test_conc,NULL,PennController,15,_Trial_,Start,1736430489159,undefined,668,fascism,abstract-negative,abstract,concrete,A,NULL
1736430883,af1580815e881e7f752925d65ac47d56,PennController,4,0,test_conc,NULL,PennController,15,_Header_,Start,1736430489159,undefined,668,fascism,abstract-negative,abstract,concrete,A,NULL
1736430883,af1580815e881e7f752925d65ac47d56,PennController,4,0,test_conc,NULL,PennController,15,_Header_,End,1736430489411,undefined,668,fascism,abstract-negative,abstract,concrete,A,NULL
1736430883,af1580815e881e7f752925d65ac47d56,PennController,4,0,test_conc,NULL,Selector,unnamed-Selector,Selection,abstract,1736430490580,undefined,668,fascism,abstract-negative,abstract,concrete,A,abstract;concrete
1736430883,af1580815e881e7f752925d65ac47d56,PennController,4,0,test_conc,NULL,PennController,15,_Trial_,End,1736430490581,undefined,668,fascism,abstract-negative,abstract,concrete,A,NULL
1736430883,af1580815e881e7f752925d65ac47d56,PennController,29,0,test_conc,NULL,PennController,40,_Trial_,Start,1736430490582,undefined,864,splendor,abstract-positive,abstract,concrete,A,NULL
1736430883,af1580815e881e7f752925d65ac47d56,PennController,29,0,test_conc,NULL,PennController,40,_Header_,Start,1736430490582,undefined,864,splendor,abstract-positive,abstract,concrete,A,NULL
1736430883,af1580815e881e7f752925d65ac47d56,PennController,29,0,test_conc,NULL,PennController,40,_Header_,End,1736430490836,undefined,864,splendor,abstract-positive,abstract,concrete,A,NULL
1736430883,af1580815e881e7f752925d65ac47d56,PennController,29,0,test_conc,NULL,Selector,unnamed-Selector,Selection,abstract,1736430492201,undefined,864,splendor,abstract-positive,abstract,concrete,A,abstract;concrete
1736430883,af1580815e881e7f752925d65ac47d56,PennController,29,0,test_conc,NULL,PennController,40,_Trial_,End,1736430492202,undefined,864,splendor,abstract-positive,abstract,concrete,A,NULL
1736430883,af1580815e881e7f752925d65ac47d56,PennController,16,0,test_conc,NULL,PennController,27,_Trial_,Start,1736430492203,undefined,584,doughnut,concrete-positive,abstract,concrete,A,NULL
1736430883,af1580815e881e7f752925d65ac47d56,PennController,16,0,test_conc,NULL,PennController,27,_Header_,Start,1736430492203,undefined,584,doughnut,concrete-positive,abstract,concrete,A,NULL
1736430883,af1580815e881e7f752925d65ac47d56,PennController,16,0,test_conc,NULL,PennController,27,_Header_,End,1736430492458,undefined,584,doughnut,concrete-positive,abstract,concrete,A,NULL
1736430883,af1580815e881e7f752925d65ac47d56,PennController,16,0,test_conc,NULL,Selector,unnamed-Selector,Selection,concrete,1736430493545,undefined,584,doughnut,concrete-positive,abstract,concrete,A,abstract;concrete
1736430883,af1580815e881e7f752925d65ac47d56,PennController,16,0,test_conc,NULL,PennController,27,_Trial_,End,1736430493546,undefined,584,doughnut,concrete-positive,abstract,concrete,A,NULL
1736430883,af1580815e881e7f752925d65ac47d56,PennController,17,0,test_conc,NULL,PennController,28,_Trial_,Start,1736430493547,undefined,559,duckling,concrete-positive,abstract,concrete,A,NULL
1736430883,af1580815e881e7f752925d65ac47d56,PennController,17,0,test_conc,NULL,PennController,28,_Header_,Start,1736430493547,undefined,559,duckling,concrete-positive,abstract,concrete,A,NULL
1736430883,af1580815e881e7f752925d65ac47d56,PennController,17,0,test_conc,NULL,PennController,28,_Header_,End,1736430493798,undefined,559,duckling,concrete-positive,abstract,concrete,A,NULL
1736430883,af1580815e881e7f752925d65ac47d56,PennController,17,0,test_conc,NULL,Selector,unnamed-Selector,Selection,concrete,1736430494861,undefined,559,duckling,concrete-positive,abstract,concrete,A,abstract;concrete
1736430883,af1580815e881e7f752925d65ac47d56,PennController,17,0,test_conc,NULL,PennController,28,_Trial_,End,1736430494862,undefined,559,duckling,concrete-positive,abstract,concrete,A,NULL
1736430883,af1580815e881e7f752925d65ac47d56,PennController,6,0,test_conc,NULL,PennController,17,_Trial_,Start,1736430494863,undefined,571,hatred,abstract-negative,abstract,concrete,A,NULL
1736430883,af1580815e881e7f752925d65ac47d56,PennController,6,0,test_conc,NULL,PennController,17,_Header_,Start,1736430494863,undefined,571,hatred,abstract-negative,abstract,concrete,A,NULL
1736430883,af1580815e881e7f752925d65ac47d56,PennController,6,0,test_conc,NULL,PennController,17,_Header_,End,1736430495114,undefined,571,hatred,abstract-negative,abstract,concrete,A,NULL
1736430883,af1580815e881e7f752925d65ac47d56,PennController,6,0,test_conc,NULL,Selector,unnamed-Selector,Selection,abstract,1736430496189,undefined,571,hatred,abstract-negative,abstract,concrete,A,abstract;concrete
1736430883,af1580815e881e7f752925d65ac47d56,PennController,6,0,test_conc,NULL,PennController,17,_Trial_,End,1736430496190,undefined,571,hatred,abstract-negative,abstract,concrete,A,NULL
1736430883,af1580815e881e7f752925d65ac47d56,PennController,7,0,test_conc,NULL,PennController,18,_Trial_,Start,1736430496191,undefined,530,breakup,abstract-negative,abstract,concrete,A,NULL
1736430883,af1580815e881e7f752925d65ac47d56,PennController,7,0,test_conc,NULL,PennController,18,_Header_,Start,1736430496191,undefined,530,breakup,abstract-negative,abstract,concrete,A,NULL
1736430883,af1580815e881e7f752925d65ac47d56,PennController,7,0,test_conc,NULL,PennController,18,_Header_,End,1736430496441,undefined,530,breakup,abstract-negative,abstract,concrete,A,NULL
1736430883,af1580815e881e7f752925d65ac47d56,PennController,7,0,test_conc,NULL,Selector,unnamed-Selector,Selection,abstract,1736430497472,undefined,530,breakup,abstract-negative,abstract,concrete,A,abstract;concrete
1736430883,af1580815e881e7f752925d65ac47d56,PennController,7,0,test_conc,NULL,PennController,18,_Trial_,End,1736430497473,undefined,530,breakup,abstract-negative,abstract,concrete,A,NULL
1736430883,af1580815e881e7f752925d65ac47d56,PennController,40,0,test_conc,NULL,PennController,51,_Trial_,Start,1736430497474,undefined,519,bedpan,concrete-negative,abstract,concrete,A,NULL
1736430883,af1580815e881e7f752925d65ac47d56,PennController,40,0,test_conc,NULL,PennController,51,_Header_,Start,1736430497474,undefined,519,bedpan,concrete-negative,abstract,concrete,A,NULL
1736430883,af1580815e881e7f752925d65ac47d56,PennController,40,0,test_conc,NULL,PennController,51,_Header_,End,1736430497725,undefined,519,bedpan,concrete-negative,abstract,concrete,A,NULL
1736430883,af1580815e881e7f752925d65ac47d56,PennController,40,0,test_conc,NULL,Selector,unnamed-Selector,Selection,concrete,1736430498748,undefined,519,bedpan,concrete-negative,abstract,concrete,A,abstract;concrete
1736430883,af1580815e881e7f752925d65ac47d56,PennController,40,0,test_conc,NULL,PennController,51,_Trial_,End,1736430498749,undefined,519,bedpan,concrete-negative,abstract,concrete,A,NULL
1736430883,af1580815e881e7f752925d65ac47d56,PennController,26,0,test_conc,NULL,PennController,37,_Trial_,Start,1736430498750,undefined,543,fondness,abstract-positive,abstract,concrete,A,NULL
1736430883,af1580815e881e7f752925d65ac47d56,PennController,26,0,test_conc,NULL,PennController,37,_Header_,Start,1736430498750,undefined,543,fondness,abstract-positive,abstract,concrete,A,NULL
1736430883,af1580815e881e7f752925d65ac47d56,PennController,26,0,test_conc,NULL,PennController,37,_Header_,End,1736430499001,undefined,543,fondness,abstract-positive,abstract,concrete,A,NULL
1736430883,af1580815e881e7f752925d65ac47d56,PennController,26,0,test_conc,NULL,Selector,unnamed-Selector,Selection,abstract,1736430500049,undefined,543,fondness,abstract-positive,abstract,concrete,A,abstract;concrete
1736430883,af1580815e881e7f752925d65ac47d56,PennController,26,0,test_conc,NULL,PennController,37,_Trial_,End,1736430500050,undefined,543,fondness,abstract-positive,abstract,concrete,A,NULL
1736430883,af1580815e881e7f752925d65ac47d56,PennController,20,0,test_conc,NULL,PennController,31,_Trial_,Start,1736430500051,undefined,459,blanket,concrete-positive,abstract,concrete,A,NULL
1736430883,af1580815e881e7f752925d65ac47d56,PennController,20,0,test_conc,NULL,PennController,31,_Header_,Start,1736430500051,undefined,459,blanket,concrete-positive,abstract,concrete,A,NULL
