#
# Results on Thu, 09 Jan 2025 15:23:45 GMT
# USER AGENT: Mozilla/5.0 (Macintosh; Intel Mac OS X 10_15_7) AppleWebKit/537.36 (KHTML, like Gecko) Chrome/131.0.0.0 Safari/537.36
# Design number was non-random = 0
#
# Columns below this comment are as follows:
# 1. Results reception time.
# 2. MD5 hash of participant's IP address.
# 3. Controller name.
# 4. Order number of item.
# 5. Inner element number.
# 6. Label.
# 7. Latin Square Group.
# 8. PennElementType.
# 9. PennElementName.
# 10. Parameter.
# 11. Value.
# 12. EventTime.
# 13. Comments.
1736436225,e3db4d352610093b35b24c61c561e5ac,PennController,1,0,welcome,NULL,PennController,0,_Trial_,Start,1736435609830,NULL
1736436225,e3db4d352610093b35b24c61c561e5ac,PennController,1,0,welcome,NULL,PennController,0,_Header_,Start,1736435609830,NULL
1736436225,e3db4d352610093b35b24c61c561e5ac,PennController,1,0,welcome,NULL,PennController,0,_Header_,End,1736435610083,NULL
1736436225,e3db4d352610093b35b24c61c561e5ac,PennController,1,0,welcome,NULL,PennController,0,_Trial_,End,1736435611234,NULL
# 13. ID.
# 14. Comments.
1736436225,e3db4d352610093b35b24c61c561e5ac,PennController,124,0,consent,NULL,PennController,2,_Trial_,Start,1736435611236,5f4738bfa043201203a27b4b,NULL
1736436225,e3db4d352610093b35b24c61c561e5ac,PennController,124,0,consent,NULL,PennController,2,_Header_,Start,1736435611236,5f4738bfa043201203a27b4b,NULL
1736436225,e3db4d352610093b35b24c61c561e5ac,PennController,124,0,consent,NULL,PennController,2,_Header_,End,1736435611487,5f4738bfa043201203a27b4b,NULL
1736436225,e3db4d352610093b35b24c61c561e5ac,PennController,124,0,consent,NULL,TextInput,ID,Final,5f4738bfa043201203a27b4b,1736435614934,5f4738bfa043201203a27b4b,NULL
1736436225,e3db4d352610093b35b24c61c561e5ac,PennController,124,0,consent,NULL,TextInput,ID,First,,1736435613426,5f4738bfa043201203a27b4b,Meta
1736436225,e3db4d352610093b35b24c61c561e5ac,PennController,124,0,consent,NULL,PennController,2,_Trial_,End,1736435614934,5f4738bfa043201203a27b4b,NULL
# 13. Comments.
1736436225,e3db4d352610093b35b24c61c561e5ac,PennController,126,0,instructions1_conc,NULL,PennController,4,_Trial_,Start,1736435614935,NULL
1736436225,e3db4d352610093b35b24c61c561e5ac,PennController,126,0,instructions1_conc,NULL,PennController,4,_Header_,Start,1736435614935,NULL
1736436225,e3db4d352610093b35b24c61c561e5ac,PennController,126,0,instructions1_conc,NULL,PennController,4,_Header_,End,1736435615185,NULL
1736436225,e3db4d352610093b35b24c61c561e5ac,PennController,126,0,instructions1_conc,NULL,PennController,4,_Trial_,End,1736435668842,NULL
1736436225,e3db4d352610093b35b24c61c561e5ac,PennController,127,0,instructions2_conc,NULL,PennController,5,_Trial_,Start,1736435668843,NULL
1736436225,e3db4d352610093b35b24c61c561e5ac,PennController,127,0,instructions2_conc,NULL,PennController,5,_Header_,Start,1736435668843,NULL
1736436225,e3db4d352610093b35b24c61c561e5ac,PennController,127,0,instructions2_conc,NULL,PennController,5,_Header_,End,1736435669094,NULL
1736436225,e3db4d352610093b35b24c61c561e5ac,PennController,127,0,instructions2_conc,NULL,PennController,5,_Trial_,End,1736435671959,NULL
1736436225,e3db4d352610093b35b24c61c561e5ac,PennController,134,0,instructions3_hands,NULL,PennController,12,_Trial_,Start,1736435671960,NULL
1736436225,e3db4d352610093b35b24c61c561e5ac,PennController,134,0,instructions3_hands,NULL,PennController,12,_Header_,Start,1736435671960,NULL
1736436225,e3db4d352610093b35b24c61c561e5ac,PennController,134,0,instructions3_hands,NULL,PennController,12,_Header_,End,1736435672214,NULL
1736436225,e3db4d352610093b35b24c61c561e5ac,PennController,134,0,instructions3_hands,NULL,PennController,12,_Trial_,End,1736435676944,NULL
1736436225,e3db4d352610093b35b24c61c561e5ac,PennController,129,0,practice_intro_conc,NULL,PennController,7,_Trial_,Start,1736435676945,NULL
1736436225,e3db4d352610093b35b24c61c561e5ac,PennController,129,0,practice_intro_conc,NULL,PennController,7,_Header_,Start,1736435676945,NULL
1736436225,e3db4d352610093b35b24c61c561e5ac,PennController,129,0,practice_intro_conc,NULL,PennController,7,_Header_,End,1736435677198,NULL
1736436225,e3db4d352610093b35b24c61c561e5ac,PennController,129,0,practice_intro_conc,NULL,PennController,7,_Trial_,End,1736435678494,NULL
# 13. ID.
# 14. ReactionTime.
# 15. Word.
# 16. selectedKey.
# 17. selectedValue.
# 18. Key_value_F.
# 19. Key_value_J.
# 20. Group.
# 21. Comments.
1736436225,e3db4d352610093b35b24c61c561e5ac,PennController,87,0,calibrator_conc_feedback,NULL,PennController,98,_Trial_,Start,1736435678495,undefined,1746,marriage,undefined,concrete,abstract,concrete,A,NULL
1736436225,e3db4d352610093b35b24c61c561e5ac,PennController,87,0,calibrator_conc_feedback,NULL,PennController,98,_Header_,Start,1736435678495,undefined,1746,marriage,undefined,concrete,abstract,concrete,A,NULL
1736436225,e3db4d352610093b35b24c61c561e5ac,PennController,87,0,calibrator_conc_feedback,NULL,PennController,98,_Header_,End,1736435678746,undefined,1746,marriage,undefined,concrete,abstract,concrete,A,NULL
1736436225,e3db4d352610093b35b24c61c561e5ac,PennController,87,0,calibrator_conc_feedback,NULL,Selector,Selection,Selection,abstract,1736435680997,undefined,1746,marriage,undefined,concrete,abstract,concrete,A,abstract;concrete
1736436225,e3db4d352610093b35b24c61c561e5ac,PennController,87,0,calibrator_conc_feedback,NULL,PennController,98,_Trial_,End,1736435683002,undefined,1746,marriage,undefined,concrete,abstract,concrete,A,NULL
1736436225,e3db4d352610093b35b24c61c561e5ac,PennController,88,0,calibrator_conc_feedback,NULL,PennController,99,_Trial_,Start,1736435683003,undefined,1152,polite,undefined,concrete,abstract,concrete,A,NULL
1736436225,e3db4d352610093b35b24c61c561e5ac,PennController,88,0,calibrator_conc_feedback,NULL,PennController,99,_Header_,Start,1736435683003,undefined,1152,polite,undefined,concrete,abstract,concrete,A,NULL
1736436225,e3db4d352610093b35b24c61c561e5ac,PennController,88,0,calibrator_conc_feedback,NULL,PennController,99,_Header_,End,1736435683257,undefined,1152,polite,undefined,concrete,abstract,concrete,A,NULL
1736436225,e3db4d352610093b35b24c61c561e5ac,PennController,88,0,calibrator_conc_feedback,NULL,Selector,Selection,Selection,abstract,1736435684915,undefined,1152,polite,undefined,concrete,abstract,concrete,A,abstract;concrete
1736436225,e3db4d352610093b35b24c61c561e5ac,PennController,88,0,calibrator_conc_feedback,NULL,PennController,99,_Trial_,End,1736435686917,undefined,1152,polite,undefined,concrete,abstract,concrete,A,NULL
1736436225,e3db4d352610093b35b24c61c561e5ac,PennController,93,0,calibrator_conc_feedback,NULL,PennController,104,_Trial_,Start,1736435686919,undefined,936,insecure,undefined,concrete,abstract,concrete,A,NULL
1736436225,e3db4d352610093b35b24c61c561e5ac,PennController,93,0,calibrator_conc_feedback,NULL,PennController,104,_Header_,Start,1736435686919,undefined,936,insecure,undefined,concrete,abstract,concrete,A,NULL
1736436225,e3db4d352610093b35b24c61c561e5ac,PennController,93,0,calibrator_conc_feedback,NULL,PennController,104,_Header_,End,1736435687172,undefined,936,insecure,undefined,concrete,abstract,concrete,A,NULL
1736436225,e3db4d352610093b35b24c61c561e5ac,PennController,93,0,calibrator_conc_feedback,NULL,Selector,Selection,Selection,abstract,1736435688613,undefined,936,insecure,undefined,concrete,abstract,concrete,A,abstract;concrete
1736436225,e3db4d352610093b35b24c61c561e5ac,PennController,93,0,calibrator_conc_feedback,NULL,PennController,104,_Trial_,End,1736435690615,undefined,936,insecure,undefined,concrete,abstract,concrete,A,NULL
1736436225,e3db4d352610093b35b24c61c561e5ac,PennController,91,0,calibrator_conc_feedback,NULL,PennController,102,_Trial_,Start,1736435690617,undefined,810,theory,undefined,concrete,abstract,concrete,A,NULL
1736436225,e3db4d352610093b35b24c61c561e5ac,PennController,91,0,calibrator_conc_feedback,NULL,PennController,102,_Header_,Start,1736435690617,undefined,810,theory,undefined,concrete,abstract,concrete,A,NULL
1736436225,e3db4d352610093b35b24c61c561e5ac,PennController,91,0,calibrator_conc_feedback,NULL,PennController,102,_Header_,End,1736435690867,undefined,810,theory,undefined,concrete,abstract,concrete,A,NULL
1736436225,e3db4d352610093b35b24c61c561e5ac,PennController,91,0,calibrator_conc_feedback,NULL,Selector,Selection,Selection,abstract,1736435692183,undefined,810,theory,undefined,concrete,abstract,concrete,A,abstract;concrete
1736436225,e3db4d352610093b35b24c61c561e5ac,PennController,91,0,calibrator_conc_feedback,NULL,PennController,102,_Trial_,End,1736435694186,undefined,810,theory,undefined,concrete,abstract,concrete,A,NULL
1736436225,e3db4d352610093b35b24c61c561e5ac,PennController,85,0,calibrator_conc_feedback,NULL,PennController,96,_Trial_,Start,1736435694188,undefined,977,grasshopper,undefined,concrete,abstract,concrete,A,NULL
1736436225,e3db4d352610093b35b24c61c561e5ac,PennController,85,0,calibrator_conc_feedback,NULL,PennController,96,_Header_,Start,1736435694188,undefined,977,grasshopper,undefined,concrete,abstract,concrete,A,NULL
1736436225,e3db4d352610093b35b24c61c561e5ac,PennController,85,0,calibrator_conc_feedback,NULL,PennController,96,_Header_,End,1736435694439,undefined,977,grasshopper,undefined,concrete,abstract,concrete,A,NULL
1736436225,e3db4d352610093b35b24c61c561e5ac,PennController,85,0,calibrator_conc_feedback,NULL,Selector,Selection,Selection,concrete,1736435695920,undefined,977,grasshopper,undefined,concrete,abstract,concrete,A,abstract;concrete
1736436225,e3db4d352610093b35b24c61c561e5ac,PennController,85,0,calibrator_conc_feedback,NULL,PennController,96,_Trial_,End,1736435697925,undefined,977,grasshopper,undefined,concrete,abstract,concrete,A,NULL
1736436225,e3db4d352610093b35b24c61c561e5ac,PennController,86,0,calibrator_conc_feedback,NULL,PennController,97,_Trial_,Start,1736435697926,undefined,1557,kick,undefined,concrete,abstract,concrete,A,NULL
1736436225,e3db4d352610093b35b24c61c561e5ac,PennController,86,0,calibrator_conc_feedback,NULL,PennController,97,_Header_,Start,1736435697926,undefined,1557,kick,undefined,concrete,abstract,concrete,A,NULL
1736436225,e3db4d352610093b35b24c61c561e5ac,PennController,86,0,calibrator_conc_feedback,NULL,PennController,97,_Header_,End,1736435698177,undefined,1557,kick,undefined,concrete,abstract,concrete,A,NULL
1736436225,e3db4d352610093b35b24c61c561e5ac,PennController,86,0,calibrator_conc_feedback,NULL,Selector,Selection,Selection,concrete,1736435700238,undefined,1557,kick,undefined,concrete,abstract,concrete,A,abstract;concrete
1736436225,e3db4d352610093b35b24c61c561e5ac,PennController,86,0,calibrator_conc_feedback,NULL,PennController,97,_Trial_,End,1736435702245,undefined,1557,kick,undefined,concrete,abstract,concrete,A,NULL
1736436225,e3db4d352610093b35b24c61c561e5ac,PennController,90,0,calibrator_conc_feedback,NULL,PennController,101,_Trial_,Start,1736435702246,undefined,833,sugar,undefined,concrete,abstract,concrete,A,NULL
1736436225,e3db4d352610093b35b24c61c561e5ac,PennController,90,0,calibrator_conc_feedback,NULL,PennController,101,_Header_,Start,1736435702246,undefined,833,sugar,undefined,concrete,abstract,concrete,A,NULL
1736436225,e3db4d352610093b35b24c61c561e5ac,PennController,90,0,calibrator_conc_feedback,NULL,PennController,101,_Header_,End,1736435702499,undefined,833,sugar,undefined,concrete,abstract,concrete,A,NULL
1736436225,e3db4d352610093b35b24c61c561e5ac,PennController,90,0,calibrator_conc_feedback,NULL,Selector,Selection,Selection,concrete,1736435703837,undefined,833,sugar,undefined,concrete,abstract,concrete,A,abstract;concrete
1736436225,e3db4d352610093b35b24c61c561e5ac,PennController,90,0,calibrator_conc_feedback,NULL,PennController,101,_Trial_,End,1736435705840,undefined,833,sugar,undefined,concrete,abstract,concrete,A,NULL
1736436225,e3db4d352610093b35b24c61c561e5ac,PennController,84,0,calibrator_conc_feedback,NULL,PennController,95,_Trial_,Start,1736435705841,undefined,988,gas,undefined,concrete,abstract,concrete,A,NULL
1736436225,e3db4d352610093b35b24c61c561e5ac,PennController,84,0,calibrator_conc_feedback,NULL,PennController,95,_Header_,Start,1736435705841,undefined,988,gas,undefined,concrete,abstract,concrete,A,NULL
1736436225,e3db4d352610093b35b24c61c561e5ac,PennController,84,0,calibrator_conc_feedback,NULL,PennController,95,_Header_,End,1736435706096,undefined,988,gas,undefined,concrete,abstract,concrete,A,NULL
1736436225,e3db4d352610093b35b24c61c561e5ac,PennController,84,0,calibrator_conc_feedback,NULL,Selector,Selection,Selection,concrete,1736435707588,undefined,988,gas,undefined,concrete,abstract,concrete,A,abstract;concrete
1736436225,e3db4d352610093b35b24c61c561e5ac,PennController,84,0,calibrator_conc_feedback,NULL,PennController,95,_Trial_,End,1736435709594,undefined,988,gas,undefined,concrete,abstract,concrete,A,NULL
1736436225,e3db4d352610093b35b24c61c561e5ac,PennController,92,0,calibrator_conc_feedback,NULL,PennController,103,_Trial_,Start,1736435709595,undefined,768,whistle,undefined,concrete,abstract,concrete,A,NULL
1736436225,e3db4d352610093b35b24c61c561e5ac,PennController,92,0,calibrator_conc_feedback,NULL,PennController,103,_Header_,Start,1736435709595,undefined,768,whistle,undefined,concrete,abstract,concrete,A,NULL
1736436225,e3db4d352610093b35b24c61c561e5ac,PennController,92,0,calibrator_conc_feedback,NULL,PennController,103,_Header_,End,1736435709847,undefined,768,whistle,undefined,concrete,abstract,concrete,A,NULL
1736436225,e3db4d352610093b35b24c61c561e5ac,PennController,92,0,calibrator_conc_feedback,NULL,Selector,Selection,Selection,concrete,1736435711116,undefined,768,whistle,undefined,concrete,abstract,concrete,A,abstract;concrete
1736436225,e3db4d352610093b35b24c61c561e5ac,PennController,92,0,calibrator_conc_feedback,NULL,PennController,103,_Trial_,End,1736435713120,undefined,768,whistle,undefined,concrete,abstract,concrete,A,NULL
1736436225,e3db4d352610093b35b24c61c561e5ac,PennController,89,0,calibrator_conc_feedback,NULL,PennController,100,_Trial_,Start,1736435713121,undefined,689,shirt,undefined,concrete,abstract,concrete,A,NULL
1736436225,e3db4d352610093b35b24c61c561e5ac,PennController,89,0,calibrator_conc_feedback,NULL,PennController,100,_Header_,Start,1736435713121,undefined,689,shirt,undefined,concrete,abstract,concrete,A,NULL
1736436225,e3db4d352610093b35b24c61c561e5ac,PennController,89,0,calibrator_conc_feedback,NULL,PennController,100,_Header_,End,1736435713376,undefined,689,shirt,undefined,concrete,abstract,concrete,A,NULL
1736436225,e3db4d352610093b35b24c61c561e5ac,PennController,89,0,calibrator_conc_feedback,NULL,Selector,Selection,Selection,concrete,1736435714566,undefined,689,shirt,undefined,concrete,abstract,concrete,A,abstract;concrete
1736436225,e3db4d352610093b35b24c61c561e5ac,PennController,89,0,calibrator_conc_feedback,NULL,PennController,100,_Trial_,End,1736435716570,undefined,689,shirt,undefined,concrete,abstract,concrete,A,NULL
# 16. Key_value_F.
# 17. Key_value_J.
# 18. Group.
# 19. Comments.
1736436225,e3db4d352610093b35b24c61c561e5ac,PennController,94,0,calibrator_conc_no_feedback,NULL,PennController,105,_Trial_,Start,1736435716571,undefined,873,gas,abstract,concrete,A,NULL
1736436225,e3db4d352610093b35b24c61c561e5ac,PennController,94,0,calibrator_conc_no_feedback,NULL,PennController,105,_Header_,Start,1736435716571,undefined,873,gas,abstract,concrete,A,NULL
1736436225,e3db4d352610093b35b24c61c561e5ac,PennController,94,0,calibrator_conc_no_feedback,NULL,PennController,105,_Header_,End,1736435716823,undefined,873,gas,abstract,concrete,A,NULL
1736436225,e3db4d352610093b35b24c61c561e5ac,PennController,94,0,calibrator_conc_no_feedback,NULL,Selector,unnamed-Selector,Selection,concrete,1736435718200,undefined,873,gas,abstract,concrete,A,abstract;concrete
1736436225,e3db4d352610093b35b24c61c561e5ac,PennController,94,0,calibrator_conc_no_feedback,NULL,PennController,105,_Trial_,End,1736435718201,undefined,873,gas,abstract,concrete,A,NULL
1736436225,e3db4d352610093b35b24c61c561e5ac,PennController,96,0,calibrator_conc_no_feedback,NULL,PennController,107,_Trial_,Start,1736435718202,undefined,899,kick,abstract,concrete,A,NULL
1736436225,e3db4d352610093b35b24c61c561e5ac,PennController,96,0,calibrator_conc_no_feedback,NULL,PennController,107,_Header_,Start,1736435718202,undefined,899,kick,abstract,concrete,A,NULL
1736436225,e3db4d352610093b35b24c61c561e5ac,PennController,96,0,calibrator_conc_no_feedback,NULL,PennController,107,_Header_,End,1736435718455,undefined,899,kick,abstract,concrete,A,NULL
1736436225,e3db4d352610093b35b24c61c561e5ac,PennController,96,0,calibrator_conc_no_feedback,NULL,Selector,unnamed-Selector,Selection,concrete,1736435719860,undefined,899,kick,abstract,concrete,A,abstract;concrete
1736436225,e3db4d352610093b35b24c61c561e5ac,PennController,96,0,calibrator_conc_no_feedback,NULL,PennController,107,_Trial_,End,1736435719861,undefined,899,kick,abstract,concrete,A,NULL
1736436225,e3db4d352610093b35b24c61c561e5ac,PennController,102,0,calibrator_conc_no_feedback,NULL,PennController,113,_Trial_,Start,1736435719861,undefined,927,whistle,abstract,concrete,A,NULL
1736436225,e3db4d352610093b35b24c61c561e5ac,PennController,102,0,calibrator_conc_no_feedback,NULL,PennController,113,_Header_,Start,1736435719861,undefined,927,whistle,abstract,concrete,A,NULL
1736436225,e3db4d352610093b35b24c61c561e5ac,PennController,102,0,calibrator_conc_no_feedback,NULL,PennController,113,_Header_,End,1736435720111,undefined,927,whistle,abstract,concrete,A,NULL
1736436225,e3db4d352610093b35b24c61c561e5ac,PennController,102,0,calibrator_conc_no_feedback,NULL,Selector,unnamed-Selector,Selection,concrete,1736435721542,undefined,927,whistle,abstract,concrete,A,abstract;concrete
1736436225,e3db4d352610093b35b24c61c561e5ac,PennController,102,0,calibrator_conc_no_feedback,NULL,PennController,113,_Trial_,End,1736435721543,undefined,927,whistle,abstract,concrete,A,NULL
1736436225,e3db4d352610093b35b24c61c561e5ac,PennController,99,0,calibrator_conc_no_feedback,NULL,PennController,110,_Trial_,Start,1736435721544,undefined,610,shirt,abstract,concrete,A,NULL
1736436225,e3db4d352610093b35b24c61c561e5ac,PennController,99,0,calibrator_conc_no_feedback,NULL,PennController,110,_Header_,Start,1736435721544,undefined,610,shirt,abstract,concrete,A,NULL
1736436225,e3db4d352610093b35b24c61c561e5ac,PennController,99,0,calibrator_conc_no_feedback,NULL,PennController,110,_Header_,End,1736435721797,undefined,610,shirt,abstract,concrete,A,NULL
1736436225,e3db4d352610093b35b24c61c561e5ac,PennController,99,0,calibrator_conc_no_feedback,NULL,Selector,unnamed-Selector,Selection,concrete,1736435722909,undefined,610,shirt,abstract,concrete,A,abstract;concrete
1736436225,e3db4d352610093b35b24c61c561e5ac,PennController,99,0,calibrator_conc_no_feedback,NULL,PennController,110,_Trial_,End,1736435722909,undefined,610,shirt,abstract,concrete,A,NULL
1736436225,e3db4d352610093b35b24c61c561e5ac,PennController,95,0,calibrator_conc_no_feedback,NULL,PennController,106,_Trial_,Start,1736435722910,undefined,581,grasshopper,abstract,concrete,A,NULL
1736436225,e3db4d352610093b35b24c61c561e5ac,PennController,95,0,calibrator_conc_no_feedback,NULL,PennController,106,_Header_,Start,1736435722910,undefined,581,grasshopper,abstract,concrete,A,NULL
1736436225,e3db4d352610093b35b24c61c561e5ac,PennController,95,0,calibrator_conc_no_feedback,NULL,PennController,106,_Header_,End,1736435723160,undefined,581,grasshopper,abstract,concrete,A,NULL
1736436225,e3db4d352610093b35b24c61c561e5ac,PennController,95,0,calibrator_conc_no_feedback,NULL,Selector,unnamed-Selector,Selection,concrete,1736435724247,undefined,581,grasshopper,abstract,concrete,A,abstract;concrete
1736436225,e3db4d352610093b35b24c61c561e5ac,PennController,95,0,calibrator_conc_no_feedback,NULL,PennController,106,_Trial_,End,1736435724248,undefined,581,grasshopper,abstract,concrete,A,NULL
1736436225,e3db4d352610093b35b24c61c561e5ac,PennController,97,0,calibrator_conc_no_feedback,NULL,PennController,108,_Trial_,Start,1736435724249,undefined,575,marriage,abstract,concrete,A,NULL
1736436225,e3db4d352610093b35b24c61c561e5ac,PennController,97,0,calibrator_conc_no_feedback,NULL,PennController,108,_Header_,Start,1736435724249,undefined,575,marriage,abstract,concrete,A,NULL
1736436225,e3db4d352610093b35b24c61c561e5ac,PennController,97,0,calibrator_conc_no_feedback,NULL,PennController,108,_Header_,End,1736435724502,undefined,575,marriage,abstract,concrete,A,NULL
1736436225,e3db4d352610093b35b24c61c561e5ac,PennController,97,0,calibrator_conc_no_feedback,NULL,Selector,unnamed-Selector,Selection,abstract,1736435725580,undefined,575,marriage,abstract,concrete,A,abstract;concrete
1736436225,e3db4d352610093b35b24c61c561e5ac,PennController,97,0,calibrator_conc_no_feedback,NULL,PennController,108,_Trial_,End,1736435725582,undefined,575,marriage,abstract,concrete,A,NULL
1736436225,e3db4d352610093b35b24c61c561e5ac,PennController,101,0,calibrator_conc_no_feedback,NULL,PennController,112,_Trial_,Start,1736435725583,undefined,619,theory,abstract,concrete,A,NULL
1736436225,e3db4d352610093b35b24c61c561e5ac,PennController,101,0,calibrator_conc_no_feedback,NULL,PennController,112,_Header_,Start,1736435725583,undefined,619,theory,abstract,concrete,A,NULL
1736436225,e3db4d352610093b35b24c61c561e5ac,PennController,101,0,calibrator_conc_no_feedback,NULL,PennController,112,_Header_,End,1736435725837,undefined,619,theory,abstract,concrete,A,NULL
1736436225,e3db4d352610093b35b24c61c561e5ac,PennController,101,0,calibrator_conc_no_feedback,NULL,Selector,unnamed-Selector,Selection,abstract,1736435726960,undefined,619,theory,abstract,concrete,A,abstract;concrete
1736436225,e3db4d352610093b35b24c61c561e5ac,PennController,101,0,calibrator_conc_no_feedback,NULL,PennController,112,_Trial_,End,1736435726961,undefined,619,theory,abstract,concrete,A,NULL
1736436225,e3db4d352610093b35b24c61c561e5ac,PennController,100,0,calibrator_conc_no_feedback,NULL,PennController,111,_Trial_,Start,1736435726961,undefined,536,sugar,abstract,concrete,A,NULL
1736436225,e3db4d352610093b35b24c61c561e5ac,PennController,100,0,calibrator_conc_no_feedback,NULL,PennController,111,_Header_,Start,1736435726961,undefined,536,sugar,abstract,concrete,A,NULL
1736436225,e3db4d352610093b35b24c61c561e5ac,PennController,100,0,calibrator_conc_no_feedback,NULL,PennController,111,_Header_,End,1736435727213,undefined,536,sugar,abstract,concrete,A,NULL
1736436225,e3db4d352610093b35b24c61c561e5ac,PennController,100,0,calibrator_conc_no_feedback,NULL,Selector,unnamed-Selector,Selection,abstract,1736435728251,undefined,536,sugar,abstract,concrete,A,abstract;concrete
1736436225,e3db4d352610093b35b24c61c561e5ac,PennController,100,0,calibrator_conc_no_feedback,NULL,PennController,111,_Trial_,End,1736435728252,undefined,536,sugar,abstract,concrete,A,NULL
1736436225,e3db4d352610093b35b24c61c561e5ac,PennController,103,0,calibrator_conc_no_feedback,NULL,PennController,114,_Trial_,Start,1736435728253,undefined,1076,insecure,abstract,concrete,A,NULL
1736436225,e3db4d352610093b35b24c61c561e5ac,PennController,103,0,calibrator_conc_no_feedback,NULL,PennController,114,_Header_,Start,1736435728253,undefined,1076,insecure,abstract,concrete,A,NULL
1736436225,e3db4d352610093b35b24c61c561e5ac,PennController,103,0,calibrator_conc_no_feedback,NULL,PennController,114,_Header_,End,1736435728506,undefined,1076,insecure,abstract,concrete,A,NULL
1736436225,e3db4d352610093b35b24c61c561e5ac,PennController,103,0,calibrator_conc_no_feedback,NULL,Selector,unnamed-Selector,Selection,abstract,1736435730085,undefined,1076,insecure,abstract,concrete,A,abstract;concrete
1736436225,e3db4d352610093b35b24c61c561e5ac,PennController,103,0,calibrator_conc_no_feedback,NULL,PennController,114,_Trial_,End,1736435730086,undefined,1076,insecure,abstract,concrete,A,NULL
1736436225,e3db4d352610093b35b24c61c561e5ac,PennController,98,0,calibrator_conc_no_feedback,NULL,PennController,109,_Trial_,Start,1736435730087,undefined,1065,polite,abstract,concrete,A,NULL
1736436225,e3db4d352610093b35b24c61c561e5ac,PennController,98,0,calibrator_conc_no_feedback,NULL,PennController,109,_Header_,Start,1736435730087,undefined,1065,polite,abstract,concrete,A,NULL
1736436225,e3db4d352610093b35b24c61c561e5ac,PennController,98,0,calibrator_conc_no_feedback,NULL,PennController,109,_Header_,End,1736435730338,undefined,1065,polite,abstract,concrete,A,NULL
1736436225,e3db4d352610093b35b24c61c561e5ac,PennController,98,0,calibrator_conc_no_feedback,NULL,Selector,unnamed-Selector,Selection,abstract,1736435731908,undefined,1065,polite,abstract,concrete,A,abstract;concrete
1736436225,e3db4d352610093b35b24c61c561e5ac,PennController,98,0,calibrator_conc_no_feedback,NULL,PennController,109,_Trial_,End,1736435731909,undefined,1065,polite,abstract,concrete,A,NULL
# 13. Comments.
1736436225,e3db4d352610093b35b24c61c561e5ac,PennController,130,0,endinstructions_conc,NULL,PennController,8,_Trial_,Start,1736435731910,NULL
1736436225,e3db4d352610093b35b24c61c561e5ac,PennController,130,0,endinstructions_conc,NULL,PennController,8,_Header_,Start,1736435731910,NULL
1736436225,e3db4d352610093b35b24c61c561e5ac,PennController,130,0,endinstructions_conc,NULL,PennController,8,_Header_,End,1736435732162,NULL
1736436225,e3db4d352610093b35b24c61c561e5ac,PennController,130,0,endinstructions_conc,NULL,PennController,8,_Trial_,End,1736435735360,NULL
# 13. ID.
# 14. ReactionTime.
# 15. Word.
# 16. ConcValCombo.
# 17. Key_value_F.
# 18. Key_value_J.
# 19. Group.
# 20. Comments.
1736436225,e3db4d352610093b35b24c61c561e5ac,PennController,40,0,test_conc,NULL,PennController,51,_Trial_,Start,1736435735361,undefined,848,bedpan,concrete-negative,concrete,abstract,B,NULL
1736436225,e3db4d352610093b35b24c61c561e5ac,PennController,40,0,test_conc,NULL,PennController,51,_Header_,Start,1736435735361,undefined,848,bedpan,concrete-negative,concrete,abstract,B,NULL
1736436225,e3db4d352610093b35b24c61c561e5ac,PennController,40,0,test_conc,NULL,PennController,51,_Header_,End,1736435735614,undefined,848,bedpan,concrete-negative,concrete,abstract,B,NULL
1736436225,e3db4d352610093b35b24c61c561e5ac,PennController,40,0,test_conc,NULL,Selector,unnamed-Selector,Selection,abstract,1736435736967,undefined,848,bedpan,concrete-negative,concrete,abstract,B,concrete;abstract
1736436225,e3db4d352610093b35b24c61c561e5ac,PennController,40,0,test_conc,NULL,PennController,51,_Trial_,End,1736435736968,undefined,848,bedpan,concrete-negative,concrete,abstract,B,NULL
1736436225,e3db4d352610093b35b24c61c561e5ac,PennController,36,0,test_conc,NULL,PennController,47,_Trial_,Start,1736435736968,undefined,2294,rapist,concrete-negative,concrete,abstract,B,NULL
1736436225,e3db4d352610093b35b24c61c561e5ac,PennController,36,0,test_conc,NULL,PennController,47,_Header_,Start,1736435736968,undefined,2294,rapist,concrete-negative,concrete,abstract,B,NULL
1736436225,e3db4d352610093b35b24c61c561e5ac,PennController,36,0,test_conc,NULL,PennController,47,_Header_,End,1736435737219,undefined,2294,rapist,concrete-negative,concrete,abstract,B,NULL
1736436225,e3db4d352610093b35b24c61c561e5ac,PennController,36,0,test_conc,NULL,Selector,unnamed-Selector,Selection,concrete,1736435740015,undefined,2294,rapist,concrete-negative,concrete,abstract,B,concrete;abstract
1736436225,e3db4d352610093b35b24c61c561e5ac,PennController,36,0,test_conc,NULL,PennController,47,_Trial_,End,1736435740016,undefined,2294,rapist,concrete-negative,concrete,abstract,B,NULL
1736436225,e3db4d352610093b35b24c61c561e5ac,PennController,31,0,test_conc,NULL,PennController,42,_Trial_,Start,1736435740017,undefined,1310,wellness,abstract-positive,concrete,abstract,B,NULL
1736436225,e3db4d352610093b35b24c61c561e5ac,PennController,31,0,test_conc,NULL,PennController,42,_Header_,Start,1736435740017,undefined,1310,wellness,abstract-positive,concrete,abstract,B,NULL
1736436225,e3db4d352610093b35b24c61c561e5ac,PennController,31,0,test_conc,NULL,PennController,42,_Header_,End,1736435740268,undefined,1310,wellness,abstract-positive,concrete,abstract,B,NULL
1736436225,e3db4d352610093b35b24c61c561e5ac,PennController,31,0,test_conc,NULL,Selector,unnamed-Selector,Selection,abstract,1736435742084,undefined,1310,wellness,abstract-positive,concrete,abstract,B,concrete;abstract
1736436225,e3db4d352610093b35b24c61c561e5ac,PennController,31,0,test_conc,NULL,PennController,42,_Trial_,End,1736435742085,undefined,1310,wellness,abstract-positive,concrete,abstract,B,NULL
1736436225,e3db4d352610093b35b24c61c561e5ac,PennController,32,0,test_conc,NULL,PennController,43,_Trial_,Start,1736435742085,undefined,1822,justice,abstract-positive,concrete,abstract,B,NULL
1736436225,e3db4d352610093b35b24c61c561e5ac,PennController,32,0,test_conc,NULL,PennController,43,_Header_,Start,1736435742085,undefined,1822,justice,abstract-positive,concrete,abstract,B,NULL
1736436225,e3db4d352610093b35b24c61c561e5ac,PennController,32,0,test_conc,NULL,PennController,43,_Header_,End,1736435742339,undefined,1822,justice,abstract-positive,concrete,abstract,B,NULL
1736436225,e3db4d352610093b35b24c61c561e5ac,PennController,32,0,test_conc,NULL,Selector,unnamed-Selector,Selection,abstract,1736435744666,undefined,1822,justice,abstract-positive,concrete,abstract,B,concrete;abstract
1736436225,e3db4d352610093b35b24c61c561e5ac,PennController,32,0,test_conc,NULL,PennController,43,_Trial_,End,1736435744667,undefined,1822,justice,abstract-positive,concrete,abstract,B,NULL
1736436225,e3db4d352610093b35b24c61c561e5ac,PennController,10,0,test_conc,NULL,PennController,21,_Trial_,Start,1736435744668,undefined,988,contempt,abstract-negative,concrete,abstract,B,NULL
1736436225,e3db4d352610093b35b24c61c561e5ac,PennController,10,0,test_conc,NULL,PennController,21,_Header_,Start,1736435744668,undefined,988,contempt,abstract-negative,concrete,abstract,B,NULL
1736436225,e3db4d352610093b35b24c61c561e5ac,PennController,10,0,test_conc,NULL,PennController,21,_Header_,End,1736435744921,undefined,988,contempt,abstract-negative,concrete,abstract,B,NULL
1736436225,e3db4d352610093b35b24c61c561e5ac,PennController,10,0,test_conc,NULL,Selector,unnamed-Selector,Selection,abstract,1736435746413,undefined,988,contempt,abstract-negative,concrete,abstract,B,concrete;abstract
1736436225,e3db4d352610093b35b24c61c561e5ac,PennController,10,0,test_conc,NULL,PennController,21,_Trial_,End,1736435746414,undefined,988,contempt,abstract-negative,concrete,abstract,B,NULL
1736436225,e3db4d352610093b35b24c61c561e5ac,PennController,39,0,test_conc,NULL,PennController,50,_Trial_,Start,1736435746414,undefined,742,cockroach,concrete-negative,concrete,abstract,B,NULL
1736436225,e3db4d352610093b35b24c61c561e5ac,PennController,39,0,test_conc,NULL,PennController,50,_Header_,Start,1736435746414,undefined,742,cockroach,concrete-negative,concrete,abstract,B,NULL
1736436225,e3db4d352610093b35b24c61c561e5ac,PennController,39,0,test_conc,NULL,PennController,50,_Header_,End,1736435746664,undefined,742,cockroach,concrete-negative,concrete,abstract,B,NULL
1736436225,e3db4d352610093b35b24c61c561e5ac,PennController,39,0,test_conc,NULL,Selector,unnamed-Selector,Selection,concrete,1736435747908,undefined,742,cockroach,concrete-negative,concrete,abstract,B,concrete;abstract
1736436225,e3db4d352610093b35b24c61c561e5ac,PennController,39,0,test_conc,NULL,PennController,50,_Trial_,End,1736435747908,undefined,742,cockroach,concrete-negative,concrete,abstract,B,NULL
1736436225,e3db4d352610093b35b24c61c561e5ac,PennController,43,0,test_conc,NULL,PennController,54,_Trial_,Start,1736435747909,undefined,1127,frostbite,concrete-negative,concrete,abstract,B,NULL
1736436225,e3db4d352610093b35b24c61c561e5ac,PennController,43,0,test_conc,NULL,PennController,54,_Header_,Start,1736435747909,undefined,1127,frostbite,concrete-negative,concrete,abstract,B,NULL
1736436225,e3db4d352610093b35b24c61c561e5ac,PennController,43,0,test_conc,NULL,PennController,54,_Header_,End,1736435748160,undefined,1127,frostbite,concrete-negative,concrete,abstract,B,NULL
1736436225,e3db4d352610093b35b24c61c561e5ac,PennController,43,0,test_conc,NULL,Selector,unnamed-Selector,Selection,concrete,1736435749790,undefined,1127,frostbite,concrete-negative,concrete,abstract,B,concrete;abstract
1736436225,e3db4d352610093b35b24c61c561e5ac,PennController,43,0,test_conc,NULL,PennController,54,_Trial_,End,1736435749791,undefined,1127,frostbite,concrete-negative,concrete,abstract,B,NULL
1736436225,e3db4d352610093b35b24c61c561e5ac,PennController,30,0,test_conc,NULL,PennController,41,_Trial_,Start,1736435749792,undefined,859,fairness,abstract-positive,concrete,abstract,B,NULL
1736436225,e3db4d352610093b35b24c61c561e5ac,PennController,30,0,test_conc,NULL,PennController,41,_Header_,Start,1736435749792,undefined,859,fairness,abstract-positive,concrete,abstract,B,NULL
1736436225,e3db4d352610093b35b24c61c561e5ac,PennController,30,0,test_conc,NULL,PennController,41,_Header_,End,1736435750043,undefined,859,fairness,abstract-positive,concrete,abstract,B,NULL
1736436225,e3db4d352610093b35b24c61c561e5ac,PennController,30,0,test_conc,NULL,Selector,unnamed-Selector,Selection,abstract,1736435751406,undefined,859,fairness,abstract-positive,concrete,abstract,B,concrete;abstract
1736436225,e3db4d352610093b35b24c61c561e5ac,PennController,30,0,test_conc,NULL,PennController,41,_Trial_,End,1736435751406,undefined,859,fairness,abstract-positive,concrete,abstract,B,NULL
1736436225,e3db4d352610093b35b24c61c561e5ac,PennController,42,0,test_conc,NULL,PennController,53,_Trial_,Start,1736435751407,undefined,1403,lynching,concrete-negative,concrete,abstract,B,NULL
1736436225,e3db4d352610093b35b24c61c561e5ac,PennController,42,0,test_conc,NULL,PennController,53,_Header_,Start,1736435751407,undefined,1403,lynching,concrete-negative,concrete,abstract,B,NULL
1736436225,e3db4d352610093b35b24c61c561e5ac,PennController,42,0,test_conc,NULL,PennController,53,_Header_,End,1736435751658,undefined,1403,lynching,concrete-negative,concrete,abstract,B,NULL
1736436225,e3db4d352610093b35b24c61c561e5ac,PennController,42,0,test_conc,NULL,Selector,unnamed-Selector,Selection,concrete,1736435753564,undefined,1403,lynching,concrete-negative,concrete,abstract,B,concrete;abstract
1736436225,e3db4d352610093b35b24c61c561e5ac,PennController,42,0,test_conc,NULL,PennController,53,_Trial_,End,1736435753565,undefined,1403,lynching,concrete-negative,concrete,abstract,B,NULL
1736436225,e3db4d352610093b35b24c61c561e5ac,PennController,6,0,test_conc,NULL,PennController,17,_Trial_,Start,1736435753566,undefined,1506,hatred,abstract-negative,concrete,abstract,B,NULL
1736436225,e3db4d352610093b35b24c61c561e5ac,PennController,6,0,test_conc,NULL,PennController,17,_Header_,Start,1736435753566,undefined,1506,hatred,abstract-negative,concrete,abstract,B,NULL
1736436225,e3db4d352610093b35b24c61c561e5ac,PennController,6,0,test_conc,NULL,PennController,17,_Header_,End,1736435753816,undefined,1506,hatred,abstract-negative,concrete,abstract,B,NULL
1736436225,e3db4d352610093b35b24c61c561e5ac,PennController,6,0,test_conc,NULL,Selector,unnamed-Selector,Selection,concrete,1736435755825,undefined,1506,hatred,abstract-negative,concrete,abstract,B,concrete;abstract
1736436225,e3db4d352610093b35b24c61c561e5ac,PennController,6,0,test_conc,NULL,PennController,17,_Trial_,End,1736435755826,undefined,1506,hatred,abstract-negative,concrete,abstract,B,NULL
1736436225,e3db4d352610093b35b24c61c561e5ac,PennController,19,0,test_conc,NULL,PennController,30,_Trial_,Start,1736435755826,undefined,1038,dollar,concrete-positive,concrete,abstract,B,NULL
1736436225,e3db4d352610093b35b24c61c561e5ac,PennController,19,0,test_conc,NULL,PennController,30,_Header_,Start,1736435755826,undefined,1038,dollar,concrete-positive,concrete,abstract,B,NULL
1736436225,e3db4d352610093b35b24c61c561e5ac,PennController,19,0,test_conc,NULL,PennController,30,_Header_,End,1736435756081,undefined,1038,dollar,concrete-positive,concrete,abstract,B,NULL
1736436225,e3db4d352610093b35b24c61c561e5ac,PennController,19,0,test_conc,NULL,Selector,unnamed-Selector,Selection,concrete,1736435757622,undefined,1038,dollar,concrete-positive,concrete,abstract,B,concrete;abstract
1736436225,e3db4d352610093b35b24c61c561e5ac,PennController,19,0,test_conc,NULL,PennController,30,_Trial_,End,1736435757622,undefined,1038,dollar,concrete-positive,concrete,abstract,B,NULL
1736436225,e3db4d352610093b35b24c61c561e5ac,PennController,25,0,test_conc,NULL,PennController,36,_Trial_,Start,1736435757623,undefined,930,greatness,abstract-positive,concrete,abstract,B,NULL
1736436225,e3db4d352610093b35b24c61c561e5ac,PennController,25,0,test_conc,NULL,PennController,36,_Header_,Start,1736435757623,undefined,930,greatness,abstract-positive,concrete,abstract,B,NULL
1736436225,e3db4d352610093b35b24c61c561e5ac,PennController,25,0,test_conc,NULL,PennController,36,_Header_,End,1736435757875,undefined,930,greatness,abstract-positive,concrete,abstract,B,NULL
1736436225,e3db4d352610093b35b24c61c561e5ac,PennController,25,0,test_conc,NULL,Selector,unnamed-Selector,Selection,abstract,1736435759308,undefined,930,greatness,abstract-positive,concrete,abstract,B,concrete;abstract
1736436225,e3db4d352610093b35b24c61c561e5ac,PennController,25,0,test_conc,NULL,PennController,36,_Trial_,End,1736435759309,undefined,930,greatness,abstract-positive,concrete,abstract,B,NULL
1736436225,e3db4d352610093b35b24c61c561e5ac,PennController,8,0,test_conc,NULL,PennController,19,_Trial_,Start,1736435759309,undefined,1564,loathing,abstract-negative,concrete,abstract,B,NULL
1736436225,e3db4d352610093b35b24c61c561e5ac,PennController,8,0,test_conc,NULL,PennController,19,_Header_,Start,1736435759309,undefined,1564,loathing,abstract-negative,concrete,abstract,B,NULL
1736436225,e3db4d352610093b35b24c61c561e5ac,PennController,8,0,test_conc,NULL,PennController,19,_Header_,End,1736435759563,undefined,1564,loathing,abstract-negative,concrete,abstract,B,NULL
1736436225,e3db4d352610093b35b24c61c561e5ac,PennController,8,0,test_conc,NULL,Selector,unnamed-Selector,Selection,abstract,1736435761630,undefined,1564,loathing,abstract-negative,concrete,abstract,B,concrete;abstract
1736436225,e3db4d352610093b35b24c61c561e5ac,PennController,8,0,test_conc,NULL,PennController,19,_Trial_,End,1736435761631,undefined,1564,loathing,abstract-negative,concrete,abstract,B,NULL
1736436225,e3db4d352610093b35b24c61c561e5ac,PennController,5,0,test_conc,NULL,PennController,16,_Trial_,Start,1736435761631,undefined,783,betrayal,abstract-negative,concrete,abstract,B,NULL
1736436225,e3db4d352610093b35b24c61c561e5ac,PennController,5,0,test_conc,NULL,PennController,16,_Header_,Start,1736435761631,undefined,783,betrayal,abstract-negative,concrete,abstract,B,NULL
1736436225,e3db4d352610093b35b24c61c561e5ac,PennController,5,0,test_conc,NULL,PennController,16,_Header_,End,1736435761883,undefined,783,betrayal,abstract-negative,concrete,abstract,B,NULL
1736436225,e3db4d352610093b35b24c61c561e5ac,PennController,5,0,test_conc,NULL,Selector,unnamed-Selector,Selection,abstract,1736435763170,undefined,783,betrayal,abstract-negative,concrete,abstract,B,concrete;abstract
1736436225,e3db4d352610093b35b24c61c561e5ac,PennController,5,0,test_conc,NULL,PennController,16,_Trial_,End,1736435763171,undefined,783,betrayal,abstract-negative,concrete,abstract,B,NULL
1736436225,e3db4d352610093b35b24c61c561e5ac,PennController,21,0,test_conc,NULL,PennController,32,_Trial_,Start,1736435763171,undefined,731,chipmunk,concrete-positive,concrete,abstract,B,NULL
1736436225,e3db4d352610093b35b24c61c561e5ac,PennController,21,0,test_conc,NULL,PennController,32,_Header_,Start,1736435763171,undefined,731,chipmunk,concrete-positive,concrete,abstract,B,NULL
1736436225,e3db4d352610093b35b24c61c561e5ac,PennController,21,0,test_conc,NULL,PennController,32,_Header_,End,1736435763423,undefined,731,chipmunk,concrete-positive,concrete,abstract,B,NULL
1736436225,e3db4d352610093b35b24c61c561e5ac,PennController,21,0,test_conc,NULL,Selector,unnamed-Selector,Selection,concrete,1736435764656,undefined,731,chipmunk,concrete-positive,concrete,abstract,B,concrete;abstract
1736436225,e3db4d352610093b35b24c61c561e5ac,PennController,21,0,test_conc,NULL,PennController,32,_Trial_,End,1736435764657,undefined,731,chipmunk,concrete-positive,concrete,abstract,B,NULL
1736436225,e3db4d352610093b35b24c61c561e5ac,PennController,33,0,test_conc,NULL,PennController,44,_Trial_,Start,1736435764657,undefined,896,knowledge,abstract-positive,concrete,abstract,B,NULL
1736436225,e3db4d352610093b35b24c61c561e5ac,PennController,33,0,test_conc,NULL,PennController,44,_Header_,Start,1736435764657,undefined,896,knowledge,abstract-positive,concrete,abstract,B,NULL
1736436225,e3db4d352610093b35b24c61c561e5ac,PennController,33,0,test_conc,NULL,PennController,44,_Header_,End,1736435764908,undefined,896,knowledge,abstract-positive,concrete,abstract,B,NULL
1736436225,e3db4d352610093b35b24c61c561e5ac,PennController,33,0,test_conc,NULL,Selector,unnamed-Selector,Selection,abstract,1736435766307,undefined,896,knowledge,abstract-positive,concrete,abstract,B,concrete;abstract
1736436225,e3db4d352610093b35b24c61c561e5ac,PennController,33,0,test_conc,NULL,PennController,44,_Trial_,End,1736435766308,undefined,896,knowledge,abstract-positive,concrete,abstract,B,NULL
1736436225,e3db4d352610093b35b24c61c561e5ac,PennController,13,0,test_conc,NULL,PennController,24,_Trial_,Start,1736435766308,undefined,921,bummer,abstract-negative,concrete,abstract,B,NULL
1736436225,e3db4d352610093b35b24c61c561e5ac,PennController,13,0,test_conc,NULL,PennController,24,_Header_,Start,1736435766308,undefined,921,bummer,abstract-negative,concrete,abstract,B,NULL
1736436225,e3db4d352610093b35b24c61c561e5ac,PennController,13,0,test_conc,NULL,PennController,24,_Header_,End,1736435766563,undefined,921,bummer,abstract-negative,concrete,abstract,B,NULL
1736436225,e3db4d352610093b35b24c61c561e5ac,PennController,13,0,test_conc,NULL,Selector,unnamed-Selector,Selection,abstract,1736435767986,undefined,921,bummer,abstract-negative,concrete,abstract,B,concrete;abstract
1736436225,e3db4d352610093b35b24c61c561e5ac,PennController,13,0,test_conc,NULL,PennController,24,_Trial_,End,1736435767987,undefined,921,bummer,abstract-negative,concrete,abstract,B,NULL
1736436225,e3db4d352610093b35b24c61c561e5ac,PennController,15,0,test_conc,NULL,PennController,26,_Trial_,Start,1736435767987,undefined,695,popcorn,concrete-positive,concrete,abstract,B,NULL
1736436225,e3db4d352610093b35b24c61c561e5ac,PennController,15,0,test_conc,NULL,PennController,26,_Header_,Start,1736435767987,undefined,695,popcorn,concrete-positive,concrete,abstract,B,NULL
1736436225,e3db4d352610093b35b24c61c561e5ac,PennController,15,0,test_conc,NULL,PennController,26,_Header_,End,1736435768238,undefined,695,popcorn,concrete-positive,concrete,abstract,B,NULL
1736436225,e3db4d352610093b35b24c61c561e5ac,PennController,15,0,test_conc,NULL,Selector,unnamed-Selector,Selection,concrete,1736435769436,undefined,695,popcorn,concrete-positive,concrete,abstract,B,concrete;abstract
1736436225,e3db4d352610093b35b24c61c561e5ac,PennController,15,0,test_conc,NULL,PennController,26,_Trial_,End,1736435769437,undefined,695,popcorn,concrete-positive,concrete,abstract,B,NULL
1736436225,e3db4d352610093b35b24c61c561e5ac,PennController,11,0,test_conc,NULL,PennController,22,_Trial_,Start,1736435769438,undefined,1375,revenge,abstract-negative,concrete,abstract,B,NULL
1736436225,e3db4d352610093b35b24c61c561e5ac,PennController,11,0,test_conc,NULL,PennController,22,_Header_,Start,1736435769438,undefined,1375,revenge,abstract-negative,concrete,abstract,B,NULL
1736436225,e3db4d352610093b35b24c61c561e5ac,PennController,11,0,test_conc,NULL,PennController,22,_Header_,End,1736435769689,undefined,1375,revenge,abstract-negative,concrete,abstract,B,NULL
1736436225,e3db4d352610093b35b24c61c561e5ac,PennController,11,0,test_conc,NULL,Selector,unnamed-Selector,Selection,abstract,1736435771567,undefined,1375,revenge,abstract-negative,concrete,abstract,B,concrete;abstract
1736436225,e3db4d352610093b35b24c61c561e5ac,PennController,11,0,test_conc,NULL,PennController,22,_Trial_,End,1736435771568,undefined,1375,revenge,abstract-negative,concrete,abstract,B,NULL
1736436225,e3db4d352610093b35b24c61c561e5ac,PennController,28,0,test_conc,NULL,PennController,39,_Trial_,Start,1736435771569,undefined,616,goodness,abstract-positive,concrete,abstract,B,NULL
1736436225,e3db4d352610093b35b24c61c561e5ac,PennController,28,0,test_conc,NULL,PennController,39,_Header_,Start,1736435771569,undefined,616,goodness,abstract-positive,concrete,abstract,B,NULL
1736436225,e3db4d352610093b35b24c61c561e5ac,PennController,28,0,test_conc,NULL,PennController,39,_Header_,End,1736435771822,undefined,616,goodness,abstract-positive,concrete,abstract,B,NULL
1736436225,e3db4d352610093b35b24c61c561e5ac,PennController,28,0,test_conc,NULL,Selector,unnamed-Selector,Selection,abstract,1736435772943,undefined,616,goodness,abstract-positive,concrete,abstract,B,concrete;abstract
1736436225,e3db4d352610093b35b24c61c561e5ac,PennController,28,0,test_conc,NULL,PennController,39,_Trial_,End,1736435772944,undefined,616,goodness,abstract-positive,concrete,abstract,B,NULL
1736436225,e3db4d352610093b35b24c61c561e5ac,PennController,38,0,test_conc,NULL,PennController,49,_Trial_,Start,1736435772945,undefined,754,casket,concrete-negative,concrete,abstract,B,NULL
1736436225,e3db4d352610093b35b24c61c561e5ac,PennController,38,0,test_conc,NULL,PennController,49,_Header_,Start,1736435772945,undefined,754,casket,concrete-negative,concrete,abstract,B,NULL
1736436225,e3db4d352610093b35b24c61c561e5ac,PennController,38,0,test_conc,NULL,PennController,49,_Header_,End,1736435773195,undefined,754,casket,concrete-negative,concrete,abstract,B,NULL
1736436225,e3db4d352610093b35b24c61c561e5ac,PennController,38,0,test_conc,NULL,Selector,unnamed-Selector,Selection,concrete,1736435774455,undefined,754,casket,concrete-negative,concrete,abstract,B,concrete;abstract
1736436225,e3db4d352610093b35b24c61c561e5ac,PennController,38,0,test_conc,NULL,PennController,49,_Trial_,End,1736435774456,undefined,754,casket,concrete-negative,concrete,abstract,B,NULL
1736436225,e3db4d352610093b35b24c61c561e5ac,PennController,26,0,test_conc,NULL,PennController,37,_Trial_,Start,1736435774456,undefined,649,fondness,abstract-positive,concrete,abstract,B,NULL
1736436225,e3db4d352610093b35b24c61c561e5ac,PennController,26,0,test_conc,NULL,PennController,37,_Header_,Start,1736435774456,undefined,649,fondness,abstract-positive,concrete,abstract,B,NULL
1736436225,e3db4d352610093b35b24c61c561e5ac,PennController,26,0,test_conc,NULL,PennController,37,_Header_,End,1736435774709,undefined,649,fondness,abstract-positive,concrete,abstract,B,NULL
1736436225,e3db4d352610093b35b24c61c561e5ac,PennController,26,0,test_conc,NULL,Selector,unnamed-Selector,Selection,abstract,1736435775860,undefined,649,fondness,abstract-positive,concrete,abstract,B,concrete;abstract
1736436225,e3db4d352610093b35b24c61c561e5ac,PennController,26,0,test_conc,NULL,PennController,37,_Trial_,End,1736435775861,undefined,649,fondness,abstract-positive,concrete,abstract,B,NULL
1736436225,e3db4d352610093b35b24c61c561e5ac,PennController,7,0,test_conc,NULL,PennController,18,_Trial_,Start,1736435775862,undefined,826,breakup,abstract-negative,concrete,abstract,B,NULL
1736436225,e3db4d352610093b35b24c61c561e5ac,PennController,7,0,test_conc,NULL,PennController,18,_Header_,Start,1736435775862,undefined,826,breakup,abstract-negative,concrete,abstract,B,NULL
1736436225,e3db4d352610093b35b24c61c561e5ac,PennController,7,0,test_conc,NULL,PennController,18,_Header_,End,1736435776115,undefined,826,breakup,abstract-negative,concrete,abstract,B,NULL
1736436225,e3db4d352610093b35b24c61c561e5ac,PennController,7,0,test_conc,NULL,Selector,unnamed-Selector,Selection,abstract,1736435777447,undefined,826,breakup,abstract-negative,concrete,abstract,B,concrete;abstract
1736436225,e3db4d352610093b35b24c61c561e5ac,PennController,7,0,test_conc,NULL,PennController,18,_Trial_,End,1736435777448,undefined,826,breakup,abstract-negative,concrete,abstract,B,NULL
1736436225,e3db4d352610093b35b24c61c561e5ac,PennController,23,0,test_conc,NULL,PennController,34,_Trial_,Start,1736435777448,undefined,619,sandwich,concrete-positive,concrete,abstract,B,NULL
1736436225,e3db4d352610093b35b24c61c561e5ac,PennController,23,0,test_conc,NULL,PennController,34,_Header_,Start,1736435777448,undefined,619,sandwich,concrete-positive,concrete,abstract,B,NULL
1736436225,e3db4d352610093b35b24c61c561e5ac,PennController,23,0,test_conc,NULL,PennController,34,_Header_,End,1736435777700,undefined,619,sandwich,concrete-positive,concrete,abstract,B,NULL
1736436225,e3db4d352610093b35b24c61c561e5ac,PennController,23,0,test_conc,NULL,Selector,unnamed-Selector,Selection,concrete,1736435778821,undefined,619,sandwich,concrete-positive,concrete,abstract,B,concrete;abstract
1736436225,e3db4d352610093b35b24c61c561e5ac,PennController,23,0,test_conc,NULL,PennController,34,_Trial_,End,1736435778822,undefined,619,sandwich,concrete-positive,concrete,abstract,B,NULL
1736436225,e3db4d352610093b35b24c61c561e5ac,PennController,16,0,test_conc,NULL,PennController,27,_Trial_,Start,1736435778822,undefined,1305,doughnut,concrete-positive,concrete,abstract,B,NULL
1736436225,e3db4d352610093b35b24c61c561e5ac,PennController,16,0,test_conc,NULL,PennController,27,_Header_,Start,1736435778822,undefined,1305,doughnut,concrete-positive,concrete,abstract,B,NULL
1736436225,e3db4d352610093b35b24c61c561e5ac,PennController,16,0,test_conc,NULL,PennController,27,_Header_,End,1736435779073,undefined,1305,doughnut,concrete-positive,concrete,abstract,B,NULL
1736436225,e3db4d352610093b35b24c61c561e5ac,PennController,16,0,test_conc,NULL,Selector,unnamed-Selector,Selection,concrete,1736435780883,undefined,1305,doughnut,concrete-positive,concrete,abstract,B,concrete;abstract
1736436225,e3db4d352610093b35b24c61c561e5ac,PennController,16,0,test_conc,NULL,PennController,27,_Trial_,End,1736435780884,undefined,1305,doughnut,concrete-positive,concrete,abstract,B,NULL
1736436225,e3db4d352610093b35b24c61c561e5ac,PennController,14,0,test_conc,NULL,PennController,25,_Trial_,Start,1736435780885,undefined,1494,pizza,concrete-positive,concrete,abstract,B,NULL
1736436225,e3db4d352610093b35b24c61c561e5ac,PennController,14,0,test_conc,NULL,PennController,25,_Header_,Start,1736435780885,undefined,1494,pizza,concrete-positive,concrete,abstract,B,NULL
1736436225,e3db4d352610093b35b24c61c561e5ac,PennController,14,0,test_conc,NULL,PennController,25,_Header_,End,1736435781137,undefined,1494,pizza,concrete-positive,concrete,abstract,B,NULL
1736436225,e3db4d352610093b35b24c61c561e5ac,PennController,14,0,test_conc,NULL,Selector,unnamed-Selector,Selection,concrete,1736435783134,undefined,1494,pizza,concrete-positive,concrete,abstract,B,concrete;abstract
1736436225,e3db4d352610093b35b24c61c561e5ac,PennController,14,0,test_conc,NULL,PennController,25,_Trial_,End,1736435783135,undefined,1494,pizza,concrete-positive,concrete,abstract,B,NULL
1736436225,e3db4d352610093b35b24c61c561e5ac,PennController,20,0,test_conc,NULL,PennController,31,_Trial_,Start,1736435783135,undefined,673,blanket,concrete-positive,concrete,abstract,B,NULL
1736436225,e3db4d352610093b35b24c61c561e5ac,PennController,20,0,test_conc,NULL,PennController,31,_Header_,Start,1736435783135,undefined,673,blanket,concrete-positive,concrete,abstract,B,NULL
1736436225,e3db4d352610093b35b24c61c561e5ac,PennController,20,0,test_conc,NULL,PennController,31,_Header_,End,1736435783389,undefined,673,blanket,concrete-positive,concrete,abstract,B,NULL
1736436225,e3db4d352610093b35b24c61c561e5ac,PennController,20,0,test_conc,NULL,Selector,unnamed-Selector,Selection,concrete,1736435784563,undefined,673,blanket,concrete-positive,concrete,abstract,B,concrete;abstract
1736436225,e3db4d352610093b35b24c61c561e5ac,PennController,20,0,test_conc,NULL,PennController,31,_Trial_,End,1736435784564,undefined,673,blanket,concrete-positive,concrete,abstract,B,NULL
1736436225,e3db4d352610093b35b24c61c561e5ac,PennController,17,0,test_conc,NULL,PennController,28,_Trial_,Start,1736435784565,undefined,1329,duckling,concrete-positive,concrete,abstract,B,NULL
1736436225,e3db4d352610093b35b24c61c561e5ac,PennController,17,0,test_conc,NULL,PennController,28,_Header_,Start,1736435784565,undefined,1329,duckling,concrete-positive,concrete,abstract,B,NULL
1736436225,e3db4d352610093b35b24c61c561e5ac,PennController,17,0,test_conc,NULL,PennController,28,_Header_,End,1736435784816,undefined,1329,duckling,concrete-positive,concrete,abstract,B,NULL
1736436225,e3db4d352610093b35b24c61c561e5ac,PennController,17,0,test_conc,NULL,Selector,unnamed-Selector,Selection,concrete,1736435786648,undefined,1329,duckling,concrete-positive,concrete,abstract,B,concrete;abstract
1736436225,e3db4d352610093b35b24c61c561e5ac,PennController,17,0,test_conc,NULL,PennController,28,_Trial_,End,1736435786649,undefined,1329,duckling,concrete-positive,concrete,abstract,B,NULL
1736436225,e3db4d352610093b35b24c61c561e5ac,PennController,27,0,test_conc,NULL,PennController,38,_Trial_,Start,1736435786650,undefined,1146,courage,abstract-positive,concrete,abstract,B,NULL
1736436225,e3db4d352610093b35b24c61c561e5ac,PennController,27,0,test_conc,NULL,PennController,38,_Header_,Start,1736435786650,undefined,1146,courage,abstract-positive,concrete,abstract,B,NULL
1736436225,e3db4d352610093b35b24c61c561e5ac,PennController,27,0,test_conc,NULL,PennController,38,_Header_,End,1736435786900,undefined,1146,courage,abstract-positive,concrete,abstract,B,NULL
1736436225,e3db4d352610093b35b24c61c561e5ac,PennController,27,0,test_conc,NULL,Selector,unnamed-Selector,Selection,abstract,1736435788548,undefined,1146,courage,abstract-positive,concrete,abstract,B,concrete;abstract
1736436225,e3db4d352610093b35b24c61c561e5ac,PennController,27,0,test_conc,NULL,PennController,38,_Trial_,End,1736435788548,undefined,1146,courage,abstract-positive,concrete,abstract,B,NULL
1736436225,e3db4d352610093b35b24c61c561e5ac,PennController,37,0,test_conc,NULL,PennController,48,_Trial_,Start,1736435788549,undefined,1285,traffic,concrete-negative,concrete,abstract,B,NULL
1736436225,e3db4d352610093b35b24c61c561e5ac,PennController,37,0,test_conc,NULL,PennController,48,_Header_,Start,1736435788549,undefined,1285,traffic,concrete-negative,concrete,abstract,B,NULL
1736436225,e3db4d352610093b35b24c61c561e5ac,PennController,37,0,test_conc,NULL,PennController,48,_Header_,End,1736435788803,undefined,1285,traffic,concrete-negative,concrete,abstract,B,NULL
1736436225,e3db4d352610093b35b24c61c561e5ac,PennController,37,0,test_conc,NULL,Selector,unnamed-Selector,Selection,abstract,1736435790590,undefined,1285,traffic,concrete-negative,concrete,abstract,B,concrete;abstract
1736436225,e3db4d352610093b35b24c61c561e5ac,PennController,37,0,test_conc,NULL,PennController,48,_Trial_,End,1736435790591,undefined,1285,traffic,concrete-negative,concrete,abstract,B,NULL
1736436225,e3db4d352610093b35b24c61c561e5ac,PennController,12,0,test_conc,NULL,PennController,23,_Trial_,Start,1736435790591,undefined,1443,sadness,abstract-negative,concrete,abstract,B,NULL
1736436225,e3db4d352610093b35b24c61c561e5ac,PennController,12,0,test_conc,NULL,PennController,23,_Header_,Start,1736435790591,undefined,1443,sadness,abstract-negative,concrete,abstract,B,NULL
1736436225,e3db4d352610093b35b24c61c561e5ac,PennController,12,0,test_conc,NULL,PennController,23,_Header_,End,1736435790843,undefined,1443,sadness,abstract-negative,concrete,abstract,B,NULL
1736436225,e3db4d352610093b35b24c61c561e5ac,PennController,12,0,test_conc,NULL,Selector,unnamed-Selector,Selection,abstract,1736435792789,undefined,1443,sadness,abstract-negative,concrete,abstract,B,concrete;abstract
1736436225,e3db4d352610093b35b24c61c561e5ac,PennController,12,0,test_conc,NULL,PennController,23,_Trial_,End,1736435792790,undefined,1443,sadness,abstract-negative,concrete,abstract,B,NULL
1736436225,e3db4d352610093b35b24c61c561e5ac,PennController,18,0,test_conc,NULL,PennController,29,_Trial_,Start,1736435792790,undefined,627,bunny,concrete-positive,concrete,abstract,B,NULL
1736436225,e3db4d352610093b35b24c61c561e5ac,PennController,18,0,test_conc,NULL,PennController,29,_Header_,Start,1736435792790,undefined,627,bunny,concrete-positive,concrete,abstract,B,NULL
1736436225,e3db4d352610093b35b24c61c561e5ac,PennController,18,0,test_conc,NULL,PennController,29,_Header_,End,1736435793043,undefined,627,bunny,concrete-positive,concrete,abstract,B,NULL
1736436225,e3db4d352610093b35b24c61c561e5ac,PennController,18,0,test_conc,NULL,Selector,unnamed-Selector,Selection,concrete,1736435794173,undefined,627,bunny,concrete-positive,concrete,abstract,B,concrete;abstract
1736436225,e3db4d352610093b35b24c61c561e5ac,PennController,18,0,test_conc,NULL,PennController,29,_Trial_,End,1736435794174,undefined,627,bunny,concrete-positive,concrete,abstract,B,NULL
1736436225,e3db4d352610093b35b24c61c561e5ac,PennController,9,0,test_conc,NULL,PennController,20,_Trial_,Start,1736435794175,undefined,1351,madness,abstract-negative,concrete,abstract,B,NULL
1736436225,e3db4d352610093b35b24c61c561e5ac,PennController,9,0,test_conc,NULL,PennController,20,_Header_,Start,1736435794175,undefined,1351,madness,abstract-negative,concrete,abstract,B,NULL
1736436225,e3db4d352610093b35b24c61c561e5ac,PennController,9,0,test_conc,NULL,PennController,20,_Header_,End,1736435794426,undefined,1351,madness,abstract-negative,concrete,abstract,B,NULL
1736436225,e3db4d352610093b35b24c61c561e5ac,PennController,9,0,test_conc,NULL,Selector,unnamed-Selector,Selection,abstract,1736435796283,undefined,1351,madness,abstract-negative,concrete,abstract,B,concrete;abstract
1736436225,e3db4d352610093b35b24c61c561e5ac,PennController,9,0,test_conc,NULL,PennController,20,_Trial_,End,1736435796284,undefined,1351,madness,abstract-negative,concrete,abstract,B,NULL
1736436225,e3db4d352610093b35b24c61c561e5ac,PennController,41,0,test_conc,NULL,PennController,52,_Trial_,Start,1736435796285,undefined,1268,prison,concrete-negative,concrete,abstract,B,NULL
1736436225,e3db4d352610093b35b24c61c561e5ac,PennController,41,0,test_conc,NULL,PennController,52,_Header_,Start,1736435796285,undefined,1268,prison,concrete-negative,concrete,abstract,B,NULL
1736436225,e3db4d352610093b35b24c61c561e5ac,PennController,41,0,test_conc,NULL,PennController,52,_Header_,End,1736435796535,undefined,1268,prison,concrete-negative,concrete,abstract,B,NULL
1736436225,e3db4d352610093b35b24c61c561e5ac,PennController,41,0,test_conc,NULL,Selector,unnamed-Selector,Selection,abstract,1736435798303,undefined,1268,prison,concrete-negative,concrete,abstract,B,concrete;abstract
1736436225,e3db4d352610093b35b24c61c561e5ac,PennController,41,0,test_conc,NULL,PennController,52,_Trial_,End,1736435798304,undefined,1268,prison,concrete-negative,concrete,abstract,B,NULL
1736436225,e3db4d352610093b35b24c61c561e5ac,PennController,22,0,test_conc,NULL,PennController,33,_Trial_,Start,1736435798305,undefined,1058,pancake,concrete-positive,concrete,abstract,B,NULL
1736436225,e3db4d352610093b35b24c61c561e5ac,PennController,22,0,test_conc,NULL,PennController,33,_Header_,Start,1736435798305,undefined,1058,pancake,concrete-positive,concrete,abstract,B,NULL
1736436225,e3db4d352610093b35b24c61c561e5ac,PennController,22,0,test_conc,NULL,PennController,33,_Header_,End,1736435798555,undefined,1058,pancake,concrete-positive,concrete,abstract,B,NULL
1736436225,e3db4d352610093b35b24c61c561e5ac,PennController,22,0,test_conc,NULL,Selector,unnamed-Selector,Selection,concrete,1736435800116,undefined,1058,pancake,concrete-positive,concrete,abstract,B,concrete;abstract
1736436225,e3db4d352610093b35b24c61c561e5ac,PennController,22,0,test_conc,NULL,PennController,33,_Trial_,End,1736435800117,undefined,1058,pancake,concrete-positive,concrete,abstract,B,NULL
1736436225,e3db4d352610093b35b24c61c561e5ac,PennController,29,0,test_conc,NULL,PennController,40,_Trial_,Start,1736435800118,undefined,789,splendor,abstract-positive,concrete,abstract,B,NULL
1736436225,e3db4d352610093b35b24c61c561e5ac,PennController,29,0,test_conc,NULL,PennController,40,_Header_,Start,1736435800118,undefined,789,splendor,abstract-positive,concrete,abstract,B,NULL
1736436225,e3db4d352610093b35b24c61c561e5ac,PennController,29,0,test_conc,NULL,PennController,40,_Header_,End,1736435800369,undefined,789,splendor,abstract-positive,concrete,abstract,B,NULL
1736436225,e3db4d352610093b35b24c61c561e5ac,PennController,29,0,test_conc,NULL,Selector,unnamed-Selector,Selection,abstract,1736435801661,undefined,789,splendor,abstract-positive,concrete,abstract,B,concrete;abstract
1736436225,e3db4d352610093b35b24c61c561e5ac,PennController,29,0,test_conc,NULL,PennController,40,_Trial_,End,1736435801662,undefined,789,splendor,abstract-positive,concrete,abstract,B,NULL
1736436225,e3db4d352610093b35b24c61c561e5ac,PennController,24,0,test_conc,NULL,PennController,35,_Trial_,Start,1736435801662,undefined,728,wisdom,abstract-positive,concrete,abstract,B,NULL
1736436225,e3db4d352610093b35b24c61c561e5ac,PennController,24,0,test_conc,NULL,PennController,35,_Header_,Start,1736435801662,undefined,728,wisdom,abstract-positive,concrete,abstract,B,NULL
1736436225,e3db4d352610093b35b24c61c561e5ac,PennController,24,0,test_conc,NULL,PennController,35,_Header_,End,1736435801916,undefined,728,wisdom,abstract-positive,concrete,abstract,B,NULL
1736436225,e3db4d352610093b35b24c61c561e5ac,PennController,24,0,test_conc,NULL,Selector,unnamed-Selector,Selection,abstract,1736435803147,undefined,728,wisdom,abstract-positive,concrete,abstract,B,concrete;abstract
1736436225,e3db4d352610093b35b24c61c561e5ac,PennController,24,0,test_conc,NULL,PennController,35,_Trial_,End,1736435803148,undefined,728,wisdom,abstract-positive,concrete,abstract,B,NULL
1736436225,e3db4d352610093b35b24c61c561e5ac,PennController,4,0,test_conc,NULL,PennController,15,_Trial_,Start,1736435803148,undefined,627,fascism,abstract-negative,concrete,abstract,B,NULL
1736436225,e3db4d352610093b35b24c61c561e5ac,PennController,4,0,test_conc,NULL,PennController,15,_Header_,Start,1736435803148,undefined,627,fascism,abstract-negative,concrete,abstract,B,NULL
1736436225,e3db4d352610093b35b24c61c561e5ac,PennController,4,0,test_conc,NULL,PennController,15,_Header_,End,1736435803398,undefined,627,fascism,abstract-negative,concrete,abstract,B,NULL
1736436225,e3db4d352610093b35b24c61c561e5ac,PennController,4,0,test_conc,NULL,Selector,unnamed-Selector,Selection,abstract,1736435804529,undefined,627,fascism,abstract-negative,concrete,abstract,B,concrete;abstract
1736436225,e3db4d352610093b35b24c61c561e5ac,PennController,4,0,test_conc,NULL,PennController,15,_Trial_,End,1736435804530,undefined,627,fascism,abstract-negative,concrete,abstract,B,NULL
1736436225,e3db4d352610093b35b24c61c561e5ac,PennController,34,0,test_conc,NULL,PennController,45,_Trial_,Start,1736435804531,undefined,875,feces,concrete-negative,concrete,abstract,B,NULL
1736436225,e3db4d352610093b35b24c61c561e5ac,PennController,34,0,test_conc,NULL,PennController,45,_Header_,Start,1736435804531,undefined,875,feces,concrete-negative,concrete,abstract,B,NULL
1736436225,e3db4d352610093b35b24c61c561e5ac,PennController,34,0,test_conc,NULL,PennController,45,_Header_,End,1736435804781,undefined,875,feces,concrete-negative,concrete,abstract,B,NULL
1736436225,e3db4d352610093b35b24c61c561e5ac,PennController,34,0,test_conc,NULL,Selector,unnamed-Selector,Selection,concrete,1736435806161,undefined,875,feces,concrete-negative,concrete,abstract,B,concrete;abstract
1736436225,e3db4d352610093b35b24c61c561e5ac,PennController,34,0,test_conc,NULL,PennController,45,_Trial_,End,1736435806161,undefined,875,feces,concrete-negative,concrete,abstract,B,NULL
1736436225,e3db4d352610093b35b24c61c561e5ac,PennController,35,0,test_conc,NULL,PennController,46,_Trial_,Start,1736435806162,undefined,633,maggot,concrete-negative,concrete,abstract,B,NULL
1736436225,e3db4d352610093b35b24c61c561e5ac,PennController,35,0,test_conc,NULL,PennController,46,_Header_,Start,1736435806162,undefined,633,maggot,concrete-negative,concrete,abstract,B,NULL
1736436225,e3db4d352610093b35b24c61c561e5ac,PennController,35,0,test_conc,NULL,PennController,46,_Header_,End,1736435806414,undefined,633,maggot,concrete-negative,concrete,abstract,B,NULL
1736436225,e3db4d352610093b35b24c61c561e5ac,PennController,35,0,test_conc,NULL,Selector,unnamed-Selector,Selection,concrete,1736435807550,undefined,633,maggot,concrete-negative,concrete,abstract,B,concrete;abstract
1736436225,e3db4d352610093b35b24c61c561e5ac,PennController,35,0,test_conc,NULL,PennController,46,_Trial_,End,1736435807551,undefined,633,maggot,concrete-negative,concrete,abstract,B,NULL
1736436225,e3db4d352610093b35b24c61c561e5ac,PennController,15,0,test_conc,NULL,PennController,26,_Trial_,Start,1736435807551,undefined,726,popcorn,concrete-positive,concrete,abstract,B,NULL
1736436225,e3db4d352610093b35b24c61c561e5ac,PennController,15,0,test_conc,NULL,PennController,26,_Header_,Start,1736435807551,undefined,726,popcorn,concrete-positive,concrete,abstract,B,NULL
1736436225,e3db4d352610093b35b24c61c561e5ac,PennController,15,0,test_conc,NULL,PennController,26,_Header_,End,1736435807802,undefined,726,popcorn,concrete-positive,concrete,abstract,B,NULL
1736436225,e3db4d352610093b35b24c61c561e5ac,PennController,15,0,test_conc,NULL,Selector,unnamed-Selector,Selection,concrete,1736435809033,undefined,726,popcorn,concrete-positive,concrete,abstract,B,concrete;abstract
1736436225,e3db4d352610093b35b24c61c561e5ac,PennController,15,0,test_conc,NULL,PennController,26,_Trial_,End,1736435809034,undefined,726,popcorn,concrete-positive,concrete,abstract,B,NULL
1736436225,e3db4d352610093b35b24c61c561e5ac,PennController,43,0,test_conc,NULL,PennController,54,_Trial_,Start,1736435809035,undefined,1879,frostbite,concrete-negative,concrete,abstract,B,NULL
1736436225,e3db4d352610093b35b24c61c561e5ac,PennController,43,0,test_conc,NULL,PennController,54,_Header_,Start,1736435809035,undefined,1879,frostbite,concrete-negative,concrete,abstract,B,NULL
1736436225,e3db4d352610093b35b24c61c561e5ac,PennController,43,0,test_conc,NULL,PennController,54,_Header_,End,1736435809289,undefined,1879,frostbite,concrete-negative,concrete,abstract,B,NULL
1736436225,e3db4d352610093b35b24c61c561e5ac,PennController,43,0,test_conc,NULL,Selector,unnamed-Selector,Selection,concrete,1736435811671,undefined,1879,frostbite,concrete-negative,concrete,abstract,B,concrete;abstract
1736436225,e3db4d352610093b35b24c61c561e5ac,PennController,43,0,test_conc,NULL,PennController,54,_Trial_,End,1736435811672,undefined,1879,frostbite,concrete-negative,concrete,abstract,B,NULL
1736436225,e3db4d352610093b35b24c61c561e5ac,PennController,42,0,test_conc,NULL,PennController,53,_Trial_,Start,1736435811673,undefined,798,lynching,concrete-negative,concrete,abstract,B,NULL
1736436225,e3db4d352610093b35b24c61c561e5ac,PennController,42,0,test_conc,NULL,PennController,53,_Header_,Start,1736435811673,undefined,798,lynching,concrete-negative,concrete,abstract,B,NULL
1736436225,e3db4d352610093b35b24c61c561e5ac,PennController,42,0,test_conc,NULL,PennController,53,_Header_,End,1736435811924,undefined,798,lynching,concrete-negative,concrete,abstract,B,NULL
1736436225,e3db4d352610093b35b24c61c561e5ac,PennController,42,0,test_conc,NULL,Selector,unnamed-Selector,Selection,abstract,1736435813223,undefined,798,lynching,concrete-negative,concrete,abstract,B,concrete;abstract
1736436225,e3db4d352610093b35b24c61c561e5ac,PennController,42,0,test_conc,NULL,PennController,53,_Trial_,End,1736435813223,undefined,798,lynching,concrete-negative,concrete,abstract,B,NULL
1736436225,e3db4d352610093b35b24c61c561e5ac,PennController,26,0,test_conc,NULL,PennController,37,_Trial_,Start,1736435813224,undefined,816,fondness,abstract-positive,concrete,abstract,B,NULL
1736436225,e3db4d352610093b35b24c61c561e5ac,PennController,26,0,test_conc,NULL,PennController,37,_Header_,Start,1736435813224,undefined,816,fondness,abstract-positive,concrete,abstract,B,NULL
1736436225,e3db4d352610093b35b24c61c561e5ac,PennController,26,0,test_conc,NULL,PennController,37,_Header_,End,1736435813478,undefined,816,fondness,abstract-positive,concrete,abstract,B,NULL
1736436225,e3db4d352610093b35b24c61c561e5ac,PennController,26,0,test_conc,NULL,Selector,unnamed-Selector,Selection,abstract,1736435814797,undefined,816,fondness,abstract-positive,concrete,abstract,B,concrete;abstract
1736436225,e3db4d352610093b35b24c61c561e5ac,PennController,26,0,test_conc,NULL,PennController,37,_Trial_,End,1736435814797,undefined,816,fondness,abstract-positive,concrete,abstract,B,NULL
1736436225,e3db4d352610093b35b24c61c561e5ac,PennController,35,0,test_conc,NULL,PennController,46,_Trial_,Start,1736435814798,undefined,676,maggot,concrete-negative,concrete,abstract,B,NULL
1736436225,e3db4d352610093b35b24c61c561e5ac,PennController,35,0,test_conc,NULL,PennController,46,_Header_,Start,1736435814798,undefined,676,maggot,concrete-negative,concrete,abstract,B,NULL
1736436225,e3db4d352610093b35b24c61c561e5ac,PennController,35,0,test_conc,NULL,PennController,46,_Header_,End,1736435815051,undefined,676,maggot,concrete-negative,concrete,abstract,B,NULL
1736436225,e3db4d352610093b35b24c61c561e5ac,PennController,35,0,test_conc,NULL,Selector,unnamed-Selector,Selection,concrete,1736435816229,undefined,676,maggot,concrete-negative,concrete,abstract,B,concrete;abstract
1736436225,e3db4d352610093b35b24c61c561e5ac,PennController,35,0,test_conc,NULL,PennController,46,_Trial_,End,1736435816230,undefined,676,maggot,concrete-negative,concrete,abstract,B,NULL
1736436225,e3db4d352610093b35b24c61c561e5ac,PennController,27,0,test_conc,NULL,PennController,38,_Trial_,Start,1736435816231,undefined,689,courage,abstract-positive,concrete,abstract,B,NULL
1736436225,e3db4d352610093b35b24c61c561e5ac,PennController,27,0,test_conc,NULL,PennController,38,_Header_,Start,1736435816231,undefined,689,courage,abstract-positive,concrete,abstract,B,NULL
1736436225,e3db4d352610093b35b24c61c561e5ac,PennController,27,0,test_conc,NULL,PennController,38,_Header_,End,1736435816482,undefined,689,courage,abstract-positive,concrete,abstract,B,NULL
1736436225,e3db4d352610093b35b24c61c561e5ac,PennController,27,0,test_conc,NULL,Selector,unnamed-Selector,Selection,abstract,1736435817673,undefined,689,courage,abstract-positive,concrete,abstract,B,concrete;abstract
1736436225,e3db4d352610093b35b24c61c561e5ac,PennController,27,0,test_conc,NULL,PennController,38,_Trial_,End,1736435817674,undefined,689,courage,abstract-positive,concrete,abstract,B,NULL
1736436225,e3db4d352610093b35b24c61c561e5ac,PennController,32,0,test_conc,NULL,PennController,43,_Trial_,Start,1736435817675,undefined,652,justice,abstract-positive,concrete,abstract,B,NULL
1736436225,e3db4d352610093b35b24c61c561e5ac,PennController,32,0,test_conc,NULL,PennController,43,_Header_,Start,1736435817675,undefined,652,justice,abstract-positive,concrete,abstract,B,NULL
1736436225,e3db4d352610093b35b24c61c561e5ac,PennController,32,0,test_conc,NULL,PennController,43,_Header_,End,1736435817927,undefined,652,justice,abstract-positive,concrete,abstract,B,NULL
1736436225,e3db4d352610093b35b24c61c561e5ac,PennController,32,0,test_conc,NULL,Selector,unnamed-Selector,Selection,abstract,1736435819081,undefined,652,justice,abstract-positive,concrete,abstract,B,concrete;abstract
1736436225,e3db4d352610093b35b24c61c561e5ac,PennController,32,0,test_conc,NULL,PennController,43,_Trial_,End,1736435819082,undefined,652,justice,abstract-positive,concrete,abstract,B,NULL
1736436225,e3db4d352610093b35b24c61c561e5ac,PennController,34,0,test_conc,NULL,PennController,45,_Trial_,Start,1736435819083,undefined,665,feces,concrete-negative,concrete,abstract,B,NULL
1736436225,e3db4d352610093b35b24c61c561e5ac,PennController,34,0,test_conc,NULL,PennController,45,_Header_,Start,1736435819083,undefined,665,feces,concrete-negative,concrete,abstract,B,NULL
1736436225,e3db4d352610093b35b24c61c561e5ac,PennController,34,0,test_conc,NULL,PennController,45,_Header_,End,1736435819334,undefined,665,feces,concrete-negative,concrete,abstract,B,NULL
1736436225,e3db4d352610093b35b24c61c561e5ac,PennController,34,0,test_conc,NULL,Selector,unnamed-Selector,Selection,concrete,1736435820503,undefined,665,feces,concrete-negative,concrete,abstract,B,concrete;abstract
1736436225,e3db4d352610093b35b24c61c561e5ac,PennController,34,0,test_conc,NULL,PennController,45,_Trial_,End,1736435820504,undefined,665,feces,concrete-negative,concrete,abstract,B,NULL
1736436225,e3db4d352610093b35b24c61c561e5ac,PennController,18,0,test_conc,NULL,PennController,29,_Trial_,Start,1736435820505,undefined,544,bunny,concrete-positive,concrete,abstract,B,NULL
1736436225,e3db4d352610093b35b24c61c561e5ac,PennController,18,0,test_conc,NULL,PennController,29,_Header_,Start,1736435820505,undefined,544,bunny,concrete-positive,concrete,abstract,B,NULL
1736436225,e3db4d352610093b35b24c61c561e5ac,PennController,18,0,test_conc,NULL,PennController,29,_Header_,End,1736435820757,undefined,544,bunny,concrete-positive,concrete,abstract,B,NULL
1736436225,e3db4d352610093b35b24c61c561e5ac,PennController,18,0,test_conc,NULL,Selector,unnamed-Selector,Selection,concrete,1736435821805,undefined,544,bunny,concrete-positive,concrete,abstract,B,concrete;abstract
1736436225,e3db4d352610093b35b24c61c561e5ac,PennController,18,0,test_conc,NULL,PennController,29,_Trial_,End,1736435821806,undefined,544,bunny,concrete-positive,concrete,abstract,B,NULL
1736436225,e3db4d352610093b35b24c61c561e5ac,PennController,12,0,test_conc,NULL,PennController,23,_Trial_,Start,1736435821806,undefined,1495,sadness,abstract-negative,concrete,abstract,B,NULL
1736436225,e3db4d352610093b35b24c61c561e5ac,PennController,12,0,test_conc,NULL,PennController,23,_Header_,Start,1736435821806,undefined,1495,sadness,abstract-negative,concrete,abstract,B,NULL
1736436225,e3db4d352610093b35b24c61c561e5ac,PennController,12,0,test_conc,NULL,PennController,23,_Header_,End,1736435822057,undefined,1495,sadness,abstract-negative,concrete,abstract,B,NULL
1736436225,e3db4d352610093b35b24c61c561e5ac,PennController,12,0,test_conc,NULL,Selector,unnamed-Selector,Selection,abstract,1736435824055,undefined,1495,sadness,abstract-negative,concrete,abstract,B,concrete;abstract
1736436225,e3db4d352610093b35b24c61c561e5ac,PennController,12,0,test_conc,NULL,PennController,23,_Trial_,End,1736435824055,undefined,1495,sadness,abstract-negative,concrete,abstract,B,NULL
1736436225,e3db4d352610093b35b24c61c561e5ac,PennController,6,0,test_conc,NULL,PennController,17,_Trial_,Start,1736435824056,undefined,604,hatred,abstract-negative,concrete,abstract,B,NULL
1736436225,e3db4d352610093b35b24c61c561e5ac,PennController,6,0,test_conc,NULL,PennController,17,_Header_,Start,1736435824056,undefined,604,hatred,abstract-negative,concrete,abstract,B,NULL
1736436225,e3db4d352610093b35b24c61c561e5ac,PennController,6,0,test_conc,NULL,PennController,17,_Header_,End,1736435824309,undefined,604,hatred,abstract-negative,concrete,abstract,B,NULL
1736436225,e3db4d352610093b35b24c61c561e5ac,PennController,6,0,test_conc,NULL,Selector,unnamed-Selector,Selection,abstract,1736435825415,undefined,604,hatred,abstract-negative,concrete,abstract,B,concrete;abstract
1736436225,e3db4d352610093b35b24c61c561e5ac,PennController,6,0,test_conc,NULL,PennController,17,_Trial_,End,1736435825416,undefined,604,hatred,abstract-negative,concrete,abstract,B,NULL
1736436225,e3db4d352610093b35b24c61c561e5ac,PennController,20,0,test_conc,NULL,PennController,31,_Trial_,Start,1736435825417,undefined,875,blanket,concrete-positive,concrete,abstract,B,NULL
1736436225,e3db4d352610093b35b24c61c561e5ac,PennController,20,0,test_conc,NULL,PennController,31,_Header_,Start,1736435825417,undefined,875,blanket,concrete-positive,concrete,abstract,B,NULL
1736436225,e3db4d352610093b35b24c61c561e5ac,PennController,20,0,test_conc,NULL,PennController,31,_Header_,End,1736435825667,undefined,875,blanket,concrete-positive,concrete,abstract,B,NULL
1736436225,e3db4d352610093b35b24c61c561e5ac,PennController,20,0,test_conc,NULL,Selector,unnamed-Selector,Selection,concrete,1736435827044,undefined,875,blanket,concrete-positive,concrete,abstract,B,concrete;abstract
1736436225,e3db4d352610093b35b24c61c561e5ac,PennController,20,0,test_conc,NULL,PennController,31,_Trial_,End,1736435827045,undefined,875,blanket,concrete-positive,concrete,abstract,B,NULL
1736436225,e3db4d352610093b35b24c61c561e5ac,PennController,10,0,test_conc,NULL,PennController,21,_Trial_,Start,1736435827046,undefined,925,contempt,abstract-negative,concrete,abstract,B,NULL
1736436225,e3db4d352610093b35b24c61c561e5ac,PennController,10,0,test_conc,NULL,PennController,21,_Header_,Start,1736435827046,undefined,925,contempt,abstract-negative,concrete,abstract,B,NULL
1736436225,e3db4d352610093b35b24c61c561e5ac,PennController,10,0,test_conc,NULL,PennController,21,_Header_,End,1736435827296,undefined,925,contempt,abstract-negative,concrete,abstract,B,NULL
1736436225,e3db4d352610093b35b24c61c561e5ac,PennController,10,0,test_conc,NULL,Selector,unnamed-Selector,Selection,abstract,1736435828723,undefined,925,contempt,abstract-negative,concrete,abstract,B,concrete;abstract
1736436225,e3db4d352610093b35b24c61c561e5ac,PennController,10,0,test_conc,NULL,PennController,21,_Trial_,End,1736435828724,undefined,925,contempt,abstract-negative,concrete,abstract,B,NULL
1736436225,e3db4d352610093b35b24c61c561e5ac,PennController,29,0,test_conc,NULL,PennController,40,_Trial_,Start,1736435828725,undefined,665,splendor,abstract-positive,concrete,abstract,B,NULL
1736436225,e3db4d352610093b35b24c61c561e5ac,PennController,29,0,test_conc,NULL,PennController,40,_Header_,Start,1736435828725,undefined,665,splendor,abstract-positive,concrete,abstract,B,NULL
1736436225,e3db4d352610093b35b24c61c561e5ac,PennController,29,0,test_conc,NULL,PennController,40,_Header_,End,1736435828976,undefined,665,splendor,abstract-positive,concrete,abstract,B,NULL
1736436225,e3db4d352610093b35b24c61c561e5ac,PennController,29,0,test_conc,NULL,Selector,unnamed-Selector,Selection,abstract,1736435830144,undefined,665,splendor,abstract-positive,concrete,abstract,B,concrete;abstract
1736436225,e3db4d352610093b35b24c61c561e5ac,PennController,29,0,test_conc,NULL,PennController,40,_Trial_,End,1736435830144,undefined,665,splendor,abstract-positive,concrete,abstract,B,NULL
1736436225,e3db4d352610093b35b24c61c561e5ac,PennController,38,0,test_conc,NULL,PennController,49,_Trial_,Start,1736435830145,undefined,616,casket,concrete-negative,concrete,abstract,B,NULL
1736436225,e3db4d352610093b35b24c61c561e5ac,PennController,38,0,test_conc,NULL,PennController,49,_Header_,Start,1736435830145,undefined,616,casket,concrete-negative,concrete,abstract,B,NULL
1736436225,e3db4d352610093b35b24c61c561e5ac,PennController,38,0,test_conc,NULL,PennController,49,_Header_,End,1736435830396,undefined,616,casket,concrete-negative,concrete,abstract,B,NULL
1736436225,e3db4d352610093b35b24c61c561e5ac,PennController,38,0,test_conc,NULL,Selector,unnamed-Selector,Selection,concrete,1736435831518,undefined,616,casket,concrete-negative,concrete,abstract,B,concrete;abstract
1736436225,e3db4d352610093b35b24c61c561e5ac,PennController,38,0,test_conc,NULL,PennController,49,_Trial_,End,1736435831519,undefined,616,casket,concrete-negative,concrete,abstract,B,NULL
1736436225,e3db4d352610093b35b24c61c561e5ac,PennController,24,0,test_conc,NULL,PennController,35,_Trial_,Start,1736435831520,undefined,653,wisdom,abstract-positive,concrete,abstract,B,NULL
1736436225,e3db4d352610093b35b24c61c561e5ac,PennController,24,0,test_conc,NULL,PennController,35,_Header_,Start,1736435831520,undefined,653,wisdom,abstract-positive,concrete,abstract,B,NULL
1736436225,e3db4d352610093b35b24c61c561e5ac,PennController,24,0,test_conc,NULL,PennController,35,_Header_,End,1736435831770,undefined,653,wisdom,abstract-positive,concrete,abstract,B,NULL
1736436225,e3db4d352610093b35b24c61c561e5ac,PennController,24,0,test_conc,NULL,Selector,unnamed-Selector,Selection,abstract,1736435832928,undefined,653,wisdom,abstract-positive,concrete,abstract,B,concrete;abstract
1736436225,e3db4d352610093b35b24c61c561e5ac,PennController,24,0,test_conc,NULL,PennController,35,_Trial_,End,1736435832929,undefined,653,wisdom,abstract-positive,concrete,abstract,B,NULL
1736436225,e3db4d352610093b35b24c61c561e5ac,PennController,25,0,test_conc,NULL,PennController,36,_Trial_,Start,1736435832929,undefined,627,greatness,abstract-positive,concrete,abstract,B,NULL
1736436225,e3db4d352610093b35b24c61c561e5ac,PennController,25,0,test_conc,NULL,PennController,36,_Header_,Start,1736435832929,undefined,627,greatness,abstract-positive,concrete,abstract,B,NULL
1736436225,e3db4d352610093b35b24c61c561e5ac,PennController,25,0,test_conc,NULL,PennController,36,_Header_,End,1736435833180,undefined,627,greatness,abstract-positive,concrete,abstract,B,NULL
1736436225,e3db4d352610093b35b24c61c561e5ac,PennController,25,0,test_conc,NULL,Selector,unnamed-Selector,Selection,abstract,1736435834312,undefined,627,greatness,abstract-positive,concrete,abstract,B,concrete;abstract
1736436225,e3db4d352610093b35b24c61c561e5ac,PennController,25,0,test_conc,NULL,PennController,36,_Trial_,End,1736435834313,undefined,627,greatness,abstract-positive,concrete,abstract,B,NULL
1736436225,e3db4d352610093b35b24c61c561e5ac,PennController,28,0,test_conc,NULL,PennController,39,_Trial_,Start,1736435834313,undefined,616,goodness,abstract-positive,concrete,abstract,B,NULL
1736436225,e3db4d352610093b35b24c61c561e5ac,PennController,28,0,test_conc,NULL,PennController,39,_Header_,Start,1736435834313,undefined,616,goodness,abstract-positive,concrete,abstract,B,NULL
1736436225,e3db4d352610093b35b24c61c561e5ac,PennController,28,0,test_conc,NULL,PennController,39,_Header_,End,1736435834565,undefined,616,goodness,abstract-positive,concrete,abstract,B,NULL
1736436225,e3db4d352610093b35b24c61c561e5ac,PennController,28,0,test_conc,NULL,Selector,unnamed-Selector,Selection,abstract,1736435835684,undefined,616,goodness,abstract-positive,concrete,abstract,B,concrete;abstract
1736436225,e3db4d352610093b35b24c61c561e5ac,PennController,28,0,test_conc,NULL,PennController,39,_Trial_,End,1736435835684,undefined,616,goodness,abstract-positive,concrete,abstract,B,NULL
1736436225,e3db4d352610093b35b24c61c561e5ac,PennController,37,0,test_conc,NULL,PennController,48,_Trial_,Start,1736435835685,undefined,2133,traffic,concrete-negative,concrete,abstract,B,NULL
1736436225,e3db4d352610093b35b24c61c561e5ac,PennController,37,0,test_conc,NULL,PennController,48,_Header_,Start,1736435835685,undefined,2133,traffic,concrete-negative,concrete,abstract,B,NULL
1736436225,e3db4d352610093b35b24c61c561e5ac,PennController,37,0,test_conc,NULL,PennController,48,_Header_,End,1736435835938,undefined,2133,traffic,concrete-negative,concrete,abstract,B,NULL
1736436225,e3db4d352610093b35b24c61c561e5ac,PennController,37,0,test_conc,NULL,Selector,unnamed-Selector,Selection,abstract,1736435838575,undefined,2133,traffic,concrete-negative,concrete,abstract,B,concrete;abstract
1736436225,e3db4d352610093b35b24c61c561e5ac,PennController,37,0,test_conc,NULL,PennController,48,_Trial_,End,1736435838575,undefined,2133,traffic,concrete-negative,concrete,abstract,B,NULL
1736436225,e3db4d352610093b35b24c61c561e5ac,PennController,11,0,test_conc,NULL,PennController,22,_Trial_,Start,1736435838576,undefined,678,revenge,abstract-negative,concrete,abstract,B,NULL
1736436225,e3db4d352610093b35b24c61c561e5ac,PennController,11,0,test_conc,NULL,PennController,22,_Header_,Start,1736435838576,undefined,678,revenge,abstract-negative,concrete,abstract,B,NULL
1736436225,e3db4d352610093b35b24c61c561e5ac,PennController,11,0,test_conc,NULL,PennController,22,_Header_,End,1736435838826,undefined,678,revenge,abstract-negative,concrete,abstract,B,NULL
1736436225,e3db4d352610093b35b24c61c561e5ac,PennController,11,0,test_conc,NULL,Selector,unnamed-Selector,Selection,abstract,1736435840009,undefined,678,revenge,abstract-negative,concrete,abstract,B,concrete;abstract
1736436225,e3db4d352610093b35b24c61c561e5ac,PennController,11,0,test_conc,NULL,PennController,22,_Trial_,End,1736435840010,undefined,678,revenge,abstract-negative,concrete,abstract,B,NULL
1736436225,e3db4d352610093b35b24c61c561e5ac,PennController,40,0,test_conc,NULL,PennController,51,_Trial_,Start,1736435840010,undefined,708,bedpan,concrete-negative,concrete,abstract,B,NULL
1736436225,e3db4d352610093b35b24c61c561e5ac,PennController,40,0,test_conc,NULL,PennController,51,_Header_,Start,1736435840010,undefined,708,bedpan,concrete-negative,concrete,abstract,B,NULL
1736436225,e3db4d352610093b35b24c61c561e5ac,PennController,40,0,test_conc,NULL,PennController,51,_Header_,End,1736435840261,undefined,708,bedpan,concrete-negative,concrete,abstract,B,NULL
1736436225,e3db4d352610093b35b24c61c561e5ac,PennController,40,0,test_conc,NULL,Selector,unnamed-Selector,Selection,concrete,1736435841474,undefined,708,bedpan,concrete-negative,concrete,abstract,B,concrete;abstract
1736436225,e3db4d352610093b35b24c61c561e5ac,PennController,40,0,test_conc,NULL,PennController,51,_Trial_,End,1736435841474,undefined,708,bedpan,concrete-negative,concrete,abstract,B,NULL
1736436225,e3db4d352610093b35b24c61c561e5ac,PennController,16,0,test_conc,NULL,PennController,27,_Trial_,Start,1736435841475,undefined,618,doughnut,concrete-positive,concrete,abstract,B,NULL
1736436225,e3db4d352610093b35b24c61c561e5ac,PennController,16,0,test_conc,NULL,PennController,27,_Header_,Start,1736435841475,undefined,618,doughnut,concrete-positive,concrete,abstract,B,NULL
1736436225,e3db4d352610093b35b24c61c561e5ac,PennController,16,0,test_conc,NULL,PennController,27,_Header_,End,1736435841727,undefined,618,doughnut,concrete-positive,concrete,abstract,B,NULL
1736436225,e3db4d352610093b35b24c61c561e5ac,PennController,16,0,test_conc,NULL,Selector,unnamed-Selector,Selection,concrete,1736435842848,undefined,618,doughnut,concrete-positive,concrete,abstract,B,concrete;abstract
1736436225,e3db4d352610093b35b24c61c561e5ac,PennController,16,0,test_conc,NULL,PennController,27,_Trial_,End,1736435842848,undefined,618,doughnut,concrete-positive,concrete,abstract,B,NULL
1736436225,e3db4d352610093b35b24c61c561e5ac,PennController,14,0,test_conc,NULL,PennController,25,_Trial_,Start,1736435842849,undefined,668,pizza,concrete-positive,concrete,abstract,B,NULL
1736436225,e3db4d352610093b35b24c61c561e5ac,PennController,14,0,test_conc,NULL,PennController,25,_Header_,Start,1736435842849,undefined,668,pizza,concrete-positive,concrete,abstract,B,NULL
1736436225,e3db4d352610093b35b24c61c561e5ac,PennController,14,0,test_conc,NULL,PennController,25,_Header_,End,1736435843100,undefined,668,pizza,concrete-positive,concrete,abstract,B,NULL
1736436225,e3db4d352610093b35b24c61c561e5ac,PennController,14,0,test_conc,NULL,Selector,unnamed-Selector,Selection,concrete,1736435844273,undefined,668,pizza,concrete-positive,concrete,abstract,B,concrete;abstract
1736436225,e3db4d352610093b35b24c61c561e5ac,PennController,14,0,test_conc,NULL,PennController,25,_Trial_,End,1736435844274,undefined,668,pizza,concrete-positive,concrete,abstract,B,NULL
1736436225,e3db4d352610093b35b24c61c561e5ac,PennController,4,0,test_conc,NULL,PennController,15,_Trial_,Start,1736435844274,undefined,596,fascism,abstract-negative,concrete,abstract,B,NULL
1736436225,e3db4d352610093b35b24c61c561e5ac,PennController,4,0,test_conc,NULL,PennController,15,_Header_,Start,1736435844274,undefined,596,fascism,abstract-negative,concrete,abstract,B,NULL
1736436225,e3db4d352610093b35b24c61c561e5ac,PennController,4,0,test_conc,NULL,PennController,15,_Header_,End,1736435844525,undefined,596,fascism,abstract-negative,concrete,abstract,B,NULL
1736436225,e3db4d352610093b35b24c61c561e5ac,PennController,4,0,test_conc,NULL,Selector,unnamed-Selector,Selection,abstract,1736435845624,undefined,596,fascism,abstract-negative,concrete,abstract,B,concrete;abstract
1736436225,e3db4d352610093b35b24c61c561e5ac,PennController,4,0,test_conc,NULL,PennController,15,_Trial_,End,1736435845624,undefined,596,fascism,abstract-negative,concrete,abstract,B,NULL
1736436225,e3db4d352610093b35b24c61c561e5ac,PennController,33,0,test_conc,NULL,PennController,44,_Trial_,Start,1736435845625,undefined,602,knowledge,abstract-positive,concrete,abstract,B,NULL
1736436225,e3db4d352610093b35b24c61c561e5ac,PennController,33,0,test_conc,NULL,PennController,44,_Header_,Start,1736435845625,undefined,602,knowledge,abstract-positive,concrete,abstract,B,NULL
1736436225,e3db4d352610093b35b24c61c561e5ac,PennController,33,0,test_conc,NULL,PennController,44,_Header_,End,1736435845878,undefined,602,knowledge,abstract-positive,concrete,abstract,B,NULL
1736436225,e3db4d352610093b35b24c61c561e5ac,PennController,33,0,test_conc,NULL,Selector,unnamed-Selector,Selection,abstract,1736435846983,undefined,602,knowledge,abstract-positive,concrete,abstract,B,concrete;abstract
1736436225,e3db4d352610093b35b24c61c561e5ac,PennController,33,0,test_conc,NULL,PennController,44,_Trial_,End,1736435846983,undefined,602,knowledge,abstract-positive,concrete,abstract,B,NULL
1736436225,e3db4d352610093b35b24c61c561e5ac,PennController,5,0,test_conc,NULL,PennController,16,_Trial_,Start,1736435846984,undefined,615,betrayal,abstract-negative,concrete,abstract,B,NULL
1736436225,e3db4d352610093b35b24c61c561e5ac,PennController,5,0,test_conc,NULL,PennController,16,_Header_,Start,1736435846984,undefined,615,betrayal,abstract-negative,concrete,abstract,B,NULL
1736436225,e3db4d352610093b35b24c61c561e5ac,PennController,5,0,test_conc,NULL,PennController,16,_Header_,End,1736435847234,undefined,615,betrayal,abstract-negative,concrete,abstract,B,NULL
1736436225,e3db4d352610093b35b24c61c561e5ac,PennController,5,0,test_conc,NULL,Selector,unnamed-Selector,Selection,abstract,1736435848354,undefined,615,betrayal,abstract-negative,concrete,abstract,B,concrete;abstract
1736436225,e3db4d352610093b35b24c61c561e5ac,PennController,5,0,test_conc,NULL,PennController,16,_Trial_,End,1736435848355,undefined,615,betrayal,abstract-negative,concrete,abstract,B,NULL
1736436225,e3db4d352610093b35b24c61c561e5ac,PennController,19,0,test_conc,NULL,PennController,30,_Trial_,Start,1736435848356,undefined,614,dollar,concrete-positive,concrete,abstract,B,NULL
1736436225,e3db4d352610093b35b24c61c561e5ac,PennController,19,0,test_conc,NULL,PennController,30,_Header_,Start,1736435848356,undefined,614,dollar,concrete-positive,concrete,abstract,B,NULL
1736436225,e3db4d352610093b35b24c61c561e5ac,PennController,19,0,test_conc,NULL,PennController,30,_Header_,End,1736435848610,undefined,614,dollar,concrete-positive,concrete,abstract,B,NULL
1736436225,e3db4d352610093b35b24c61c561e5ac,PennController,19,0,test_conc,NULL,Selector,unnamed-Selector,Selection,concrete,1736435849725,undefined,614,dollar,concrete-positive,concrete,abstract,B,concrete;abstract
1736436225,e3db4d352610093b35b24c61c561e5ac,PennController,19,0,test_conc,NULL,PennController,30,_Trial_,End,1736435849725,undefined,614,dollar,concrete-positive,concrete,abstract,B,NULL
1736436225,e3db4d352610093b35b24c61c561e5ac,PennController,31,0,test_conc,NULL,PennController,42,_Trial_,Start,1736435849726,undefined,663,wellness,abstract-positive,concrete,abstract,B,NULL
1736436225,e3db4d352610093b35b24c61c561e5ac,PennController,31,0,test_conc,NULL,PennController,42,_Header_,Start,1736435849726,undefined,663,wellness,abstract-positive,concrete,abstract,B,NULL
1736436225,e3db4d352610093b35b24c61c561e5ac,PennController,31,0,test_conc,NULL,PennController,42,_Header_,End,1736435849976,undefined,663,wellness,abstract-positive,concrete,abstract,B,NULL
1736436225,e3db4d352610093b35b24c61c561e5ac,PennController,31,0,test_conc,NULL,Selector,unnamed-Selector,Selection,abstract,1736435851143,undefined,663,wellness,abstract-positive,concrete,abstract,B,concrete;abstract
1736436225,e3db4d352610093b35b24c61c561e5ac,PennController,31,0,test_conc,NULL,PennController,42,_Trial_,End,1736435851144,undefined,663,wellness,abstract-positive,concrete,abstract,B,NULL
1736436225,e3db4d352610093b35b24c61c561e5ac,PennController,23,0,test_conc,NULL,PennController,34,_Trial_,Start,1736435851145,undefined,575,sandwich,concrete-positive,concrete,abstract,B,NULL
1736436225,e3db4d352610093b35b24c61c561e5ac,PennController,23,0,test_conc,NULL,PennController,34,_Header_,Start,1736435851145,undefined,575,sandwich,concrete-positive,concrete,abstract,B,NULL
1736436225,e3db4d352610093b35b24c61c561e5ac,PennController,23,0,test_conc,NULL,PennController,34,_Header_,End,1736435851398,undefined,575,sandwich,concrete-positive,concrete,abstract,B,NULL
1736436225,e3db4d352610093b35b24c61c561e5ac,PennController,23,0,test_conc,NULL,Selector,unnamed-Selector,Selection,concrete,1736435852477,undefined,575,sandwich,concrete-positive,concrete,abstract,B,concrete;abstract
1736436225,e3db4d352610093b35b24c61c561e5ac,PennController,23,0,test_conc,NULL,PennController,34,_Trial_,End,1736435852478,undefined,575,sandwich,concrete-positive,concrete,abstract,B,NULL
1736436225,e3db4d352610093b35b24c61c561e5ac,PennController,39,0,test_conc,NULL,PennController,50,_Trial_,Start,1736435852479,undefined,611,cockroach,concrete-negative,concrete,abstract,B,NULL
1736436225,e3db4d352610093b35b24c61c561e5ac,PennController,39,0,test_conc,NULL,PennController,50,_Header_,Start,1736435852479,undefined,611,cockroach,concrete-negative,concrete,abstract,B,NULL
1736436225,e3db4d352610093b35b24c61c561e5ac,PennController,39,0,test_conc,NULL,PennController,50,_Header_,End,1736435852730,undefined,611,cockroach,concrete-negative,concrete,abstract,B,NULL
1736436225,e3db4d352610093b35b24c61c561e5ac,PennController,39,0,test_conc,NULL,Selector,unnamed-Selector,Selection,concrete,1736435853846,undefined,611,cockroach,concrete-negative,concrete,abstract,B,concrete;abstract
1736436225,e3db4d352610093b35b24c61c561e5ac,PennController,39,0,test_conc,NULL,PennController,50,_Trial_,End,1736435853846,undefined,611,cockroach,concrete-negative,concrete,abstract,B,NULL
1736436225,e3db4d352610093b35b24c61c561e5ac,PennController,9,0,test_conc,NULL,PennController,20,_Trial_,Start,1736435853847,undefined,803,madness,abstract-negative,concrete,abstract,B,NULL
1736436225,e3db4d352610093b35b24c61c561e5ac,PennController,9,0,test_conc,NULL,PennController,20,_Header_,Start,1736435853847,undefined,803,madness,abstract-negative,concrete,abstract,B,NULL
1736436225,e3db4d352610093b35b24c61c561e5ac,PennController,9,0,test_conc,NULL,PennController,20,_Header_,End,1736435854097,undefined,803,madness,abstract-negative,concrete,abstract,B,NULL
1736436225,e3db4d352610093b35b24c61c561e5ac,PennController,9,0,test_conc,NULL,Selector,unnamed-Selector,Selection,abstract,1736435855403,undefined,803,madness,abstract-negative,concrete,abstract,B,concrete;abstract
1736436225,e3db4d352610093b35b24c61c561e5ac,PennController,9,0,test_conc,NULL,PennController,20,_Trial_,End,1736435855403,undefined,803,madness,abstract-negative,concrete,abstract,B,NULL
1736436225,e3db4d352610093b35b24c61c561e5ac,PennController,22,0,test_conc,NULL,PennController,33,_Trial_,Start,1736435855404,undefined,604,pancake,concrete-positive,concrete,abstract,B,NULL
1736436225,e3db4d352610093b35b24c61c561e5ac,PennController,22,0,test_conc,NULL,PennController,33,_Header_,Start,1736435855404,undefined,604,pancake,concrete-positive,concrete,abstract,B,NULL
1736436225,e3db4d352610093b35b24c61c561e5ac,PennController,22,0,test_conc,NULL,PennController,33,_Header_,End,1736435855655,undefined,604,pancake,concrete-positive,concrete,abstract,B,NULL
1736436225,e3db4d352610093b35b24c61c561e5ac,PennController,22,0,test_conc,NULL,Selector,unnamed-Selector,Selection,concrete,1736435856763,undefined,604,pancake,concrete-positive,concrete,abstract,B,concrete;abstract
1736436225,e3db4d352610093b35b24c61c561e5ac,PennController,22,0,test_conc,NULL,PennController,33,_Trial_,End,1736435856764,undefined,604,pancake,concrete-positive,concrete,abstract,B,NULL
1736436225,e3db4d352610093b35b24c61c561e5ac,PennController,36,0,test_conc,NULL,PennController,47,_Trial_,Start,1736435856764,undefined,2147,rapist,concrete-negative,concrete,abstract,B,NULL
1736436225,e3db4d352610093b35b24c61c561e5ac,PennController,36,0,test_conc,NULL,PennController,47,_Header_,Start,1736435856764,undefined,2147,rapist,concrete-negative,concrete,abstract,B,NULL
1736436225,e3db4d352610093b35b24c61c561e5ac,PennController,36,0,test_conc,NULL,PennController,47,_Header_,End,1736435857016,undefined,2147,rapist,concrete-negative,concrete,abstract,B,NULL
1736436225,e3db4d352610093b35b24c61c561e5ac,PennController,36,0,test_conc,NULL,Selector,unnamed-Selector,Selection,concrete,1736435859666,undefined,2147,rapist,concrete-negative,concrete,abstract,B,concrete;abstract
1736436225,e3db4d352610093b35b24c61c561e5ac,PennController,36,0,test_conc,NULL,PennController,47,_Trial_,End,1736435859667,undefined,2147,rapist,concrete-negative,concrete,abstract,B,NULL
1736436225,e3db4d352610093b35b24c61c561e5ac,PennController,17,0,test_conc,NULL,PennController,28,_Trial_,Start,1736435859668,undefined,1899,duckling,concrete-positive,concrete,abstract,B,NULL
1736436225,e3db4d352610093b35b24c61c561e5ac,PennController,17,0,test_conc,NULL,PennController,28,_Header_,Start,1736435859668,undefined,1899,duckling,concrete-positive,concrete,abstract,B,NULL
1736436225,e3db4d352610093b35b24c61c561e5ac,PennController,17,0,test_conc,NULL,PennController,28,_Header_,End,1736435859919,undefined,1899,duckling,concrete-positive,concrete,abstract,B,NULL
1736436225,e3db4d352610093b35b24c61c561e5ac,PennController,17,0,test_conc,NULL,Selector,unnamed-Selector,Selection,concrete,1736435862323,undefined,1899,duckling,concrete-positive,concrete,abstract,B,concrete;abstract
1736436225,e3db4d352610093b35b24c61c561e5ac,PennController,17,0,test_conc,NULL,PennController,28,_Trial_,End,1736435862324,undefined,1899,duckling,concrete-positive,concrete,abstract,B,NULL
1736436225,e3db4d352610093b35b24c61c561e5ac,PennController,41,0,test_conc,NULL,PennController,52,_Trial_,Start,1736435862325,undefined,1968,prison,concrete-negative,concrete,abstract,B,NULL
1736436225,e3db4d352610093b35b24c61c561e5ac,PennController,41,0,test_conc,NULL,PennController,52,_Header_,Start,1736435862325,undefined,1968,prison,concrete-negative,concrete,abstract,B,NULL
1736436225,e3db4d352610093b35b24c61c561e5ac,PennController,41,0,test_conc,NULL,PennController,52,_Header_,End,1736435862577,undefined,1968,prison,concrete-negative,concrete,abstract,B,NULL
1736436225,e3db4d352610093b35b24c61c561e5ac,PennController,41,0,test_conc,NULL,Selector,unnamed-Selector,Selection,concrete,1736435865048,undefined,1968,prison,concrete-negative,concrete,abstract,B,concrete;abstract
1736436225,e3db4d352610093b35b24c61c561e5ac,PennController,41,0,test_conc,NULL,PennController,52,_Trial_,End,1736435865049,undefined,1968,prison,concrete-negative,concrete,abstract,B,NULL
1736436225,e3db4d352610093b35b24c61c561e5ac,PennController,21,0,test_conc,NULL,PennController,32,_Trial_,Start,1736435865050,undefined,563,chipmunk,concrete-positive,concrete,abstract,B,NULL
1736436225,e3db4d352610093b35b24c61c561e5ac,PennController,21,0,test_conc,NULL,PennController,32,_Header_,Start,1736435865050,undefined,563,chipmunk,concrete-positive,concrete,abstract,B,NULL
1736436225,e3db4d352610093b35b24c61c561e5ac,PennController,21,0,test_conc,NULL,PennController,32,_Header_,End,1736435865300,undefined,563,chipmunk,concrete-positive,concrete,abstract,B,NULL
1736436225,e3db4d352610093b35b24c61c561e5ac,PennController,21,0,test_conc,NULL,Selector,unnamed-Selector,Selection,concrete,1736435866366,undefined,563,chipmunk,concrete-positive,concrete,abstract,B,concrete;abstract
1736436225,e3db4d352610093b35b24c61c561e5ac,PennController,21,0,test_conc,NULL,PennController,32,_Trial_,End,1736435866367,undefined,563,chipmunk,concrete-positive,concrete,abstract,B,NULL
1736436225,e3db4d352610093b35b24c61c561e5ac,PennController,30,0,test_conc,NULL,PennController,41,_Trial_,Start,1736435866368,undefined,628,fairness,abstract-positive,concrete,abstract,B,NULL
1736436225,e3db4d352610093b35b24c61c561e5ac,PennController,30,0,test_conc,NULL,PennController,41,_Header_,Start,1736435866368,undefined,628,fairness,abstract-positive,concrete,abstract,B,NULL
