#
# Results on Thu, 21 Nov 2024 15:43:19 GMT
# USER AGENT: Mozilla/5.0 (Windows NT 10.0; Win64; x64) AppleWebKit/537.36 (KHTML, like Gecko) Chrome/131.0.0.0 Safari/537.36
# Design number was non-random = 0
#
# Columns below this comment are as follows:
# 1. Results reception time.
# 2. MD5 hash of participant's IP address.
# 3. Controller name.
# 4. Order number of item.
# 5. Inner element number.
# 6. Label.
# 7. Latin Square Group.
# 8. PennElementType.
# 9. PennElementName.
# 10. Parameter.
# 11. Value.
# 12. EventTime.
# 13. Comments.
1732203799,745e6308179fde2f0c5b3a79a0a718ab,PennController,1,0,welcome,NULL,PennController,0,_Trial_,Start,1732203040970,NULL
1732203799,745e6308179fde2f0c5b3a79a0a718ab,PennController,1,0,welcome,NULL,PennController,0,_Header_,Start,1732203040970,NULL
1732203799,745e6308179fde2f0c5b3a79a0a718ab,PennController,1,0,welcome,NULL,PennController,0,_Header_,End,1732203041224,NULL
1732203799,745e6308179fde2f0c5b3a79a0a718ab,PennController,1,0,welcome,NULL,PennController,0,_Trial_,End,1732203048974,NULL
# 13. ID.
# 14. Comments.
1732203799,745e6308179fde2f0c5b3a79a0a718ab,PennController,124,0,consent,NULL,PennController,2,_Trial_,Start,1732203048976,5edb6d2469290d00092100f8,NULL
1732203799,745e6308179fde2f0c5b3a79a0a718ab,PennController,124,0,consent,NULL,PennController,2,_Header_,Start,1732203048976,5edb6d2469290d00092100f8,NULL
1732203799,745e6308179fde2f0c5b3a79a0a718ab,PennController,124,0,consent,NULL,PennController,2,_Header_,End,1732203049228,5edb6d2469290d00092100f8,NULL
1732203799,745e6308179fde2f0c5b3a79a0a718ab,PennController,124,0,consent,NULL,TextInput,ID,Final,5edb6d2469290d00092100f8,1732203076703,5edb6d2469290d00092100f8,NULL
1732203799,745e6308179fde2f0c5b3a79a0a718ab,PennController,124,0,consent,NULL,PennController,2,_Trial_,End,1732203076703,5edb6d2469290d00092100f8,NULL
# 13. Comments.
1732203799,745e6308179fde2f0c5b3a79a0a718ab,PennController,126,0,instructions1_conc,NULL,PennController,4,_Trial_,Start,1732203076704,NULL
1732203799,745e6308179fde2f0c5b3a79a0a718ab,PennController,126,0,instructions1_conc,NULL,PennController,4,_Header_,Start,1732203076704,NULL
1732203799,745e6308179fde2f0c5b3a79a0a718ab,PennController,126,0,instructions1_conc,NULL,PennController,4,_Header_,End,1732203076954,NULL
1732203799,745e6308179fde2f0c5b3a79a0a718ab,PennController,126,0,instructions1_conc,NULL,PennController,4,_Trial_,End,1732203084693,NULL
1732203799,745e6308179fde2f0c5b3a79a0a718ab,PennController,127,0,instructions2_conc,NULL,PennController,5,_Trial_,Start,1732203084694,NULL
1732203799,745e6308179fde2f0c5b3a79a0a718ab,PennController,127,0,instructions2_conc,NULL,PennController,5,_Header_,Start,1732203084694,NULL
1732203799,745e6308179fde2f0c5b3a79a0a718ab,PennController,127,0,instructions2_conc,NULL,PennController,5,_Header_,End,1732203084945,NULL
1732203799,745e6308179fde2f0c5b3a79a0a718ab,PennController,127,0,instructions2_conc,NULL,PennController,5,_Trial_,End,1732203089997,NULL
1732203799,745e6308179fde2f0c5b3a79a0a718ab,PennController,134,0,instructions3_hands,NULL,PennController,12,_Trial_,Start,1732203089998,NULL
1732203799,745e6308179fde2f0c5b3a79a0a718ab,PennController,134,0,instructions3_hands,NULL,PennController,12,_Header_,Start,1732203089998,NULL
1732203799,745e6308179fde2f0c5b3a79a0a718ab,PennController,134,0,instructions3_hands,NULL,PennController,12,_Header_,End,1732203090248,NULL
1732203799,745e6308179fde2f0c5b3a79a0a718ab,PennController,134,0,instructions3_hands,NULL,PennController,12,_Trial_,End,1732203096462,NULL
1732203799,745e6308179fde2f0c5b3a79a0a718ab,PennController,129,0,practice_intro_conc,NULL,PennController,7,_Trial_,Start,1732203096463,NULL
1732203799,745e6308179fde2f0c5b3a79a0a718ab,PennController,129,0,practice_intro_conc,NULL,PennController,7,_Header_,Start,1732203096463,NULL
1732203799,745e6308179fde2f0c5b3a79a0a718ab,PennController,129,0,practice_intro_conc,NULL,PennController,7,_Header_,End,1732203096714,NULL
1732203799,745e6308179fde2f0c5b3a79a0a718ab,PennController,129,0,practice_intro_conc,NULL,PennController,7,_Trial_,End,1732203098157,NULL
# 13. ID.
# 14. ReactionTime.
# 15. Word.
# 16. selectedKey.
# 17. selectedValue.
# 18. Key_value_F.
# 19. Key_value_J.
# 20. Group.
# 21. Comments.
1732203799,745e6308179fde2f0c5b3a79a0a718ab,PennController,85,0,calibrator_conc_feedback,NULL,PennController,96,_Trial_,Start,1732203098158,undefined,1536,grasshopper,undefined,concrete,abstract,concrete,A,NULL
1732203799,745e6308179fde2f0c5b3a79a0a718ab,PennController,85,0,calibrator_conc_feedback,NULL,PennController,96,_Header_,Start,1732203098158,undefined,1536,grasshopper,undefined,concrete,abstract,concrete,A,NULL
1732203799,745e6308179fde2f0c5b3a79a0a718ab,PennController,85,0,calibrator_conc_feedback,NULL,PennController,96,_Header_,End,1732203098409,undefined,1536,grasshopper,undefined,concrete,abstract,concrete,A,NULL
1732203799,745e6308179fde2f0c5b3a79a0a718ab,PennController,85,0,calibrator_conc_feedback,NULL,Selector,Selection,Selection,concrete,1732203100445,undefined,1536,grasshopper,undefined,concrete,abstract,concrete,A,abstract;concrete
1732203799,745e6308179fde2f0c5b3a79a0a718ab,PennController,85,0,calibrator_conc_feedback,NULL,PennController,96,_Trial_,End,1732203102449,undefined,1536,grasshopper,undefined,concrete,abstract,concrete,A,NULL
1732203799,745e6308179fde2f0c5b3a79a0a718ab,PennController,90,0,calibrator_conc_feedback,NULL,PennController,101,_Trial_,Start,1732203102450,undefined,1000,sugar,undefined,concrete,abstract,concrete,A,NULL
1732203799,745e6308179fde2f0c5b3a79a0a718ab,PennController,90,0,calibrator_conc_feedback,NULL,PennController,101,_Header_,Start,1732203102450,undefined,1000,sugar,undefined,concrete,abstract,concrete,A,NULL
1732203799,745e6308179fde2f0c5b3a79a0a718ab,PennController,90,0,calibrator_conc_feedback,NULL,PennController,101,_Header_,End,1732203102701,undefined,1000,sugar,undefined,concrete,abstract,concrete,A,NULL
1732203799,745e6308179fde2f0c5b3a79a0a718ab,PennController,90,0,calibrator_conc_feedback,NULL,Selector,Selection,Selection,concrete,1732203104204,undefined,1000,sugar,undefined,concrete,abstract,concrete,A,abstract;concrete
1732203799,745e6308179fde2f0c5b3a79a0a718ab,PennController,90,0,calibrator_conc_feedback,NULL,PennController,101,_Trial_,End,1732203106207,undefined,1000,sugar,undefined,concrete,abstract,concrete,A,NULL
1732203799,745e6308179fde2f0c5b3a79a0a718ab,PennController,91,0,calibrator_conc_feedback,NULL,PennController,102,_Trial_,Start,1732203106208,undefined,914,theory,undefined,concrete,abstract,concrete,A,NULL
1732203799,745e6308179fde2f0c5b3a79a0a718ab,PennController,91,0,calibrator_conc_feedback,NULL,PennController,102,_Header_,Start,1732203106208,undefined,914,theory,undefined,concrete,abstract,concrete,A,NULL
1732203799,745e6308179fde2f0c5b3a79a0a718ab,PennController,91,0,calibrator_conc_feedback,NULL,PennController,102,_Header_,End,1732203106460,undefined,914,theory,undefined,concrete,abstract,concrete,A,NULL
1732203799,745e6308179fde2f0c5b3a79a0a718ab,PennController,91,0,calibrator_conc_feedback,NULL,Selector,Selection,Selection,abstract,1732203107876,undefined,914,theory,undefined,concrete,abstract,concrete,A,abstract;concrete
1732203799,745e6308179fde2f0c5b3a79a0a718ab,PennController,91,0,calibrator_conc_feedback,NULL,PennController,102,_Trial_,End,1732203109882,undefined,914,theory,undefined,concrete,abstract,concrete,A,NULL
1732203799,745e6308179fde2f0c5b3a79a0a718ab,PennController,84,0,calibrator_conc_feedback,NULL,PennController,95,_Trial_,Start,1732203109883,undefined,1872,gas,undefined,concrete,abstract,concrete,A,NULL
1732203799,745e6308179fde2f0c5b3a79a0a718ab,PennController,84,0,calibrator_conc_feedback,NULL,PennController,95,_Header_,Start,1732203109883,undefined,1872,gas,undefined,concrete,abstract,concrete,A,NULL
1732203799,745e6308179fde2f0c5b3a79a0a718ab,PennController,84,0,calibrator_conc_feedback,NULL,PennController,95,_Header_,End,1732203110133,undefined,1872,gas,undefined,concrete,abstract,concrete,A,NULL
1732203799,745e6308179fde2f0c5b3a79a0a718ab,PennController,84,0,calibrator_conc_feedback,NULL,Selector,Selection,Selection,concrete,1732203112508,undefined,1872,gas,undefined,concrete,abstract,concrete,A,abstract;concrete
1732203799,745e6308179fde2f0c5b3a79a0a718ab,PennController,84,0,calibrator_conc_feedback,NULL,PennController,95,_Trial_,End,1732203114513,undefined,1872,gas,undefined,concrete,abstract,concrete,A,NULL
1732203799,745e6308179fde2f0c5b3a79a0a718ab,PennController,93,0,calibrator_conc_feedback,NULL,PennController,104,_Trial_,Start,1732203114514,undefined,936,insecure,undefined,concrete,abstract,concrete,A,NULL
1732203799,745e6308179fde2f0c5b3a79a0a718ab,PennController,93,0,calibrator_conc_feedback,NULL,PennController,104,_Header_,Start,1732203114514,undefined,936,insecure,undefined,concrete,abstract,concrete,A,NULL
1732203799,745e6308179fde2f0c5b3a79a0a718ab,PennController,93,0,calibrator_conc_feedback,NULL,PennController,104,_Header_,End,1732203114767,undefined,936,insecure,undefined,concrete,abstract,concrete,A,NULL
1732203799,745e6308179fde2f0c5b3a79a0a718ab,PennController,93,0,calibrator_conc_feedback,NULL,Selector,Selection,Selection,abstract,1732203116204,undefined,936,insecure,undefined,concrete,abstract,concrete,A,abstract;concrete
1732203799,745e6308179fde2f0c5b3a79a0a718ab,PennController,93,0,calibrator_conc_feedback,NULL,PennController,104,_Trial_,End,1732203118206,undefined,936,insecure,undefined,concrete,abstract,concrete,A,NULL
1732203799,745e6308179fde2f0c5b3a79a0a718ab,PennController,88,0,calibrator_conc_feedback,NULL,PennController,99,_Trial_,Start,1732203118207,undefined,1331,polite,undefined,concrete,abstract,concrete,A,NULL
1732203799,745e6308179fde2f0c5b3a79a0a718ab,PennController,88,0,calibrator_conc_feedback,NULL,PennController,99,_Header_,Start,1732203118207,undefined,1331,polite,undefined,concrete,abstract,concrete,A,NULL
1732203799,745e6308179fde2f0c5b3a79a0a718ab,PennController,88,0,calibrator_conc_feedback,NULL,PennController,99,_Header_,End,1732203118457,undefined,1331,polite,undefined,concrete,abstract,concrete,A,NULL
1732203799,745e6308179fde2f0c5b3a79a0a718ab,PennController,88,0,calibrator_conc_feedback,NULL,Selector,Selection,Selection,abstract,1732203120292,undefined,1331,polite,undefined,concrete,abstract,concrete,A,abstract;concrete
1732203799,745e6308179fde2f0c5b3a79a0a718ab,PennController,88,0,calibrator_conc_feedback,NULL,PennController,99,_Trial_,End,1732203122293,undefined,1331,polite,undefined,concrete,abstract,concrete,A,NULL
1732203799,745e6308179fde2f0c5b3a79a0a718ab,PennController,86,0,calibrator_conc_feedback,NULL,PennController,97,_Trial_,Start,1732203122294,undefined,1278,kick,undefined,concrete,abstract,concrete,A,NULL
1732203799,745e6308179fde2f0c5b3a79a0a718ab,PennController,86,0,calibrator_conc_feedback,NULL,PennController,97,_Header_,Start,1732203122294,undefined,1278,kick,undefined,concrete,abstract,concrete,A,NULL
1732203799,745e6308179fde2f0c5b3a79a0a718ab,PennController,86,0,calibrator_conc_feedback,NULL,PennController,97,_Header_,End,1732203122546,undefined,1278,kick,undefined,concrete,abstract,concrete,A,NULL
1732203799,745e6308179fde2f0c5b3a79a0a718ab,PennController,86,0,calibrator_conc_feedback,NULL,Selector,Selection,Selection,concrete,1732203124324,undefined,1278,kick,undefined,concrete,abstract,concrete,A,abstract;concrete
1732203799,745e6308179fde2f0c5b3a79a0a718ab,PennController,86,0,calibrator_conc_feedback,NULL,PennController,97,_Trial_,End,1732203126329,undefined,1278,kick,undefined,concrete,abstract,concrete,A,NULL
1732203799,745e6308179fde2f0c5b3a79a0a718ab,PennController,87,0,calibrator_conc_feedback,NULL,PennController,98,_Trial_,Start,1732203126329,undefined,884,marriage,undefined,concrete,abstract,concrete,A,NULL
1732203799,745e6308179fde2f0c5b3a79a0a718ab,PennController,87,0,calibrator_conc_feedback,NULL,PennController,98,_Header_,Start,1732203126329,undefined,884,marriage,undefined,concrete,abstract,concrete,A,NULL
1732203799,745e6308179fde2f0c5b3a79a0a718ab,PennController,87,0,calibrator_conc_feedback,NULL,PennController,98,_Header_,End,1732203126579,undefined,884,marriage,undefined,concrete,abstract,concrete,A,NULL
1732203799,745e6308179fde2f0c5b3a79a0a718ab,PennController,87,0,calibrator_conc_feedback,NULL,Selector,Selection,Selection,concrete,1732203127964,undefined,884,marriage,undefined,concrete,abstract,concrete,A,abstract;concrete
1732203799,745e6308179fde2f0c5b3a79a0a718ab,PennController,87,0,calibrator_conc_feedback,NULL,PennController,98,_Trial_,End,1732203129966,undefined,884,marriage,undefined,concrete,abstract,concrete,A,NULL
1732203799,745e6308179fde2f0c5b3a79a0a718ab,PennController,89,0,calibrator_conc_feedback,NULL,PennController,100,_Trial_,Start,1732203129967,undefined,978,shirt,undefined,concrete,abstract,concrete,A,NULL
1732203799,745e6308179fde2f0c5b3a79a0a718ab,PennController,89,0,calibrator_conc_feedback,NULL,PennController,100,_Header_,Start,1732203129967,undefined,978,shirt,undefined,concrete,abstract,concrete,A,NULL
1732203799,745e6308179fde2f0c5b3a79a0a718ab,PennController,89,0,calibrator_conc_feedback,NULL,PennController,100,_Header_,End,1732203130219,undefined,978,shirt,undefined,concrete,abstract,concrete,A,NULL
1732203799,745e6308179fde2f0c5b3a79a0a718ab,PennController,89,0,calibrator_conc_feedback,NULL,Selector,Selection,Selection,concrete,1732203131700,undefined,978,shirt,undefined,concrete,abstract,concrete,A,abstract;concrete
1732203799,745e6308179fde2f0c5b3a79a0a718ab,PennController,89,0,calibrator_conc_feedback,NULL,PennController,100,_Trial_,End,1732203133705,undefined,978,shirt,undefined,concrete,abstract,concrete,A,NULL
1732203799,745e6308179fde2f0c5b3a79a0a718ab,PennController,92,0,calibrator_conc_feedback,NULL,PennController,103,_Trial_,Start,1732203133706,undefined,1465,whistle,undefined,concrete,abstract,concrete,A,NULL
1732203799,745e6308179fde2f0c5b3a79a0a718ab,PennController,92,0,calibrator_conc_feedback,NULL,PennController,103,_Header_,Start,1732203133706,undefined,1465,whistle,undefined,concrete,abstract,concrete,A,NULL
1732203799,745e6308179fde2f0c5b3a79a0a718ab,PennController,92,0,calibrator_conc_feedback,NULL,PennController,103,_Header_,End,1732203133958,undefined,1465,whistle,undefined,concrete,abstract,concrete,A,NULL
1732203799,745e6308179fde2f0c5b3a79a0a718ab,PennController,92,0,calibrator_conc_feedback,NULL,Selector,Selection,Selection,concrete,1732203135925,undefined,1465,whistle,undefined,concrete,abstract,concrete,A,abstract;concrete
1732203799,745e6308179fde2f0c5b3a79a0a718ab,PennController,92,0,calibrator_conc_feedback,NULL,PennController,103,_Trial_,End,1732203137929,undefined,1465,whistle,undefined,concrete,abstract,concrete,A,NULL
# 16. Key_value_F.
# 17. Key_value_J.
# 18. Group.
# 19. Comments.
1732203799,745e6308179fde2f0c5b3a79a0a718ab,PennController,100,0,calibrator_conc_no_feedback,NULL,PennController,111,_Trial_,Start,1732203137930,undefined,1694,sugar,abstract,concrete,A,NULL
1732203799,745e6308179fde2f0c5b3a79a0a718ab,PennController,100,0,calibrator_conc_no_feedback,NULL,PennController,111,_Header_,Start,1732203137930,undefined,1694,sugar,abstract,concrete,A,NULL
1732203799,745e6308179fde2f0c5b3a79a0a718ab,PennController,100,0,calibrator_conc_no_feedback,NULL,PennController,111,_Header_,End,1732203138182,undefined,1694,sugar,abstract,concrete,A,NULL
1732203799,745e6308179fde2f0c5b3a79a0a718ab,PennController,100,0,calibrator_conc_no_feedback,NULL,Selector,unnamed-Selector,Selection,concrete,1732203140381,undefined,1694,sugar,abstract,concrete,A,abstract;concrete
1732203799,745e6308179fde2f0c5b3a79a0a718ab,PennController,100,0,calibrator_conc_no_feedback,NULL,PennController,111,_Trial_,End,1732203140381,undefined,1694,sugar,abstract,concrete,A,NULL
1732203799,745e6308179fde2f0c5b3a79a0a718ab,PennController,102,0,calibrator_conc_no_feedback,NULL,PennController,113,_Trial_,Start,1732203140382,undefined,2000,whistle,abstract,concrete,A,NULL
1732203799,745e6308179fde2f0c5b3a79a0a718ab,PennController,102,0,calibrator_conc_no_feedback,NULL,PennController,113,_Header_,Start,1732203140382,undefined,2000,whistle,abstract,concrete,A,NULL
1732203799,745e6308179fde2f0c5b3a79a0a718ab,PennController,102,0,calibrator_conc_no_feedback,NULL,PennController,113,_Header_,End,1732203140632,undefined,2000,whistle,abstract,concrete,A,NULL
1732203799,745e6308179fde2f0c5b3a79a0a718ab,PennController,102,0,calibrator_conc_no_feedback,NULL,Selector,unnamed-Selector,Selection,concrete,1732203143132,undefined,2000,whistle,abstract,concrete,A,abstract;concrete
1732203799,745e6308179fde2f0c5b3a79a0a718ab,PennController,102,0,calibrator_conc_no_feedback,NULL,PennController,113,_Trial_,End,1732203143133,undefined,2000,whistle,abstract,concrete,A,NULL
1732203799,745e6308179fde2f0c5b3a79a0a718ab,PennController,97,0,calibrator_conc_no_feedback,NULL,PennController,108,_Trial_,Start,1732203143133,undefined,1420,marriage,abstract,concrete,A,NULL
1732203799,745e6308179fde2f0c5b3a79a0a718ab,PennController,97,0,calibrator_conc_no_feedback,NULL,PennController,108,_Header_,Start,1732203143133,undefined,1420,marriage,abstract,concrete,A,NULL
1732203799,745e6308179fde2f0c5b3a79a0a718ab,PennController,97,0,calibrator_conc_no_feedback,NULL,PennController,108,_Header_,End,1732203143384,undefined,1420,marriage,abstract,concrete,A,NULL
1732203799,745e6308179fde2f0c5b3a79a0a718ab,PennController,97,0,calibrator_conc_no_feedback,NULL,Selector,unnamed-Selector,Selection,concrete,1732203145308,undefined,1420,marriage,abstract,concrete,A,abstract;concrete
1732203799,745e6308179fde2f0c5b3a79a0a718ab,PennController,97,0,calibrator_conc_no_feedback,NULL,PennController,108,_Trial_,End,1732203145309,undefined,1420,marriage,abstract,concrete,A,NULL
1732203799,745e6308179fde2f0c5b3a79a0a718ab,PennController,96,0,calibrator_conc_no_feedback,NULL,PennController,107,_Trial_,Start,1732203145309,undefined,1276,kick,abstract,concrete,A,NULL
1732203799,745e6308179fde2f0c5b3a79a0a718ab,PennController,96,0,calibrator_conc_no_feedback,NULL,PennController,107,_Header_,Start,1732203145309,undefined,1276,kick,abstract,concrete,A,NULL
1732203799,745e6308179fde2f0c5b3a79a0a718ab,PennController,96,0,calibrator_conc_no_feedback,NULL,PennController,107,_Header_,End,1732203145561,undefined,1276,kick,abstract,concrete,A,NULL
1732203799,745e6308179fde2f0c5b3a79a0a718ab,PennController,96,0,calibrator_conc_no_feedback,NULL,Selector,unnamed-Selector,Selection,concrete,1732203147341,undefined,1276,kick,abstract,concrete,A,abstract;concrete
1732203799,745e6308179fde2f0c5b3a79a0a718ab,PennController,96,0,calibrator_conc_no_feedback,NULL,PennController,107,_Trial_,End,1732203147341,undefined,1276,kick,abstract,concrete,A,NULL
1732203799,745e6308179fde2f0c5b3a79a0a718ab,PennController,95,0,calibrator_conc_no_feedback,NULL,PennController,106,_Trial_,Start,1732203147342,undefined,1378,grasshopper,abstract,concrete,A,NULL
1732203799,745e6308179fde2f0c5b3a79a0a718ab,PennController,95,0,calibrator_conc_no_feedback,NULL,PennController,106,_Header_,Start,1732203147342,undefined,1378,grasshopper,abstract,concrete,A,NULL
1732203799,745e6308179fde2f0c5b3a79a0a718ab,PennController,95,0,calibrator_conc_no_feedback,NULL,PennController,106,_Header_,End,1732203147595,undefined,1378,grasshopper,abstract,concrete,A,NULL
1732203799,745e6308179fde2f0c5b3a79a0a718ab,PennController,95,0,calibrator_conc_no_feedback,NULL,Selector,unnamed-Selector,Selection,concrete,1732203149476,undefined,1378,grasshopper,abstract,concrete,A,abstract;concrete
1732203799,745e6308179fde2f0c5b3a79a0a718ab,PennController,95,0,calibrator_conc_no_feedback,NULL,PennController,106,_Trial_,End,1732203149477,undefined,1378,grasshopper,abstract,concrete,A,NULL
1732203799,745e6308179fde2f0c5b3a79a0a718ab,PennController,101,0,calibrator_conc_no_feedback,NULL,PennController,112,_Trial_,Start,1732203149477,undefined,1049,theory,abstract,concrete,A,NULL
1732203799,745e6308179fde2f0c5b3a79a0a718ab,PennController,101,0,calibrator_conc_no_feedback,NULL,PennController,112,_Header_,Start,1732203149477,undefined,1049,theory,abstract,concrete,A,NULL
1732203799,745e6308179fde2f0c5b3a79a0a718ab,PennController,101,0,calibrator_conc_no_feedback,NULL,PennController,112,_Header_,End,1732203149731,undefined,1049,theory,abstract,concrete,A,NULL
1732203799,745e6308179fde2f0c5b3a79a0a718ab,PennController,101,0,calibrator_conc_no_feedback,NULL,Selector,unnamed-Selector,Selection,abstract,1732203151284,undefined,1049,theory,abstract,concrete,A,abstract;concrete
1732203799,745e6308179fde2f0c5b3a79a0a718ab,PennController,101,0,calibrator_conc_no_feedback,NULL,PennController,112,_Trial_,End,1732203151285,undefined,1049,theory,abstract,concrete,A,NULL
1732203799,745e6308179fde2f0c5b3a79a0a718ab,PennController,99,0,calibrator_conc_no_feedback,NULL,PennController,110,_Trial_,Start,1732203151286,undefined,1091,shirt,abstract,concrete,A,NULL
1732203799,745e6308179fde2f0c5b3a79a0a718ab,PennController,99,0,calibrator_conc_no_feedback,NULL,PennController,110,_Header_,Start,1732203151286,undefined,1091,shirt,abstract,concrete,A,NULL
1732203799,745e6308179fde2f0c5b3a79a0a718ab,PennController,99,0,calibrator_conc_no_feedback,NULL,PennController,110,_Header_,End,1732203151539,undefined,1091,shirt,abstract,concrete,A,NULL
1732203799,745e6308179fde2f0c5b3a79a0a718ab,PennController,99,0,calibrator_conc_no_feedback,NULL,Selector,unnamed-Selector,Selection,concrete,1732203153132,undefined,1091,shirt,abstract,concrete,A,abstract;concrete
1732203799,745e6308179fde2f0c5b3a79a0a718ab,PennController,99,0,calibrator_conc_no_feedback,NULL,PennController,110,_Trial_,End,1732203153133,undefined,1091,shirt,abstract,concrete,A,NULL
1732203799,745e6308179fde2f0c5b3a79a0a718ab,PennController,103,0,calibrator_conc_no_feedback,NULL,PennController,114,_Trial_,Start,1732203153134,undefined,1003,insecure,abstract,concrete,A,NULL
1732203799,745e6308179fde2f0c5b3a79a0a718ab,PennController,103,0,calibrator_conc_no_feedback,NULL,PennController,114,_Header_,Start,1732203153134,undefined,1003,insecure,abstract,concrete,A,NULL
1732203799,745e6308179fde2f0c5b3a79a0a718ab,PennController,103,0,calibrator_conc_no_feedback,NULL,PennController,114,_Header_,End,1732203153387,undefined,1003,insecure,abstract,concrete,A,NULL
1732203799,745e6308179fde2f0c5b3a79a0a718ab,PennController,103,0,calibrator_conc_no_feedback,NULL,Selector,unnamed-Selector,Selection,abstract,1732203154892,undefined,1003,insecure,abstract,concrete,A,abstract;concrete
1732203799,745e6308179fde2f0c5b3a79a0a718ab,PennController,103,0,calibrator_conc_no_feedback,NULL,PennController,114,_Trial_,End,1732203154893,undefined,1003,insecure,abstract,concrete,A,NULL
1732203799,745e6308179fde2f0c5b3a79a0a718ab,PennController,98,0,calibrator_conc_no_feedback,NULL,PennController,109,_Trial_,Start,1732203154893,undefined,948,polite,abstract,concrete,A,NULL
1732203799,745e6308179fde2f0c5b3a79a0a718ab,PennController,98,0,calibrator_conc_no_feedback,NULL,PennController,109,_Header_,Start,1732203154893,undefined,948,polite,abstract,concrete,A,NULL
1732203799,745e6308179fde2f0c5b3a79a0a718ab,PennController,98,0,calibrator_conc_no_feedback,NULL,PennController,109,_Header_,End,1732203155146,undefined,948,polite,abstract,concrete,A,NULL
1732203799,745e6308179fde2f0c5b3a79a0a718ab,PennController,98,0,calibrator_conc_no_feedback,NULL,Selector,unnamed-Selector,Selection,abstract,1732203156596,undefined,948,polite,abstract,concrete,A,abstract;concrete
1732203799,745e6308179fde2f0c5b3a79a0a718ab,PennController,98,0,calibrator_conc_no_feedback,NULL,PennController,109,_Trial_,End,1732203156597,undefined,948,polite,abstract,concrete,A,NULL
1732203799,745e6308179fde2f0c5b3a79a0a718ab,PennController,94,0,calibrator_conc_no_feedback,NULL,PennController,105,_Trial_,Start,1732203156597,undefined,730,gas,abstract,concrete,A,NULL
1732203799,745e6308179fde2f0c5b3a79a0a718ab,PennController,94,0,calibrator_conc_no_feedback,NULL,PennController,105,_Header_,Start,1732203156597,undefined,730,gas,abstract,concrete,A,NULL
1732203799,745e6308179fde2f0c5b3a79a0a718ab,PennController,94,0,calibrator_conc_no_feedback,NULL,PennController,105,_Header_,End,1732203156851,undefined,730,gas,abstract,concrete,A,NULL
1732203799,745e6308179fde2f0c5b3a79a0a718ab,PennController,94,0,calibrator_conc_no_feedback,NULL,Selector,unnamed-Selector,Selection,concrete,1732203158085,undefined,730,gas,abstract,concrete,A,abstract;concrete
1732203799,745e6308179fde2f0c5b3a79a0a718ab,PennController,94,0,calibrator_conc_no_feedback,NULL,PennController,105,_Trial_,End,1732203158085,undefined,730,gas,abstract,concrete,A,NULL
# 13. Comments.
1732203799,745e6308179fde2f0c5b3a79a0a718ab,PennController,130,0,endinstructions_conc,NULL,PennController,8,_Trial_,Start,1732203158086,NULL
1732203799,745e6308179fde2f0c5b3a79a0a718ab,PennController,130,0,endinstructions_conc,NULL,PennController,8,_Header_,Start,1732203158086,NULL
1732203799,745e6308179fde2f0c5b3a79a0a718ab,PennController,130,0,endinstructions_conc,NULL,PennController,8,_Header_,End,1732203158337,NULL
1732203799,745e6308179fde2f0c5b3a79a0a718ab,PennController,130,0,endinstructions_conc,NULL,PennController,8,_Trial_,End,1732203166789,NULL
# 13. ID.
# 14. ReactionTime.
# 15. Word.
# 16. ConcValCombo.
# 17. Key_value_F.
# 18. Key_value_J.
# 19. Group.
# 20. Comments.
1732203799,745e6308179fde2f0c5b3a79a0a718ab,PennController,21,0,test_conc,NULL,PennController,32,_Trial_,Start,1732203166790,undefined,1263,spit,concrete-negative,abstract,concrete,A,NULL
1732203799,745e6308179fde2f0c5b3a79a0a718ab,PennController,21,0,test_conc,NULL,PennController,32,_Header_,Start,1732203166790,undefined,1263,spit,concrete-negative,abstract,concrete,A,NULL
1732203799,745e6308179fde2f0c5b3a79a0a718ab,PennController,21,0,test_conc,NULL,PennController,32,_Header_,End,1732203167040,undefined,1263,spit,concrete-negative,abstract,concrete,A,NULL
1732203799,745e6308179fde2f0c5b3a79a0a718ab,PennController,21,0,test_conc,NULL,Selector,unnamed-Selector,Selection,concrete,1732203168805,undefined,1263,spit,concrete-negative,abstract,concrete,A,abstract;concrete
1732203799,745e6308179fde2f0c5b3a79a0a718ab,PennController,21,0,test_conc,NULL,PennController,32,_Trial_,End,1732203168805,undefined,1263,spit,concrete-negative,abstract,concrete,A,NULL
1732203799,745e6308179fde2f0c5b3a79a0a718ab,PennController,26,0,test_conc,NULL,PennController,37,_Trial_,Start,1732203168806,undefined,920,criticize,abstract-negative,abstract,concrete,A,NULL
1732203799,745e6308179fde2f0c5b3a79a0a718ab,PennController,26,0,test_conc,NULL,PennController,37,_Header_,Start,1732203168806,undefined,920,criticize,abstract-negative,abstract,concrete,A,NULL
1732203799,745e6308179fde2f0c5b3a79a0a718ab,PennController,26,0,test_conc,NULL,PennController,37,_Header_,End,1732203169056,undefined,920,criticize,abstract-negative,abstract,concrete,A,NULL
1732203799,745e6308179fde2f0c5b3a79a0a718ab,PennController,26,0,test_conc,NULL,Selector,unnamed-Selector,Selection,abstract,1732203170476,undefined,920,criticize,abstract-negative,abstract,concrete,A,abstract;concrete
1732203799,745e6308179fde2f0c5b3a79a0a718ab,PennController,26,0,test_conc,NULL,PennController,37,_Trial_,End,1732203170477,undefined,920,criticize,abstract-negative,abstract,concrete,A,NULL
1732203799,745e6308179fde2f0c5b3a79a0a718ab,PennController,23,0,test_conc,NULL,PennController,34,_Trial_,Start,1732203170478,undefined,1084,vomit,concrete-negative,abstract,concrete,A,NULL
1732203799,745e6308179fde2f0c5b3a79a0a718ab,PennController,23,0,test_conc,NULL,PennController,34,_Header_,Start,1732203170478,undefined,1084,vomit,concrete-negative,abstract,concrete,A,NULL
1732203799,745e6308179fde2f0c5b3a79a0a718ab,PennController,23,0,test_conc,NULL,PennController,34,_Header_,End,1732203170730,undefined,1084,vomit,concrete-negative,abstract,concrete,A,NULL
1732203799,745e6308179fde2f0c5b3a79a0a718ab,PennController,23,0,test_conc,NULL,Selector,unnamed-Selector,Selection,concrete,1732203172316,undefined,1084,vomit,concrete-negative,abstract,concrete,A,abstract;concrete
1732203799,745e6308179fde2f0c5b3a79a0a718ab,PennController,23,0,test_conc,NULL,PennController,34,_Trial_,End,1732203172317,undefined,1084,vomit,concrete-negative,abstract,concrete,A,NULL
1732203799,745e6308179fde2f0c5b3a79a0a718ab,PennController,27,0,test_conc,NULL,PennController,38,_Trial_,Start,1732203172318,undefined,1852,exploit,abstract-negative,abstract,concrete,A,NULL
1732203799,745e6308179fde2f0c5b3a79a0a718ab,PennController,27,0,test_conc,NULL,PennController,38,_Header_,Start,1732203172318,undefined,1852,exploit,abstract-negative,abstract,concrete,A,NULL
1732203799,745e6308179fde2f0c5b3a79a0a718ab,PennController,27,0,test_conc,NULL,PennController,38,_Header_,End,1732203172571,undefined,1852,exploit,abstract-negative,abstract,concrete,A,NULL
1732203799,745e6308179fde2f0c5b3a79a0a718ab,PennController,27,0,test_conc,NULL,Selector,unnamed-Selector,Selection,concrete,1732203174924,undefined,1852,exploit,abstract-negative,abstract,concrete,A,abstract;concrete
1732203799,745e6308179fde2f0c5b3a79a0a718ab,PennController,27,0,test_conc,NULL,PennController,38,_Trial_,End,1732203174925,undefined,1852,exploit,abstract-negative,abstract,concrete,A,NULL
1732203799,745e6308179fde2f0c5b3a79a0a718ab,PennController,41,0,test_conc,NULL,PennController,52,_Trial_,Start,1732203174925,undefined,1040,esteem,abstract-positive,abstract,concrete,A,NULL
1732203799,745e6308179fde2f0c5b3a79a0a718ab,PennController,41,0,test_conc,NULL,PennController,52,_Header_,Start,1732203174925,undefined,1040,esteem,abstract-positive,abstract,concrete,A,NULL
1732203799,745e6308179fde2f0c5b3a79a0a718ab,PennController,41,0,test_conc,NULL,PennController,52,_Header_,End,1732203175176,undefined,1040,esteem,abstract-positive,abstract,concrete,A,NULL
1732203799,745e6308179fde2f0c5b3a79a0a718ab,PennController,41,0,test_conc,NULL,Selector,unnamed-Selector,Selection,abstract,1732203176716,undefined,1040,esteem,abstract-positive,abstract,concrete,A,abstract;concrete
1732203799,745e6308179fde2f0c5b3a79a0a718ab,PennController,41,0,test_conc,NULL,PennController,52,_Trial_,End,1732203176717,undefined,1040,esteem,abstract-positive,abstract,concrete,A,NULL
1732203799,745e6308179fde2f0c5b3a79a0a718ab,PennController,19,0,test_conc,NULL,PennController,30,_Trial_,Start,1732203176717,undefined,1397,slap,concrete-negative,abstract,concrete,A,NULL
1732203799,745e6308179fde2f0c5b3a79a0a718ab,PennController,19,0,test_conc,NULL,PennController,30,_Header_,Start,1732203176717,undefined,1397,slap,concrete-negative,abstract,concrete,A,NULL
1732203799,745e6308179fde2f0c5b3a79a0a718ab,PennController,19,0,test_conc,NULL,PennController,30,_Header_,End,1732203176971,undefined,1397,slap,concrete-negative,abstract,concrete,A,NULL
1732203799,745e6308179fde2f0c5b3a79a0a718ab,PennController,19,0,test_conc,NULL,Selector,unnamed-Selector,Selection,concrete,1732203178869,undefined,1397,slap,concrete-negative,abstract,concrete,A,abstract;concrete
1732203799,745e6308179fde2f0c5b3a79a0a718ab,PennController,19,0,test_conc,NULL,PennController,30,_Trial_,End,1732203178869,undefined,1397,slap,concrete-negative,abstract,concrete,A,NULL
1732203799,745e6308179fde2f0c5b3a79a0a718ab,PennController,24,0,test_conc,NULL,PennController,35,_Trial_,Start,1732203178870,undefined,3754,annoy,abstract-negative,abstract,concrete,A,NULL
1732203799,745e6308179fde2f0c5b3a79a0a718ab,PennController,24,0,test_conc,NULL,PennController,35,_Header_,Start,1732203178870,undefined,3754,annoy,abstract-negative,abstract,concrete,A,NULL
1732203799,745e6308179fde2f0c5b3a79a0a718ab,PennController,24,0,test_conc,NULL,PennController,35,_Header_,End,1732203179123,undefined,3754,annoy,abstract-negative,abstract,concrete,A,NULL
1732203799,745e6308179fde2f0c5b3a79a0a718ab,PennController,24,0,test_conc,NULL,Selector,unnamed-Selector,Selection,abstract,1732203183380,undefined,3754,annoy,abstract-negative,abstract,concrete,A,abstract;concrete
1732203799,745e6308179fde2f0c5b3a79a0a718ab,PennController,24,0,test_conc,NULL,PennController,35,_Trial_,End,1732203183381,undefined,3754,annoy,abstract-negative,abstract,concrete,A,NULL
1732203799,745e6308179fde2f0c5b3a79a0a718ab,PennController,39,0,test_conc,NULL,PennController,50,_Trial_,Start,1732203183381,undefined,3217,believe,abstract-positive,abstract,concrete,A,NULL
1732203799,745e6308179fde2f0c5b3a79a0a718ab,PennController,39,0,test_conc,NULL,PennController,50,_Header_,Start,1732203183381,undefined,3217,believe,abstract-positive,abstract,concrete,A,NULL
1732203799,745e6308179fde2f0c5b3a79a0a718ab,PennController,39,0,test_conc,NULL,PennController,50,_Header_,End,1732203183632,undefined,3217,believe,abstract-positive,abstract,concrete,A,NULL
1732203799,745e6308179fde2f0c5b3a79a0a718ab,PennController,39,0,test_conc,NULL,Selector,unnamed-Selector,Selection,concrete,1732203187349,undefined,3217,believe,abstract-positive,abstract,concrete,A,abstract;concrete
1732203799,745e6308179fde2f0c5b3a79a0a718ab,PennController,39,0,test_conc,NULL,PennController,50,_Trial_,End,1732203187349,undefined,3217,believe,abstract-positive,abstract,concrete,A,NULL
1732203799,745e6308179fde2f0c5b3a79a0a718ab,PennController,36,0,test_conc,NULL,PennController,47,_Trial_,Start,1732203187350,undefined,2211,admired,abstract-positive,abstract,concrete,A,NULL
1732203799,745e6308179fde2f0c5b3a79a0a718ab,PennController,36,0,test_conc,NULL,PennController,47,_Header_,Start,1732203187350,undefined,2211,admired,abstract-positive,abstract,concrete,A,NULL
1732203799,745e6308179fde2f0c5b3a79a0a718ab,PennController,36,0,test_conc,NULL,PennController,47,_Header_,End,1732203187603,undefined,2211,admired,abstract-positive,abstract,concrete,A,NULL
1732203799,745e6308179fde2f0c5b3a79a0a718ab,PennController,36,0,test_conc,NULL,Selector,unnamed-Selector,Selection,abstract,1732203190317,undefined,2211,admired,abstract-positive,abstract,concrete,A,abstract;concrete
1732203799,745e6308179fde2f0c5b3a79a0a718ab,PennController,36,0,test_conc,NULL,PennController,47,_Trial_,End,1732203190317,undefined,2211,admired,abstract-positive,abstract,concrete,A,NULL
1732203799,745e6308179fde2f0c5b3a79a0a718ab,PennController,32,0,test_conc,NULL,PennController,43,_Trial_,Start,1732203190318,undefined,2325,violate,abstract-negative,abstract,concrete,A,NULL
1732203799,745e6308179fde2f0c5b3a79a0a718ab,PennController,32,0,test_conc,NULL,PennController,43,_Header_,Start,1732203190318,undefined,2325,violate,abstract-negative,abstract,concrete,A,NULL
1732203799,745e6308179fde2f0c5b3a79a0a718ab,PennController,32,0,test_conc,NULL,PennController,43,_Header_,End,1732203190571,undefined,2325,violate,abstract-negative,abstract,concrete,A,NULL
1732203799,745e6308179fde2f0c5b3a79a0a718ab,PennController,32,0,test_conc,NULL,Selector,unnamed-Selector,Selection,concrete,1732203193397,undefined,2325,violate,abstract-negative,abstract,concrete,A,abstract;concrete
1732203799,745e6308179fde2f0c5b3a79a0a718ab,PennController,32,0,test_conc,NULL,PennController,43,_Trial_,End,1732203193397,undefined,2325,violate,abstract-negative,abstract,concrete,A,NULL
1732203799,745e6308179fde2f0c5b3a79a0a718ab,PennController,31,0,test_conc,NULL,PennController,42,_Trial_,Start,1732203193398,undefined,2302,scorn,abstract-negative,abstract,concrete,A,NULL
1732203799,745e6308179fde2f0c5b3a79a0a718ab,PennController,31,0,test_conc,NULL,PennController,42,_Header_,Start,1732203193398,undefined,2302,scorn,abstract-negative,abstract,concrete,A,NULL
1732203799,745e6308179fde2f0c5b3a79a0a718ab,PennController,31,0,test_conc,NULL,PennController,42,_Header_,End,1732203193648,undefined,2302,scorn,abstract-negative,abstract,concrete,A,NULL
1732203799,745e6308179fde2f0c5b3a79a0a718ab,PennController,31,0,test_conc,NULL,Selector,unnamed-Selector,Selection,abstract,1732203196453,undefined,2302,scorn,abstract-negative,abstract,concrete,A,abstract;concrete
1732203799,745e6308179fde2f0c5b3a79a0a718ab,PennController,31,0,test_conc,NULL,PennController,42,_Trial_,End,1732203196454,undefined,2302,scorn,abstract-negative,abstract,concrete,A,NULL
1732203799,745e6308179fde2f0c5b3a79a0a718ab,PennController,17,0,test_conc,NULL,PennController,28,_Trial_,Start,1732203196454,undefined,907,puke,concrete-negative,abstract,concrete,A,NULL
1732203799,745e6308179fde2f0c5b3a79a0a718ab,PennController,17,0,test_conc,NULL,PennController,28,_Header_,Start,1732203196454,undefined,907,puke,concrete-negative,abstract,concrete,A,NULL
1732203799,745e6308179fde2f0c5b3a79a0a718ab,PennController,17,0,test_conc,NULL,PennController,28,_Header_,End,1732203196706,undefined,907,puke,concrete-negative,abstract,concrete,A,NULL
1732203799,745e6308179fde2f0c5b3a79a0a718ab,PennController,17,0,test_conc,NULL,Selector,unnamed-Selector,Selection,concrete,1732203198116,undefined,907,puke,concrete-negative,abstract,concrete,A,abstract;concrete
1732203799,745e6308179fde2f0c5b3a79a0a718ab,PennController,17,0,test_conc,NULL,PennController,28,_Trial_,End,1732203198117,undefined,907,puke,concrete-negative,abstract,concrete,A,NULL
1732203799,745e6308179fde2f0c5b3a79a0a718ab,PennController,25,0,test_conc,NULL,PennController,36,_Trial_,Start,1732203198118,undefined,2610,befall,abstract-negative,abstract,concrete,A,NULL
1732203799,745e6308179fde2f0c5b3a79a0a718ab,PennController,25,0,test_conc,NULL,PennController,36,_Header_,Start,1732203198118,undefined,2610,befall,abstract-negative,abstract,concrete,A,NULL
1732203799,745e6308179fde2f0c5b3a79a0a718ab,PennController,25,0,test_conc,NULL,PennController,36,_Header_,End,1732203198371,undefined,2610,befall,abstract-negative,abstract,concrete,A,NULL
1732203799,745e6308179fde2f0c5b3a79a0a718ab,PennController,25,0,test_conc,NULL,Selector,unnamed-Selector,Selection,concrete,1732203201485,undefined,2610,befall,abstract-negative,abstract,concrete,A,abstract;concrete
1732203799,745e6308179fde2f0c5b3a79a0a718ab,PennController,25,0,test_conc,NULL,PennController,36,_Trial_,End,1732203201485,undefined,2610,befall,abstract-negative,abstract,concrete,A,NULL
1732203799,745e6308179fde2f0c5b3a79a0a718ab,PennController,5,0,test_conc,NULL,PennController,16,_Trial_,Start,1732203201486,undefined,1013,cook,concrete-positive,abstract,concrete,A,NULL
1732203799,745e6308179fde2f0c5b3a79a0a718ab,PennController,5,0,test_conc,NULL,PennController,16,_Header_,Start,1732203201486,undefined,1013,cook,concrete-positive,abstract,concrete,A,NULL
1732203799,745e6308179fde2f0c5b3a79a0a718ab,PennController,5,0,test_conc,NULL,PennController,16,_Header_,End,1732203201738,undefined,1013,cook,concrete-positive,abstract,concrete,A,NULL
1732203799,745e6308179fde2f0c5b3a79a0a718ab,PennController,5,0,test_conc,NULL,Selector,unnamed-Selector,Selection,concrete,1732203203253,undefined,1013,cook,concrete-positive,abstract,concrete,A,abstract;concrete
1732203799,745e6308179fde2f0c5b3a79a0a718ab,PennController,5,0,test_conc,NULL,PennController,16,_Trial_,End,1732203203253,undefined,1013,cook,concrete-positive,abstract,concrete,A,NULL
1732203799,745e6308179fde2f0c5b3a79a0a718ab,PennController,34,0,test_conc,NULL,PennController,45,_Trial_,Start,1732203203254,undefined,1124,imagine,abstract-positive,abstract,concrete,A,NULL
1732203799,745e6308179fde2f0c5b3a79a0a718ab,PennController,34,0,test_conc,NULL,PennController,45,_Header_,Start,1732203203254,undefined,1124,imagine,abstract-positive,abstract,concrete,A,NULL
1732203799,745e6308179fde2f0c5b3a79a0a718ab,PennController,34,0,test_conc,NULL,PennController,45,_Header_,End,1732203203504,undefined,1124,imagine,abstract-positive,abstract,concrete,A,NULL
1732203799,745e6308179fde2f0c5b3a79a0a718ab,PennController,34,0,test_conc,NULL,Selector,unnamed-Selector,Selection,concrete,1732203205132,undefined,1124,imagine,abstract-positive,abstract,concrete,A,abstract;concrete
1732203799,745e6308179fde2f0c5b3a79a0a718ab,PennController,34,0,test_conc,NULL,PennController,45,_Trial_,End,1732203205133,undefined,1124,imagine,abstract-positive,abstract,concrete,A,NULL
1732203799,745e6308179fde2f0c5b3a79a0a718ab,PennController,40,0,test_conc,NULL,PennController,51,_Trial_,Start,1732203205134,undefined,1723,fulfill,abstract-positive,abstract,concrete,A,NULL
1732203799,745e6308179fde2f0c5b3a79a0a718ab,PennController,40,0,test_conc,NULL,PennController,51,_Header_,Start,1732203205134,undefined,1723,fulfill,abstract-positive,abstract,concrete,A,NULL
1732203799,745e6308179fde2f0c5b3a79a0a718ab,PennController,40,0,test_conc,NULL,PennController,51,_Header_,End,1732203205385,undefined,1723,fulfill,abstract-positive,abstract,concrete,A,NULL
1732203799,745e6308179fde2f0c5b3a79a0a718ab,PennController,40,0,test_conc,NULL,Selector,unnamed-Selector,Selection,abstract,1732203207612,undefined,1723,fulfill,abstract-positive,abstract,concrete,A,abstract;concrete
1732203799,745e6308179fde2f0c5b3a79a0a718ab,PennController,40,0,test_conc,NULL,PennController,51,_Trial_,End,1732203207613,undefined,1723,fulfill,abstract-positive,abstract,concrete,A,NULL
1732203799,745e6308179fde2f0c5b3a79a0a718ab,PennController,20,0,test_conc,NULL,PennController,31,_Trial_,Start,1732203207614,undefined,1085,smack,concrete-negative,abstract,concrete,A,NULL
1732203799,745e6308179fde2f0c5b3a79a0a718ab,PennController,20,0,test_conc,NULL,PennController,31,_Header_,Start,1732203207614,undefined,1085,smack,concrete-negative,abstract,concrete,A,NULL
1732203799,745e6308179fde2f0c5b3a79a0a718ab,PennController,20,0,test_conc,NULL,PennController,31,_Header_,End,1732203207866,undefined,1085,smack,concrete-negative,abstract,concrete,A,NULL
1732203799,745e6308179fde2f0c5b3a79a0a718ab,PennController,20,0,test_conc,NULL,Selector,unnamed-Selector,Selection,concrete,1732203209452,undefined,1085,smack,concrete-negative,abstract,concrete,A,abstract;concrete
1732203799,745e6308179fde2f0c5b3a79a0a718ab,PennController,20,0,test_conc,NULL,PennController,31,_Trial_,End,1732203209453,undefined,1085,smack,concrete-negative,abstract,concrete,A,NULL
1732203799,745e6308179fde2f0c5b3a79a0a718ab,PennController,42,0,test_conc,NULL,PennController,53,_Trial_,Start,1732203209454,undefined,1184,justify,abstract-positive,abstract,concrete,A,NULL
1732203799,745e6308179fde2f0c5b3a79a0a718ab,PennController,42,0,test_conc,NULL,PennController,53,_Header_,Start,1732203209454,undefined,1184,justify,abstract-positive,abstract,concrete,A,NULL
1732203799,745e6308179fde2f0c5b3a79a0a718ab,PennController,42,0,test_conc,NULL,PennController,53,_Header_,End,1732203209704,undefined,1184,justify,abstract-positive,abstract,concrete,A,NULL
1732203799,745e6308179fde2f0c5b3a79a0a718ab,PennController,42,0,test_conc,NULL,Selector,unnamed-Selector,Selection,abstract,1732203211388,undefined,1184,justify,abstract-positive,abstract,concrete,A,abstract;concrete
1732203799,745e6308179fde2f0c5b3a79a0a718ab,PennController,42,0,test_conc,NULL,PennController,53,_Trial_,End,1732203211389,undefined,1184,justify,abstract-positive,abstract,concrete,A,NULL
1732203799,745e6308179fde2f0c5b3a79a0a718ab,PennController,22,0,test_conc,NULL,PennController,33,_Trial_,Start,1732203211389,undefined,906,stab,concrete-negative,abstract,concrete,A,NULL
1732203799,745e6308179fde2f0c5b3a79a0a718ab,PennController,22,0,test_conc,NULL,PennController,33,_Header_,Start,1732203211389,undefined,906,stab,concrete-negative,abstract,concrete,A,NULL
1732203799,745e6308179fde2f0c5b3a79a0a718ab,PennController,22,0,test_conc,NULL,PennController,33,_Header_,End,1732203211643,undefined,906,stab,concrete-negative,abstract,concrete,A,NULL
1732203799,745e6308179fde2f0c5b3a79a0a718ab,PennController,22,0,test_conc,NULL,Selector,unnamed-Selector,Selection,concrete,1732203213052,undefined,906,stab,concrete-negative,abstract,concrete,A,abstract;concrete
1732203799,745e6308179fde2f0c5b3a79a0a718ab,PennController,22,0,test_conc,NULL,PennController,33,_Trial_,End,1732203213053,undefined,906,stab,concrete-negative,abstract,concrete,A,NULL
1732203799,745e6308179fde2f0c5b3a79a0a718ab,PennController,9,0,test_conc,NULL,PennController,20,_Trial_,Start,1732203213054,undefined,900,kiss,concrete-positive,abstract,concrete,A,NULL
1732203799,745e6308179fde2f0c5b3a79a0a718ab,PennController,9,0,test_conc,NULL,PennController,20,_Header_,Start,1732203213054,undefined,900,kiss,concrete-positive,abstract,concrete,A,NULL
1732203799,745e6308179fde2f0c5b3a79a0a718ab,PennController,9,0,test_conc,NULL,PennController,20,_Header_,End,1732203213305,undefined,900,kiss,concrete-positive,abstract,concrete,A,NULL
1732203799,745e6308179fde2f0c5b3a79a0a718ab,PennController,9,0,test_conc,NULL,Selector,unnamed-Selector,Selection,concrete,1732203214709,undefined,900,kiss,concrete-positive,abstract,concrete,A,abstract;concrete
1732203799,745e6308179fde2f0c5b3a79a0a718ab,PennController,9,0,test_conc,NULL,PennController,20,_Trial_,End,1732203214709,undefined,900,kiss,concrete-positive,abstract,concrete,A,NULL
1732203799,745e6308179fde2f0c5b3a79a0a718ab,PennController,15,0,test_conc,NULL,PennController,26,_Trial_,Start,1732203214710,undefined,804,kill,concrete-negative,abstract,concrete,A,NULL
1732203799,745e6308179fde2f0c5b3a79a0a718ab,PennController,15,0,test_conc,NULL,PennController,26,_Header_,Start,1732203214710,undefined,804,kill,concrete-negative,abstract,concrete,A,NULL
1732203799,745e6308179fde2f0c5b3a79a0a718ab,PennController,15,0,test_conc,NULL,PennController,26,_Header_,End,1732203214962,undefined,804,kill,concrete-negative,abstract,concrete,A,NULL
1732203799,745e6308179fde2f0c5b3a79a0a718ab,PennController,15,0,test_conc,NULL,Selector,unnamed-Selector,Selection,concrete,1732203216268,undefined,804,kill,concrete-negative,abstract,concrete,A,abstract;concrete
1732203799,745e6308179fde2f0c5b3a79a0a718ab,PennController,15,0,test_conc,NULL,PennController,26,_Trial_,End,1732203216269,undefined,804,kill,concrete-negative,abstract,concrete,A,NULL
1732203799,745e6308179fde2f0c5b3a79a0a718ab,PennController,10,0,test_conc,NULL,PennController,21,_Trial_,Start,1732203216269,undefined,1038,running,concrete-positive,abstract,concrete,A,NULL
1732203799,745e6308179fde2f0c5b3a79a0a718ab,PennController,10,0,test_conc,NULL,PennController,21,_Header_,Start,1732203216269,undefined,1038,running,concrete-positive,abstract,concrete,A,NULL
1732203799,745e6308179fde2f0c5b3a79a0a718ab,PennController,10,0,test_conc,NULL,PennController,21,_Header_,End,1732203216521,undefined,1038,running,concrete-positive,abstract,concrete,A,NULL
1732203799,745e6308179fde2f0c5b3a79a0a718ab,PennController,10,0,test_conc,NULL,Selector,unnamed-Selector,Selection,concrete,1732203218060,undefined,1038,running,concrete-positive,abstract,concrete,A,abstract;concrete
1732203799,745e6308179fde2f0c5b3a79a0a718ab,PennController,10,0,test_conc,NULL,PennController,21,_Trial_,End,1732203218061,undefined,1038,running,concrete-positive,abstract,concrete,A,NULL
1732203799,745e6308179fde2f0c5b3a79a0a718ab,PennController,14,0,test_conc,NULL,PennController,25,_Trial_,Start,1732203218061,undefined,975,bleed,concrete-negative,abstract,concrete,A,NULL
1732203799,745e6308179fde2f0c5b3a79a0a718ab,PennController,14,0,test_conc,NULL,PennController,25,_Header_,Start,1732203218061,undefined,975,bleed,concrete-negative,abstract,concrete,A,NULL
1732203799,745e6308179fde2f0c5b3a79a0a718ab,PennController,14,0,test_conc,NULL,PennController,25,_Header_,End,1732203218312,undefined,975,bleed,concrete-negative,abstract,concrete,A,NULL
1732203799,745e6308179fde2f0c5b3a79a0a718ab,PennController,14,0,test_conc,NULL,Selector,unnamed-Selector,Selection,concrete,1732203219788,undefined,975,bleed,concrete-negative,abstract,concrete,A,abstract;concrete
1732203799,745e6308179fde2f0c5b3a79a0a718ab,PennController,14,0,test_conc,NULL,PennController,25,_Trial_,End,1732203219789,undefined,975,bleed,concrete-negative,abstract,concrete,A,NULL
1732203799,745e6308179fde2f0c5b3a79a0a718ab,PennController,6,0,test_conc,NULL,PennController,17,_Trial_,Start,1732203219790,undefined,2543,cuddle,concrete-positive,abstract,concrete,A,NULL
1732203799,745e6308179fde2f0c5b3a79a0a718ab,PennController,6,0,test_conc,NULL,PennController,17,_Header_,Start,1732203219790,undefined,2543,cuddle,concrete-positive,abstract,concrete,A,NULL
1732203799,745e6308179fde2f0c5b3a79a0a718ab,PennController,6,0,test_conc,NULL,PennController,17,_Header_,End,1732203220045,undefined,2543,cuddle,concrete-positive,abstract,concrete,A,NULL
1732203799,745e6308179fde2f0c5b3a79a0a718ab,PennController,6,0,test_conc,NULL,Selector,unnamed-Selector,Selection,concrete,1732203223092,undefined,2543,cuddle,concrete-positive,abstract,concrete,A,abstract;concrete
1732203799,745e6308179fde2f0c5b3a79a0a718ab,PennController,6,0,test_conc,NULL,PennController,17,_Trial_,End,1732203223093,undefined,2543,cuddle,concrete-positive,abstract,concrete,A,NULL
1732203799,745e6308179fde2f0c5b3a79a0a718ab,PennController,28,0,test_conc,NULL,PennController,39,_Trial_,Start,1732203223094,undefined,1631,loathe,abstract-negative,abstract,concrete,A,NULL
1732203799,745e6308179fde2f0c5b3a79a0a718ab,PennController,28,0,test_conc,NULL,PennController,39,_Header_,Start,1732203223094,undefined,1631,loathe,abstract-negative,abstract,concrete,A,NULL
1732203799,745e6308179fde2f0c5b3a79a0a718ab,PennController,28,0,test_conc,NULL,PennController,39,_Header_,End,1732203223345,undefined,1631,loathe,abstract-negative,abstract,concrete,A,NULL
1732203799,745e6308179fde2f0c5b3a79a0a718ab,PennController,28,0,test_conc,NULL,Selector,unnamed-Selector,Selection,concrete,1732203225476,undefined,1631,loathe,abstract-negative,abstract,concrete,A,abstract;concrete
1732203799,745e6308179fde2f0c5b3a79a0a718ab,PennController,28,0,test_conc,NULL,PennController,39,_Trial_,End,1732203225477,undefined,1631,loathe,abstract-negative,abstract,concrete,A,NULL
1732203799,745e6308179fde2f0c5b3a79a0a718ab,PennController,29,0,test_conc,NULL,PennController,40,_Trial_,Start,1732203225478,undefined,2795,obsess,abstract-negative,abstract,concrete,A,NULL
1732203799,745e6308179fde2f0c5b3a79a0a718ab,PennController,29,0,test_conc,NULL,PennController,40,_Header_,Start,1732203225478,undefined,2795,obsess,abstract-negative,abstract,concrete,A,NULL
1732203799,745e6308179fde2f0c5b3a79a0a718ab,PennController,29,0,test_conc,NULL,PennController,40,_Header_,End,1732203225731,undefined,2795,obsess,abstract-negative,abstract,concrete,A,NULL
1732203799,745e6308179fde2f0c5b3a79a0a718ab,PennController,29,0,test_conc,NULL,Selector,unnamed-Selector,Selection,abstract,1732203229028,undefined,2795,obsess,abstract-negative,abstract,concrete,A,abstract;concrete
1732203799,745e6308179fde2f0c5b3a79a0a718ab,PennController,29,0,test_conc,NULL,PennController,40,_Trial_,End,1732203229029,undefined,2795,obsess,abstract-negative,abstract,concrete,A,NULL
1732203799,745e6308179fde2f0c5b3a79a0a718ab,PennController,13,0,test_conc,NULL,PennController,24,_Trial_,Start,1732203229030,undefined,1341,swing,concrete-positive,abstract,concrete,A,NULL
1732203799,745e6308179fde2f0c5b3a79a0a718ab,PennController,13,0,test_conc,NULL,PennController,24,_Header_,Start,1732203229030,undefined,1341,swing,concrete-positive,abstract,concrete,A,NULL
1732203799,745e6308179fde2f0c5b3a79a0a718ab,PennController,13,0,test_conc,NULL,PennController,24,_Header_,End,1732203229280,undefined,1341,swing,concrete-positive,abstract,concrete,A,NULL
1732203799,745e6308179fde2f0c5b3a79a0a718ab,PennController,13,0,test_conc,NULL,Selector,unnamed-Selector,Selection,concrete,1732203231124,undefined,1341,swing,concrete-positive,abstract,concrete,A,abstract;concrete
1732203799,745e6308179fde2f0c5b3a79a0a718ab,PennController,13,0,test_conc,NULL,PennController,24,_Trial_,End,1732203231125,undefined,1341,swing,concrete-positive,abstract,concrete,A,NULL
1732203799,745e6308179fde2f0c5b3a79a0a718ab,PennController,8,0,test_conc,NULL,PennController,19,_Trial_,Start,1732203231125,undefined,975,hug,concrete-positive,abstract,concrete,A,NULL
1732203799,745e6308179fde2f0c5b3a79a0a718ab,PennController,8,0,test_conc,NULL,PennController,19,_Header_,Start,1732203231125,undefined,975,hug,concrete-positive,abstract,concrete,A,NULL
1732203799,745e6308179fde2f0c5b3a79a0a718ab,PennController,8,0,test_conc,NULL,PennController,19,_Header_,End,1732203231377,undefined,975,hug,concrete-positive,abstract,concrete,A,NULL
1732203799,745e6308179fde2f0c5b3a79a0a718ab,PennController,8,0,test_conc,NULL,Selector,unnamed-Selector,Selection,concrete,1732203232852,undefined,975,hug,concrete-positive,abstract,concrete,A,abstract;concrete
1732203799,745e6308179fde2f0c5b3a79a0a718ab,PennController,8,0,test_conc,NULL,PennController,19,_Trial_,End,1732203232853,undefined,975,hug,concrete-positive,abstract,concrete,A,NULL
1732203799,745e6308179fde2f0c5b3a79a0a718ab,PennController,18,0,test_conc,NULL,PennController,29,_Trial_,Start,1732203232853,undefined,918,scratch,concrete-negative,abstract,concrete,A,NULL
1732203799,745e6308179fde2f0c5b3a79a0a718ab,PennController,18,0,test_conc,NULL,PennController,29,_Header_,Start,1732203232853,undefined,918,scratch,concrete-negative,abstract,concrete,A,NULL
1732203799,745e6308179fde2f0c5b3a79a0a718ab,PennController,18,0,test_conc,NULL,PennController,29,_Header_,End,1732203233106,undefined,918,scratch,concrete-negative,abstract,concrete,A,NULL
1732203799,745e6308179fde2f0c5b3a79a0a718ab,PennController,18,0,test_conc,NULL,Selector,unnamed-Selector,Selection,concrete,1732203234525,undefined,918,scratch,concrete-negative,abstract,concrete,A,abstract;concrete
1732203799,745e6308179fde2f0c5b3a79a0a718ab,PennController,18,0,test_conc,NULL,PennController,29,_Trial_,End,1732203234525,undefined,918,scratch,concrete-negative,abstract,concrete,A,NULL
1732203799,745e6308179fde2f0c5b3a79a0a718ab,PennController,33,0,test_conc,NULL,PennController,44,_Trial_,Start,1732203234526,undefined,1467,worry,abstract-negative,abstract,concrete,A,NULL
1732203799,745e6308179fde2f0c5b3a79a0a718ab,PennController,33,0,test_conc,NULL,PennController,44,_Header_,Start,1732203234526,undefined,1467,worry,abstract-negative,abstract,concrete,A,NULL
1732203799,745e6308179fde2f0c5b3a79a0a718ab,PennController,33,0,test_conc,NULL,PennController,44,_Header_,End,1732203234780,undefined,1467,worry,abstract-negative,abstract,concrete,A,NULL
1732203799,745e6308179fde2f0c5b3a79a0a718ab,PennController,33,0,test_conc,NULL,Selector,unnamed-Selector,Selection,concrete,1732203236748,undefined,1467,worry,abstract-negative,abstract,concrete,A,abstract;concrete
1732203799,745e6308179fde2f0c5b3a79a0a718ab,PennController,33,0,test_conc,NULL,PennController,44,_Trial_,End,1732203236749,undefined,1467,worry,abstract-negative,abstract,concrete,A,NULL
1732203799,745e6308179fde2f0c5b3a79a0a718ab,PennController,35,0,test_conc,NULL,PennController,46,_Trial_,Start,1732203236750,undefined,1423,enlighten,abstract-positive,abstract,concrete,A,NULL
1732203799,745e6308179fde2f0c5b3a79a0a718ab,PennController,35,0,test_conc,NULL,PennController,46,_Header_,Start,1732203236750,undefined,1423,enlighten,abstract-positive,abstract,concrete,A,NULL
1732203799,745e6308179fde2f0c5b3a79a0a718ab,PennController,35,0,test_conc,NULL,PennController,46,_Header_,End,1732203237000,undefined,1423,enlighten,abstract-positive,abstract,concrete,A,NULL
1732203799,745e6308179fde2f0c5b3a79a0a718ab,PennController,35,0,test_conc,NULL,Selector,unnamed-Selector,Selection,abstract,1732203238924,undefined,1423,enlighten,abstract-positive,abstract,concrete,A,abstract;concrete
1732203799,745e6308179fde2f0c5b3a79a0a718ab,PennController,35,0,test_conc,NULL,PennController,46,_Trial_,End,1732203238925,undefined,1423,enlighten,abstract-positive,abstract,concrete,A,NULL
1732203799,745e6308179fde2f0c5b3a79a0a718ab,PennController,11,0,test_conc,NULL,PennController,22,_Trial_,Start,1732203238925,undefined,2736,sail,concrete-positive,abstract,concrete,A,NULL
1732203799,745e6308179fde2f0c5b3a79a0a718ab,PennController,11,0,test_conc,NULL,PennController,22,_Header_,Start,1732203238925,undefined,2736,sail,concrete-positive,abstract,concrete,A,NULL
1732203799,745e6308179fde2f0c5b3a79a0a718ab,PennController,11,0,test_conc,NULL,PennController,22,_Header_,End,1732203239175,undefined,2736,sail,concrete-positive,abstract,concrete,A,NULL
1732203799,745e6308179fde2f0c5b3a79a0a718ab,PennController,11,0,test_conc,NULL,Selector,unnamed-Selector,Selection,concrete,1732203242412,undefined,2736,sail,concrete-positive,abstract,concrete,A,abstract;concrete
1732203799,745e6308179fde2f0c5b3a79a0a718ab,PennController,11,0,test_conc,NULL,PennController,22,_Trial_,End,1732203242413,undefined,2736,sail,concrete-positive,abstract,concrete,A,NULL
1732203799,745e6308179fde2f0c5b3a79a0a718ab,PennController,43,0,test_conc,NULL,PennController,54,_Trial_,Start,1732203242413,undefined,1231,respect,abstract-positive,abstract,concrete,A,NULL
1732203799,745e6308179fde2f0c5b3a79a0a718ab,PennController,43,0,test_conc,NULL,PennController,54,_Header_,Start,1732203242413,undefined,1231,respect,abstract-positive,abstract,concrete,A,NULL
1732203799,745e6308179fde2f0c5b3a79a0a718ab,PennController,43,0,test_conc,NULL,PennController,54,_Header_,End,1732203242664,undefined,1231,respect,abstract-positive,abstract,concrete,A,NULL
1732203799,745e6308179fde2f0c5b3a79a0a718ab,PennController,43,0,test_conc,NULL,Selector,unnamed-Selector,Selection,abstract,1732203244397,undefined,1231,respect,abstract-positive,abstract,concrete,A,abstract;concrete
1732203799,745e6308179fde2f0c5b3a79a0a718ab,PennController,43,0,test_conc,NULL,PennController,54,_Trial_,End,1732203244397,undefined,1231,respect,abstract-positive,abstract,concrete,A,NULL
1732203799,745e6308179fde2f0c5b3a79a0a718ab,PennController,16,0,test_conc,NULL,PennController,27,_Trial_,Start,1732203244398,undefined,915,murder,concrete-negative,abstract,concrete,A,NULL
1732203799,745e6308179fde2f0c5b3a79a0a718ab,PennController,16,0,test_conc,NULL,PennController,27,_Header_,Start,1732203244398,undefined,915,murder,concrete-negative,abstract,concrete,A,NULL
1732203799,745e6308179fde2f0c5b3a79a0a718ab,PennController,16,0,test_conc,NULL,PennController,27,_Header_,End,1732203244650,undefined,915,murder,concrete-negative,abstract,concrete,A,NULL
1732203799,745e6308179fde2f0c5b3a79a0a718ab,PennController,16,0,test_conc,NULL,Selector,unnamed-Selector,Selection,concrete,1732203246069,undefined,915,murder,concrete-negative,abstract,concrete,A,abstract;concrete
1732203799,745e6308179fde2f0c5b3a79a0a718ab,PennController,16,0,test_conc,NULL,PennController,27,_Trial_,End,1732203246069,undefined,915,murder,concrete-negative,abstract,concrete,A,NULL
1732203799,745e6308179fde2f0c5b3a79a0a718ab,PennController,12,0,test_conc,NULL,PennController,23,_Trial_,Start,1732203246070,undefined,759,smile,concrete-positive,abstract,concrete,A,NULL
1732203799,745e6308179fde2f0c5b3a79a0a718ab,PennController,12,0,test_conc,NULL,PennController,23,_Header_,Start,1732203246070,undefined,759,smile,concrete-positive,abstract,concrete,A,NULL
1732203799,745e6308179fde2f0c5b3a79a0a718ab,PennController,12,0,test_conc,NULL,PennController,23,_Header_,End,1732203246320,undefined,759,smile,concrete-positive,abstract,concrete,A,NULL
1732203799,745e6308179fde2f0c5b3a79a0a718ab,PennController,12,0,test_conc,NULL,Selector,unnamed-Selector,Selection,concrete,1732203247581,undefined,759,smile,concrete-positive,abstract,concrete,A,abstract;concrete
1732203799,745e6308179fde2f0c5b3a79a0a718ab,PennController,12,0,test_conc,NULL,PennController,23,_Trial_,End,1732203247581,undefined,759,smile,concrete-positive,abstract,concrete,A,NULL
1732203799,745e6308179fde2f0c5b3a79a0a718ab,PennController,38,0,test_conc,NULL,PennController,49,_Trial_,Start,1732203247582,undefined,1044,hope,abstract-positive,abstract,concrete,A,NULL
1732203799,745e6308179fde2f0c5b3a79a0a718ab,PennController,38,0,test_conc,NULL,PennController,49,_Header_,Start,1732203247582,undefined,1044,hope,abstract-positive,abstract,concrete,A,NULL
1732203799,745e6308179fde2f0c5b3a79a0a718ab,PennController,38,0,test_conc,NULL,PennController,49,_Header_,End,1732203247833,undefined,1044,hope,abstract-positive,abstract,concrete,A,NULL
1732203799,745e6308179fde2f0c5b3a79a0a718ab,PennController,38,0,test_conc,NULL,Selector,unnamed-Selector,Selection,abstract,1732203249381,undefined,1044,hope,abstract-positive,abstract,concrete,A,abstract;concrete
1732203799,745e6308179fde2f0c5b3a79a0a718ab,PennController,38,0,test_conc,NULL,PennController,49,_Trial_,End,1732203249382,undefined,1044,hope,abstract-positive,abstract,concrete,A,NULL
1732203799,745e6308179fde2f0c5b3a79a0a718ab,PennController,30,0,test_conc,NULL,PennController,41,_Trial_,Start,1732203249382,undefined,1102,resent,abstract-negative,abstract,concrete,A,NULL
1732203799,745e6308179fde2f0c5b3a79a0a718ab,PennController,30,0,test_conc,NULL,PennController,41,_Header_,Start,1732203249382,undefined,1102,resent,abstract-negative,abstract,concrete,A,NULL
1732203799,745e6308179fde2f0c5b3a79a0a718ab,PennController,30,0,test_conc,NULL,PennController,41,_Header_,End,1732203249632,undefined,1102,resent,abstract-negative,abstract,concrete,A,NULL
1732203799,745e6308179fde2f0c5b3a79a0a718ab,PennController,30,0,test_conc,NULL,Selector,unnamed-Selector,Selection,abstract,1732203251237,undefined,1102,resent,abstract-negative,abstract,concrete,A,abstract;concrete
1732203799,745e6308179fde2f0c5b3a79a0a718ab,PennController,30,0,test_conc,NULL,PennController,41,_Trial_,End,1732203251237,undefined,1102,resent,abstract-negative,abstract,concrete,A,NULL
1732203799,745e6308179fde2f0c5b3a79a0a718ab,PennController,7,0,test_conc,NULL,PennController,18,_Trial_,Start,1732203251238,undefined,883,eat,concrete-positive,abstract,concrete,A,NULL
1732203799,745e6308179fde2f0c5b3a79a0a718ab,PennController,7,0,test_conc,NULL,PennController,18,_Header_,Start,1732203251238,undefined,883,eat,concrete-positive,abstract,concrete,A,NULL
1732203799,745e6308179fde2f0c5b3a79a0a718ab,PennController,7,0,test_conc,NULL,PennController,18,_Header_,End,1732203251490,undefined,883,eat,concrete-positive,abstract,concrete,A,NULL
1732203799,745e6308179fde2f0c5b3a79a0a718ab,PennController,7,0,test_conc,NULL,Selector,unnamed-Selector,Selection,concrete,1732203252876,undefined,883,eat,concrete-positive,abstract,concrete,A,abstract;concrete
1732203799,745e6308179fde2f0c5b3a79a0a718ab,PennController,7,0,test_conc,NULL,PennController,18,_Trial_,End,1732203252877,undefined,883,eat,concrete-positive,abstract,concrete,A,NULL
1732203799,745e6308179fde2f0c5b3a79a0a718ab,PennController,37,0,test_conc,NULL,PennController,48,_Trial_,Start,1732203252877,undefined,1090,cherish,abstract-positive,abstract,concrete,A,NULL
1732203799,745e6308179fde2f0c5b3a79a0a718ab,PennController,37,0,test_conc,NULL,PennController,48,_Header_,Start,1732203252877,undefined,1090,cherish,abstract-positive,abstract,concrete,A,NULL
1732203799,745e6308179fde2f0c5b3a79a0a718ab,PennController,37,0,test_conc,NULL,PennController,48,_Header_,End,1732203253130,undefined,1090,cherish,abstract-positive,abstract,concrete,A,NULL
1732203799,745e6308179fde2f0c5b3a79a0a718ab,PennController,37,0,test_conc,NULL,Selector,unnamed-Selector,Selection,abstract,1732203254725,undefined,1090,cherish,abstract-positive,abstract,concrete,A,abstract;concrete
1732203799,745e6308179fde2f0c5b3a79a0a718ab,PennController,37,0,test_conc,NULL,PennController,48,_Trial_,End,1732203254725,undefined,1090,cherish,abstract-positive,abstract,concrete,A,NULL
1732203799,745e6308179fde2f0c5b3a79a0a718ab,PennController,4,0,test_conc,NULL,PennController,15,_Trial_,Start,1732203254726,undefined,925,build,concrete-positive,abstract,concrete,A,NULL
1732203799,745e6308179fde2f0c5b3a79a0a718ab,PennController,4,0,test_conc,NULL,PennController,15,_Header_,Start,1732203254726,undefined,925,build,concrete-positive,abstract,concrete,A,NULL
1732203799,745e6308179fde2f0c5b3a79a0a718ab,PennController,4,0,test_conc,NULL,PennController,15,_Header_,End,1732203254976,undefined,925,build,concrete-positive,abstract,concrete,A,NULL
1732203799,745e6308179fde2f0c5b3a79a0a718ab,PennController,4,0,test_conc,NULL,Selector,unnamed-Selector,Selection,concrete,1732203256405,undefined,925,build,concrete-positive,abstract,concrete,A,abstract;concrete
1732203799,745e6308179fde2f0c5b3a79a0a718ab,PennController,4,0,test_conc,NULL,PennController,15,_Trial_,End,1732203256405,undefined,925,build,concrete-positive,abstract,concrete,A,NULL
1732203799,745e6308179fde2f0c5b3a79a0a718ab,PennController,25,0,test_conc,NULL,PennController,36,_Trial_,Start,1732203256406,undefined,1291,befall,abstract-negative,abstract,concrete,A,NULL
1732203799,745e6308179fde2f0c5b3a79a0a718ab,PennController,25,0,test_conc,NULL,PennController,36,_Header_,Start,1732203256406,undefined,1291,befall,abstract-negative,abstract,concrete,A,NULL
1732203799,745e6308179fde2f0c5b3a79a0a718ab,PennController,25,0,test_conc,NULL,PennController,36,_Header_,End,1732203256658,undefined,1291,befall,abstract-negative,abstract,concrete,A,NULL
1732203799,745e6308179fde2f0c5b3a79a0a718ab,PennController,25,0,test_conc,NULL,Selector,unnamed-Selector,Selection,concrete,1732203258453,undefined,1291,befall,abstract-negative,abstract,concrete,A,abstract;concrete
1732203799,745e6308179fde2f0c5b3a79a0a718ab,PennController,25,0,test_conc,NULL,PennController,36,_Trial_,End,1732203258453,undefined,1291,befall,abstract-negative,abstract,concrete,A,NULL
1732203799,745e6308179fde2f0c5b3a79a0a718ab,PennController,12,0,test_conc,NULL,PennController,23,_Trial_,Start,1732203258454,undefined,873,smile,concrete-positive,abstract,concrete,A,NULL
1732203799,745e6308179fde2f0c5b3a79a0a718ab,PennController,12,0,test_conc,NULL,PennController,23,_Header_,Start,1732203258454,undefined,873,smile,concrete-positive,abstract,concrete,A,NULL
1732203799,745e6308179fde2f0c5b3a79a0a718ab,PennController,12,0,test_conc,NULL,PennController,23,_Header_,End,1732203258704,undefined,873,smile,concrete-positive,abstract,concrete,A,NULL
1732203799,745e6308179fde2f0c5b3a79a0a718ab,PennController,12,0,test_conc,NULL,Selector,unnamed-Selector,Selection,concrete,1732203260076,undefined,873,smile,concrete-positive,abstract,concrete,A,abstract;concrete
1732203799,745e6308179fde2f0c5b3a79a0a718ab,PennController,12,0,test_conc,NULL,PennController,23,_Trial_,End,1732203260077,undefined,873,smile,concrete-positive,abstract,concrete,A,NULL
1732203799,745e6308179fde2f0c5b3a79a0a718ab,PennController,17,0,test_conc,NULL,PennController,28,_Trial_,Start,1732203260078,undefined,1027,puke,concrete-negative,abstract,concrete,A,NULL
1732203799,745e6308179fde2f0c5b3a79a0a718ab,PennController,17,0,test_conc,NULL,PennController,28,_Header_,Start,1732203260078,undefined,1027,puke,concrete-negative,abstract,concrete,A,NULL
1732203799,745e6308179fde2f0c5b3a79a0a718ab,PennController,17,0,test_conc,NULL,PennController,28,_Header_,End,1732203260331,undefined,1027,puke,concrete-negative,abstract,concrete,A,NULL
1732203799,745e6308179fde2f0c5b3a79a0a718ab,PennController,17,0,test_conc,NULL,Selector,unnamed-Selector,Selection,concrete,1732203261861,undefined,1027,puke,concrete-negative,abstract,concrete,A,abstract;concrete
1732203799,745e6308179fde2f0c5b3a79a0a718ab,PennController,17,0,test_conc,NULL,PennController,28,_Trial_,End,1732203261861,undefined,1027,puke,concrete-negative,abstract,concrete,A,NULL
1732203799,745e6308179fde2f0c5b3a79a0a718ab,PennController,36,0,test_conc,NULL,PennController,47,_Trial_,Start,1732203261862,undefined,1546,admired,abstract-positive,abstract,concrete,A,NULL
1732203799,745e6308179fde2f0c5b3a79a0a718ab,PennController,36,0,test_conc,NULL,PennController,47,_Header_,Start,1732203261862,undefined,1546,admired,abstract-positive,abstract,concrete,A,NULL
1732203799,745e6308179fde2f0c5b3a79a0a718ab,PennController,36,0,test_conc,NULL,PennController,47,_Header_,End,1732203262115,undefined,1546,admired,abstract-positive,abstract,concrete,A,NULL
1732203799,745e6308179fde2f0c5b3a79a0a718ab,PennController,36,0,test_conc,NULL,Selector,unnamed-Selector,Selection,abstract,1732203264165,undefined,1546,admired,abstract-positive,abstract,concrete,A,abstract;concrete
1732203799,745e6308179fde2f0c5b3a79a0a718ab,PennController,36,0,test_conc,NULL,PennController,47,_Trial_,End,1732203264165,undefined,1546,admired,abstract-positive,abstract,concrete,A,NULL
1732203799,745e6308179fde2f0c5b3a79a0a718ab,PennController,39,0,test_conc,NULL,PennController,50,_Trial_,Start,1732203264166,undefined,989,believe,abstract-positive,abstract,concrete,A,NULL
1732203799,745e6308179fde2f0c5b3a79a0a718ab,PennController,39,0,test_conc,NULL,PennController,50,_Header_,Start,1732203264166,undefined,989,believe,abstract-positive,abstract,concrete,A,NULL
1732203799,745e6308179fde2f0c5b3a79a0a718ab,PennController,39,0,test_conc,NULL,PennController,50,_Header_,End,1732203264418,undefined,989,believe,abstract-positive,abstract,concrete,A,NULL
1732203799,745e6308179fde2f0c5b3a79a0a718ab,PennController,39,0,test_conc,NULL,Selector,unnamed-Selector,Selection,concrete,1732203265909,undefined,989,believe,abstract-positive,abstract,concrete,A,abstract;concrete
1732203799,745e6308179fde2f0c5b3a79a0a718ab,PennController,39,0,test_conc,NULL,PennController,50,_Trial_,End,1732203265909,undefined,989,believe,abstract-positive,abstract,concrete,A,NULL
1732203799,745e6308179fde2f0c5b3a79a0a718ab,PennController,15,0,test_conc,NULL,PennController,26,_Trial_,Start,1732203265910,undefined,741,kill,concrete-negative,abstract,concrete,A,NULL
1732203799,745e6308179fde2f0c5b3a79a0a718ab,PennController,15,0,test_conc,NULL,PennController,26,_Header_,Start,1732203265910,undefined,741,kill,concrete-negative,abstract,concrete,A,NULL
1732203799,745e6308179fde2f0c5b3a79a0a718ab,PennController,15,0,test_conc,NULL,PennController,26,_Header_,End,1732203266161,undefined,741,kill,concrete-negative,abstract,concrete,A,NULL
1732203799,745e6308179fde2f0c5b3a79a0a718ab,PennController,15,0,test_conc,NULL,Selector,unnamed-Selector,Selection,concrete,1732203267404,undefined,741,kill,concrete-negative,abstract,concrete,A,abstract;concrete
1732203799,745e6308179fde2f0c5b3a79a0a718ab,PennController,15,0,test_conc,NULL,PennController,26,_Trial_,End,1732203267405,undefined,741,kill,concrete-negative,abstract,concrete,A,NULL
1732203799,745e6308179fde2f0c5b3a79a0a718ab,PennController,28,0,test_conc,NULL,PennController,39,_Trial_,Start,1732203267406,undefined,4053,loathe,abstract-negative,abstract,concrete,A,NULL
1732203799,745e6308179fde2f0c5b3a79a0a718ab,PennController,28,0,test_conc,NULL,PennController,39,_Header_,Start,1732203267406,undefined,4053,loathe,abstract-negative,abstract,concrete,A,NULL
1732203799,745e6308179fde2f0c5b3a79a0a718ab,PennController,28,0,test_conc,NULL,PennController,39,_Header_,End,1732203267657,undefined,4053,loathe,abstract-negative,abstract,concrete,A,NULL
1732203799,745e6308179fde2f0c5b3a79a0a718ab,PennController,28,0,test_conc,NULL,Selector,unnamed-Selector,Selection,concrete,1732203272213,undefined,4053,loathe,abstract-negative,abstract,concrete,A,abstract;concrete
1732203799,745e6308179fde2f0c5b3a79a0a718ab,PennController,28,0,test_conc,NULL,PennController,39,_Trial_,End,1732203272214,undefined,4053,loathe,abstract-negative,abstract,concrete,A,NULL
1732203799,745e6308179fde2f0c5b3a79a0a718ab,PennController,4,0,test_conc,NULL,PennController,15,_Trial_,Start,1732203272214,undefined,1489,build,concrete-positive,abstract,concrete,A,NULL
1732203799,745e6308179fde2f0c5b3a79a0a718ab,PennController,4,0,test_conc,NULL,PennController,15,_Header_,Start,1732203272214,undefined,1489,build,concrete-positive,abstract,concrete,A,NULL
1732203799,745e6308179fde2f0c5b3a79a0a718ab,PennController,4,0,test_conc,NULL,PennController,15,_Header_,End,1732203272469,undefined,1489,build,concrete-positive,abstract,concrete,A,NULL
1732203799,745e6308179fde2f0c5b3a79a0a718ab,PennController,4,0,test_conc,NULL,Selector,unnamed-Selector,Selection,concrete,1732203274461,undefined,1489,build,concrete-positive,abstract,concrete,A,abstract;concrete
1732203799,745e6308179fde2f0c5b3a79a0a718ab,PennController,4,0,test_conc,NULL,PennController,15,_Trial_,End,1732203274461,undefined,1489,build,concrete-positive,abstract,concrete,A,NULL
1732203799,745e6308179fde2f0c5b3a79a0a718ab,PennController,23,0,test_conc,NULL,PennController,34,_Trial_,Start,1732203274462,undefined,677,vomit,concrete-negative,abstract,concrete,A,NULL
1732203799,745e6308179fde2f0c5b3a79a0a718ab,PennController,23,0,test_conc,NULL,PennController,34,_Header_,Start,1732203274462,undefined,677,vomit,concrete-negative,abstract,concrete,A,NULL
1732203799,745e6308179fde2f0c5b3a79a0a718ab,PennController,23,0,test_conc,NULL,PennController,34,_Header_,End,1732203274715,undefined,677,vomit,concrete-negative,abstract,concrete,A,NULL
1732203799,745e6308179fde2f0c5b3a79a0a718ab,PennController,23,0,test_conc,NULL,Selector,unnamed-Selector,Selection,concrete,1732203275892,undefined,677,vomit,concrete-negative,abstract,concrete,A,abstract;concrete
1732203799,745e6308179fde2f0c5b3a79a0a718ab,PennController,23,0,test_conc,NULL,PennController,34,_Trial_,End,1732203275893,undefined,677,vomit,concrete-negative,abstract,concrete,A,NULL
1732203799,745e6308179fde2f0c5b3a79a0a718ab,PennController,42,0,test_conc,NULL,PennController,53,_Trial_,Start,1732203275894,undefined,1109,justify,abstract-positive,abstract,concrete,A,NULL
1732203799,745e6308179fde2f0c5b3a79a0a718ab,PennController,42,0,test_conc,NULL,PennController,53,_Header_,Start,1732203275894,undefined,1109,justify,abstract-positive,abstract,concrete,A,NULL
1732203799,745e6308179fde2f0c5b3a79a0a718ab,PennController,42,0,test_conc,NULL,PennController,53,_Header_,End,1732203276145,undefined,1109,justify,abstract-positive,abstract,concrete,A,NULL
1732203799,745e6308179fde2f0c5b3a79a0a718ab,PennController,42,0,test_conc,NULL,Selector,unnamed-Selector,Selection,abstract,1732203277757,undefined,1109,justify,abstract-positive,abstract,concrete,A,abstract;concrete
1732203799,745e6308179fde2f0c5b3a79a0a718ab,PennController,42,0,test_conc,NULL,PennController,53,_Trial_,End,1732203277757,undefined,1109,justify,abstract-positive,abstract,concrete,A,NULL
1732203799,745e6308179fde2f0c5b3a79a0a718ab,PennController,22,0,test_conc,NULL,PennController,33,_Trial_,Start,1732203277758,undefined,912,stab,concrete-negative,abstract,concrete,A,NULL
1732203799,745e6308179fde2f0c5b3a79a0a718ab,PennController,22,0,test_conc,NULL,PennController,33,_Header_,Start,1732203277758,undefined,912,stab,concrete-negative,abstract,concrete,A,NULL
1732203799,745e6308179fde2f0c5b3a79a0a718ab,PennController,22,0,test_conc,NULL,PennController,33,_Header_,End,1732203278008,undefined,912,stab,concrete-negative,abstract,concrete,A,NULL
1732203799,745e6308179fde2f0c5b3a79a0a718ab,PennController,22,0,test_conc,NULL,Selector,unnamed-Selector,Selection,concrete,1732203279420,undefined,912,stab,concrete-negative,abstract,concrete,A,abstract;concrete
1732203799,745e6308179fde2f0c5b3a79a0a718ab,PennController,22,0,test_conc,NULL,PennController,33,_Trial_,End,1732203279421,undefined,912,stab,concrete-negative,abstract,concrete,A,NULL
1732203799,745e6308179fde2f0c5b3a79a0a718ab,PennController,6,0,test_conc,NULL,PennController,17,_Trial_,Start,1732203279421,undefined,1085,cuddle,concrete-positive,abstract,concrete,A,NULL
1732203799,745e6308179fde2f0c5b3a79a0a718ab,PennController,6,0,test_conc,NULL,PennController,17,_Header_,Start,1732203279421,undefined,1085,cuddle,concrete-positive,abstract,concrete,A,NULL
1732203799,745e6308179fde2f0c5b3a79a0a718ab,PennController,6,0,test_conc,NULL,PennController,17,_Header_,End,1732203279673,undefined,1085,cuddle,concrete-positive,abstract,concrete,A,NULL
1732203799,745e6308179fde2f0c5b3a79a0a718ab,PennController,6,0,test_conc,NULL,Selector,unnamed-Selector,Selection,concrete,1732203281261,undefined,1085,cuddle,concrete-positive,abstract,concrete,A,abstract;concrete
1732203799,745e6308179fde2f0c5b3a79a0a718ab,PennController,6,0,test_conc,NULL,PennController,17,_Trial_,End,1732203281262,undefined,1085,cuddle,concrete-positive,abstract,concrete,A,NULL
1732203799,745e6308179fde2f0c5b3a79a0a718ab,PennController,16,0,test_conc,NULL,PennController,27,_Trial_,Start,1732203281262,undefined,865,murder,concrete-negative,abstract,concrete,A,NULL
1732203799,745e6308179fde2f0c5b3a79a0a718ab,PennController,16,0,test_conc,NULL,PennController,27,_Header_,Start,1732203281262,undefined,865,murder,concrete-negative,abstract,concrete,A,NULL
1732203799,745e6308179fde2f0c5b3a79a0a718ab,PennController,16,0,test_conc,NULL,PennController,27,_Header_,End,1732203281515,undefined,865,murder,concrete-negative,abstract,concrete,A,NULL
1732203799,745e6308179fde2f0c5b3a79a0a718ab,PennController,16,0,test_conc,NULL,Selector,unnamed-Selector,Selection,concrete,1732203282884,undefined,865,murder,concrete-negative,abstract,concrete,A,abstract;concrete
1732203799,745e6308179fde2f0c5b3a79a0a718ab,PennController,16,0,test_conc,NULL,PennController,27,_Trial_,End,1732203282885,undefined,865,murder,concrete-negative,abstract,concrete,A,NULL
1732203799,745e6308179fde2f0c5b3a79a0a718ab,PennController,11,0,test_conc,NULL,PennController,22,_Trial_,Start,1732203282886,undefined,1683,sail,concrete-positive,abstract,concrete,A,NULL
1732203799,745e6308179fde2f0c5b3a79a0a718ab,PennController,11,0,test_conc,NULL,PennController,22,_Header_,Start,1732203282886,undefined,1683,sail,concrete-positive,abstract,concrete,A,NULL
1732203799,745e6308179fde2f0c5b3a79a0a718ab,PennController,11,0,test_conc,NULL,PennController,22,_Header_,End,1732203283138,undefined,1683,sail,concrete-positive,abstract,concrete,A,NULL
1732203799,745e6308179fde2f0c5b3a79a0a718ab,PennController,11,0,test_conc,NULL,Selector,unnamed-Selector,Selection,concrete,1732203285325,undefined,1683,sail,concrete-positive,abstract,concrete,A,abstract;concrete
1732203799,745e6308179fde2f0c5b3a79a0a718ab,PennController,11,0,test_conc,NULL,PennController,22,_Trial_,End,1732203285325,undefined,1683,sail,concrete-positive,abstract,concrete,A,NULL
1732203799,745e6308179fde2f0c5b3a79a0a718ab,PennController,24,0,test_conc,NULL,PennController,35,_Trial_,Start,1732203285326,undefined,2003,annoy,abstract-negative,abstract,concrete,A,NULL
1732203799,745e6308179fde2f0c5b3a79a0a718ab,PennController,24,0,test_conc,NULL,PennController,35,_Header_,Start,1732203285326,undefined,2003,annoy,abstract-negative,abstract,concrete,A,NULL
1732203799,745e6308179fde2f0c5b3a79a0a718ab,PennController,24,0,test_conc,NULL,PennController,35,_Header_,End,1732203285579,undefined,2003,annoy,abstract-negative,abstract,concrete,A,NULL
1732203799,745e6308179fde2f0c5b3a79a0a718ab,PennController,24,0,test_conc,NULL,Selector,unnamed-Selector,Selection,abstract,1732203288085,undefined,2003,annoy,abstract-negative,abstract,concrete,A,abstract;concrete
1732203799,745e6308179fde2f0c5b3a79a0a718ab,PennController,24,0,test_conc,NULL,PennController,35,_Trial_,End,1732203288085,undefined,2003,annoy,abstract-negative,abstract,concrete,A,NULL
1732203799,745e6308179fde2f0c5b3a79a0a718ab,PennController,9,0,test_conc,NULL,PennController,20,_Trial_,Start,1732203288086,undefined,1331,kiss,concrete-positive,abstract,concrete,A,NULL
1732203799,745e6308179fde2f0c5b3a79a0a718ab,PennController,9,0,test_conc,NULL,PennController,20,_Header_,Start,1732203288086,undefined,1331,kiss,concrete-positive,abstract,concrete,A,NULL
1732203799,745e6308179fde2f0c5b3a79a0a718ab,PennController,9,0,test_conc,NULL,PennController,20,_Header_,End,1732203288338,undefined,1331,kiss,concrete-positive,abstract,concrete,A,NULL
1732203799,745e6308179fde2f0c5b3a79a0a718ab,PennController,9,0,test_conc,NULL,Selector,unnamed-Selector,Selection,concrete,1732203290173,undefined,1331,kiss,concrete-positive,abstract,concrete,A,abstract;concrete
1732203799,745e6308179fde2f0c5b3a79a0a718ab,PennController,9,0,test_conc,NULL,PennController,20,_Trial_,End,1732203290173,undefined,1331,kiss,concrete-positive,abstract,concrete,A,NULL
1732203799,745e6308179fde2f0c5b3a79a0a718ab,PennController,43,0,test_conc,NULL,PennController,54,_Trial_,Start,1732203290174,undefined,858,respect,abstract-positive,abstract,concrete,A,NULL
1732203799,745e6308179fde2f0c5b3a79a0a718ab,PennController,43,0,test_conc,NULL,PennController,54,_Header_,Start,1732203290174,undefined,858,respect,abstract-positive,abstract,concrete,A,NULL
1732203799,745e6308179fde2f0c5b3a79a0a718ab,PennController,43,0,test_conc,NULL,PennController,54,_Header_,End,1732203290426,undefined,858,respect,abstract-positive,abstract,concrete,A,NULL
1732203799,745e6308179fde2f0c5b3a79a0a718ab,PennController,43,0,test_conc,NULL,Selector,unnamed-Selector,Selection,abstract,1732203291788,undefined,858,respect,abstract-positive,abstract,concrete,A,abstract;concrete
1732203799,745e6308179fde2f0c5b3a79a0a718ab,PennController,43,0,test_conc,NULL,PennController,54,_Trial_,End,1732203291789,undefined,858,respect,abstract-positive,abstract,concrete,A,NULL
1732203799,745e6308179fde2f0c5b3a79a0a718ab,PennController,13,0,test_conc,NULL,PennController,24,_Trial_,Start,1732203291789,undefined,908,swing,concrete-positive,abstract,concrete,A,NULL
1732203799,745e6308179fde2f0c5b3a79a0a718ab,PennController,13,0,test_conc,NULL,PennController,24,_Header_,Start,1732203291789,undefined,908,swing,concrete-positive,abstract,concrete,A,NULL
1732203799,745e6308179fde2f0c5b3a79a0a718ab,PennController,13,0,test_conc,NULL,PennController,24,_Header_,End,1732203292043,undefined,908,swing,concrete-positive,abstract,concrete,A,NULL
1732203799,745e6308179fde2f0c5b3a79a0a718ab,PennController,13,0,test_conc,NULL,Selector,unnamed-Selector,Selection,concrete,1732203293453,undefined,908,swing,concrete-positive,abstract,concrete,A,abstract;concrete
1732203799,745e6308179fde2f0c5b3a79a0a718ab,PennController,13,0,test_conc,NULL,PennController,24,_Trial_,End,1732203293453,undefined,908,swing,concrete-positive,abstract,concrete,A,NULL
1732203799,745e6308179fde2f0c5b3a79a0a718ab,PennController,30,0,test_conc,NULL,PennController,41,_Trial_,Start,1732203293454,undefined,1199,resent,abstract-negative,abstract,concrete,A,NULL
1732203799,745e6308179fde2f0c5b3a79a0a718ab,PennController,30,0,test_conc,NULL,PennController,41,_Header_,Start,1732203293454,undefined,1199,resent,abstract-negative,abstract,concrete,A,NULL
1732203799,745e6308179fde2f0c5b3a79a0a718ab,PennController,30,0,test_conc,NULL,PennController,41,_Header_,End,1732203293704,undefined,1199,resent,abstract-negative,abstract,concrete,A,NULL
1732203799,745e6308179fde2f0c5b3a79a0a718ab,PennController,30,0,test_conc,NULL,Selector,unnamed-Selector,Selection,abstract,1732203295405,undefined,1199,resent,abstract-negative,abstract,concrete,A,abstract;concrete
1732203799,745e6308179fde2f0c5b3a79a0a718ab,PennController,30,0,test_conc,NULL,PennController,41,_Trial_,End,1732203295405,undefined,1199,resent,abstract-negative,abstract,concrete,A,NULL
1732203799,745e6308179fde2f0c5b3a79a0a718ab,PennController,5,0,test_conc,NULL,PennController,16,_Trial_,Start,1732203295406,undefined,719,cook,concrete-positive,abstract,concrete,A,NULL
1732203799,745e6308179fde2f0c5b3a79a0a718ab,PennController,5,0,test_conc,NULL,PennController,16,_Header_,Start,1732203295406,undefined,719,cook,concrete-positive,abstract,concrete,A,NULL
1732203799,745e6308179fde2f0c5b3a79a0a718ab,PennController,5,0,test_conc,NULL,PennController,16,_Header_,End,1732203295658,undefined,719,cook,concrete-positive,abstract,concrete,A,NULL
1732203799,745e6308179fde2f0c5b3a79a0a718ab,PennController,5,0,test_conc,NULL,Selector,unnamed-Selector,Selection,concrete,1732203296877,undefined,719,cook,concrete-positive,abstract,concrete,A,abstract;concrete
1732203799,745e6308179fde2f0c5b3a79a0a718ab,PennController,5,0,test_conc,NULL,PennController,16,_Trial_,End,1732203296877,undefined,719,cook,concrete-positive,abstract,concrete,A,NULL
1732203799,745e6308179fde2f0c5b3a79a0a718ab,PennController,21,0,test_conc,NULL,PennController,32,_Trial_,Start,1732203296878,undefined,887,spit,concrete-negative,abstract,concrete,A,NULL
1732203799,745e6308179fde2f0c5b3a79a0a718ab,PennController,21,0,test_conc,NULL,PennController,32,_Header_,Start,1732203296878,undefined,887,spit,concrete-negative,abstract,concrete,A,NULL
1732203799,745e6308179fde2f0c5b3a79a0a718ab,PennController,21,0,test_conc,NULL,PennController,32,_Header_,End,1732203297128,undefined,887,spit,concrete-negative,abstract,concrete,A,NULL
1732203799,745e6308179fde2f0c5b3a79a0a718ab,PennController,21,0,test_conc,NULL,Selector,unnamed-Selector,Selection,concrete,1732203298517,undefined,887,spit,concrete-negative,abstract,concrete,A,abstract;concrete
1732203799,745e6308179fde2f0c5b3a79a0a718ab,PennController,21,0,test_conc,NULL,PennController,32,_Trial_,End,1732203298517,undefined,887,spit,concrete-negative,abstract,concrete,A,NULL
1732203799,745e6308179fde2f0c5b3a79a0a718ab,PennController,31,0,test_conc,NULL,PennController,42,_Trial_,Start,1732203298518,undefined,3782,scorn,abstract-negative,abstract,concrete,A,NULL
1732203799,745e6308179fde2f0c5b3a79a0a718ab,PennController,31,0,test_conc,NULL,PennController,42,_Header_,Start,1732203298518,undefined,3782,scorn,abstract-negative,abstract,concrete,A,NULL
1732203799,745e6308179fde2f0c5b3a79a0a718ab,PennController,31,0,test_conc,NULL,PennController,42,_Header_,End,1732203298770,undefined,3782,scorn,abstract-negative,abstract,concrete,A,NULL
1732203799,745e6308179fde2f0c5b3a79a0a718ab,PennController,31,0,test_conc,NULL,Selector,unnamed-Selector,Selection,concrete,1732203303053,undefined,3782,scorn,abstract-negative,abstract,concrete,A,abstract;concrete
1732203799,745e6308179fde2f0c5b3a79a0a718ab,PennController,31,0,test_conc,NULL,PennController,42,_Trial_,End,1732203303053,undefined,3782,scorn,abstract-negative,abstract,concrete,A,NULL
1732203799,745e6308179fde2f0c5b3a79a0a718ab,PennController,32,0,test_conc,NULL,PennController,43,_Trial_,Start,1732203303054,undefined,4698,violate,abstract-negative,abstract,concrete,A,NULL
1732203799,745e6308179fde2f0c5b3a79a0a718ab,PennController,32,0,test_conc,NULL,PennController,43,_Header_,Start,1732203303054,undefined,4698,violate,abstract-negative,abstract,concrete,A,NULL
1732203799,745e6308179fde2f0c5b3a79a0a718ab,PennController,32,0,test_conc,NULL,PennController,43,_Header_,End,1732203303307,undefined,4698,violate,abstract-negative,abstract,concrete,A,NULL
1732203799,745e6308179fde2f0c5b3a79a0a718ab,PennController,32,0,test_conc,NULL,Selector,unnamed-Selector,Selection,abstract,1732203308509,undefined,4698,violate,abstract-negative,abstract,concrete,A,abstract;concrete
1732203799,745e6308179fde2f0c5b3a79a0a718ab,PennController,32,0,test_conc,NULL,PennController,43,_Trial_,End,1732203308509,undefined,4698,violate,abstract-negative,abstract,concrete,A,NULL
1732203799,745e6308179fde2f0c5b3a79a0a718ab,PennController,8,0,test_conc,NULL,PennController,19,_Trial_,Start,1732203308510,undefined,820,hug,concrete-positive,abstract,concrete,A,NULL
1732203799,745e6308179fde2f0c5b3a79a0a718ab,PennController,8,0,test_conc,NULL,PennController,19,_Header_,Start,1732203308510,undefined,820,hug,concrete-positive,abstract,concrete,A,NULL
1732203799,745e6308179fde2f0c5b3a79a0a718ab,PennController,8,0,test_conc,NULL,PennController,19,_Header_,End,1732203308763,undefined,820,hug,concrete-positive,abstract,concrete,A,NULL
1732203799,745e6308179fde2f0c5b3a79a0a718ab,PennController,8,0,test_conc,NULL,Selector,unnamed-Selector,Selection,concrete,1732203310085,undefined,820,hug,concrete-positive,abstract,concrete,A,abstract;concrete
1732203799,745e6308179fde2f0c5b3a79a0a718ab,PennController,8,0,test_conc,NULL,PennController,19,_Trial_,End,1732203310085,undefined,820,hug,concrete-positive,abstract,concrete,A,NULL
1732203799,745e6308179fde2f0c5b3a79a0a718ab,PennController,19,0,test_conc,NULL,PennController,30,_Trial_,Start,1732203310086,undefined,900,slap,concrete-negative,abstract,concrete,A,NULL
1732203799,745e6308179fde2f0c5b3a79a0a718ab,PennController,19,0,test_conc,NULL,PennController,30,_Header_,Start,1732203310086,undefined,900,slap,concrete-negative,abstract,concrete,A,NULL
1732203799,745e6308179fde2f0c5b3a79a0a718ab,PennController,19,0,test_conc,NULL,PennController,30,_Header_,End,1732203310337,undefined,900,slap,concrete-negative,abstract,concrete,A,NULL
1732203799,745e6308179fde2f0c5b3a79a0a718ab,PennController,19,0,test_conc,NULL,Selector,unnamed-Selector,Selection,concrete,1732203311741,undefined,900,slap,concrete-negative,abstract,concrete,A,abstract;concrete
1732203799,745e6308179fde2f0c5b3a79a0a718ab,PennController,19,0,test_conc,NULL,PennController,30,_Trial_,End,1732203311741,undefined,900,slap,concrete-negative,abstract,concrete,A,NULL
1732203799,745e6308179fde2f0c5b3a79a0a718ab,PennController,7,0,test_conc,NULL,PennController,18,_Trial_,Start,1732203311742,undefined,939,eat,concrete-positive,abstract,concrete,A,NULL
1732203799,745e6308179fde2f0c5b3a79a0a718ab,PennController,7,0,test_conc,NULL,PennController,18,_Header_,Start,1732203311742,undefined,939,eat,concrete-positive,abstract,concrete,A,NULL
1732203799,745e6308179fde2f0c5b3a79a0a718ab,PennController,7,0,test_conc,NULL,PennController,18,_Header_,End,1732203311994,undefined,939,eat,concrete-positive,abstract,concrete,A,NULL
1732203799,745e6308179fde2f0c5b3a79a0a718ab,PennController,7,0,test_conc,NULL,Selector,unnamed-Selector,Selection,concrete,1732203313437,undefined,939,eat,concrete-positive,abstract,concrete,A,abstract;concrete
1732203799,745e6308179fde2f0c5b3a79a0a718ab,PennController,7,0,test_conc,NULL,PennController,18,_Trial_,End,1732203313437,undefined,939,eat,concrete-positive,abstract,concrete,A,NULL
1732203799,745e6308179fde2f0c5b3a79a0a718ab,PennController,26,0,test_conc,NULL,PennController,37,_Trial_,Start,1732203313438,undefined,3730,criticize,abstract-negative,abstract,concrete,A,NULL
1732203799,745e6308179fde2f0c5b3a79a0a718ab,PennController,26,0,test_conc,NULL,PennController,37,_Header_,Start,1732203313438,undefined,3730,criticize,abstract-negative,abstract,concrete,A,NULL
1732203799,745e6308179fde2f0c5b3a79a0a718ab,PennController,26,0,test_conc,NULL,PennController,37,_Header_,End,1732203313690,undefined,3730,criticize,abstract-negative,abstract,concrete,A,NULL
1732203799,745e6308179fde2f0c5b3a79a0a718ab,PennController,26,0,test_conc,NULL,Selector,unnamed-Selector,Selection,abstract,1732203317925,undefined,3730,criticize,abstract-negative,abstract,concrete,A,abstract;concrete
1732203799,745e6308179fde2f0c5b3a79a0a718ab,PennController,26,0,test_conc,NULL,PennController,37,_Trial_,End,1732203317925,undefined,3730,criticize,abstract-negative,abstract,concrete,A,NULL
1732203799,745e6308179fde2f0c5b3a79a0a718ab,PennController,40,0,test_conc,NULL,PennController,51,_Trial_,Start,1732203317926,undefined,1063,fulfill,abstract-positive,abstract,concrete,A,NULL
1732203799,745e6308179fde2f0c5b3a79a0a718ab,PennController,40,0,test_conc,NULL,PennController,51,_Header_,Start,1732203317926,undefined,1063,fulfill,abstract-positive,abstract,concrete,A,NULL
1732203799,745e6308179fde2f0c5b3a79a0a718ab,PennController,40,0,test_conc,NULL,PennController,51,_Header_,End,1732203318177,undefined,1063,fulfill,abstract-positive,abstract,concrete,A,NULL
1732203799,745e6308179fde2f0c5b3a79a0a718ab,PennController,40,0,test_conc,NULL,Selector,unnamed-Selector,Selection,abstract,1732203319741,undefined,1063,fulfill,abstract-positive,abstract,concrete,A,abstract;concrete
1732203799,745e6308179fde2f0c5b3a79a0a718ab,PennController,40,0,test_conc,NULL,PennController,51,_Trial_,End,1732203319741,undefined,1063,fulfill,abstract-positive,abstract,concrete,A,NULL
1732203799,745e6308179fde2f0c5b3a79a0a718ab,PennController,27,0,test_conc,NULL,PennController,38,_Trial_,Start,1732203319742,undefined,1058,exploit,abstract-negative,abstract,concrete,A,NULL
1732203799,745e6308179fde2f0c5b3a79a0a718ab,PennController,27,0,test_conc,NULL,PennController,38,_Header_,Start,1732203319742,undefined,1058,exploit,abstract-negative,abstract,concrete,A,NULL
1732203799,745e6308179fde2f0c5b3a79a0a718ab,PennController,27,0,test_conc,NULL,PennController,38,_Header_,End,1732203319995,undefined,1058,exploit,abstract-negative,abstract,concrete,A,NULL
1732203799,745e6308179fde2f0c5b3a79a0a718ab,PennController,27,0,test_conc,NULL,Selector,unnamed-Selector,Selection,abstract,1732203321557,undefined,1058,exploit,abstract-negative,abstract,concrete,A,abstract;concrete
1732203799,745e6308179fde2f0c5b3a79a0a718ab,PennController,27,0,test_conc,NULL,PennController,38,_Trial_,End,1732203321558,undefined,1058,exploit,abstract-negative,abstract,concrete,A,NULL
1732203799,745e6308179fde2f0c5b3a79a0a718ab,PennController,34,0,test_conc,NULL,PennController,45,_Trial_,Start,1732203321558,undefined,1734,imagine,abstract-positive,abstract,concrete,A,NULL
1732203799,745e6308179fde2f0c5b3a79a0a718ab,PennController,34,0,test_conc,NULL,PennController,45,_Header_,Start,1732203321558,undefined,1734,imagine,abstract-positive,abstract,concrete,A,NULL
1732203799,745e6308179fde2f0c5b3a79a0a718ab,PennController,34,0,test_conc,NULL,PennController,45,_Header_,End,1732203321808,undefined,1734,imagine,abstract-positive,abstract,concrete,A,NULL
1732203799,745e6308179fde2f0c5b3a79a0a718ab,PennController,34,0,test_conc,NULL,Selector,unnamed-Selector,Selection,abstract,1732203324045,undefined,1734,imagine,abstract-positive,abstract,concrete,A,abstract;concrete
1732203799,745e6308179fde2f0c5b3a79a0a718ab,PennController,34,0,test_conc,NULL,PennController,45,_Trial_,End,1732203324045,undefined,1734,imagine,abstract-positive,abstract,concrete,A,NULL
1732203799,745e6308179fde2f0c5b3a79a0a718ab,PennController,35,0,test_conc,NULL,PennController,46,_Trial_,Start,1732203324046,undefined,2871,enlighten,abstract-positive,abstract,concrete,A,NULL
1732203799,745e6308179fde2f0c5b3a79a0a718ab,PennController,35,0,test_conc,NULL,PennController,46,_Header_,Start,1732203324046,undefined,2871,enlighten,abstract-positive,abstract,concrete,A,NULL
1732203799,745e6308179fde2f0c5b3a79a0a718ab,PennController,35,0,test_conc,NULL,PennController,46,_Header_,End,1732203324296,undefined,2871,enlighten,abstract-positive,abstract,concrete,A,NULL
1732203799,745e6308179fde2f0c5b3a79a0a718ab,PennController,35,0,test_conc,NULL,Selector,unnamed-Selector,Selection,abstract,1732203327669,undefined,2871,enlighten,abstract-positive,abstract,concrete,A,abstract;concrete
1732203799,745e6308179fde2f0c5b3a79a0a718ab,PennController,35,0,test_conc,NULL,PennController,46,_Trial_,End,1732203327669,undefined,2871,enlighten,abstract-positive,abstract,concrete,A,NULL
1732203799,745e6308179fde2f0c5b3a79a0a718ab,PennController,41,0,test_conc,NULL,PennController,52,_Trial_,Start,1732203327670,undefined,1286,esteem,abstract-positive,abstract,concrete,A,NULL
1732203799,745e6308179fde2f0c5b3a79a0a718ab,PennController,41,0,test_conc,NULL,PennController,52,_Header_,Start,1732203327670,undefined,1286,esteem,abstract-positive,abstract,concrete,A,NULL
1732203799,745e6308179fde2f0c5b3a79a0a718ab,PennController,41,0,test_conc,NULL,PennController,52,_Header_,End,1732203327923,undefined,1286,esteem,abstract-positive,abstract,concrete,A,NULL
1732203799,745e6308179fde2f0c5b3a79a0a718ab,PennController,41,0,test_conc,NULL,Selector,unnamed-Selector,Selection,abstract,1732203329709,undefined,1286,esteem,abstract-positive,abstract,concrete,A,abstract;concrete
1732203799,745e6308179fde2f0c5b3a79a0a718ab,PennController,41,0,test_conc,NULL,PennController,52,_Trial_,End,1732203329709,undefined,1286,esteem,abstract-positive,abstract,concrete,A,NULL
1732203799,745e6308179fde2f0c5b3a79a0a718ab,PennController,10,0,test_conc,NULL,PennController,21,_Trial_,Start,1732203329710,undefined,823,running,concrete-positive,abstract,concrete,A,NULL
1732203799,745e6308179fde2f0c5b3a79a0a718ab,PennController,10,0,test_conc,NULL,PennController,21,_Header_,Start,1732203329710,undefined,823,running,concrete-positive,abstract,concrete,A,NULL
1732203799,745e6308179fde2f0c5b3a79a0a718ab,PennController,10,0,test_conc,NULL,PennController,21,_Header_,End,1732203329960,undefined,823,running,concrete-positive,abstract,concrete,A,NULL
1732203799,745e6308179fde2f0c5b3a79a0a718ab,PennController,10,0,test_conc,NULL,Selector,unnamed-Selector,Selection,concrete,1732203331285,undefined,823,running,concrete-positive,abstract,concrete,A,abstract;concrete
1732203799,745e6308179fde2f0c5b3a79a0a718ab,PennController,10,0,test_conc,NULL,PennController,21,_Trial_,End,1732203331285,undefined,823,running,concrete-positive,abstract,concrete,A,NULL
1732203799,745e6308179fde2f0c5b3a79a0a718ab,PennController,20,0,test_conc,NULL,PennController,31,_Trial_,Start,1732203331286,undefined,873,smack,concrete-negative,abstract,concrete,A,NULL
1732203799,745e6308179fde2f0c5b3a79a0a718ab,PennController,20,0,test_conc,NULL,PennController,31,_Header_,Start,1732203331286,undefined,873,smack,concrete-negative,abstract,concrete,A,NULL
1732203799,745e6308179fde2f0c5b3a79a0a718ab,PennController,20,0,test_conc,NULL,PennController,31,_Header_,End,1732203331536,undefined,873,smack,concrete-negative,abstract,concrete,A,NULL
1732203799,745e6308179fde2f0c5b3a79a0a718ab,PennController,20,0,test_conc,NULL,Selector,unnamed-Selector,Selection,concrete,1732203332909,undefined,873,smack,concrete-negative,abstract,concrete,A,abstract;concrete
1732203799,745e6308179fde2f0c5b3a79a0a718ab,PennController,20,0,test_conc,NULL,PennController,31,_Trial_,End,1732203332909,undefined,873,smack,concrete-negative,abstract,concrete,A,NULL
1732203799,745e6308179fde2f0c5b3a79a0a718ab,PennController,29,0,test_conc,NULL,PennController,40,_Trial_,Start,1732203332910,undefined,973,obsess,abstract-negative,abstract,concrete,A,NULL
1732203799,745e6308179fde2f0c5b3a79a0a718ab,PennController,29,0,test_conc,NULL,PennController,40,_Header_,Start,1732203332910,undefined,973,obsess,abstract-negative,abstract,concrete,A,NULL
1732203799,745e6308179fde2f0c5b3a79a0a718ab,PennController,29,0,test_conc,NULL,PennController,40,_Header_,End,1732203333162,undefined,973,obsess,abstract-negative,abstract,concrete,A,NULL
1732203799,745e6308179fde2f0c5b3a79a0a718ab,PennController,29,0,test_conc,NULL,Selector,unnamed-Selector,Selection,abstract,1732203334637,undefined,973,obsess,abstract-negative,abstract,concrete,A,abstract;concrete
1732203799,745e6308179fde2f0c5b3a79a0a718ab,PennController,29,0,test_conc,NULL,PennController,40,_Trial_,End,1732203334638,undefined,973,obsess,abstract-negative,abstract,concrete,A,NULL
1732203799,745e6308179fde2f0c5b3a79a0a718ab,PennController,14,0,test_conc,NULL,PennController,25,_Trial_,Start,1732203334638,undefined,1308,bleed,concrete-negative,abstract,concrete,A,NULL
1732203799,745e6308179fde2f0c5b3a79a0a718ab,PennController,14,0,test_conc,NULL,PennController,25,_Header_,Start,1732203334638,undefined,1308,bleed,concrete-negative,abstract,concrete,A,NULL
1732203799,745e6308179fde2f0c5b3a79a0a718ab,PennController,14,0,test_conc,NULL,PennController,25,_Header_,End,1732203334891,undefined,1308,bleed,concrete-negative,abstract,concrete,A,NULL
1732203799,745e6308179fde2f0c5b3a79a0a718ab,PennController,14,0,test_conc,NULL,Selector,unnamed-Selector,Selection,concrete,1732203336701,undefined,1308,bleed,concrete-negative,abstract,concrete,A,abstract;concrete
1732203799,745e6308179fde2f0c5b3a79a0a718ab,PennController,14,0,test_conc,NULL,PennController,25,_Trial_,End,1732203336701,undefined,1308,bleed,concrete-negative,abstract,concrete,A,NULL
1732203799,745e6308179fde2f0c5b3a79a0a718ab,PennController,33,0,test_conc,NULL,PennController,44,_Trial_,Start,1732203336702,undefined,1436,worry,abstract-negative,abstract,concrete,A,NULL
1732203799,745e6308179fde2f0c5b3a79a0a718ab,PennController,33,0,test_conc,NULL,PennController,44,_Header_,Start,1732203336702,undefined,1436,worry,abstract-negative,abstract,concrete,A,NULL
1732203799,745e6308179fde2f0c5b3a79a0a718ab,PennController,33,0,test_conc,NULL,PennController,44,_Header_,End,1732203336953,undefined,1436,worry,abstract-negative,abstract,concrete,A,NULL
1732203799,745e6308179fde2f0c5b3a79a0a718ab,PennController,33,0,test_conc,NULL,Selector,unnamed-Selector,Selection,abstract,1732203338893,undefined,1436,worry,abstract-negative,abstract,concrete,A,abstract;concrete
1732203799,745e6308179fde2f0c5b3a79a0a718ab,PennController,33,0,test_conc,NULL,PennController,44,_Trial_,End,1732203338893,undefined,1436,worry,abstract-negative,abstract,concrete,A,NULL
