#
# Results on Thu, 21 Nov 2024 20:49:39 GMT
# USER AGENT: Mozilla/5.0 (Windows NT 10.0; Win64; x64) AppleWebKit/537.36 (KHTML, like Gecko) Chrome/131.0.0.0 Safari/537.36
# Design number was non-random = 0
#
# Columns below this comment are as follows:
# 1. Results reception time.
# 2. MD5 hash of participant's IP address.
# 3. Controller name.
# 4. Order number of item.
# 5. Inner element number.
# 6. Label.
# 7. Latin Square Group.
# 8. PennElementType.
# 9. PennElementName.
# 10. Parameter.
# 11. Value.
# 12. EventTime.
# 13. Comments.
1732222179,a3551f11f0ed8cd11d6a83dfb11d51bb,PennController,1,0,welcome,NULL,PennController,0,_Trial_,Start,1732221556725,NULL
1732222179,a3551f11f0ed8cd11d6a83dfb11d51bb,PennController,1,0,welcome,NULL,PennController,0,_Header_,Start,1732221556725,NULL
1732222179,a3551f11f0ed8cd11d6a83dfb11d51bb,PennController,1,0,welcome,NULL,PennController,0,_Header_,End,1732221556977,NULL
1732222179,a3551f11f0ed8cd11d6a83dfb11d51bb,PennController,1,0,welcome,NULL,PennController,0,_Trial_,End,1732221563521,NULL
# 13. ID.
# 14. Comments.
1732222179,a3551f11f0ed8cd11d6a83dfb11d51bb,PennController,124,0,consent,NULL,PennController,2,_Trial_,Start,1732221563523,60ce5270f1695ea416c25fc3,NULL
1732222179,a3551f11f0ed8cd11d6a83dfb11d51bb,PennController,124,0,consent,NULL,PennController,2,_Header_,Start,1732221563523,60ce5270f1695ea416c25fc3,NULL
1732222179,a3551f11f0ed8cd11d6a83dfb11d51bb,PennController,124,0,consent,NULL,PennController,2,_Header_,End,1732221563778,60ce5270f1695ea416c25fc3,NULL
1732222179,a3551f11f0ed8cd11d6a83dfb11d51bb,PennController,124,0,consent,NULL,TextInput,ID,Final,60ce5270f1695ea416c25fc3,1732221571570,60ce5270f1695ea416c25fc3,NULL
1732222179,a3551f11f0ed8cd11d6a83dfb11d51bb,PennController,124,0,consent,NULL,PennController,2,_Trial_,End,1732221571570,60ce5270f1695ea416c25fc3,NULL
# 13. Comments.
1732222179,a3551f11f0ed8cd11d6a83dfb11d51bb,PennController,126,0,instructions1_val,NULL,PennController,4,_Trial_,Start,1732221571570,NULL
1732222179,a3551f11f0ed8cd11d6a83dfb11d51bb,PennController,126,0,instructions1_val,NULL,PennController,4,_Header_,Start,1732221571570,NULL
1732222179,a3551f11f0ed8cd11d6a83dfb11d51bb,PennController,126,0,instructions1_val,NULL,PennController,4,_Header_,End,1732221571825,NULL
1732222179,a3551f11f0ed8cd11d6a83dfb11d51bb,PennController,126,0,instructions1_val,NULL,PennController,4,_Trial_,End,1732221603722,NULL
1732222179,a3551f11f0ed8cd11d6a83dfb11d51bb,PennController,127,0,instructions2_val,NULL,PennController,5,_Trial_,Start,1732221603723,NULL
1732222179,a3551f11f0ed8cd11d6a83dfb11d51bb,PennController,127,0,instructions2_val,NULL,PennController,5,_Header_,Start,1732221603723,NULL
1732222179,a3551f11f0ed8cd11d6a83dfb11d51bb,PennController,127,0,instructions2_val,NULL,PennController,5,_Header_,End,1732221603974,NULL
1732222179,a3551f11f0ed8cd11d6a83dfb11d51bb,PennController,127,0,instructions2_val,NULL,PennController,5,_Trial_,End,1732221610232,NULL
1732222179,a3551f11f0ed8cd11d6a83dfb11d51bb,PennController,128,0,instructions3_hands,NULL,PennController,6,_Trial_,Start,1732221610233,NULL
1732222179,a3551f11f0ed8cd11d6a83dfb11d51bb,PennController,128,0,instructions3_hands,NULL,PennController,6,_Header_,Start,1732221610233,NULL
1732222179,a3551f11f0ed8cd11d6a83dfb11d51bb,PennController,128,0,instructions3_hands,NULL,PennController,6,_Header_,End,1732221610485,NULL
1732222179,a3551f11f0ed8cd11d6a83dfb11d51bb,PennController,128,0,instructions3_hands,NULL,PennController,6,_Trial_,End,1732221621755,NULL
1732222179,a3551f11f0ed8cd11d6a83dfb11d51bb,PennController,129,0,practice_intro_val,NULL,PennController,7,_Trial_,Start,1732221621756,NULL
1732222179,a3551f11f0ed8cd11d6a83dfb11d51bb,PennController,129,0,practice_intro_val,NULL,PennController,7,_Header_,Start,1732221621756,NULL
1732222179,a3551f11f0ed8cd11d6a83dfb11d51bb,PennController,129,0,practice_intro_val,NULL,PennController,7,_Header_,End,1732221622010,NULL
1732222179,a3551f11f0ed8cd11d6a83dfb11d51bb,PennController,129,0,practice_intro_val,NULL,PennController,7,_Trial_,End,1732221623425,NULL
# 13. ID.
# 14. ReactionTime.
# 15. Word.
# 16. selectedKey.
# 17. selectedValue.
# 18. Key_value_F.
# 19. Key_value_J.
# 20. Group.
# 21. Comments.
1732222179,a3551f11f0ed8cd11d6a83dfb11d51bb,PennController,113,0,calibrator_val_feedback,NULL,PennController,124,_Trial_,Start,1732221623426,undefined,852,kitten,undefined,negative,positive,negative,B,NULL
1732222179,a3551f11f0ed8cd11d6a83dfb11d51bb,PennController,113,0,calibrator_val_feedback,NULL,PennController,124,_Header_,Start,1732221623426,undefined,852,kitten,undefined,negative,positive,negative,B,NULL
1732222179,a3551f11f0ed8cd11d6a83dfb11d51bb,PennController,113,0,calibrator_val_feedback,NULL,PennController,124,_Header_,End,1732221623680,undefined,852,kitten,undefined,negative,positive,negative,B,NULL
1732222179,a3551f11f0ed8cd11d6a83dfb11d51bb,PennController,113,0,calibrator_val_feedback,NULL,Selector,Selection,Selection,positive,1732221625035,undefined,852,kitten,undefined,negative,positive,negative,B,positive;negative
1732222179,a3551f11f0ed8cd11d6a83dfb11d51bb,PennController,113,0,calibrator_val_feedback,NULL,PennController,124,_Trial_,End,1732221627039,undefined,852,kitten,undefined,negative,positive,negative,B,NULL
1732222179,a3551f11f0ed8cd11d6a83dfb11d51bb,PennController,105,0,calibrator_val_feedback,NULL,PennController,116,_Trial_,Start,1732221627040,undefined,1406,grin,undefined,negative,positive,negative,B,NULL
1732222179,a3551f11f0ed8cd11d6a83dfb11d51bb,PennController,105,0,calibrator_val_feedback,NULL,PennController,116,_Header_,Start,1732221627040,undefined,1406,grin,undefined,negative,positive,negative,B,NULL
1732222179,a3551f11f0ed8cd11d6a83dfb11d51bb,PennController,105,0,calibrator_val_feedback,NULL,PennController,116,_Header_,End,1732221627294,undefined,1406,grin,undefined,negative,positive,negative,B,NULL
1732222179,a3551f11f0ed8cd11d6a83dfb11d51bb,PennController,105,0,calibrator_val_feedback,NULL,Selector,Selection,Selection,positive,1732221629200,undefined,1406,grin,undefined,negative,positive,negative,B,positive;negative
1732222179,a3551f11f0ed8cd11d6a83dfb11d51bb,PennController,105,0,calibrator_val_feedback,NULL,PennController,116,_Trial_,End,1732221631202,undefined,1406,grin,undefined,negative,positive,negative,B,NULL
1732222179,a3551f11f0ed8cd11d6a83dfb11d51bb,PennController,107,0,calibrator_val_feedback,NULL,PennController,118,_Trial_,Start,1732221631203,undefined,1474,icebox,undefined,negative,positive,negative,B,NULL
1732222179,a3551f11f0ed8cd11d6a83dfb11d51bb,PennController,107,0,calibrator_val_feedback,NULL,PennController,118,_Header_,Start,1732221631203,undefined,1474,icebox,undefined,negative,positive,negative,B,NULL
1732222179,a3551f11f0ed8cd11d6a83dfb11d51bb,PennController,107,0,calibrator_val_feedback,NULL,PennController,118,_Header_,End,1732221631453,undefined,1474,icebox,undefined,negative,positive,negative,B,NULL
1732222179,a3551f11f0ed8cd11d6a83dfb11d51bb,PennController,107,0,calibrator_val_feedback,NULL,Selector,Selection,Selection,positive,1732221633427,undefined,1474,icebox,undefined,negative,positive,negative,B,positive;negative
1732222179,a3551f11f0ed8cd11d6a83dfb11d51bb,PennController,107,0,calibrator_val_feedback,NULL,PennController,118,_Trial_,End,1732221635432,undefined,1474,icebox,undefined,negative,positive,negative,B,NULL
1732222179,a3551f11f0ed8cd11d6a83dfb11d51bb,PennController,112,0,calibrator_val_feedback,NULL,PennController,123,_Trial_,Start,1732221635432,undefined,1067,joke,undefined,negative,positive,negative,B,NULL
1732222179,a3551f11f0ed8cd11d6a83dfb11d51bb,PennController,112,0,calibrator_val_feedback,NULL,PennController,123,_Header_,Start,1732221635432,undefined,1067,joke,undefined,negative,positive,negative,B,NULL
1732222179,a3551f11f0ed8cd11d6a83dfb11d51bb,PennController,112,0,calibrator_val_feedback,NULL,PennController,123,_Header_,End,1732221635685,undefined,1067,joke,undefined,negative,positive,negative,B,NULL
1732222179,a3551f11f0ed8cd11d6a83dfb11d51bb,PennController,112,0,calibrator_val_feedback,NULL,Selector,Selection,Selection,positive,1732221637255,undefined,1067,joke,undefined,negative,positive,negative,B,positive;negative
1732222179,a3551f11f0ed8cd11d6a83dfb11d51bb,PennController,112,0,calibrator_val_feedback,NULL,PennController,123,_Trial_,End,1732221639258,undefined,1067,joke,undefined,negative,positive,negative,B,NULL
1732222179,a3551f11f0ed8cd11d6a83dfb11d51bb,PennController,109,0,calibrator_val_feedback,NULL,PennController,120,_Trial_,Start,1732221639258,undefined,922,insecure,undefined,negative,positive,negative,B,NULL
1732222179,a3551f11f0ed8cd11d6a83dfb11d51bb,PennController,109,0,calibrator_val_feedback,NULL,PennController,120,_Header_,Start,1732221639258,undefined,922,insecure,undefined,negative,positive,negative,B,NULL
1732222179,a3551f11f0ed8cd11d6a83dfb11d51bb,PennController,109,0,calibrator_val_feedback,NULL,PennController,120,_Header_,End,1732221639511,undefined,922,insecure,undefined,negative,positive,negative,B,NULL
1732222179,a3551f11f0ed8cd11d6a83dfb11d51bb,PennController,109,0,calibrator_val_feedback,NULL,Selector,Selection,Selection,negative,1732221640937,undefined,922,insecure,undefined,negative,positive,negative,B,positive;negative
1732222179,a3551f11f0ed8cd11d6a83dfb11d51bb,PennController,109,0,calibrator_val_feedback,NULL,PennController,120,_Trial_,End,1732221642941,undefined,922,insecure,undefined,negative,positive,negative,B,NULL
1732222179,a3551f11f0ed8cd11d6a83dfb11d51bb,PennController,106,0,calibrator_val_feedback,NULL,PennController,117,_Trial_,Start,1732221642942,undefined,806,hat,undefined,negative,positive,negative,B,NULL
1732222179,a3551f11f0ed8cd11d6a83dfb11d51bb,PennController,106,0,calibrator_val_feedback,NULL,PennController,117,_Header_,Start,1732221642942,undefined,806,hat,undefined,negative,positive,negative,B,NULL
1732222179,a3551f11f0ed8cd11d6a83dfb11d51bb,PennController,106,0,calibrator_val_feedback,NULL,PennController,117,_Header_,End,1732221643196,undefined,806,hat,undefined,negative,positive,negative,B,NULL
1732222179,a3551f11f0ed8cd11d6a83dfb11d51bb,PennController,106,0,calibrator_val_feedback,NULL,Selector,Selection,Selection,positive,1732221644503,undefined,806,hat,undefined,negative,positive,negative,B,positive;negative
1732222179,a3551f11f0ed8cd11d6a83dfb11d51bb,PennController,106,0,calibrator_val_feedback,NULL,PennController,117,_Trial_,End,1732221646505,undefined,806,hat,undefined,negative,positive,negative,B,NULL
1732222179,a3551f11f0ed8cd11d6a83dfb11d51bb,PennController,104,0,calibrator_val_feedback,NULL,PennController,115,_Trial_,Start,1732221646506,undefined,738,free,undefined,negative,positive,negative,B,NULL
1732222179,a3551f11f0ed8cd11d6a83dfb11d51bb,PennController,104,0,calibrator_val_feedback,NULL,PennController,115,_Header_,Start,1732221646506,undefined,738,free,undefined,negative,positive,negative,B,NULL
1732222179,a3551f11f0ed8cd11d6a83dfb11d51bb,PennController,104,0,calibrator_val_feedback,NULL,PennController,115,_Header_,End,1732221646759,undefined,738,free,undefined,negative,positive,negative,B,NULL
1732222179,a3551f11f0ed8cd11d6a83dfb11d51bb,PennController,104,0,calibrator_val_feedback,NULL,Selector,Selection,Selection,positive,1732221648000,undefined,738,free,undefined,negative,positive,negative,B,positive;negative
1732222179,a3551f11f0ed8cd11d6a83dfb11d51bb,PennController,104,0,calibrator_val_feedback,NULL,PennController,115,_Trial_,End,1732221650004,undefined,738,free,undefined,negative,positive,negative,B,NULL
1732222179,a3551f11f0ed8cd11d6a83dfb11d51bb,PennController,111,0,calibrator_val_feedback,NULL,PennController,122,_Trial_,Start,1732221650004,undefined,808,jail,undefined,negative,positive,negative,B,NULL
1732222179,a3551f11f0ed8cd11d6a83dfb11d51bb,PennController,111,0,calibrator_val_feedback,NULL,PennController,122,_Header_,Start,1732221650004,undefined,808,jail,undefined,negative,positive,negative,B,NULL
1732222179,a3551f11f0ed8cd11d6a83dfb11d51bb,PennController,111,0,calibrator_val_feedback,NULL,PennController,122,_Header_,End,1732221650257,undefined,808,jail,undefined,negative,positive,negative,B,NULL
1732222179,a3551f11f0ed8cd11d6a83dfb11d51bb,PennController,111,0,calibrator_val_feedback,NULL,Selector,Selection,Selection,negative,1732221651568,undefined,808,jail,undefined,negative,positive,negative,B,positive;negative
1732222179,a3551f11f0ed8cd11d6a83dfb11d51bb,PennController,111,0,calibrator_val_feedback,NULL,PennController,122,_Trial_,End,1732221653571,undefined,808,jail,undefined,negative,positive,negative,B,NULL
1732222179,a3551f11f0ed8cd11d6a83dfb11d51bb,PennController,108,0,calibrator_val_feedback,NULL,PennController,119,_Trial_,Start,1732221653572,undefined,1356,industry,undefined,negative,positive,negative,B,NULL
1732222179,a3551f11f0ed8cd11d6a83dfb11d51bb,PennController,108,0,calibrator_val_feedback,NULL,PennController,119,_Header_,Start,1732221653572,undefined,1356,industry,undefined,negative,positive,negative,B,NULL
1732222179,a3551f11f0ed8cd11d6a83dfb11d51bb,PennController,108,0,calibrator_val_feedback,NULL,PennController,119,_Header_,End,1732221653823,undefined,1356,industry,undefined,negative,positive,negative,B,NULL
1732222179,a3551f11f0ed8cd11d6a83dfb11d51bb,PennController,108,0,calibrator_val_feedback,NULL,Selector,Selection,Selection,negative,1732221655680,undefined,1356,industry,undefined,negative,positive,negative,B,positive;negative
1732222179,a3551f11f0ed8cd11d6a83dfb11d51bb,PennController,108,0,calibrator_val_feedback,NULL,PennController,119,_Trial_,End,1732221657684,undefined,1356,industry,undefined,negative,positive,negative,B,NULL
1732222179,a3551f11f0ed8cd11d6a83dfb11d51bb,PennController,110,0,calibrator_val_feedback,NULL,PennController,121,_Trial_,Start,1732221657685,undefined,985,invader,undefined,negative,positive,negative,B,NULL
1732222179,a3551f11f0ed8cd11d6a83dfb11d51bb,PennController,110,0,calibrator_val_feedback,NULL,PennController,121,_Header_,Start,1732221657685,undefined,985,invader,undefined,negative,positive,negative,B,NULL
1732222179,a3551f11f0ed8cd11d6a83dfb11d51bb,PennController,110,0,calibrator_val_feedback,NULL,PennController,121,_Header_,End,1732221657938,undefined,985,invader,undefined,negative,positive,negative,B,NULL
1732222179,a3551f11f0ed8cd11d6a83dfb11d51bb,PennController,110,0,calibrator_val_feedback,NULL,Selector,Selection,Selection,negative,1732221659426,undefined,985,invader,undefined,negative,positive,negative,B,positive;negative
1732222179,a3551f11f0ed8cd11d6a83dfb11d51bb,PennController,110,0,calibrator_val_feedback,NULL,PennController,121,_Trial_,End,1732221661431,undefined,985,invader,undefined,negative,positive,negative,B,NULL
# 16. Key_value_F.
# 17. Key_value_J.
# 18. Group.
# 19. Comments.
1732222179,a3551f11f0ed8cd11d6a83dfb11d51bb,PennController,120,0,calibrator_val_no_feedback,NULL,PennController,131,_Trial_,Start,1732221661432,undefined,859,invader,positive,negative,B,NULL
1732222179,a3551f11f0ed8cd11d6a83dfb11d51bb,PennController,120,0,calibrator_val_no_feedback,NULL,PennController,131,_Header_,Start,1732221661432,undefined,859,invader,positive,negative,B,NULL
1732222179,a3551f11f0ed8cd11d6a83dfb11d51bb,PennController,120,0,calibrator_val_no_feedback,NULL,PennController,131,_Header_,End,1732221661684,undefined,859,invader,positive,negative,B,NULL
1732222179,a3551f11f0ed8cd11d6a83dfb11d51bb,PennController,120,0,calibrator_val_no_feedback,NULL,Selector,unnamed-Selector,Selection,negative,1732221663046,undefined,859,invader,positive,negative,B,positive;negative
1732222179,a3551f11f0ed8cd11d6a83dfb11d51bb,PennController,120,0,calibrator_val_no_feedback,NULL,PennController,131,_Trial_,End,1732221663047,undefined,859,invader,positive,negative,B,NULL
1732222179,a3551f11f0ed8cd11d6a83dfb11d51bb,PennController,114,0,calibrator_val_no_feedback,NULL,PennController,125,_Trial_,Start,1732221663048,undefined,866,free,positive,negative,B,NULL
1732222179,a3551f11f0ed8cd11d6a83dfb11d51bb,PennController,114,0,calibrator_val_no_feedback,NULL,PennController,125,_Header_,Start,1732221663048,undefined,866,free,positive,negative,B,NULL
1732222179,a3551f11f0ed8cd11d6a83dfb11d51bb,PennController,114,0,calibrator_val_no_feedback,NULL,PennController,125,_Header_,End,1732221663299,undefined,866,free,positive,negative,B,NULL
1732222179,a3551f11f0ed8cd11d6a83dfb11d51bb,PennController,114,0,calibrator_val_no_feedback,NULL,Selector,unnamed-Selector,Selection,positive,1732221664668,undefined,866,free,positive,negative,B,positive;negative
1732222179,a3551f11f0ed8cd11d6a83dfb11d51bb,PennController,114,0,calibrator_val_no_feedback,NULL,PennController,125,_Trial_,End,1732221664669,undefined,866,free,positive,negative,B,NULL
1732222179,a3551f11f0ed8cd11d6a83dfb11d51bb,PennController,117,0,calibrator_val_no_feedback,NULL,PennController,128,_Trial_,Start,1732221664669,undefined,777,icebox,positive,negative,B,NULL
1732222179,a3551f11f0ed8cd11d6a83dfb11d51bb,PennController,117,0,calibrator_val_no_feedback,NULL,PennController,128,_Header_,Start,1732221664669,undefined,777,icebox,positive,negative,B,NULL
1732222179,a3551f11f0ed8cd11d6a83dfb11d51bb,PennController,117,0,calibrator_val_no_feedback,NULL,PennController,128,_Header_,End,1732221664922,undefined,777,icebox,positive,negative,B,NULL
1732222179,a3551f11f0ed8cd11d6a83dfb11d51bb,PennController,117,0,calibrator_val_no_feedback,NULL,Selector,unnamed-Selector,Selection,positive,1732221666201,undefined,777,icebox,positive,negative,B,positive;negative
1732222179,a3551f11f0ed8cd11d6a83dfb11d51bb,PennController,117,0,calibrator_val_no_feedback,NULL,PennController,128,_Trial_,End,1732221666201,undefined,777,icebox,positive,negative,B,NULL
1732222179,a3551f11f0ed8cd11d6a83dfb11d51bb,PennController,122,0,calibrator_val_no_feedback,NULL,PennController,133,_Trial_,Start,1732221666202,undefined,627,joke,positive,negative,B,NULL
1732222179,a3551f11f0ed8cd11d6a83dfb11d51bb,PennController,122,0,calibrator_val_no_feedback,NULL,PennController,133,_Header_,Start,1732221666202,undefined,627,joke,positive,negative,B,NULL
1732222179,a3551f11f0ed8cd11d6a83dfb11d51bb,PennController,122,0,calibrator_val_no_feedback,NULL,PennController,133,_Header_,End,1732221666453,undefined,627,joke,positive,negative,B,NULL
1732222179,a3551f11f0ed8cd11d6a83dfb11d51bb,PennController,122,0,calibrator_val_no_feedback,NULL,Selector,unnamed-Selector,Selection,positive,1732221667580,undefined,627,joke,positive,negative,B,positive;negative
1732222179,a3551f11f0ed8cd11d6a83dfb11d51bb,PennController,122,0,calibrator_val_no_feedback,NULL,PennController,133,_Trial_,End,1732221667580,undefined,627,joke,positive,negative,B,NULL
1732222179,a3551f11f0ed8cd11d6a83dfb11d51bb,PennController,121,0,calibrator_val_no_feedback,NULL,PennController,132,_Trial_,Start,1732221667581,undefined,751,jail,positive,negative,B,NULL
1732222179,a3551f11f0ed8cd11d6a83dfb11d51bb,PennController,121,0,calibrator_val_no_feedback,NULL,PennController,132,_Header_,Start,1732221667581,undefined,751,jail,positive,negative,B,NULL
1732222179,a3551f11f0ed8cd11d6a83dfb11d51bb,PennController,121,0,calibrator_val_no_feedback,NULL,PennController,132,_Header_,End,1732221667835,undefined,751,jail,positive,negative,B,NULL
1732222179,a3551f11f0ed8cd11d6a83dfb11d51bb,PennController,121,0,calibrator_val_no_feedback,NULL,Selector,unnamed-Selector,Selection,negative,1732221669089,undefined,751,jail,positive,negative,B,positive;negative
1732222179,a3551f11f0ed8cd11d6a83dfb11d51bb,PennController,121,0,calibrator_val_no_feedback,NULL,PennController,132,_Trial_,End,1732221669089,undefined,751,jail,positive,negative,B,NULL
1732222179,a3551f11f0ed8cd11d6a83dfb11d51bb,PennController,119,0,calibrator_val_no_feedback,NULL,PennController,130,_Trial_,Start,1732221669090,undefined,630,insecure,positive,negative,B,NULL
1732222179,a3551f11f0ed8cd11d6a83dfb11d51bb,PennController,119,0,calibrator_val_no_feedback,NULL,PennController,130,_Header_,Start,1732221669090,undefined,630,insecure,positive,negative,B,NULL
1732222179,a3551f11f0ed8cd11d6a83dfb11d51bb,PennController,119,0,calibrator_val_no_feedback,NULL,PennController,130,_Header_,End,1732221669344,undefined,630,insecure,positive,negative,B,NULL
1732222179,a3551f11f0ed8cd11d6a83dfb11d51bb,PennController,119,0,calibrator_val_no_feedback,NULL,Selector,unnamed-Selector,Selection,negative,1732221670475,undefined,630,insecure,positive,negative,B,positive;negative
1732222179,a3551f11f0ed8cd11d6a83dfb11d51bb,PennController,119,0,calibrator_val_no_feedback,NULL,PennController,130,_Trial_,End,1732221670475,undefined,630,insecure,positive,negative,B,NULL
1732222179,a3551f11f0ed8cd11d6a83dfb11d51bb,PennController,116,0,calibrator_val_no_feedback,NULL,PennController,127,_Trial_,Start,1732221670476,undefined,693,hat,positive,negative,B,NULL
1732222179,a3551f11f0ed8cd11d6a83dfb11d51bb,PennController,116,0,calibrator_val_no_feedback,NULL,PennController,127,_Header_,Start,1732221670476,undefined,693,hat,positive,negative,B,NULL
1732222179,a3551f11f0ed8cd11d6a83dfb11d51bb,PennController,116,0,calibrator_val_no_feedback,NULL,PennController,127,_Header_,End,1732221670730,undefined,693,hat,positive,negative,B,NULL
1732222179,a3551f11f0ed8cd11d6a83dfb11d51bb,PennController,116,0,calibrator_val_no_feedback,NULL,Selector,unnamed-Selector,Selection,positive,1732221671927,undefined,693,hat,positive,negative,B,positive;negative
1732222179,a3551f11f0ed8cd11d6a83dfb11d51bb,PennController,116,0,calibrator_val_no_feedback,NULL,PennController,127,_Trial_,End,1732221671928,undefined,693,hat,positive,negative,B,NULL
1732222179,a3551f11f0ed8cd11d6a83dfb11d51bb,PennController,118,0,calibrator_val_no_feedback,NULL,PennController,129,_Trial_,Start,1732221671929,undefined,680,industry,positive,negative,B,NULL
1732222179,a3551f11f0ed8cd11d6a83dfb11d51bb,PennController,118,0,calibrator_val_no_feedback,NULL,PennController,129,_Header_,Start,1732221671929,undefined,680,industry,positive,negative,B,NULL
1732222179,a3551f11f0ed8cd11d6a83dfb11d51bb,PennController,118,0,calibrator_val_no_feedback,NULL,PennController,129,_Header_,End,1732221672182,undefined,680,industry,positive,negative,B,NULL
1732222179,a3551f11f0ed8cd11d6a83dfb11d51bb,PennController,118,0,calibrator_val_no_feedback,NULL,Selector,unnamed-Selector,Selection,negative,1732221673364,undefined,680,industry,positive,negative,B,positive;negative
1732222179,a3551f11f0ed8cd11d6a83dfb11d51bb,PennController,118,0,calibrator_val_no_feedback,NULL,PennController,129,_Trial_,End,1732221673365,undefined,680,industry,positive,negative,B,NULL
1732222179,a3551f11f0ed8cd11d6a83dfb11d51bb,PennController,123,0,calibrator_val_no_feedback,NULL,PennController,134,_Trial_,Start,1732221673365,undefined,616,kitten,positive,negative,B,NULL
1732222179,a3551f11f0ed8cd11d6a83dfb11d51bb,PennController,123,0,calibrator_val_no_feedback,NULL,PennController,134,_Header_,Start,1732221673365,undefined,616,kitten,positive,negative,B,NULL
1732222179,a3551f11f0ed8cd11d6a83dfb11d51bb,PennController,123,0,calibrator_val_no_feedback,NULL,PennController,134,_Header_,End,1732221673617,undefined,616,kitten,positive,negative,B,NULL
1732222179,a3551f11f0ed8cd11d6a83dfb11d51bb,PennController,123,0,calibrator_val_no_feedback,NULL,Selector,unnamed-Selector,Selection,positive,1732221674734,undefined,616,kitten,positive,negative,B,positive;negative
1732222179,a3551f11f0ed8cd11d6a83dfb11d51bb,PennController,123,0,calibrator_val_no_feedback,NULL,PennController,134,_Trial_,End,1732221674734,undefined,616,kitten,positive,negative,B,NULL
1732222179,a3551f11f0ed8cd11d6a83dfb11d51bb,PennController,115,0,calibrator_val_no_feedback,NULL,PennController,126,_Trial_,Start,1732221674735,undefined,715,grin,positive,negative,B,NULL
1732222179,a3551f11f0ed8cd11d6a83dfb11d51bb,PennController,115,0,calibrator_val_no_feedback,NULL,PennController,126,_Header_,Start,1732221674735,undefined,715,grin,positive,negative,B,NULL
1732222179,a3551f11f0ed8cd11d6a83dfb11d51bb,PennController,115,0,calibrator_val_no_feedback,NULL,PennController,126,_Header_,End,1732221674985,undefined,715,grin,positive,negative,B,NULL
1732222179,a3551f11f0ed8cd11d6a83dfb11d51bb,PennController,115,0,calibrator_val_no_feedback,NULL,Selector,unnamed-Selector,Selection,positive,1732221676202,undefined,715,grin,positive,negative,B,positive;negative
1732222179,a3551f11f0ed8cd11d6a83dfb11d51bb,PennController,115,0,calibrator_val_no_feedback,NULL,PennController,126,_Trial_,End,1732221676203,undefined,715,grin,positive,negative,B,NULL
# 13. Comments.
1732222179,a3551f11f0ed8cd11d6a83dfb11d51bb,PennController,130,0,endinstructions_val,NULL,PennController,8,_Trial_,Start,1732221676204,NULL
1732222179,a3551f11f0ed8cd11d6a83dfb11d51bb,PennController,130,0,endinstructions_val,NULL,PennController,8,_Header_,Start,1732221676204,NULL
1732222179,a3551f11f0ed8cd11d6a83dfb11d51bb,PennController,130,0,endinstructions_val,NULL,PennController,8,_Header_,End,1732221676458,NULL
1732222179,a3551f11f0ed8cd11d6a83dfb11d51bb,PennController,130,0,endinstructions_val,NULL,PennController,8,_Trial_,End,1732221682199,NULL
# 13. ID.
# 14. ReactionTime.
# 15. Word.
# 16. ConcValCombo.
# 17. Key_value_F.
# 18. Key_value_J.
# 19. Group.
# 20. Comments.
1732222179,a3551f11f0ed8cd11d6a83dfb11d51bb,PennController,44,0,test_val,NULL,PennController,55,_Trial_,Start,1732221682200,undefined,614,build,concrete-positive,positive,negative,B,NULL
1732222179,a3551f11f0ed8cd11d6a83dfb11d51bb,PennController,44,0,test_val,NULL,PennController,55,_Header_,Start,1732221682200,undefined,614,build,concrete-positive,positive,negative,B,NULL
1732222179,a3551f11f0ed8cd11d6a83dfb11d51bb,PennController,44,0,test_val,NULL,PennController,55,_Header_,End,1732221682452,undefined,614,build,concrete-positive,positive,negative,B,NULL
1732222179,a3551f11f0ed8cd11d6a83dfb11d51bb,PennController,44,0,test_val,NULL,Selector,unnamed-Selector,Selection,positive,1732221683569,undefined,614,build,concrete-positive,positive,negative,B,positive;negative
1732222179,a3551f11f0ed8cd11d6a83dfb11d51bb,PennController,44,0,test_val,NULL,PennController,55,_Trial_,End,1732221683570,undefined,614,build,concrete-positive,positive,negative,B,NULL
1732222179,a3551f11f0ed8cd11d6a83dfb11d51bb,PennController,71,0,test_val,NULL,PennController,82,_Trial_,Start,1732221683571,undefined,626,scorn,abstract-negative,positive,negative,B,NULL
1732222179,a3551f11f0ed8cd11d6a83dfb11d51bb,PennController,71,0,test_val,NULL,PennController,82,_Header_,Start,1732221683571,undefined,626,scorn,abstract-negative,positive,negative,B,NULL
1732222179,a3551f11f0ed8cd11d6a83dfb11d51bb,PennController,71,0,test_val,NULL,PennController,82,_Header_,End,1732221683822,undefined,626,scorn,abstract-negative,positive,negative,B,NULL
1732222179,a3551f11f0ed8cd11d6a83dfb11d51bb,PennController,71,0,test_val,NULL,Selector,unnamed-Selector,Selection,negative,1732221684952,undefined,626,scorn,abstract-negative,positive,negative,B,positive;negative
1732222179,a3551f11f0ed8cd11d6a83dfb11d51bb,PennController,71,0,test_val,NULL,PennController,82,_Trial_,End,1732221684952,undefined,626,scorn,abstract-negative,positive,negative,B,NULL
1732222179,a3551f11f0ed8cd11d6a83dfb11d51bb,PennController,73,0,test_val,NULL,PennController,84,_Trial_,Start,1732221684953,undefined,583,worry,abstract-negative,positive,negative,B,NULL
1732222179,a3551f11f0ed8cd11d6a83dfb11d51bb,PennController,73,0,test_val,NULL,PennController,84,_Header_,Start,1732221684953,undefined,583,worry,abstract-negative,positive,negative,B,NULL
1732222179,a3551f11f0ed8cd11d6a83dfb11d51bb,PennController,73,0,test_val,NULL,PennController,84,_Header_,End,1732221685203,undefined,583,worry,abstract-negative,positive,negative,B,NULL
1732222179,a3551f11f0ed8cd11d6a83dfb11d51bb,PennController,73,0,test_val,NULL,Selector,unnamed-Selector,Selection,negative,1732221686290,undefined,583,worry,abstract-negative,positive,negative,B,positive;negative
1732222179,a3551f11f0ed8cd11d6a83dfb11d51bb,PennController,73,0,test_val,NULL,PennController,84,_Trial_,End,1732221686291,undefined,583,worry,abstract-negative,positive,negative,B,NULL
1732222179,a3551f11f0ed8cd11d6a83dfb11d51bb,PennController,70,0,test_val,NULL,PennController,81,_Trial_,Start,1732221686291,undefined,560,resent,abstract-negative,positive,negative,B,NULL
1732222179,a3551f11f0ed8cd11d6a83dfb11d51bb,PennController,70,0,test_val,NULL,PennController,81,_Header_,Start,1732221686291,undefined,560,resent,abstract-negative,positive,negative,B,NULL
1732222179,a3551f11f0ed8cd11d6a83dfb11d51bb,PennController,70,0,test_val,NULL,PennController,81,_Header_,End,1732221686542,undefined,560,resent,abstract-negative,positive,negative,B,NULL
1732222179,a3551f11f0ed8cd11d6a83dfb11d51bb,PennController,70,0,test_val,NULL,Selector,unnamed-Selector,Selection,negative,1732221687604,undefined,560,resent,abstract-negative,positive,negative,B,positive;negative
1732222179,a3551f11f0ed8cd11d6a83dfb11d51bb,PennController,70,0,test_val,NULL,PennController,81,_Trial_,End,1732221687605,undefined,560,resent,abstract-negative,positive,negative,B,NULL
1732222179,a3551f11f0ed8cd11d6a83dfb11d51bb,PennController,58,0,test_val,NULL,PennController,69,_Trial_,Start,1732221687606,undefined,823,scratch,concrete-negative,positive,negative,B,NULL
1732222179,a3551f11f0ed8cd11d6a83dfb11d51bb,PennController,58,0,test_val,NULL,PennController,69,_Header_,Start,1732221687606,undefined,823,scratch,concrete-negative,positive,negative,B,NULL
1732222179,a3551f11f0ed8cd11d6a83dfb11d51bb,PennController,58,0,test_val,NULL,PennController,69,_Header_,End,1732221687860,undefined,823,scratch,concrete-negative,positive,negative,B,NULL
1732222179,a3551f11f0ed8cd11d6a83dfb11d51bb,PennController,58,0,test_val,NULL,Selector,unnamed-Selector,Selection,negative,1732221689185,undefined,823,scratch,concrete-negative,positive,negative,B,positive;negative
1732222179,a3551f11f0ed8cd11d6a83dfb11d51bb,PennController,58,0,test_val,NULL,PennController,69,_Trial_,End,1732221689186,undefined,823,scratch,concrete-negative,positive,negative,B,NULL
1732222179,a3551f11f0ed8cd11d6a83dfb11d51bb,PennController,66,0,test_val,NULL,PennController,77,_Trial_,Start,1732221689187,undefined,649,criticize,abstract-negative,positive,negative,B,NULL
1732222179,a3551f11f0ed8cd11d6a83dfb11d51bb,PennController,66,0,test_val,NULL,PennController,77,_Header_,Start,1732221689187,undefined,649,criticize,abstract-negative,positive,negative,B,NULL
1732222179,a3551f11f0ed8cd11d6a83dfb11d51bb,PennController,66,0,test_val,NULL,PennController,77,_Header_,End,1732221689437,undefined,649,criticize,abstract-negative,positive,negative,B,NULL
1732222179,a3551f11f0ed8cd11d6a83dfb11d51bb,PennController,66,0,test_val,NULL,Selector,unnamed-Selector,Selection,negative,1732221690590,undefined,649,criticize,abstract-negative,positive,negative,B,positive;negative
1732222179,a3551f11f0ed8cd11d6a83dfb11d51bb,PennController,66,0,test_val,NULL,PennController,77,_Trial_,End,1732221690590,undefined,649,criticize,abstract-negative,positive,negative,B,NULL
1732222179,a3551f11f0ed8cd11d6a83dfb11d51bb,PennController,79,0,test_val,NULL,PennController,90,_Trial_,Start,1732221690591,undefined,702,believe,abstract-positive,positive,negative,B,NULL
1732222179,a3551f11f0ed8cd11d6a83dfb11d51bb,PennController,79,0,test_val,NULL,PennController,90,_Header_,Start,1732221690591,undefined,702,believe,abstract-positive,positive,negative,B,NULL
1732222179,a3551f11f0ed8cd11d6a83dfb11d51bb,PennController,79,0,test_val,NULL,PennController,90,_Header_,End,1732221690842,undefined,702,believe,abstract-positive,positive,negative,B,NULL
1732222179,a3551f11f0ed8cd11d6a83dfb11d51bb,PennController,79,0,test_val,NULL,Selector,unnamed-Selector,Selection,positive,1732221692046,undefined,702,believe,abstract-positive,positive,negative,B,positive;negative
1732222179,a3551f11f0ed8cd11d6a83dfb11d51bb,PennController,79,0,test_val,NULL,PennController,90,_Trial_,End,1732221692046,undefined,702,believe,abstract-positive,positive,negative,B,NULL
1732222179,a3551f11f0ed8cd11d6a83dfb11d51bb,PennController,62,0,test_val,NULL,PennController,73,_Trial_,Start,1732221692047,undefined,638,stab,concrete-negative,positive,negative,B,NULL
1732222179,a3551f11f0ed8cd11d6a83dfb11d51bb,PennController,62,0,test_val,NULL,PennController,73,_Header_,Start,1732221692047,undefined,638,stab,concrete-negative,positive,negative,B,NULL
1732222179,a3551f11f0ed8cd11d6a83dfb11d51bb,PennController,62,0,test_val,NULL,PennController,73,_Header_,End,1732221692301,undefined,638,stab,concrete-negative,positive,negative,B,NULL
1732222179,a3551f11f0ed8cd11d6a83dfb11d51bb,PennController,62,0,test_val,NULL,Selector,unnamed-Selector,Selection,negative,1732221693441,undefined,638,stab,concrete-negative,positive,negative,B,positive;negative
1732222179,a3551f11f0ed8cd11d6a83dfb11d51bb,PennController,62,0,test_val,NULL,PennController,73,_Trial_,End,1732221693441,undefined,638,stab,concrete-negative,positive,negative,B,NULL
1732222179,a3551f11f0ed8cd11d6a83dfb11d51bb,PennController,59,0,test_val,NULL,PennController,70,_Trial_,Start,1732221693442,undefined,771,slap,concrete-negative,positive,negative,B,NULL
1732222179,a3551f11f0ed8cd11d6a83dfb11d51bb,PennController,59,0,test_val,NULL,PennController,70,_Header_,Start,1732221693442,undefined,771,slap,concrete-negative,positive,negative,B,NULL
1732222179,a3551f11f0ed8cd11d6a83dfb11d51bb,PennController,59,0,test_val,NULL,PennController,70,_Header_,End,1732221693696,undefined,771,slap,concrete-negative,positive,negative,B,NULL
1732222179,a3551f11f0ed8cd11d6a83dfb11d51bb,PennController,59,0,test_val,NULL,Selector,unnamed-Selector,Selection,negative,1732221694970,undefined,771,slap,concrete-negative,positive,negative,B,positive;negative
1732222179,a3551f11f0ed8cd11d6a83dfb11d51bb,PennController,59,0,test_val,NULL,PennController,70,_Trial_,End,1732221694971,undefined,771,slap,concrete-negative,positive,negative,B,NULL
1732222179,a3551f11f0ed8cd11d6a83dfb11d51bb,PennController,57,0,test_val,NULL,PennController,68,_Trial_,Start,1732221694972,undefined,549,puke,concrete-negative,positive,negative,B,NULL
1732222179,a3551f11f0ed8cd11d6a83dfb11d51bb,PennController,57,0,test_val,NULL,PennController,68,_Header_,Start,1732221694972,undefined,549,puke,concrete-negative,positive,negative,B,NULL
1732222179,a3551f11f0ed8cd11d6a83dfb11d51bb,PennController,57,0,test_val,NULL,PennController,68,_Header_,End,1732221695225,undefined,549,puke,concrete-negative,positive,negative,B,NULL
1732222179,a3551f11f0ed8cd11d6a83dfb11d51bb,PennController,57,0,test_val,NULL,Selector,unnamed-Selector,Selection,negative,1732221696278,undefined,549,puke,concrete-negative,positive,negative,B,positive;negative
1732222179,a3551f11f0ed8cd11d6a83dfb11d51bb,PennController,57,0,test_val,NULL,PennController,68,_Trial_,End,1732221696278,undefined,549,puke,concrete-negative,positive,negative,B,NULL
1732222179,a3551f11f0ed8cd11d6a83dfb11d51bb,PennController,65,0,test_val,NULL,PennController,76,_Trial_,Start,1732221696279,undefined,552,befall,abstract-negative,positive,negative,B,NULL
1732222179,a3551f11f0ed8cd11d6a83dfb11d51bb,PennController,65,0,test_val,NULL,PennController,76,_Header_,Start,1732221696279,undefined,552,befall,abstract-negative,positive,negative,B,NULL
1732222179,a3551f11f0ed8cd11d6a83dfb11d51bb,PennController,65,0,test_val,NULL,PennController,76,_Header_,End,1732221696530,undefined,552,befall,abstract-negative,positive,negative,B,NULL
1732222179,a3551f11f0ed8cd11d6a83dfb11d51bb,PennController,65,0,test_val,NULL,Selector,unnamed-Selector,Selection,negative,1732221697584,undefined,552,befall,abstract-negative,positive,negative,B,positive;negative
1732222179,a3551f11f0ed8cd11d6a83dfb11d51bb,PennController,65,0,test_val,NULL,PennController,76,_Trial_,End,1732221697585,undefined,552,befall,abstract-negative,positive,negative,B,NULL
1732222179,a3551f11f0ed8cd11d6a83dfb11d51bb,PennController,51,0,test_val,NULL,PennController,62,_Trial_,Start,1732221697586,undefined,760,sail,concrete-positive,positive,negative,B,NULL
1732222179,a3551f11f0ed8cd11d6a83dfb11d51bb,PennController,51,0,test_val,NULL,PennController,62,_Header_,Start,1732221697586,undefined,760,sail,concrete-positive,positive,negative,B,NULL
1732222179,a3551f11f0ed8cd11d6a83dfb11d51bb,PennController,51,0,test_val,NULL,PennController,62,_Header_,End,1732221697839,undefined,760,sail,concrete-positive,positive,negative,B,NULL
1732222179,a3551f11f0ed8cd11d6a83dfb11d51bb,PennController,51,0,test_val,NULL,Selector,unnamed-Selector,Selection,positive,1732221699099,undefined,760,sail,concrete-positive,positive,negative,B,positive;negative
1732222179,a3551f11f0ed8cd11d6a83dfb11d51bb,PennController,51,0,test_val,NULL,PennController,62,_Trial_,End,1732221699100,undefined,760,sail,concrete-positive,positive,negative,B,NULL
1732222179,a3551f11f0ed8cd11d6a83dfb11d51bb,PennController,45,0,test_val,NULL,PennController,56,_Trial_,Start,1732221699100,undefined,637,cook,concrete-positive,positive,negative,B,NULL
1732222179,a3551f11f0ed8cd11d6a83dfb11d51bb,PennController,45,0,test_val,NULL,PennController,56,_Header_,Start,1732221699100,undefined,637,cook,concrete-positive,positive,negative,B,NULL
1732222179,a3551f11f0ed8cd11d6a83dfb11d51bb,PennController,45,0,test_val,NULL,PennController,56,_Header_,End,1732221699350,undefined,637,cook,concrete-positive,positive,negative,B,NULL
1732222179,a3551f11f0ed8cd11d6a83dfb11d51bb,PennController,45,0,test_val,NULL,Selector,unnamed-Selector,Selection,positive,1732221700490,undefined,637,cook,concrete-positive,positive,negative,B,positive;negative
1732222179,a3551f11f0ed8cd11d6a83dfb11d51bb,PennController,45,0,test_val,NULL,PennController,56,_Trial_,End,1732221700491,undefined,637,cook,concrete-positive,positive,negative,B,NULL
1732222179,a3551f11f0ed8cd11d6a83dfb11d51bb,PennController,83,0,test_val,NULL,PennController,94,_Trial_,Start,1732221700492,undefined,546,respect,abstract-positive,positive,negative,B,NULL
1732222179,a3551f11f0ed8cd11d6a83dfb11d51bb,PennController,83,0,test_val,NULL,PennController,94,_Header_,Start,1732221700492,undefined,546,respect,abstract-positive,positive,negative,B,NULL
1732222179,a3551f11f0ed8cd11d6a83dfb11d51bb,PennController,83,0,test_val,NULL,PennController,94,_Header_,End,1732221700744,undefined,546,respect,abstract-positive,positive,negative,B,NULL
1732222179,a3551f11f0ed8cd11d6a83dfb11d51bb,PennController,83,0,test_val,NULL,Selector,unnamed-Selector,Selection,positive,1732221701792,undefined,546,respect,abstract-positive,positive,negative,B,positive;negative
1732222179,a3551f11f0ed8cd11d6a83dfb11d51bb,PennController,83,0,test_val,NULL,PennController,94,_Trial_,End,1732221701793,undefined,546,respect,abstract-positive,positive,negative,B,NULL
1732222179,a3551f11f0ed8cd11d6a83dfb11d51bb,PennController,60,0,test_val,NULL,PennController,71,_Trial_,Start,1732221701793,undefined,814,smack,concrete-negative,positive,negative,B,NULL
1732222179,a3551f11f0ed8cd11d6a83dfb11d51bb,PennController,60,0,test_val,NULL,PennController,71,_Header_,Start,1732221701793,undefined,814,smack,concrete-negative,positive,negative,B,NULL
1732222179,a3551f11f0ed8cd11d6a83dfb11d51bb,PennController,60,0,test_val,NULL,PennController,71,_Header_,End,1732221702047,undefined,814,smack,concrete-negative,positive,negative,B,NULL
1732222179,a3551f11f0ed8cd11d6a83dfb11d51bb,PennController,60,0,test_val,NULL,Selector,unnamed-Selector,Selection,negative,1732221703363,undefined,814,smack,concrete-negative,positive,negative,B,positive;negative
1732222179,a3551f11f0ed8cd11d6a83dfb11d51bb,PennController,60,0,test_val,NULL,PennController,71,_Trial_,End,1732221703364,undefined,814,smack,concrete-negative,positive,negative,B,NULL
1732222179,a3551f11f0ed8cd11d6a83dfb11d51bb,PennController,64,0,test_val,NULL,PennController,75,_Trial_,Start,1732221703365,undefined,613,annoy,abstract-negative,positive,negative,B,NULL
1732222179,a3551f11f0ed8cd11d6a83dfb11d51bb,PennController,64,0,test_val,NULL,PennController,75,_Header_,Start,1732221703365,undefined,613,annoy,abstract-negative,positive,negative,B,NULL
1732222179,a3551f11f0ed8cd11d6a83dfb11d51bb,PennController,64,0,test_val,NULL,PennController,75,_Header_,End,1732221703616,undefined,613,annoy,abstract-negative,positive,negative,B,NULL
1732222179,a3551f11f0ed8cd11d6a83dfb11d51bb,PennController,64,0,test_val,NULL,Selector,unnamed-Selector,Selection,negative,1732221704730,undefined,613,annoy,abstract-negative,positive,negative,B,positive;negative
1732222179,a3551f11f0ed8cd11d6a83dfb11d51bb,PennController,64,0,test_val,NULL,PennController,75,_Trial_,End,1732221704730,undefined,613,annoy,abstract-negative,positive,negative,B,NULL
1732222179,a3551f11f0ed8cd11d6a83dfb11d51bb,PennController,77,0,test_val,NULL,PennController,88,_Trial_,Start,1732221704731,undefined,612,cherish,abstract-positive,positive,negative,B,NULL
1732222179,a3551f11f0ed8cd11d6a83dfb11d51bb,PennController,77,0,test_val,NULL,PennController,88,_Header_,Start,1732221704731,undefined,612,cherish,abstract-positive,positive,negative,B,NULL
1732222179,a3551f11f0ed8cd11d6a83dfb11d51bb,PennController,77,0,test_val,NULL,PennController,88,_Header_,End,1732221704981,undefined,612,cherish,abstract-positive,positive,negative,B,NULL
1732222179,a3551f11f0ed8cd11d6a83dfb11d51bb,PennController,77,0,test_val,NULL,Selector,unnamed-Selector,Selection,positive,1732221706096,undefined,612,cherish,abstract-positive,positive,negative,B,positive;negative
1732222179,a3551f11f0ed8cd11d6a83dfb11d51bb,PennController,77,0,test_val,NULL,PennController,88,_Trial_,End,1732221706097,undefined,612,cherish,abstract-positive,positive,negative,B,NULL
1732222179,a3551f11f0ed8cd11d6a83dfb11d51bb,PennController,55,0,test_val,NULL,PennController,66,_Trial_,Start,1732221706098,undefined,718,kill,concrete-negative,positive,negative,B,NULL
1732222179,a3551f11f0ed8cd11d6a83dfb11d51bb,PennController,55,0,test_val,NULL,PennController,66,_Header_,Start,1732221706098,undefined,718,kill,concrete-negative,positive,negative,B,NULL
1732222179,a3551f11f0ed8cd11d6a83dfb11d51bb,PennController,55,0,test_val,NULL,PennController,66,_Header_,End,1732221706348,undefined,718,kill,concrete-negative,positive,negative,B,NULL
1732222179,a3551f11f0ed8cd11d6a83dfb11d51bb,PennController,55,0,test_val,NULL,Selector,unnamed-Selector,Selection,negative,1732221707570,undefined,718,kill,concrete-negative,positive,negative,B,positive;negative
1732222179,a3551f11f0ed8cd11d6a83dfb11d51bb,PennController,55,0,test_val,NULL,PennController,66,_Trial_,End,1732221707571,undefined,718,kill,concrete-negative,positive,negative,B,NULL
1732222179,a3551f11f0ed8cd11d6a83dfb11d51bb,PennController,46,0,test_val,NULL,PennController,57,_Trial_,Start,1732221707572,undefined,654,cuddle,concrete-positive,positive,negative,B,NULL
1732222179,a3551f11f0ed8cd11d6a83dfb11d51bb,PennController,46,0,test_val,NULL,PennController,57,_Header_,Start,1732221707572,undefined,654,cuddle,concrete-positive,positive,negative,B,NULL
1732222179,a3551f11f0ed8cd11d6a83dfb11d51bb,PennController,46,0,test_val,NULL,PennController,57,_Header_,End,1732221707826,undefined,654,cuddle,concrete-positive,positive,negative,B,NULL
1732222179,a3551f11f0ed8cd11d6a83dfb11d51bb,PennController,46,0,test_val,NULL,Selector,unnamed-Selector,Selection,negative,1732221708985,undefined,654,cuddle,concrete-positive,positive,negative,B,positive;negative
1732222179,a3551f11f0ed8cd11d6a83dfb11d51bb,PennController,46,0,test_val,NULL,PennController,57,_Trial_,End,1732221708986,undefined,654,cuddle,concrete-positive,positive,negative,B,NULL
1732222179,a3551f11f0ed8cd11d6a83dfb11d51bb,PennController,52,0,test_val,NULL,PennController,63,_Trial_,Start,1732221708986,undefined,725,smile,concrete-positive,positive,negative,B,NULL
1732222179,a3551f11f0ed8cd11d6a83dfb11d51bb,PennController,52,0,test_val,NULL,PennController,63,_Header_,Start,1732221708986,undefined,725,smile,concrete-positive,positive,negative,B,NULL
1732222179,a3551f11f0ed8cd11d6a83dfb11d51bb,PennController,52,0,test_val,NULL,PennController,63,_Header_,End,1732221709239,undefined,725,smile,concrete-positive,positive,negative,B,NULL
1732222179,a3551f11f0ed8cd11d6a83dfb11d51bb,PennController,52,0,test_val,NULL,Selector,unnamed-Selector,Selection,positive,1732221710467,undefined,725,smile,concrete-positive,positive,negative,B,positive;negative
1732222179,a3551f11f0ed8cd11d6a83dfb11d51bb,PennController,52,0,test_val,NULL,PennController,63,_Trial_,End,1732221710468,undefined,725,smile,concrete-positive,positive,negative,B,NULL
1732222179,a3551f11f0ed8cd11d6a83dfb11d51bb,PennController,49,0,test_val,NULL,PennController,60,_Trial_,Start,1732221710468,undefined,583,kiss,concrete-positive,positive,negative,B,NULL
1732222179,a3551f11f0ed8cd11d6a83dfb11d51bb,PennController,49,0,test_val,NULL,PennController,60,_Header_,Start,1732221710468,undefined,583,kiss,concrete-positive,positive,negative,B,NULL
1732222179,a3551f11f0ed8cd11d6a83dfb11d51bb,PennController,49,0,test_val,NULL,PennController,60,_Header_,End,1732221710722,undefined,583,kiss,concrete-positive,positive,negative,B,NULL
1732222179,a3551f11f0ed8cd11d6a83dfb11d51bb,PennController,49,0,test_val,NULL,Selector,unnamed-Selector,Selection,positive,1732221711809,undefined,583,kiss,concrete-positive,positive,negative,B,positive;negative
1732222179,a3551f11f0ed8cd11d6a83dfb11d51bb,PennController,49,0,test_val,NULL,PennController,60,_Trial_,End,1732221711810,undefined,583,kiss,concrete-positive,positive,negative,B,NULL
1732222179,a3551f11f0ed8cd11d6a83dfb11d51bb,PennController,68,0,test_val,NULL,PennController,79,_Trial_,Start,1732221711811,undefined,688,loathe,abstract-negative,positive,negative,B,NULL
1732222179,a3551f11f0ed8cd11d6a83dfb11d51bb,PennController,68,0,test_val,NULL,PennController,79,_Header_,Start,1732221711811,undefined,688,loathe,abstract-negative,positive,negative,B,NULL
1732222179,a3551f11f0ed8cd11d6a83dfb11d51bb,PennController,68,0,test_val,NULL,PennController,79,_Header_,End,1732221712062,undefined,688,loathe,abstract-negative,positive,negative,B,NULL
1732222179,a3551f11f0ed8cd11d6a83dfb11d51bb,PennController,68,0,test_val,NULL,Selector,unnamed-Selector,Selection,negative,1732221713254,undefined,688,loathe,abstract-negative,positive,negative,B,positive;negative
1732222179,a3551f11f0ed8cd11d6a83dfb11d51bb,PennController,68,0,test_val,NULL,PennController,79,_Trial_,End,1732221713255,undefined,688,loathe,abstract-negative,positive,negative,B,NULL
1732222179,a3551f11f0ed8cd11d6a83dfb11d51bb,PennController,74,0,test_val,NULL,PennController,85,_Trial_,Start,1732221713256,undefined,624,imagine,abstract-positive,positive,negative,B,NULL
1732222179,a3551f11f0ed8cd11d6a83dfb11d51bb,PennController,74,0,test_val,NULL,PennController,85,_Header_,Start,1732221713256,undefined,624,imagine,abstract-positive,positive,negative,B,NULL
1732222179,a3551f11f0ed8cd11d6a83dfb11d51bb,PennController,74,0,test_val,NULL,PennController,85,_Header_,End,1732221713508,undefined,624,imagine,abstract-positive,positive,negative,B,NULL
1732222179,a3551f11f0ed8cd11d6a83dfb11d51bb,PennController,74,0,test_val,NULL,Selector,unnamed-Selector,Selection,positive,1732221714636,undefined,624,imagine,abstract-positive,positive,negative,B,positive;negative
1732222179,a3551f11f0ed8cd11d6a83dfb11d51bb,PennController,74,0,test_val,NULL,PennController,85,_Trial_,End,1732221714637,undefined,624,imagine,abstract-positive,positive,negative,B,NULL
1732222179,a3551f11f0ed8cd11d6a83dfb11d51bb,PennController,47,0,test_val,NULL,PennController,58,_Trial_,Start,1732221714638,undefined,664,eat,concrete-positive,positive,negative,B,NULL
1732222179,a3551f11f0ed8cd11d6a83dfb11d51bb,PennController,47,0,test_val,NULL,PennController,58,_Header_,Start,1732221714638,undefined,664,eat,concrete-positive,positive,negative,B,NULL
1732222179,a3551f11f0ed8cd11d6a83dfb11d51bb,PennController,47,0,test_val,NULL,PennController,58,_Header_,End,1732221714891,undefined,664,eat,concrete-positive,positive,negative,B,NULL
1732222179,a3551f11f0ed8cd11d6a83dfb11d51bb,PennController,47,0,test_val,NULL,Selector,unnamed-Selector,Selection,positive,1732221716057,undefined,664,eat,concrete-positive,positive,negative,B,positive;negative
1732222179,a3551f11f0ed8cd11d6a83dfb11d51bb,PennController,47,0,test_val,NULL,PennController,58,_Trial_,End,1732221716058,undefined,664,eat,concrete-positive,positive,negative,B,NULL
1732222179,a3551f11f0ed8cd11d6a83dfb11d51bb,PennController,48,0,test_val,NULL,PennController,59,_Trial_,Start,1732221716058,undefined,638,hug,concrete-positive,positive,negative,B,NULL
1732222179,a3551f11f0ed8cd11d6a83dfb11d51bb,PennController,48,0,test_val,NULL,PennController,59,_Header_,Start,1732221716058,undefined,638,hug,concrete-positive,positive,negative,B,NULL
1732222179,a3551f11f0ed8cd11d6a83dfb11d51bb,PennController,48,0,test_val,NULL,PennController,59,_Header_,End,1732221716308,undefined,638,hug,concrete-positive,positive,negative,B,NULL
1732222179,a3551f11f0ed8cd11d6a83dfb11d51bb,PennController,48,0,test_val,NULL,Selector,unnamed-Selector,Selection,positive,1732221717450,undefined,638,hug,concrete-positive,positive,negative,B,positive;negative
1732222179,a3551f11f0ed8cd11d6a83dfb11d51bb,PennController,48,0,test_val,NULL,PennController,59,_Trial_,End,1732221717451,undefined,638,hug,concrete-positive,positive,negative,B,NULL
1732222179,a3551f11f0ed8cd11d6a83dfb11d51bb,PennController,53,0,test_val,NULL,PennController,64,_Trial_,Start,1732221717451,undefined,824,swing,concrete-positive,positive,negative,B,NULL
1732222179,a3551f11f0ed8cd11d6a83dfb11d51bb,PennController,53,0,test_val,NULL,PennController,64,_Header_,Start,1732221717451,undefined,824,swing,concrete-positive,positive,negative,B,NULL
1732222179,a3551f11f0ed8cd11d6a83dfb11d51bb,PennController,53,0,test_val,NULL,PennController,64,_Header_,End,1732221717705,undefined,824,swing,concrete-positive,positive,negative,B,NULL
1732222179,a3551f11f0ed8cd11d6a83dfb11d51bb,PennController,53,0,test_val,NULL,Selector,unnamed-Selector,Selection,negative,1732221719029,undefined,824,swing,concrete-positive,positive,negative,B,positive;negative
1732222179,a3551f11f0ed8cd11d6a83dfb11d51bb,PennController,53,0,test_val,NULL,PennController,64,_Trial_,End,1732221719030,undefined,824,swing,concrete-positive,positive,negative,B,NULL
1732222179,a3551f11f0ed8cd11d6a83dfb11d51bb,PennController,67,0,test_val,NULL,PennController,78,_Trial_,Start,1732221719030,undefined,626,exploit,abstract-negative,positive,negative,B,NULL
1732222179,a3551f11f0ed8cd11d6a83dfb11d51bb,PennController,67,0,test_val,NULL,PennController,78,_Header_,Start,1732221719030,undefined,626,exploit,abstract-negative,positive,negative,B,NULL
1732222179,a3551f11f0ed8cd11d6a83dfb11d51bb,PennController,67,0,test_val,NULL,PennController,78,_Header_,End,1732221719284,undefined,626,exploit,abstract-negative,positive,negative,B,NULL
1732222179,a3551f11f0ed8cd11d6a83dfb11d51bb,PennController,67,0,test_val,NULL,Selector,unnamed-Selector,Selection,positive,1732221720415,undefined,626,exploit,abstract-negative,positive,negative,B,positive;negative
1732222179,a3551f11f0ed8cd11d6a83dfb11d51bb,PennController,67,0,test_val,NULL,PennController,78,_Trial_,End,1732221720415,undefined,626,exploit,abstract-negative,positive,negative,B,NULL
1732222179,a3551f11f0ed8cd11d6a83dfb11d51bb,PennController,76,0,test_val,NULL,PennController,87,_Trial_,Start,1732221720416,undefined,924,admired,abstract-positive,positive,negative,B,NULL
1732222179,a3551f11f0ed8cd11d6a83dfb11d51bb,PennController,76,0,test_val,NULL,PennController,87,_Header_,Start,1732221720416,undefined,924,admired,abstract-positive,positive,negative,B,NULL
1732222179,a3551f11f0ed8cd11d6a83dfb11d51bb,PennController,76,0,test_val,NULL,PennController,87,_Header_,End,1732221720667,undefined,924,admired,abstract-positive,positive,negative,B,NULL
1732222179,a3551f11f0ed8cd11d6a83dfb11d51bb,PennController,76,0,test_val,NULL,Selector,unnamed-Selector,Selection,positive,1732221722091,undefined,924,admired,abstract-positive,positive,negative,B,positive;negative
1732222179,a3551f11f0ed8cd11d6a83dfb11d51bb,PennController,76,0,test_val,NULL,PennController,87,_Trial_,End,1732221722092,undefined,924,admired,abstract-positive,positive,negative,B,NULL
1732222179,a3551f11f0ed8cd11d6a83dfb11d51bb,PennController,75,0,test_val,NULL,PennController,86,_Trial_,Start,1732221722093,undefined,804,enlighten,abstract-positive,positive,negative,B,NULL
1732222179,a3551f11f0ed8cd11d6a83dfb11d51bb,PennController,75,0,test_val,NULL,PennController,86,_Header_,Start,1732221722093,undefined,804,enlighten,abstract-positive,positive,negative,B,NULL
1732222179,a3551f11f0ed8cd11d6a83dfb11d51bb,PennController,75,0,test_val,NULL,PennController,86,_Header_,End,1732221722346,undefined,804,enlighten,abstract-positive,positive,negative,B,NULL
1732222179,a3551f11f0ed8cd11d6a83dfb11d51bb,PennController,75,0,test_val,NULL,Selector,unnamed-Selector,Selection,positive,1732221723650,undefined,804,enlighten,abstract-positive,positive,negative,B,positive;negative
1732222179,a3551f11f0ed8cd11d6a83dfb11d51bb,PennController,75,0,test_val,NULL,PennController,86,_Trial_,End,1732221723651,undefined,804,enlighten,abstract-positive,positive,negative,B,NULL
1732222179,a3551f11f0ed8cd11d6a83dfb11d51bb,PennController,72,0,test_val,NULL,PennController,83,_Trial_,Start,1732221723651,undefined,775,violate,abstract-negative,positive,negative,B,NULL
1732222179,a3551f11f0ed8cd11d6a83dfb11d51bb,PennController,72,0,test_val,NULL,PennController,83,_Header_,Start,1732221723651,undefined,775,violate,abstract-negative,positive,negative,B,NULL
1732222179,a3551f11f0ed8cd11d6a83dfb11d51bb,PennController,72,0,test_val,NULL,PennController,83,_Header_,End,1732221723902,undefined,775,violate,abstract-negative,positive,negative,B,NULL
1732222179,a3551f11f0ed8cd11d6a83dfb11d51bb,PennController,72,0,test_val,NULL,Selector,unnamed-Selector,Selection,negative,1732221725182,undefined,775,violate,abstract-negative,positive,negative,B,positive;negative
1732222179,a3551f11f0ed8cd11d6a83dfb11d51bb,PennController,72,0,test_val,NULL,PennController,83,_Trial_,End,1732221725182,undefined,775,violate,abstract-negative,positive,negative,B,NULL
1732222179,a3551f11f0ed8cd11d6a83dfb11d51bb,PennController,54,0,test_val,NULL,PennController,65,_Trial_,Start,1732221725183,undefined,758,bleed,concrete-negative,positive,negative,B,NULL
1732222179,a3551f11f0ed8cd11d6a83dfb11d51bb,PennController,54,0,test_val,NULL,PennController,65,_Header_,Start,1732221725183,undefined,758,bleed,concrete-negative,positive,negative,B,NULL
1732222179,a3551f11f0ed8cd11d6a83dfb11d51bb,PennController,54,0,test_val,NULL,PennController,65,_Header_,End,1732221725434,undefined,758,bleed,concrete-negative,positive,negative,B,NULL
1732222179,a3551f11f0ed8cd11d6a83dfb11d51bb,PennController,54,0,test_val,NULL,Selector,unnamed-Selector,Selection,positive,1732221726695,undefined,758,bleed,concrete-negative,positive,negative,B,positive;negative
1732222179,a3551f11f0ed8cd11d6a83dfb11d51bb,PennController,54,0,test_val,NULL,PennController,65,_Trial_,End,1732221726696,undefined,758,bleed,concrete-negative,positive,negative,B,NULL
1732222179,a3551f11f0ed8cd11d6a83dfb11d51bb,PennController,78,0,test_val,NULL,PennController,89,_Trial_,Start,1732221726697,undefined,889,hope,abstract-positive,positive,negative,B,NULL
1732222179,a3551f11f0ed8cd11d6a83dfb11d51bb,PennController,78,0,test_val,NULL,PennController,89,_Header_,Start,1732221726697,undefined,889,hope,abstract-positive,positive,negative,B,NULL
1732222179,a3551f11f0ed8cd11d6a83dfb11d51bb,PennController,78,0,test_val,NULL,PennController,89,_Header_,End,1732221726950,undefined,889,hope,abstract-positive,positive,negative,B,NULL
1732222179,a3551f11f0ed8cd11d6a83dfb11d51bb,PennController,78,0,test_val,NULL,Selector,unnamed-Selector,Selection,positive,1732221728344,undefined,889,hope,abstract-positive,positive,negative,B,positive;negative
1732222179,a3551f11f0ed8cd11d6a83dfb11d51bb,PennController,78,0,test_val,NULL,PennController,89,_Trial_,End,1732221728344,undefined,889,hope,abstract-positive,positive,negative,B,NULL
1732222179,a3551f11f0ed8cd11d6a83dfb11d51bb,PennController,81,0,test_val,NULL,PennController,92,_Trial_,Start,1732221728345,undefined,855,esteem,abstract-positive,positive,negative,B,NULL
1732222179,a3551f11f0ed8cd11d6a83dfb11d51bb,PennController,81,0,test_val,NULL,PennController,92,_Header_,Start,1732221728345,undefined,855,esteem,abstract-positive,positive,negative,B,NULL
1732222179,a3551f11f0ed8cd11d6a83dfb11d51bb,PennController,81,0,test_val,NULL,PennController,92,_Header_,End,1732221728597,undefined,855,esteem,abstract-positive,positive,negative,B,NULL
1732222179,a3551f11f0ed8cd11d6a83dfb11d51bb,PennController,81,0,test_val,NULL,Selector,unnamed-Selector,Selection,positive,1732221729957,undefined,855,esteem,abstract-positive,positive,negative,B,positive;negative
1732222179,a3551f11f0ed8cd11d6a83dfb11d51bb,PennController,81,0,test_val,NULL,PennController,92,_Trial_,End,1732221729958,undefined,855,esteem,abstract-positive,positive,negative,B,NULL
1732222179,a3551f11f0ed8cd11d6a83dfb11d51bb,PennController,80,0,test_val,NULL,PennController,91,_Trial_,Start,1732221729958,undefined,584,fulfill,abstract-positive,positive,negative,B,NULL
1732222179,a3551f11f0ed8cd11d6a83dfb11d51bb,PennController,80,0,test_val,NULL,PennController,91,_Header_,Start,1732221729958,undefined,584,fulfill,abstract-positive,positive,negative,B,NULL
1732222179,a3551f11f0ed8cd11d6a83dfb11d51bb,PennController,80,0,test_val,NULL,PennController,91,_Header_,End,1732221730210,undefined,584,fulfill,abstract-positive,positive,negative,B,NULL
1732222179,a3551f11f0ed8cd11d6a83dfb11d51bb,PennController,80,0,test_val,NULL,Selector,unnamed-Selector,Selection,positive,1732221731297,undefined,584,fulfill,abstract-positive,positive,negative,B,positive;negative
1732222179,a3551f11f0ed8cd11d6a83dfb11d51bb,PennController,80,0,test_val,NULL,PennController,91,_Trial_,End,1732221731298,undefined,584,fulfill,abstract-positive,positive,negative,B,NULL
1732222179,a3551f11f0ed8cd11d6a83dfb11d51bb,PennController,50,0,test_val,NULL,PennController,61,_Trial_,Start,1732221731299,undefined,582,running,concrete-positive,positive,negative,B,NULL
1732222179,a3551f11f0ed8cd11d6a83dfb11d51bb,PennController,50,0,test_val,NULL,PennController,61,_Header_,Start,1732221731299,undefined,582,running,concrete-positive,positive,negative,B,NULL
1732222179,a3551f11f0ed8cd11d6a83dfb11d51bb,PennController,50,0,test_val,NULL,PennController,61,_Header_,End,1732221731553,undefined,582,running,concrete-positive,positive,negative,B,NULL
1732222179,a3551f11f0ed8cd11d6a83dfb11d51bb,PennController,50,0,test_val,NULL,Selector,unnamed-Selector,Selection,positive,1732221732640,undefined,582,running,concrete-positive,positive,negative,B,positive;negative
1732222179,a3551f11f0ed8cd11d6a83dfb11d51bb,PennController,50,0,test_val,NULL,PennController,61,_Trial_,End,1732221732641,undefined,582,running,concrete-positive,positive,negative,B,NULL
1732222179,a3551f11f0ed8cd11d6a83dfb11d51bb,PennController,82,0,test_val,NULL,PennController,93,_Trial_,Start,1732221732642,undefined,644,justify,abstract-positive,positive,negative,B,NULL
1732222179,a3551f11f0ed8cd11d6a83dfb11d51bb,PennController,82,0,test_val,NULL,PennController,93,_Header_,Start,1732221732642,undefined,644,justify,abstract-positive,positive,negative,B,NULL
1732222179,a3551f11f0ed8cd11d6a83dfb11d51bb,PennController,82,0,test_val,NULL,PennController,93,_Header_,End,1732221732895,undefined,644,justify,abstract-positive,positive,negative,B,NULL
1732222179,a3551f11f0ed8cd11d6a83dfb11d51bb,PennController,82,0,test_val,NULL,Selector,unnamed-Selector,Selection,positive,1732221734040,undefined,644,justify,abstract-positive,positive,negative,B,positive;negative
1732222179,a3551f11f0ed8cd11d6a83dfb11d51bb,PennController,82,0,test_val,NULL,PennController,93,_Trial_,End,1732221734041,undefined,644,justify,abstract-positive,positive,negative,B,NULL
1732222179,a3551f11f0ed8cd11d6a83dfb11d51bb,PennController,69,0,test_val,NULL,PennController,80,_Trial_,Start,1732221734042,undefined,708,obsess,abstract-negative,positive,negative,B,NULL
1732222179,a3551f11f0ed8cd11d6a83dfb11d51bb,PennController,69,0,test_val,NULL,PennController,80,_Header_,Start,1732221734042,undefined,708,obsess,abstract-negative,positive,negative,B,NULL
1732222179,a3551f11f0ed8cd11d6a83dfb11d51bb,PennController,69,0,test_val,NULL,PennController,80,_Header_,End,1732221734296,undefined,708,obsess,abstract-negative,positive,negative,B,NULL
1732222179,a3551f11f0ed8cd11d6a83dfb11d51bb,PennController,69,0,test_val,NULL,Selector,unnamed-Selector,Selection,negative,1732221735507,undefined,708,obsess,abstract-negative,positive,negative,B,positive;negative
1732222179,a3551f11f0ed8cd11d6a83dfb11d51bb,PennController,69,0,test_val,NULL,PennController,80,_Trial_,End,1732221735508,undefined,708,obsess,abstract-negative,positive,negative,B,NULL
1732222179,a3551f11f0ed8cd11d6a83dfb11d51bb,PennController,63,0,test_val,NULL,PennController,74,_Trial_,Start,1732221735508,undefined,624,vomit,concrete-negative,positive,negative,B,NULL
1732222179,a3551f11f0ed8cd11d6a83dfb11d51bb,PennController,63,0,test_val,NULL,PennController,74,_Header_,Start,1732221735508,undefined,624,vomit,concrete-negative,positive,negative,B,NULL
1732222179,a3551f11f0ed8cd11d6a83dfb11d51bb,PennController,63,0,test_val,NULL,PennController,74,_Header_,End,1732221735760,undefined,624,vomit,concrete-negative,positive,negative,B,NULL
1732222179,a3551f11f0ed8cd11d6a83dfb11d51bb,PennController,63,0,test_val,NULL,Selector,unnamed-Selector,Selection,negative,1732221736886,undefined,624,vomit,concrete-negative,positive,negative,B,positive;negative
1732222179,a3551f11f0ed8cd11d6a83dfb11d51bb,PennController,63,0,test_val,NULL,PennController,74,_Trial_,End,1732221736887,undefined,624,vomit,concrete-negative,positive,negative,B,NULL
1732222179,a3551f11f0ed8cd11d6a83dfb11d51bb,PennController,61,0,test_val,NULL,PennController,72,_Trial_,Start,1732221736887,undefined,679,spit,concrete-negative,positive,negative,B,NULL
1732222179,a3551f11f0ed8cd11d6a83dfb11d51bb,PennController,61,0,test_val,NULL,PennController,72,_Header_,Start,1732221736887,undefined,679,spit,concrete-negative,positive,negative,B,NULL
1732222179,a3551f11f0ed8cd11d6a83dfb11d51bb,PennController,61,0,test_val,NULL,PennController,72,_Header_,End,1732221737137,undefined,679,spit,concrete-negative,positive,negative,B,NULL
1732222179,a3551f11f0ed8cd11d6a83dfb11d51bb,PennController,61,0,test_val,NULL,Selector,unnamed-Selector,Selection,negative,1732221738318,undefined,679,spit,concrete-negative,positive,negative,B,positive;negative
1732222179,a3551f11f0ed8cd11d6a83dfb11d51bb,PennController,61,0,test_val,NULL,PennController,72,_Trial_,End,1732221738319,undefined,679,spit,concrete-negative,positive,negative,B,NULL
1732222179,a3551f11f0ed8cd11d6a83dfb11d51bb,PennController,56,0,test_val,NULL,PennController,67,_Trial_,Start,1732221738319,undefined,586,murder,concrete-negative,positive,negative,B,NULL
1732222179,a3551f11f0ed8cd11d6a83dfb11d51bb,PennController,56,0,test_val,NULL,PennController,67,_Header_,Start,1732221738319,undefined,586,murder,concrete-negative,positive,negative,B,NULL
1732222179,a3551f11f0ed8cd11d6a83dfb11d51bb,PennController,56,0,test_val,NULL,PennController,67,_Header_,End,1732221738571,undefined,586,murder,concrete-negative,positive,negative,B,NULL
1732222179,a3551f11f0ed8cd11d6a83dfb11d51bb,PennController,56,0,test_val,NULL,Selector,unnamed-Selector,Selection,negative,1732221739658,undefined,586,murder,concrete-negative,positive,negative,B,positive;negative
1732222179,a3551f11f0ed8cd11d6a83dfb11d51bb,PennController,56,0,test_val,NULL,PennController,67,_Trial_,End,1732221739659,undefined,586,murder,concrete-negative,positive,negative,B,NULL
1732222179,a3551f11f0ed8cd11d6a83dfb11d51bb,PennController,71,0,test_val,NULL,PennController,82,_Trial_,Start,1732221739659,undefined,536,scorn,abstract-negative,positive,negative,B,NULL
1732222179,a3551f11f0ed8cd11d6a83dfb11d51bb,PennController,71,0,test_val,NULL,PennController,82,_Header_,Start,1732221739659,undefined,536,scorn,abstract-negative,positive,negative,B,NULL
1732222179,a3551f11f0ed8cd11d6a83dfb11d51bb,PennController,71,0,test_val,NULL,PennController,82,_Header_,End,1732221739912,undefined,536,scorn,abstract-negative,positive,negative,B,NULL
1732222179,a3551f11f0ed8cd11d6a83dfb11d51bb,PennController,71,0,test_val,NULL,Selector,unnamed-Selector,Selection,negative,1732221740951,undefined,536,scorn,abstract-negative,positive,negative,B,positive;negative
1732222179,a3551f11f0ed8cd11d6a83dfb11d51bb,PennController,71,0,test_val,NULL,PennController,82,_Trial_,End,1732221740952,undefined,536,scorn,abstract-negative,positive,negative,B,NULL
1732222179,a3551f11f0ed8cd11d6a83dfb11d51bb,PennController,62,0,test_val,NULL,PennController,73,_Trial_,Start,1732221740952,undefined,677,stab,concrete-negative,positive,negative,B,NULL
1732222179,a3551f11f0ed8cd11d6a83dfb11d51bb,PennController,62,0,test_val,NULL,PennController,73,_Header_,Start,1732221740952,undefined,677,stab,concrete-negative,positive,negative,B,NULL
1732222179,a3551f11f0ed8cd11d6a83dfb11d51bb,PennController,62,0,test_val,NULL,PennController,73,_Header_,End,1732221741207,undefined,677,stab,concrete-negative,positive,negative,B,NULL
1732222179,a3551f11f0ed8cd11d6a83dfb11d51bb,PennController,62,0,test_val,NULL,Selector,unnamed-Selector,Selection,negative,1732221742385,undefined,677,stab,concrete-negative,positive,negative,B,positive;negative
1732222179,a3551f11f0ed8cd11d6a83dfb11d51bb,PennController,62,0,test_val,NULL,PennController,73,_Trial_,End,1732221742386,undefined,677,stab,concrete-negative,positive,negative,B,NULL
1732222179,a3551f11f0ed8cd11d6a83dfb11d51bb,PennController,48,0,test_val,NULL,PennController,59,_Trial_,Start,1732221742386,undefined,682,hug,concrete-positive,positive,negative,B,NULL
1732222179,a3551f11f0ed8cd11d6a83dfb11d51bb,PennController,48,0,test_val,NULL,PennController,59,_Header_,Start,1732221742386,undefined,682,hug,concrete-positive,positive,negative,B,NULL
1732222179,a3551f11f0ed8cd11d6a83dfb11d51bb,PennController,48,0,test_val,NULL,PennController,59,_Header_,End,1732221742641,undefined,682,hug,concrete-positive,positive,negative,B,NULL
1732222179,a3551f11f0ed8cd11d6a83dfb11d51bb,PennController,48,0,test_val,NULL,Selector,unnamed-Selector,Selection,positive,1732221743823,undefined,682,hug,concrete-positive,positive,negative,B,positive;negative
1732222179,a3551f11f0ed8cd11d6a83dfb11d51bb,PennController,48,0,test_val,NULL,PennController,59,_Trial_,End,1732221743823,undefined,682,hug,concrete-positive,positive,negative,B,NULL
1732222179,a3551f11f0ed8cd11d6a83dfb11d51bb,PennController,79,0,test_val,NULL,PennController,90,_Trial_,Start,1732221743824,undefined,596,believe,abstract-positive,positive,negative,B,NULL
1732222179,a3551f11f0ed8cd11d6a83dfb11d51bb,PennController,79,0,test_val,NULL,PennController,90,_Header_,Start,1732221743824,undefined,596,believe,abstract-positive,positive,negative,B,NULL
1732222179,a3551f11f0ed8cd11d6a83dfb11d51bb,PennController,79,0,test_val,NULL,PennController,90,_Header_,End,1732221744074,undefined,596,believe,abstract-positive,positive,negative,B,NULL
1732222179,a3551f11f0ed8cd11d6a83dfb11d51bb,PennController,79,0,test_val,NULL,Selector,unnamed-Selector,Selection,positive,1732221745171,undefined,596,believe,abstract-positive,positive,negative,B,positive;negative
1732222179,a3551f11f0ed8cd11d6a83dfb11d51bb,PennController,79,0,test_val,NULL,PennController,90,_Trial_,End,1732221745172,undefined,596,believe,abstract-positive,positive,negative,B,NULL
1732222179,a3551f11f0ed8cd11d6a83dfb11d51bb,PennController,44,0,test_val,NULL,PennController,55,_Trial_,Start,1732221745173,undefined,568,build,concrete-positive,positive,negative,B,NULL
1732222179,a3551f11f0ed8cd11d6a83dfb11d51bb,PennController,44,0,test_val,NULL,PennController,55,_Header_,Start,1732221745173,undefined,568,build,concrete-positive,positive,negative,B,NULL
1732222179,a3551f11f0ed8cd11d6a83dfb11d51bb,PennController,44,0,test_val,NULL,PennController,55,_Header_,End,1732221745426,undefined,568,build,concrete-positive,positive,negative,B,NULL
1732222179,a3551f11f0ed8cd11d6a83dfb11d51bb,PennController,44,0,test_val,NULL,Selector,unnamed-Selector,Selection,positive,1732221746495,undefined,568,build,concrete-positive,positive,negative,B,positive;negative
1732222179,a3551f11f0ed8cd11d6a83dfb11d51bb,PennController,44,0,test_val,NULL,PennController,55,_Trial_,End,1732221746496,undefined,568,build,concrete-positive,positive,negative,B,NULL
1732222179,a3551f11f0ed8cd11d6a83dfb11d51bb,PennController,76,0,test_val,NULL,PennController,87,_Trial_,Start,1732221746497,undefined,786,admired,abstract-positive,positive,negative,B,NULL
1732222179,a3551f11f0ed8cd11d6a83dfb11d51bb,PennController,76,0,test_val,NULL,PennController,87,_Header_,Start,1732221746497,undefined,786,admired,abstract-positive,positive,negative,B,NULL
1732222179,a3551f11f0ed8cd11d6a83dfb11d51bb,PennController,76,0,test_val,NULL,PennController,87,_Header_,End,1732221746751,undefined,786,admired,abstract-positive,positive,negative,B,NULL
1732222179,a3551f11f0ed8cd11d6a83dfb11d51bb,PennController,76,0,test_val,NULL,Selector,unnamed-Selector,Selection,positive,1732221748042,undefined,786,admired,abstract-positive,positive,negative,B,positive;negative
1732222179,a3551f11f0ed8cd11d6a83dfb11d51bb,PennController,76,0,test_val,NULL,PennController,87,_Trial_,End,1732221748043,undefined,786,admired,abstract-positive,positive,negative,B,NULL
1732222179,a3551f11f0ed8cd11d6a83dfb11d51bb,PennController,67,0,test_val,NULL,PennController,78,_Trial_,Start,1732221748043,undefined,525,exploit,abstract-negative,positive,negative,B,NULL
1732222179,a3551f11f0ed8cd11d6a83dfb11d51bb,PennController,67,0,test_val,NULL,PennController,78,_Header_,Start,1732221748043,undefined,525,exploit,abstract-negative,positive,negative,B,NULL
1732222179,a3551f11f0ed8cd11d6a83dfb11d51bb,PennController,67,0,test_val,NULL,PennController,78,_Header_,End,1732221748298,undefined,525,exploit,abstract-negative,positive,negative,B,NULL
1732222179,a3551f11f0ed8cd11d6a83dfb11d51bb,PennController,67,0,test_val,NULL,Selector,unnamed-Selector,Selection,positive,1732221749325,undefined,525,exploit,abstract-negative,positive,negative,B,positive;negative
1732222179,a3551f11f0ed8cd11d6a83dfb11d51bb,PennController,67,0,test_val,NULL,PennController,78,_Trial_,End,1732221749326,undefined,525,exploit,abstract-negative,positive,negative,B,NULL
1732222179,a3551f11f0ed8cd11d6a83dfb11d51bb,PennController,63,0,test_val,NULL,PennController,74,_Trial_,Start,1732221749326,undefined,620,vomit,concrete-negative,positive,negative,B,NULL
1732222179,a3551f11f0ed8cd11d6a83dfb11d51bb,PennController,63,0,test_val,NULL,PennController,74,_Header_,Start,1732221749326,undefined,620,vomit,concrete-negative,positive,negative,B,NULL
1732222179,a3551f11f0ed8cd11d6a83dfb11d51bb,PennController,63,0,test_val,NULL,PennController,74,_Header_,End,1732221749580,undefined,620,vomit,concrete-negative,positive,negative,B,NULL
1732222179,a3551f11f0ed8cd11d6a83dfb11d51bb,PennController,63,0,test_val,NULL,Selector,unnamed-Selector,Selection,negative,1732221750702,undefined,620,vomit,concrete-negative,positive,negative,B,positive;negative
1732222179,a3551f11f0ed8cd11d6a83dfb11d51bb,PennController,63,0,test_val,NULL,PennController,74,_Trial_,End,1732221750703,undefined,620,vomit,concrete-negative,positive,negative,B,NULL
1732222179,a3551f11f0ed8cd11d6a83dfb11d51bb,PennController,66,0,test_val,NULL,PennController,77,_Trial_,Start,1732221750704,undefined,652,criticize,abstract-negative,positive,negative,B,NULL
1732222179,a3551f11f0ed8cd11d6a83dfb11d51bb,PennController,66,0,test_val,NULL,PennController,77,_Header_,Start,1732221750704,undefined,652,criticize,abstract-negative,positive,negative,B,NULL
1732222179,a3551f11f0ed8cd11d6a83dfb11d51bb,PennController,66,0,test_val,NULL,PennController,77,_Header_,End,1732221750958,undefined,652,criticize,abstract-negative,positive,negative,B,NULL
1732222179,a3551f11f0ed8cd11d6a83dfb11d51bb,PennController,66,0,test_val,NULL,Selector,unnamed-Selector,Selection,negative,1732221752115,undefined,652,criticize,abstract-negative,positive,negative,B,positive;negative
1732222179,a3551f11f0ed8cd11d6a83dfb11d51bb,PennController,66,0,test_val,NULL,PennController,77,_Trial_,End,1732221752116,undefined,652,criticize,abstract-negative,positive,negative,B,NULL
1732222179,a3551f11f0ed8cd11d6a83dfb11d51bb,PennController,54,0,test_val,NULL,PennController,65,_Trial_,Start,1732221752116,undefined,684,bleed,concrete-negative,positive,negative,B,NULL
1732222179,a3551f11f0ed8cd11d6a83dfb11d51bb,PennController,54,0,test_val,NULL,PennController,65,_Header_,Start,1732221752116,undefined,684,bleed,concrete-negative,positive,negative,B,NULL
1732222179,a3551f11f0ed8cd11d6a83dfb11d51bb,PennController,54,0,test_val,NULL,PennController,65,_Header_,End,1732221752366,undefined,684,bleed,concrete-negative,positive,negative,B,NULL
1732222179,a3551f11f0ed8cd11d6a83dfb11d51bb,PennController,54,0,test_val,NULL,Selector,unnamed-Selector,Selection,negative,1732221753552,undefined,684,bleed,concrete-negative,positive,negative,B,positive;negative
1732222179,a3551f11f0ed8cd11d6a83dfb11d51bb,PennController,54,0,test_val,NULL,PennController,65,_Trial_,End,1732221753552,undefined,684,bleed,concrete-negative,positive,negative,B,NULL
1732222179,a3551f11f0ed8cd11d6a83dfb11d51bb,PennController,61,0,test_val,NULL,PennController,72,_Trial_,Start,1732221753553,undefined,546,spit,concrete-negative,positive,negative,B,NULL
1732222179,a3551f11f0ed8cd11d6a83dfb11d51bb,PennController,61,0,test_val,NULL,PennController,72,_Header_,Start,1732221753553,undefined,546,spit,concrete-negative,positive,negative,B,NULL
1732222179,a3551f11f0ed8cd11d6a83dfb11d51bb,PennController,61,0,test_val,NULL,PennController,72,_Header_,End,1732221753805,undefined,546,spit,concrete-negative,positive,negative,B,NULL
1732222179,a3551f11f0ed8cd11d6a83dfb11d51bb,PennController,61,0,test_val,NULL,Selector,unnamed-Selector,Selection,negative,1732221754854,undefined,546,spit,concrete-negative,positive,negative,B,positive;negative
1732222179,a3551f11f0ed8cd11d6a83dfb11d51bb,PennController,61,0,test_val,NULL,PennController,72,_Trial_,End,1732221754855,undefined,546,spit,concrete-negative,positive,negative,B,NULL
1732222179,a3551f11f0ed8cd11d6a83dfb11d51bb,PennController,65,0,test_val,NULL,PennController,76,_Trial_,Start,1732221754856,undefined,718,befall,abstract-negative,positive,negative,B,NULL
1732222179,a3551f11f0ed8cd11d6a83dfb11d51bb,PennController,65,0,test_val,NULL,PennController,76,_Header_,Start,1732221754856,undefined,718,befall,abstract-negative,positive,negative,B,NULL
1732222179,a3551f11f0ed8cd11d6a83dfb11d51bb,PennController,65,0,test_val,NULL,PennController,76,_Header_,End,1732221755108,undefined,718,befall,abstract-negative,positive,negative,B,NULL
1732222179,a3551f11f0ed8cd11d6a83dfb11d51bb,PennController,65,0,test_val,NULL,Selector,unnamed-Selector,Selection,negative,1732221756327,undefined,718,befall,abstract-negative,positive,negative,B,positive;negative
1732222179,a3551f11f0ed8cd11d6a83dfb11d51bb,PennController,65,0,test_val,NULL,PennController,76,_Trial_,End,1732221756328,undefined,718,befall,abstract-negative,positive,negative,B,NULL
1732222179,a3551f11f0ed8cd11d6a83dfb11d51bb,PennController,55,0,test_val,NULL,PennController,66,_Trial_,Start,1732221756328,undefined,519,kill,concrete-negative,positive,negative,B,NULL
1732222179,a3551f11f0ed8cd11d6a83dfb11d51bb,PennController,55,0,test_val,NULL,PennController,66,_Header_,Start,1732221756328,undefined,519,kill,concrete-negative,positive,negative,B,NULL
1732222179,a3551f11f0ed8cd11d6a83dfb11d51bb,PennController,55,0,test_val,NULL,PennController,66,_Header_,End,1732221756579,undefined,519,kill,concrete-negative,positive,negative,B,NULL
1732222179,a3551f11f0ed8cd11d6a83dfb11d51bb,PennController,55,0,test_val,NULL,Selector,unnamed-Selector,Selection,negative,1732221757600,undefined,519,kill,concrete-negative,positive,negative,B,positive;negative
1732222179,a3551f11f0ed8cd11d6a83dfb11d51bb,PennController,55,0,test_val,NULL,PennController,66,_Trial_,End,1732221757601,undefined,519,kill,concrete-negative,positive,negative,B,NULL
1732222179,a3551f11f0ed8cd11d6a83dfb11d51bb,PennController,53,0,test_val,NULL,PennController,64,_Trial_,Start,1732221757602,undefined,698,swing,concrete-positive,positive,negative,B,NULL
1732222179,a3551f11f0ed8cd11d6a83dfb11d51bb,PennController,53,0,test_val,NULL,PennController,64,_Header_,Start,1732221757602,undefined,698,swing,concrete-positive,positive,negative,B,NULL
1732222179,a3551f11f0ed8cd11d6a83dfb11d51bb,PennController,53,0,test_val,NULL,PennController,64,_Header_,End,1732221757854,undefined,698,swing,concrete-positive,positive,negative,B,NULL
1732222179,a3551f11f0ed8cd11d6a83dfb11d51bb,PennController,53,0,test_val,NULL,Selector,unnamed-Selector,Selection,negative,1732221759054,undefined,698,swing,concrete-positive,positive,negative,B,positive;negative
1732222179,a3551f11f0ed8cd11d6a83dfb11d51bb,PennController,53,0,test_val,NULL,PennController,64,_Trial_,End,1732221759055,undefined,698,swing,concrete-positive,positive,negative,B,NULL
1732222179,a3551f11f0ed8cd11d6a83dfb11d51bb,PennController,59,0,test_val,NULL,PennController,70,_Trial_,Start,1732221759056,undefined,598,slap,concrete-negative,positive,negative,B,NULL
1732222179,a3551f11f0ed8cd11d6a83dfb11d51bb,PennController,59,0,test_val,NULL,PennController,70,_Header_,Start,1732221759056,undefined,598,slap,concrete-negative,positive,negative,B,NULL
1732222179,a3551f11f0ed8cd11d6a83dfb11d51bb,PennController,59,0,test_val,NULL,PennController,70,_Header_,End,1732221759310,undefined,598,slap,concrete-negative,positive,negative,B,NULL
1732222179,a3551f11f0ed8cd11d6a83dfb11d51bb,PennController,59,0,test_val,NULL,Selector,unnamed-Selector,Selection,negative,1732221760409,undefined,598,slap,concrete-negative,positive,negative,B,positive;negative
1732222179,a3551f11f0ed8cd11d6a83dfb11d51bb,PennController,59,0,test_val,NULL,PennController,70,_Trial_,End,1732221760410,undefined,598,slap,concrete-negative,positive,negative,B,NULL
1732222179,a3551f11f0ed8cd11d6a83dfb11d51bb,PennController,70,0,test_val,NULL,PennController,81,_Trial_,Start,1732221760411,undefined,1041,resent,abstract-negative,positive,negative,B,NULL
1732222179,a3551f11f0ed8cd11d6a83dfb11d51bb,PennController,70,0,test_val,NULL,PennController,81,_Header_,Start,1732221760411,undefined,1041,resent,abstract-negative,positive,negative,B,NULL
1732222179,a3551f11f0ed8cd11d6a83dfb11d51bb,PennController,70,0,test_val,NULL,PennController,81,_Header_,End,1732221760664,undefined,1041,resent,abstract-negative,positive,negative,B,NULL
1732222179,a3551f11f0ed8cd11d6a83dfb11d51bb,PennController,70,0,test_val,NULL,Selector,unnamed-Selector,Selection,negative,1732221762208,undefined,1041,resent,abstract-negative,positive,negative,B,positive;negative
1732222179,a3551f11f0ed8cd11d6a83dfb11d51bb,PennController,70,0,test_val,NULL,PennController,81,_Trial_,End,1732221762209,undefined,1041,resent,abstract-negative,positive,negative,B,NULL
1732222179,a3551f11f0ed8cd11d6a83dfb11d51bb,PennController,81,0,test_val,NULL,PennController,92,_Trial_,Start,1732221762210,undefined,857,esteem,abstract-positive,positive,negative,B,NULL
1732222179,a3551f11f0ed8cd11d6a83dfb11d51bb,PennController,81,0,test_val,NULL,PennController,92,_Header_,Start,1732221762210,undefined,857,esteem,abstract-positive,positive,negative,B,NULL
1732222179,a3551f11f0ed8cd11d6a83dfb11d51bb,PennController,81,0,test_val,NULL,PennController,92,_Header_,End,1732221762464,undefined,857,esteem,abstract-positive,positive,negative,B,NULL
1732222179,a3551f11f0ed8cd11d6a83dfb11d51bb,PennController,81,0,test_val,NULL,Selector,unnamed-Selector,Selection,positive,1732221763825,undefined,857,esteem,abstract-positive,positive,negative,B,positive;negative
1732222179,a3551f11f0ed8cd11d6a83dfb11d51bb,PennController,81,0,test_val,NULL,PennController,92,_Trial_,End,1732221763825,undefined,857,esteem,abstract-positive,positive,negative,B,NULL
1732222179,a3551f11f0ed8cd11d6a83dfb11d51bb,PennController,57,0,test_val,NULL,PennController,68,_Trial_,Start,1732221763826,undefined,621,puke,concrete-negative,positive,negative,B,NULL
1732222179,a3551f11f0ed8cd11d6a83dfb11d51bb,PennController,57,0,test_val,NULL,PennController,68,_Header_,Start,1732221763826,undefined,621,puke,concrete-negative,positive,negative,B,NULL
1732222179,a3551f11f0ed8cd11d6a83dfb11d51bb,PennController,57,0,test_val,NULL,PennController,68,_Header_,End,1732221764078,undefined,621,puke,concrete-negative,positive,negative,B,NULL
1732222179,a3551f11f0ed8cd11d6a83dfb11d51bb,PennController,57,0,test_val,NULL,Selector,unnamed-Selector,Selection,negative,1732221765201,undefined,621,puke,concrete-negative,positive,negative,B,positive;negative
1732222179,a3551f11f0ed8cd11d6a83dfb11d51bb,PennController,57,0,test_val,NULL,PennController,68,_Trial_,End,1732221765202,undefined,621,puke,concrete-negative,positive,negative,B,NULL
1732222179,a3551f11f0ed8cd11d6a83dfb11d51bb,PennController,68,0,test_val,NULL,PennController,79,_Trial_,Start,1732221765203,undefined,595,loathe,abstract-negative,positive,negative,B,NULL
1732222179,a3551f11f0ed8cd11d6a83dfb11d51bb,PennController,68,0,test_val,NULL,PennController,79,_Header_,Start,1732221765203,undefined,595,loathe,abstract-negative,positive,negative,B,NULL
1732222179,a3551f11f0ed8cd11d6a83dfb11d51bb,PennController,68,0,test_val,NULL,PennController,79,_Header_,End,1732221765456,undefined,595,loathe,abstract-negative,positive,negative,B,NULL
1732222179,a3551f11f0ed8cd11d6a83dfb11d51bb,PennController,68,0,test_val,NULL,Selector,unnamed-Selector,Selection,negative,1732221766551,undefined,595,loathe,abstract-negative,positive,negative,B,positive;negative
1732222179,a3551f11f0ed8cd11d6a83dfb11d51bb,PennController,68,0,test_val,NULL,PennController,79,_Trial_,End,1732221766552,undefined,595,loathe,abstract-negative,positive,negative,B,NULL
1732222179,a3551f11f0ed8cd11d6a83dfb11d51bb,PennController,77,0,test_val,NULL,PennController,88,_Trial_,Start,1732221766553,undefined,763,cherish,abstract-positive,positive,negative,B,NULL
1732222179,a3551f11f0ed8cd11d6a83dfb11d51bb,PennController,77,0,test_val,NULL,PennController,88,_Header_,Start,1732221766553,undefined,763,cherish,abstract-positive,positive,negative,B,NULL
1732222179,a3551f11f0ed8cd11d6a83dfb11d51bb,PennController,77,0,test_val,NULL,PennController,88,_Header_,End,1732221766804,undefined,763,cherish,abstract-positive,positive,negative,B,NULL
1732222179,a3551f11f0ed8cd11d6a83dfb11d51bb,PennController,77,0,test_val,NULL,Selector,unnamed-Selector,Selection,positive,1732221768073,undefined,763,cherish,abstract-positive,positive,negative,B,positive;negative
1732222179,a3551f11f0ed8cd11d6a83dfb11d51bb,PennController,77,0,test_val,NULL,PennController,88,_Trial_,End,1732221768074,undefined,763,cherish,abstract-positive,positive,negative,B,NULL
1732222179,a3551f11f0ed8cd11d6a83dfb11d51bb,PennController,64,0,test_val,NULL,PennController,75,_Trial_,Start,1732221768075,undefined,624,annoy,abstract-negative,positive,negative,B,NULL
1732222179,a3551f11f0ed8cd11d6a83dfb11d51bb,PennController,64,0,test_val,NULL,PennController,75,_Header_,Start,1732221768075,undefined,624,annoy,abstract-negative,positive,negative,B,NULL
1732222179,a3551f11f0ed8cd11d6a83dfb11d51bb,PennController,64,0,test_val,NULL,PennController,75,_Header_,End,1732221768326,undefined,624,annoy,abstract-negative,positive,negative,B,NULL
1732222179,a3551f11f0ed8cd11d6a83dfb11d51bb,PennController,64,0,test_val,NULL,Selector,unnamed-Selector,Selection,negative,1732221769452,undefined,624,annoy,abstract-negative,positive,negative,B,positive;negative
1732222179,a3551f11f0ed8cd11d6a83dfb11d51bb,PennController,64,0,test_val,NULL,PennController,75,_Trial_,End,1732221769453,undefined,624,annoy,abstract-negative,positive,negative,B,NULL
1732222179,a3551f11f0ed8cd11d6a83dfb11d51bb,PennController,49,0,test_val,NULL,PennController,60,_Trial_,Start,1732221769453,undefined,730,kiss,concrete-positive,positive,negative,B,NULL
1732222179,a3551f11f0ed8cd11d6a83dfb11d51bb,PennController,49,0,test_val,NULL,PennController,60,_Header_,Start,1732221769453,undefined,730,kiss,concrete-positive,positive,negative,B,NULL
1732222179,a3551f11f0ed8cd11d6a83dfb11d51bb,PennController,49,0,test_val,NULL,PennController,60,_Header_,End,1732221769705,undefined,730,kiss,concrete-positive,positive,negative,B,NULL
1732222179,a3551f11f0ed8cd11d6a83dfb11d51bb,PennController,49,0,test_val,NULL,Selector,unnamed-Selector,Selection,positive,1732221770940,undefined,730,kiss,concrete-positive,positive,negative,B,positive;negative
1732222179,a3551f11f0ed8cd11d6a83dfb11d51bb,PennController,49,0,test_val,NULL,PennController,60,_Trial_,End,1732221770940,undefined,730,kiss,concrete-positive,positive,negative,B,NULL
1732222179,a3551f11f0ed8cd11d6a83dfb11d51bb,PennController,78,0,test_val,NULL,PennController,89,_Trial_,Start,1732221770941,undefined,519,hope,abstract-positive,positive,negative,B,NULL
1732222179,a3551f11f0ed8cd11d6a83dfb11d51bb,PennController,78,0,test_val,NULL,PennController,89,_Header_,Start,1732221770941,undefined,519,hope,abstract-positive,positive,negative,B,NULL
1732222179,a3551f11f0ed8cd11d6a83dfb11d51bb,PennController,78,0,test_val,NULL,PennController,89,_Header_,End,1732221771195,undefined,519,hope,abstract-positive,positive,negative,B,NULL
1732222179,a3551f11f0ed8cd11d6a83dfb11d51bb,PennController,78,0,test_val,NULL,Selector,unnamed-Selector,Selection,positive,1732221772219,undefined,519,hope,abstract-positive,positive,negative,B,positive;negative
1732222179,a3551f11f0ed8cd11d6a83dfb11d51bb,PennController,78,0,test_val,NULL,PennController,89,_Trial_,End,1732221772220,undefined,519,hope,abstract-positive,positive,negative,B,NULL
1732222179,a3551f11f0ed8cd11d6a83dfb11d51bb,PennController,58,0,test_val,NULL,PennController,69,_Trial_,Start,1732221772221,undefined,596,scratch,concrete-negative,positive,negative,B,NULL
1732222179,a3551f11f0ed8cd11d6a83dfb11d51bb,PennController,58,0,test_val,NULL,PennController,69,_Header_,Start,1732221772221,undefined,596,scratch,concrete-negative,positive,negative,B,NULL
1732222179,a3551f11f0ed8cd11d6a83dfb11d51bb,PennController,58,0,test_val,NULL,PennController,69,_Header_,End,1732221772473,undefined,596,scratch,concrete-negative,positive,negative,B,NULL
1732222179,a3551f11f0ed8cd11d6a83dfb11d51bb,PennController,58,0,test_val,NULL,Selector,unnamed-Selector,Selection,negative,1732221773572,undefined,596,scratch,concrete-negative,positive,negative,B,positive;negative
1732222179,a3551f11f0ed8cd11d6a83dfb11d51bb,PennController,58,0,test_val,NULL,PennController,69,_Trial_,End,1732221773573,undefined,596,scratch,concrete-negative,positive,negative,B,NULL
1732222179,a3551f11f0ed8cd11d6a83dfb11d51bb,PennController,46,0,test_val,NULL,PennController,57,_Trial_,Start,1732221773574,undefined,596,cuddle,concrete-positive,positive,negative,B,NULL
1732222179,a3551f11f0ed8cd11d6a83dfb11d51bb,PennController,46,0,test_val,NULL,PennController,57,_Header_,Start,1732221773574,undefined,596,cuddle,concrete-positive,positive,negative,B,NULL
1732222179,a3551f11f0ed8cd11d6a83dfb11d51bb,PennController,46,0,test_val,NULL,PennController,57,_Header_,End,1732221773828,undefined,596,cuddle,concrete-positive,positive,negative,B,NULL
1732222179,a3551f11f0ed8cd11d6a83dfb11d51bb,PennController,46,0,test_val,NULL,Selector,unnamed-Selector,Selection,positive,1732221774924,undefined,596,cuddle,concrete-positive,positive,negative,B,positive;negative
1732222179,a3551f11f0ed8cd11d6a83dfb11d51bb,PennController,46,0,test_val,NULL,PennController,57,_Trial_,End,1732221774924,undefined,596,cuddle,concrete-positive,positive,negative,B,NULL
1732222179,a3551f11f0ed8cd11d6a83dfb11d51bb,PennController,52,0,test_val,NULL,PennController,63,_Trial_,Start,1732221774925,undefined,618,smile,concrete-positive,positive,negative,B,NULL
1732222179,a3551f11f0ed8cd11d6a83dfb11d51bb,PennController,52,0,test_val,NULL,PennController,63,_Header_,Start,1732221774925,undefined,618,smile,concrete-positive,positive,negative,B,NULL
1732222179,a3551f11f0ed8cd11d6a83dfb11d51bb,PennController,52,0,test_val,NULL,PennController,63,_Header_,End,1732221775175,undefined,618,smile,concrete-positive,positive,negative,B,NULL
1732222179,a3551f11f0ed8cd11d6a83dfb11d51bb,PennController,52,0,test_val,NULL,Selector,unnamed-Selector,Selection,positive,1732221776295,undefined,618,smile,concrete-positive,positive,negative,B,positive;negative
1732222179,a3551f11f0ed8cd11d6a83dfb11d51bb,PennController,52,0,test_val,NULL,PennController,63,_Trial_,End,1732221776295,undefined,618,smile,concrete-positive,positive,negative,B,NULL
1732222179,a3551f11f0ed8cd11d6a83dfb11d51bb,PennController,60,0,test_val,NULL,PennController,71,_Trial_,Start,1732221776296,undefined,699,smack,concrete-negative,positive,negative,B,NULL
1732222179,a3551f11f0ed8cd11d6a83dfb11d51bb,PennController,60,0,test_val,NULL,PennController,71,_Header_,Start,1732221776296,undefined,699,smack,concrete-negative,positive,negative,B,NULL
1732222179,a3551f11f0ed8cd11d6a83dfb11d51bb,PennController,60,0,test_val,NULL,PennController,71,_Header_,End,1732221776549,undefined,699,smack,concrete-negative,positive,negative,B,NULL
1732222179,a3551f11f0ed8cd11d6a83dfb11d51bb,PennController,60,0,test_val,NULL,Selector,unnamed-Selector,Selection,negative,1732221777749,undefined,699,smack,concrete-negative,positive,negative,B,positive;negative
1732222179,a3551f11f0ed8cd11d6a83dfb11d51bb,PennController,60,0,test_val,NULL,PennController,71,_Trial_,End,1732221777749,undefined,699,smack,concrete-negative,positive,negative,B,NULL
1732222179,a3551f11f0ed8cd11d6a83dfb11d51bb,PennController,50,0,test_val,NULL,PennController,61,_Trial_,Start,1732221777750,undefined,725,running,concrete-positive,positive,negative,B,NULL
1732222179,a3551f11f0ed8cd11d6a83dfb11d51bb,PennController,50,0,test_val,NULL,PennController,61,_Header_,Start,1732221777750,undefined,725,running,concrete-positive,positive,negative,B,NULL
1732222179,a3551f11f0ed8cd11d6a83dfb11d51bb,PennController,50,0,test_val,NULL,PennController,61,_Header_,End,1732221778002,undefined,725,running,concrete-positive,positive,negative,B,NULL
1732222179,a3551f11f0ed8cd11d6a83dfb11d51bb,PennController,50,0,test_val,NULL,Selector,unnamed-Selector,Selection,positive,1732221779228,undefined,725,running,concrete-positive,positive,negative,B,positive;negative
1732222179,a3551f11f0ed8cd11d6a83dfb11d51bb,PennController,50,0,test_val,NULL,PennController,61,_Trial_,End,1732221779229,undefined,725,running,concrete-positive,positive,negative,B,NULL
1732222179,a3551f11f0ed8cd11d6a83dfb11d51bb,PennController,75,0,test_val,NULL,PennController,86,_Trial_,Start,1732221779229,undefined,618,enlighten,abstract-positive,positive,negative,B,NULL
1732222179,a3551f11f0ed8cd11d6a83dfb11d51bb,PennController,75,0,test_val,NULL,PennController,86,_Header_,Start,1732221779229,undefined,618,enlighten,abstract-positive,positive,negative,B,NULL
1732222179,a3551f11f0ed8cd11d6a83dfb11d51bb,PennController,75,0,test_val,NULL,PennController,86,_Header_,End,1732221779479,undefined,618,enlighten,abstract-positive,positive,negative,B,NULL
1732222179,a3551f11f0ed8cd11d6a83dfb11d51bb,PennController,75,0,test_val,NULL,Selector,unnamed-Selector,Selection,positive,1732221780599,undefined,618,enlighten,abstract-positive,positive,negative,B,positive;negative
1732222179,a3551f11f0ed8cd11d6a83dfb11d51bb,PennController,75,0,test_val,NULL,PennController,86,_Trial_,End,1732221780600,undefined,618,enlighten,abstract-positive,positive,negative,B,NULL
1732222179,a3551f11f0ed8cd11d6a83dfb11d51bb,PennController,45,0,test_val,NULL,PennController,56,_Trial_,Start,1732221780601,undefined,775,cook,concrete-positive,positive,negative,B,NULL
1732222179,a3551f11f0ed8cd11d6a83dfb11d51bb,PennController,45,0,test_val,NULL,PennController,56,_Header_,Start,1732221780601,undefined,775,cook,concrete-positive,positive,negative,B,NULL
1732222179,a3551f11f0ed8cd11d6a83dfb11d51bb,PennController,45,0,test_val,NULL,PennController,56,_Header_,End,1732221780855,undefined,775,cook,concrete-positive,positive,negative,B,NULL
1732222179,a3551f11f0ed8cd11d6a83dfb11d51bb,PennController,45,0,test_val,NULL,Selector,unnamed-Selector,Selection,positive,1732221782134,undefined,775,cook,concrete-positive,positive,negative,B,positive;negative
1732222179,a3551f11f0ed8cd11d6a83dfb11d51bb,PennController,45,0,test_val,NULL,PennController,56,_Trial_,End,1732221782134,undefined,775,cook,concrete-positive,positive,negative,B,NULL
1732222179,a3551f11f0ed8cd11d6a83dfb11d51bb,PennController,74,0,test_val,NULL,PennController,85,_Trial_,Start,1732221782135,undefined,576,imagine,abstract-positive,positive,negative,B,NULL
1732222179,a3551f11f0ed8cd11d6a83dfb11d51bb,PennController,74,0,test_val,NULL,PennController,85,_Header_,Start,1732221782135,undefined,576,imagine,abstract-positive,positive,negative,B,NULL
1732222179,a3551f11f0ed8cd11d6a83dfb11d51bb,PennController,74,0,test_val,NULL,PennController,85,_Header_,End,1732221782389,undefined,576,imagine,abstract-positive,positive,negative,B,NULL
1732222179,a3551f11f0ed8cd11d6a83dfb11d51bb,PennController,74,0,test_val,NULL,Selector,unnamed-Selector,Selection,positive,1732221783469,undefined,576,imagine,abstract-positive,positive,negative,B,positive;negative
1732222179,a3551f11f0ed8cd11d6a83dfb11d51bb,PennController,74,0,test_val,NULL,PennController,85,_Trial_,End,1732221783470,undefined,576,imagine,abstract-positive,positive,negative,B,NULL
1732222179,a3551f11f0ed8cd11d6a83dfb11d51bb,PennController,82,0,test_val,NULL,PennController,93,_Trial_,Start,1732221783470,undefined,621,justify,abstract-positive,positive,negative,B,NULL
1732222179,a3551f11f0ed8cd11d6a83dfb11d51bb,PennController,82,0,test_val,NULL,PennController,93,_Header_,Start,1732221783470,undefined,621,justify,abstract-positive,positive,negative,B,NULL
1732222179,a3551f11f0ed8cd11d6a83dfb11d51bb,PennController,82,0,test_val,NULL,PennController,93,_Header_,End,1732221783725,undefined,621,justify,abstract-positive,positive,negative,B,NULL
1732222179,a3551f11f0ed8cd11d6a83dfb11d51bb,PennController,82,0,test_val,NULL,Selector,unnamed-Selector,Selection,positive,1732221784849,undefined,621,justify,abstract-positive,positive,negative,B,positive;negative
1732222179,a3551f11f0ed8cd11d6a83dfb11d51bb,PennController,82,0,test_val,NULL,PennController,93,_Trial_,End,1732221784850,undefined,621,justify,abstract-positive,positive,negative,B,NULL
1732222179,a3551f11f0ed8cd11d6a83dfb11d51bb,PennController,83,0,test_val,NULL,PennController,94,_Trial_,Start,1732221784850,undefined,748,respect,abstract-positive,positive,negative,B,NULL
1732222179,a3551f11f0ed8cd11d6a83dfb11d51bb,PennController,83,0,test_val,NULL,PennController,94,_Header_,Start,1732221784850,undefined,748,respect,abstract-positive,positive,negative,B,NULL
1732222179,a3551f11f0ed8cd11d6a83dfb11d51bb,PennController,83,0,test_val,NULL,PennController,94,_Header_,End,1732221785103,undefined,748,respect,abstract-positive,positive,negative,B,NULL
1732222179,a3551f11f0ed8cd11d6a83dfb11d51bb,PennController,83,0,test_val,NULL,Selector,unnamed-Selector,Selection,positive,1732221786353,undefined,748,respect,abstract-positive,positive,negative,B,positive;negative
1732222179,a3551f11f0ed8cd11d6a83dfb11d51bb,PennController,83,0,test_val,NULL,PennController,94,_Trial_,End,1732221786354,undefined,748,respect,abstract-positive,positive,negative,B,NULL
1732222179,a3551f11f0ed8cd11d6a83dfb11d51bb,PennController,69,0,test_val,NULL,PennController,80,_Trial_,Start,1732221786355,undefined,669,obsess,abstract-negative,positive,negative,B,NULL
1732222179,a3551f11f0ed8cd11d6a83dfb11d51bb,PennController,69,0,test_val,NULL,PennController,80,_Header_,Start,1732221786355,undefined,669,obsess,abstract-negative,positive,negative,B,NULL
1732222179,a3551f11f0ed8cd11d6a83dfb11d51bb,PennController,69,0,test_val,NULL,PennController,80,_Header_,End,1732221786608,undefined,669,obsess,abstract-negative,positive,negative,B,NULL
1732222179,a3551f11f0ed8cd11d6a83dfb11d51bb,PennController,69,0,test_val,NULL,Selector,unnamed-Selector,Selection,positive,1732221787779,undefined,669,obsess,abstract-negative,positive,negative,B,positive;negative
1732222179,a3551f11f0ed8cd11d6a83dfb11d51bb,PennController,69,0,test_val,NULL,PennController,80,_Trial_,End,1732221787780,undefined,669,obsess,abstract-negative,positive,negative,B,NULL
1732222179,a3551f11f0ed8cd11d6a83dfb11d51bb,PennController,80,0,test_val,NULL,PennController,91,_Trial_,Start,1732221787781,undefined,738,fulfill,abstract-positive,positive,negative,B,NULL
1732222179,a3551f11f0ed8cd11d6a83dfb11d51bb,PennController,80,0,test_val,NULL,PennController,91,_Header_,Start,1732221787781,undefined,738,fulfill,abstract-positive,positive,negative,B,NULL
1732222179,a3551f11f0ed8cd11d6a83dfb11d51bb,PennController,80,0,test_val,NULL,PennController,91,_Header_,End,1732221788031,undefined,738,fulfill,abstract-positive,positive,negative,B,NULL
1732222179,a3551f11f0ed8cd11d6a83dfb11d51bb,PennController,80,0,test_val,NULL,Selector,unnamed-Selector,Selection,positive,1732221789272,undefined,738,fulfill,abstract-positive,positive,negative,B,positive;negative
1732222179,a3551f11f0ed8cd11d6a83dfb11d51bb,PennController,80,0,test_val,NULL,PennController,91,_Trial_,End,1732221789273,undefined,738,fulfill,abstract-positive,positive,negative,B,NULL
1732222179,a3551f11f0ed8cd11d6a83dfb11d51bb,PennController,72,0,test_val,NULL,PennController,83,_Trial_,Start,1732221789273,undefined,777,violate,abstract-negative,positive,negative,B,NULL
1732222179,a3551f11f0ed8cd11d6a83dfb11d51bb,PennController,72,0,test_val,NULL,PennController,83,_Header_,Start,1732221789273,undefined,777,violate,abstract-negative,positive,negative,B,NULL
1732222179,a3551f11f0ed8cd11d6a83dfb11d51bb,PennController,72,0,test_val,NULL,PennController,83,_Header_,End,1732221789526,undefined,777,violate,abstract-negative,positive,negative,B,NULL
1732222179,a3551f11f0ed8cd11d6a83dfb11d51bb,PennController,72,0,test_val,NULL,Selector,unnamed-Selector,Selection,negative,1732221790807,undefined,777,violate,abstract-negative,positive,negative,B,positive;negative
1732222179,a3551f11f0ed8cd11d6a83dfb11d51bb,PennController,72,0,test_val,NULL,PennController,83,_Trial_,End,1732221790807,undefined,777,violate,abstract-negative,positive,negative,B,NULL
1732222179,a3551f11f0ed8cd11d6a83dfb11d51bb,PennController,73,0,test_val,NULL,PennController,84,_Trial_,Start,1732221790808,undefined,589,worry,abstract-negative,positive,negative,B,NULL
1732222179,a3551f11f0ed8cd11d6a83dfb11d51bb,PennController,73,0,test_val,NULL,PennController,84,_Header_,Start,1732221790808,undefined,589,worry,abstract-negative,positive,negative,B,NULL
1732222179,a3551f11f0ed8cd11d6a83dfb11d51bb,PennController,73,0,test_val,NULL,PennController,84,_Header_,End,1732221791061,undefined,589,worry,abstract-negative,positive,negative,B,NULL
1732222179,a3551f11f0ed8cd11d6a83dfb11d51bb,PennController,73,0,test_val,NULL,Selector,unnamed-Selector,Selection,negative,1732221792153,undefined,589,worry,abstract-negative,positive,negative,B,positive;negative
1732222179,a3551f11f0ed8cd11d6a83dfb11d51bb,PennController,73,0,test_val,NULL,PennController,84,_Trial_,End,1732221792154,undefined,589,worry,abstract-negative,positive,negative,B,NULL
1732222179,a3551f11f0ed8cd11d6a83dfb11d51bb,PennController,47,0,test_val,NULL,PennController,58,_Trial_,Start,1732221792155,undefined,784,eat,concrete-positive,positive,negative,B,NULL
1732222179,a3551f11f0ed8cd11d6a83dfb11d51bb,PennController,47,0,test_val,NULL,PennController,58,_Header_,Start,1732221792155,undefined,784,eat,concrete-positive,positive,negative,B,NULL
1732222179,a3551f11f0ed8cd11d6a83dfb11d51bb,PennController,47,0,test_val,NULL,PennController,58,_Header_,End,1732221792408,undefined,784,eat,concrete-positive,positive,negative,B,NULL
