#
# Results on Thu, 14 Nov 2024 21:24:05 GMT
# USER AGENT: Mozilla/5.0 (Windows NT 10.0; Win64; x64) AppleWebKit/537.36 (KHTML, like Gecko) Chrome/130.0.0.0 Safari/537.36
# Design number was non-random = 0
#
# Columns below this comment are as follows:
# 1. Results reception time.
# 2. MD5 hash of participant's IP address.
# 3. Controller name.
# 4. Order number of item.
# 5. Inner element number.
# 6. Label.
# 7. Latin Square Group.
# 8. PennElementType.
# 9. PennElementName.
# 10. Parameter.
# 11. Value.
# 12. EventTime.
# 13. Comments.
1731619445,b84e9af8434a4761a31e5156fd13c447,PennController,1,0,welcome,NULL,PennController,0,_Trial_,Start,1731618781901,NULL
1731619445,b84e9af8434a4761a31e5156fd13c447,PennController,1,0,welcome,NULL,PennController,0,_Header_,Start,1731618781901,NULL
1731619445,b84e9af8434a4761a31e5156fd13c447,PennController,1,0,welcome,NULL,PennController,0,_Header_,End,1731618782155,NULL
1731619445,b84e9af8434a4761a31e5156fd13c447,PennController,1,0,welcome,NULL,PennController,0,_Trial_,End,1731618788343,NULL
# 13. ID.
# 14. Comments.
1731619445,b84e9af8434a4761a31e5156fd13c447,PennController,124,0,consent,NULL,PennController,2,_Trial_,Start,1731618788345,63ae2788c3e5ec6d1cfcad16,NULL
1731619445,b84e9af8434a4761a31e5156fd13c447,PennController,124,0,consent,NULL,PennController,2,_Header_,Start,1731618788345,63ae2788c3e5ec6d1cfcad16,NULL
1731619445,b84e9af8434a4761a31e5156fd13c447,PennController,124,0,consent,NULL,PennController,2,_Header_,End,1731618788596,63ae2788c3e5ec6d1cfcad16,NULL
1731619445,b84e9af8434a4761a31e5156fd13c447,PennController,124,0,consent,NULL,TextInput,ID,First,,1731618806652,63ae2788c3e5ec6d1cfcad16,Control
1731619445,b84e9af8434a4761a31e5156fd13c447,PennController,124,0,consent,NULL,TextInput,ID,Final,63ae2788c3e5ec6d1cfcad16,1731618830864,63ae2788c3e5ec6d1cfcad16,NULL
1731619445,b84e9af8434a4761a31e5156fd13c447,PennController,124,0,consent,NULL,PennController,2,_Trial_,End,1731618830866,63ae2788c3e5ec6d1cfcad16,NULL
# 13. Comments.
1731619445,b84e9af8434a4761a31e5156fd13c447,PennController,126,0,instructions1_conc,NULL,PennController,4,_Trial_,Start,1731618830868,NULL
1731619445,b84e9af8434a4761a31e5156fd13c447,PennController,126,0,instructions1_conc,NULL,PennController,4,_Header_,Start,1731618830868,NULL
1731619445,b84e9af8434a4761a31e5156fd13c447,PennController,126,0,instructions1_conc,NULL,PennController,4,_Header_,End,1731618831120,NULL
1731619445,b84e9af8434a4761a31e5156fd13c447,PennController,126,0,instructions1_conc,NULL,PennController,4,_Trial_,End,1731618882407,NULL
1731619445,b84e9af8434a4761a31e5156fd13c447,PennController,127,0,instructions2_conc,NULL,PennController,5,_Trial_,Start,1731618882409,NULL
1731619445,b84e9af8434a4761a31e5156fd13c447,PennController,127,0,instructions2_conc,NULL,PennController,5,_Header_,Start,1731618882409,NULL
1731619445,b84e9af8434a4761a31e5156fd13c447,PennController,127,0,instructions2_conc,NULL,PennController,5,_Header_,End,1731618882663,NULL
1731619445,b84e9af8434a4761a31e5156fd13c447,PennController,127,0,instructions2_conc,NULL,PennController,5,_Trial_,End,1731618886506,NULL
1731619445,b84e9af8434a4761a31e5156fd13c447,PennController,134,0,instructions3_hands,NULL,PennController,12,_Trial_,Start,1731618886507,NULL
1731619445,b84e9af8434a4761a31e5156fd13c447,PennController,134,0,instructions3_hands,NULL,PennController,12,_Header_,Start,1731618886507,NULL
1731619445,b84e9af8434a4761a31e5156fd13c447,PennController,134,0,instructions3_hands,NULL,PennController,12,_Header_,End,1731618886757,NULL
1731619445,b84e9af8434a4761a31e5156fd13c447,PennController,134,0,instructions3_hands,NULL,PennController,12,_Trial_,End,1731618891438,NULL
1731619445,b84e9af8434a4761a31e5156fd13c447,PennController,129,0,practice_intro_conc,NULL,PennController,7,_Trial_,Start,1731618891440,NULL
1731619445,b84e9af8434a4761a31e5156fd13c447,PennController,129,0,practice_intro_conc,NULL,PennController,7,_Header_,Start,1731618891440,NULL
1731619445,b84e9af8434a4761a31e5156fd13c447,PennController,129,0,practice_intro_conc,NULL,PennController,7,_Header_,End,1731618891690,NULL
1731619445,b84e9af8434a4761a31e5156fd13c447,PennController,129,0,practice_intro_conc,NULL,PennController,7,_Trial_,End,1731618893339,NULL
# 13. ID.
# 14. ReactionTime.
# 15. Word.
# 16. selectedKey.
# 17. selectedValue.
# 18. Key_value_F.
# 19. Key_value_J.
# 20. Group.
# 21. Comments.
1731619445,b84e9af8434a4761a31e5156fd13c447,PennController,90,0,calibrator_conc_feedback,NULL,PennController,101,_Trial_,Start,1731618893340,undefined,1279,sugar,undefined,concrete,abstract,concrete,A,NULL
1731619445,b84e9af8434a4761a31e5156fd13c447,PennController,90,0,calibrator_conc_feedback,NULL,PennController,101,_Header_,Start,1731618893340,undefined,1279,sugar,undefined,concrete,abstract,concrete,A,NULL
1731619445,b84e9af8434a4761a31e5156fd13c447,PennController,90,0,calibrator_conc_feedback,NULL,PennController,101,_Header_,End,1731618893598,undefined,1279,sugar,undefined,concrete,abstract,concrete,A,NULL
1731619445,b84e9af8434a4761a31e5156fd13c447,PennController,90,0,calibrator_conc_feedback,NULL,Selector,Selection,Selection,concrete,1731618895379,undefined,1279,sugar,undefined,concrete,abstract,concrete,A,abstract;concrete
1731619445,b84e9af8434a4761a31e5156fd13c447,PennController,90,0,calibrator_conc_feedback,NULL,PennController,101,_Trial_,End,1731618897384,undefined,1279,sugar,undefined,concrete,abstract,concrete,A,NULL
1731619445,b84e9af8434a4761a31e5156fd13c447,PennController,85,0,calibrator_conc_feedback,NULL,PennController,96,_Trial_,Start,1731618897386,undefined,1378,grasshopper,undefined,concrete,abstract,concrete,A,NULL
1731619445,b84e9af8434a4761a31e5156fd13c447,PennController,85,0,calibrator_conc_feedback,NULL,PennController,96,_Header_,Start,1731618897386,undefined,1378,grasshopper,undefined,concrete,abstract,concrete,A,NULL
1731619445,b84e9af8434a4761a31e5156fd13c447,PennController,85,0,calibrator_conc_feedback,NULL,PennController,96,_Header_,End,1731618897643,undefined,1378,grasshopper,undefined,concrete,abstract,concrete,A,NULL
1731619445,b84e9af8434a4761a31e5156fd13c447,PennController,85,0,calibrator_conc_feedback,NULL,Selector,Selection,Selection,concrete,1731618900217,undefined,1378,grasshopper,undefined,concrete,abstract,concrete,A,abstract;concrete
1731619445,b84e9af8434a4761a31e5156fd13c447,PennController,85,0,calibrator_conc_feedback,NULL,PennController,96,_Trial_,End,1731618901524,undefined,1378,grasshopper,undefined,concrete,abstract,concrete,A,NULL
1731619445,b84e9af8434a4761a31e5156fd13c447,PennController,88,0,calibrator_conc_feedback,NULL,PennController,99,_Trial_,Start,1731618901526,undefined,1999,polite,undefined,concrete,abstract,concrete,A,NULL
1731619445,b84e9af8434a4761a31e5156fd13c447,PennController,88,0,calibrator_conc_feedback,NULL,PennController,99,_Header_,Start,1731618901526,undefined,1999,polite,undefined,concrete,abstract,concrete,A,NULL
1731619445,b84e9af8434a4761a31e5156fd13c447,PennController,88,0,calibrator_conc_feedback,NULL,PennController,99,_Header_,End,1731618901782,undefined,1999,polite,undefined,concrete,abstract,concrete,A,NULL
1731619445,b84e9af8434a4761a31e5156fd13c447,PennController,88,0,calibrator_conc_feedback,NULL,Selector,Selection,Selection,abstract,1731618904284,undefined,1999,polite,undefined,concrete,abstract,concrete,A,abstract;concrete
1731619445,b84e9af8434a4761a31e5156fd13c447,PennController,88,0,calibrator_conc_feedback,NULL,PennController,99,_Trial_,End,1731618906287,undefined,1999,polite,undefined,concrete,abstract,concrete,A,NULL
1731619445,b84e9af8434a4761a31e5156fd13c447,PennController,93,0,calibrator_conc_feedback,NULL,PennController,104,_Trial_,Start,1731618906289,undefined,2452,insecure,undefined,concrete,abstract,concrete,A,NULL
1731619445,b84e9af8434a4761a31e5156fd13c447,PennController,93,0,calibrator_conc_feedback,NULL,PennController,104,_Header_,Start,1731618906289,undefined,2452,insecure,undefined,concrete,abstract,concrete,A,NULL
1731619445,b84e9af8434a4761a31e5156fd13c447,PennController,93,0,calibrator_conc_feedback,NULL,PennController,104,_Header_,End,1731618906540,undefined,2452,insecure,undefined,concrete,abstract,concrete,A,NULL
1731619445,b84e9af8434a4761a31e5156fd13c447,PennController,93,0,calibrator_conc_feedback,NULL,Selector,Selection,Selection,abstract,1731618909501,undefined,2452,insecure,undefined,concrete,abstract,concrete,A,abstract;concrete
1731619445,b84e9af8434a4761a31e5156fd13c447,PennController,93,0,calibrator_conc_feedback,NULL,PennController,104,_Trial_,End,1731618911505,undefined,2452,insecure,undefined,concrete,abstract,concrete,A,NULL
1731619445,b84e9af8434a4761a31e5156fd13c447,PennController,84,0,calibrator_conc_feedback,NULL,PennController,95,_Trial_,Start,1731618911507,undefined,1433,gas,undefined,concrete,abstract,concrete,A,NULL
1731619445,b84e9af8434a4761a31e5156fd13c447,PennController,84,0,calibrator_conc_feedback,NULL,PennController,95,_Header_,Start,1731618911507,undefined,1433,gas,undefined,concrete,abstract,concrete,A,NULL
1731619445,b84e9af8434a4761a31e5156fd13c447,PennController,84,0,calibrator_conc_feedback,NULL,PennController,95,_Header_,End,1731618911761,undefined,1433,gas,undefined,concrete,abstract,concrete,A,NULL
1731619445,b84e9af8434a4761a31e5156fd13c447,PennController,84,0,calibrator_conc_feedback,NULL,Selector,Selection,Selection,abstract,1731618913704,undefined,1433,gas,undefined,concrete,abstract,concrete,A,abstract;concrete
1731619445,b84e9af8434a4761a31e5156fd13c447,PennController,84,0,calibrator_conc_feedback,NULL,PennController,95,_Trial_,End,1731618915710,undefined,1433,gas,undefined,concrete,abstract,concrete,A,NULL
1731619445,b84e9af8434a4761a31e5156fd13c447,PennController,86,0,calibrator_conc_feedback,NULL,PennController,97,_Trial_,Start,1731618915712,undefined,1547,kick,undefined,concrete,abstract,concrete,A,NULL
1731619445,b84e9af8434a4761a31e5156fd13c447,PennController,86,0,calibrator_conc_feedback,NULL,PennController,97,_Header_,Start,1731618915712,undefined,1547,kick,undefined,concrete,abstract,concrete,A,NULL
1731619445,b84e9af8434a4761a31e5156fd13c447,PennController,86,0,calibrator_conc_feedback,NULL,PennController,97,_Header_,End,1731618915966,undefined,1547,kick,undefined,concrete,abstract,concrete,A,NULL
1731619445,b84e9af8434a4761a31e5156fd13c447,PennController,86,0,calibrator_conc_feedback,NULL,Selector,Selection,Selection,abstract,1731618918016,undefined,1547,kick,undefined,concrete,abstract,concrete,A,abstract;concrete
1731619445,b84e9af8434a4761a31e5156fd13c447,PennController,86,0,calibrator_conc_feedback,NULL,PennController,97,_Trial_,End,1731618920020,undefined,1547,kick,undefined,concrete,abstract,concrete,A,NULL
1731619445,b84e9af8434a4761a31e5156fd13c447,PennController,92,0,calibrator_conc_feedback,NULL,PennController,103,_Trial_,Start,1731618920022,undefined,790,whistle,undefined,concrete,abstract,concrete,A,NULL
1731619445,b84e9af8434a4761a31e5156fd13c447,PennController,92,0,calibrator_conc_feedback,NULL,PennController,103,_Header_,Start,1731618920022,undefined,790,whistle,undefined,concrete,abstract,concrete,A,NULL
1731619445,b84e9af8434a4761a31e5156fd13c447,PennController,92,0,calibrator_conc_feedback,NULL,PennController,103,_Header_,End,1731618920272,undefined,790,whistle,undefined,concrete,abstract,concrete,A,NULL
1731619445,b84e9af8434a4761a31e5156fd13c447,PennController,92,0,calibrator_conc_feedback,NULL,Selector,Selection,Selection,concrete,1731618921975,undefined,790,whistle,undefined,concrete,abstract,concrete,A,abstract;concrete
1731619445,b84e9af8434a4761a31e5156fd13c447,PennController,92,0,calibrator_conc_feedback,NULL,PennController,103,_Trial_,End,1731618923576,undefined,790,whistle,undefined,concrete,abstract,concrete,A,NULL
1731619445,b84e9af8434a4761a31e5156fd13c447,PennController,91,0,calibrator_conc_feedback,NULL,PennController,102,_Trial_,Start,1731618923578,undefined,882,theory,undefined,concrete,abstract,concrete,A,NULL
1731619445,b84e9af8434a4761a31e5156fd13c447,PennController,91,0,calibrator_conc_feedback,NULL,PennController,102,_Header_,Start,1731618923578,undefined,882,theory,undefined,concrete,abstract,concrete,A,NULL
1731619445,b84e9af8434a4761a31e5156fd13c447,PennController,91,0,calibrator_conc_feedback,NULL,PennController,102,_Header_,End,1731618923829,undefined,882,theory,undefined,concrete,abstract,concrete,A,NULL
1731619445,b84e9af8434a4761a31e5156fd13c447,PennController,91,0,calibrator_conc_feedback,NULL,Selector,Selection,Selection,abstract,1731618925219,undefined,882,theory,undefined,concrete,abstract,concrete,A,abstract;concrete
1731619445,b84e9af8434a4761a31e5156fd13c447,PennController,91,0,calibrator_conc_feedback,NULL,PennController,102,_Trial_,End,1731618927228,undefined,882,theory,undefined,concrete,abstract,concrete,A,NULL
1731619445,b84e9af8434a4761a31e5156fd13c447,PennController,89,0,calibrator_conc_feedback,NULL,PennController,100,_Trial_,Start,1731618927229,undefined,993,shirt,undefined,concrete,abstract,concrete,A,NULL
1731619445,b84e9af8434a4761a31e5156fd13c447,PennController,89,0,calibrator_conc_feedback,NULL,PennController,100,_Header_,Start,1731618927229,undefined,993,shirt,undefined,concrete,abstract,concrete,A,NULL
1731619445,b84e9af8434a4761a31e5156fd13c447,PennController,89,0,calibrator_conc_feedback,NULL,PennController,100,_Header_,End,1731618927486,undefined,993,shirt,undefined,concrete,abstract,concrete,A,NULL
1731619445,b84e9af8434a4761a31e5156fd13c447,PennController,89,0,calibrator_conc_feedback,NULL,Selector,Selection,Selection,concrete,1731618928986,undefined,993,shirt,undefined,concrete,abstract,concrete,A,abstract;concrete
1731619445,b84e9af8434a4761a31e5156fd13c447,PennController,89,0,calibrator_conc_feedback,NULL,PennController,100,_Trial_,End,1731618930996,undefined,993,shirt,undefined,concrete,abstract,concrete,A,NULL
1731619445,b84e9af8434a4761a31e5156fd13c447,PennController,87,0,calibrator_conc_feedback,NULL,PennController,98,_Trial_,Start,1731618930997,undefined,1391,marriage,undefined,concrete,abstract,concrete,A,NULL
1731619445,b84e9af8434a4761a31e5156fd13c447,PennController,87,0,calibrator_conc_feedback,NULL,PennController,98,_Header_,Start,1731618930997,undefined,1391,marriage,undefined,concrete,abstract,concrete,A,NULL
1731619445,b84e9af8434a4761a31e5156fd13c447,PennController,87,0,calibrator_conc_feedback,NULL,PennController,98,_Header_,End,1731618931255,undefined,1391,marriage,undefined,concrete,abstract,concrete,A,NULL
1731619445,b84e9af8434a4761a31e5156fd13c447,PennController,87,0,calibrator_conc_feedback,NULL,Selector,Selection,Selection,concrete,1731618933149,undefined,1391,marriage,undefined,concrete,abstract,concrete,A,abstract;concrete
1731619445,b84e9af8434a4761a31e5156fd13c447,PennController,87,0,calibrator_conc_feedback,NULL,PennController,98,_Trial_,End,1731618935152,undefined,1391,marriage,undefined,concrete,abstract,concrete,A,NULL
# 16. Key_value_F.
# 17. Key_value_J.
# 18. Group.
# 19. Comments.
1731619445,b84e9af8434a4761a31e5156fd13c447,PennController,99,0,calibrator_conc_no_feedback,NULL,PennController,110,_Trial_,Start,1731618935154,undefined,536,shirt,abstract,concrete,A,NULL
1731619445,b84e9af8434a4761a31e5156fd13c447,PennController,99,0,calibrator_conc_no_feedback,NULL,PennController,110,_Header_,Start,1731618935154,undefined,536,shirt,abstract,concrete,A,NULL
1731619445,b84e9af8434a4761a31e5156fd13c447,PennController,99,0,calibrator_conc_no_feedback,NULL,PennController,110,_Header_,End,1731618935405,undefined,536,shirt,abstract,concrete,A,NULL
1731619445,b84e9af8434a4761a31e5156fd13c447,PennController,99,0,calibrator_conc_no_feedback,NULL,Selector,unnamed-Selector,Selection,abstract,1731618936445,undefined,536,shirt,abstract,concrete,A,abstract;concrete
1731619445,b84e9af8434a4761a31e5156fd13c447,PennController,99,0,calibrator_conc_no_feedback,NULL,PennController,110,_Trial_,End,1731618936446,undefined,536,shirt,abstract,concrete,A,NULL
1731619445,b84e9af8434a4761a31e5156fd13c447,PennController,98,0,calibrator_conc_no_feedback,NULL,PennController,109,_Trial_,Start,1731618936447,undefined,324,polite,abstract,concrete,A,NULL
1731619445,b84e9af8434a4761a31e5156fd13c447,PennController,98,0,calibrator_conc_no_feedback,NULL,PennController,109,_Header_,Start,1731618936447,undefined,324,polite,abstract,concrete,A,NULL
1731619445,b84e9af8434a4761a31e5156fd13c447,PennController,98,0,calibrator_conc_no_feedback,NULL,PennController,109,_Header_,End,1731618936702,undefined,324,polite,abstract,concrete,A,NULL
1731619445,b84e9af8434a4761a31e5156fd13c447,PennController,98,0,calibrator_conc_no_feedback,NULL,Selector,unnamed-Selector,Selection,concrete,1731618937529,undefined,324,polite,abstract,concrete,A,abstract;concrete
1731619445,b84e9af8434a4761a31e5156fd13c447,PennController,98,0,calibrator_conc_no_feedback,NULL,PennController,109,_Trial_,End,1731618937530,undefined,324,polite,abstract,concrete,A,NULL
1731619445,b84e9af8434a4761a31e5156fd13c447,PennController,95,0,calibrator_conc_no_feedback,NULL,PennController,106,_Trial_,Start,1731618937531,undefined,412,grasshopper,abstract,concrete,A,NULL
1731619445,b84e9af8434a4761a31e5156fd13c447,PennController,95,0,calibrator_conc_no_feedback,NULL,PennController,106,_Header_,Start,1731618937531,undefined,412,grasshopper,abstract,concrete,A,NULL
1731619445,b84e9af8434a4761a31e5156fd13c447,PennController,95,0,calibrator_conc_no_feedback,NULL,PennController,106,_Header_,End,1731618937786,undefined,412,grasshopper,abstract,concrete,A,NULL
1731619445,b84e9af8434a4761a31e5156fd13c447,PennController,95,0,calibrator_conc_no_feedback,NULL,Selector,unnamed-Selector,Selection,abstract,1731618938701,undefined,412,grasshopper,abstract,concrete,A,abstract;concrete
1731619445,b84e9af8434a4761a31e5156fd13c447,PennController,95,0,calibrator_conc_no_feedback,NULL,PennController,106,_Trial_,End,1731618938703,undefined,412,grasshopper,abstract,concrete,A,NULL
1731619445,b84e9af8434a4761a31e5156fd13c447,PennController,102,0,calibrator_conc_no_feedback,NULL,PennController,113,_Trial_,Start,1731618938704,undefined,211,whistle,abstract,concrete,A,NULL
1731619445,b84e9af8434a4761a31e5156fd13c447,PennController,102,0,calibrator_conc_no_feedback,NULL,PennController,113,_Header_,Start,1731618938704,undefined,211,whistle,abstract,concrete,A,NULL
1731619445,b84e9af8434a4761a31e5156fd13c447,PennController,102,0,calibrator_conc_no_feedback,NULL,PennController,113,_Header_,End,1731618938962,undefined,211,whistle,abstract,concrete,A,NULL
1731619445,b84e9af8434a4761a31e5156fd13c447,PennController,102,0,calibrator_conc_no_feedback,NULL,Selector,unnamed-Selector,Selection,concrete,1731618939676,undefined,211,whistle,abstract,concrete,A,abstract;concrete
1731619445,b84e9af8434a4761a31e5156fd13c447,PennController,102,0,calibrator_conc_no_feedback,NULL,PennController,113,_Trial_,End,1731618939677,undefined,211,whistle,abstract,concrete,A,NULL
1731619445,b84e9af8434a4761a31e5156fd13c447,PennController,97,0,calibrator_conc_no_feedback,NULL,PennController,108,_Trial_,Start,1731618939679,undefined,268,marriage,abstract,concrete,A,NULL
1731619445,b84e9af8434a4761a31e5156fd13c447,PennController,97,0,calibrator_conc_no_feedback,NULL,PennController,108,_Header_,Start,1731618939679,undefined,268,marriage,abstract,concrete,A,NULL
1731619445,b84e9af8434a4761a31e5156fd13c447,PennController,97,0,calibrator_conc_no_feedback,NULL,PennController,108,_Header_,End,1731618939937,undefined,268,marriage,abstract,concrete,A,NULL
1731619445,b84e9af8434a4761a31e5156fd13c447,PennController,97,0,calibrator_conc_no_feedback,NULL,Selector,unnamed-Selector,Selection,abstract,1731618940708,undefined,268,marriage,abstract,concrete,A,abstract;concrete
1731619445,b84e9af8434a4761a31e5156fd13c447,PennController,97,0,calibrator_conc_no_feedback,NULL,PennController,108,_Trial_,End,1731618940710,undefined,268,marriage,abstract,concrete,A,NULL
1731619445,b84e9af8434a4761a31e5156fd13c447,PennController,100,0,calibrator_conc_no_feedback,NULL,PennController,111,_Trial_,Start,1731618940711,undefined,7,sugar,abstract,concrete,A,NULL
1731619445,b84e9af8434a4761a31e5156fd13c447,PennController,100,0,calibrator_conc_no_feedback,NULL,PennController,111,_Header_,Start,1731618940711,undefined,7,sugar,abstract,concrete,A,NULL
1731619445,b84e9af8434a4761a31e5156fd13c447,PennController,100,0,calibrator_conc_no_feedback,NULL,PennController,111,_Header_,End,1731618940967,undefined,7,sugar,abstract,concrete,A,NULL
1731619445,b84e9af8434a4761a31e5156fd13c447,PennController,100,0,calibrator_conc_no_feedback,NULL,Selector,unnamed-Selector,Selection,concrete,1731618941484,undefined,7,sugar,abstract,concrete,A,abstract;concrete
1731619445,b84e9af8434a4761a31e5156fd13c447,PennController,100,0,calibrator_conc_no_feedback,NULL,PennController,111,_Trial_,End,1731618941485,undefined,7,sugar,abstract,concrete,A,NULL
1731619445,b84e9af8434a4761a31e5156fd13c447,PennController,96,0,calibrator_conc_no_feedback,NULL,PennController,107,_Trial_,Start,1731618941487,undefined,289,kick,abstract,concrete,A,NULL
1731619445,b84e9af8434a4761a31e5156fd13c447,PennController,96,0,calibrator_conc_no_feedback,NULL,PennController,107,_Header_,Start,1731618941487,undefined,289,kick,abstract,concrete,A,NULL
1731619445,b84e9af8434a4761a31e5156fd13c447,PennController,96,0,calibrator_conc_no_feedback,NULL,PennController,107,_Header_,End,1731618941741,undefined,289,kick,abstract,concrete,A,NULL
1731619445,b84e9af8434a4761a31e5156fd13c447,PennController,96,0,calibrator_conc_no_feedback,NULL,Selector,unnamed-Selector,Selection,abstract,1731618942537,undefined,289,kick,abstract,concrete,A,abstract;concrete
1731619445,b84e9af8434a4761a31e5156fd13c447,PennController,96,0,calibrator_conc_no_feedback,NULL,PennController,107,_Trial_,End,1731618942538,undefined,289,kick,abstract,concrete,A,NULL
1731619445,b84e9af8434a4761a31e5156fd13c447,PennController,94,0,calibrator_conc_no_feedback,NULL,PennController,105,_Trial_,Start,1731618942539,undefined,263,gas,abstract,concrete,A,NULL
1731619445,b84e9af8434a4761a31e5156fd13c447,PennController,94,0,calibrator_conc_no_feedback,NULL,PennController,105,_Header_,Start,1731618942539,undefined,263,gas,abstract,concrete,A,NULL
1731619445,b84e9af8434a4761a31e5156fd13c447,PennController,94,0,calibrator_conc_no_feedback,NULL,PennController,105,_Header_,End,1731618942791,undefined,263,gas,abstract,concrete,A,NULL
1731619445,b84e9af8434a4761a31e5156fd13c447,PennController,94,0,calibrator_conc_no_feedback,NULL,Selector,unnamed-Selector,Selection,concrete,1731618943562,undefined,263,gas,abstract,concrete,A,abstract;concrete
1731619445,b84e9af8434a4761a31e5156fd13c447,PennController,94,0,calibrator_conc_no_feedback,NULL,PennController,105,_Trial_,End,1731618943563,undefined,263,gas,abstract,concrete,A,NULL
1731619445,b84e9af8434a4761a31e5156fd13c447,PennController,103,0,calibrator_conc_no_feedback,NULL,PennController,114,_Trial_,Start,1731618943565,undefined,17,insecure,abstract,concrete,A,NULL
1731619445,b84e9af8434a4761a31e5156fd13c447,PennController,103,0,calibrator_conc_no_feedback,NULL,PennController,114,_Header_,Start,1731618943565,undefined,17,insecure,abstract,concrete,A,NULL
1731619445,b84e9af8434a4761a31e5156fd13c447,PennController,103,0,calibrator_conc_no_feedback,NULL,PennController,114,_Header_,End,1731618943817,undefined,17,insecure,abstract,concrete,A,NULL
1731619445,b84e9af8434a4761a31e5156fd13c447,PennController,103,0,calibrator_conc_no_feedback,NULL,Selector,unnamed-Selector,Selection,abstract,1731618944343,undefined,17,insecure,abstract,concrete,A,abstract;concrete
1731619445,b84e9af8434a4761a31e5156fd13c447,PennController,103,0,calibrator_conc_no_feedback,NULL,PennController,114,_Trial_,End,1731618944344,undefined,17,insecure,abstract,concrete,A,NULL
1731619445,b84e9af8434a4761a31e5156fd13c447,PennController,101,0,calibrator_conc_no_feedback,NULL,PennController,112,_Trial_,Start,1731618944345,undefined,638,theory,abstract,concrete,A,NULL
1731619445,b84e9af8434a4761a31e5156fd13c447,PennController,101,0,calibrator_conc_no_feedback,NULL,PennController,112,_Header_,Start,1731618944345,undefined,638,theory,abstract,concrete,A,NULL
1731619445,b84e9af8434a4761a31e5156fd13c447,PennController,101,0,calibrator_conc_no_feedback,NULL,PennController,112,_Header_,End,1731618944604,undefined,638,theory,abstract,concrete,A,NULL
1731619445,b84e9af8434a4761a31e5156fd13c447,PennController,101,0,calibrator_conc_no_feedback,NULL,Selector,unnamed-Selector,Selection,concrete,1731618945747,undefined,638,theory,abstract,concrete,A,abstract;concrete
1731619445,b84e9af8434a4761a31e5156fd13c447,PennController,101,0,calibrator_conc_no_feedback,NULL,PennController,112,_Trial_,End,1731618945748,undefined,638,theory,abstract,concrete,A,NULL
# 13. Comments.
1731619445,b84e9af8434a4761a31e5156fd13c447,PennController,130,0,endinstructions_conc,NULL,PennController,8,_Trial_,Start,1731618945749,NULL
1731619445,b84e9af8434a4761a31e5156fd13c447,PennController,130,0,endinstructions_conc,NULL,PennController,8,_Header_,Start,1731618945749,NULL
1731619445,b84e9af8434a4761a31e5156fd13c447,PennController,130,0,endinstructions_conc,NULL,PennController,8,_Header_,End,1731618946007,NULL
1731619445,b84e9af8434a4761a31e5156fd13c447,PennController,130,0,endinstructions_conc,NULL,PennController,8,_Trial_,End,1731618950899,NULL
# 13. ID.
# 14. ReactionTime.
# 15. Word.
# 16. ConcValCombo.
# 17. Key_value_F.
# 18. Key_value_J.
# 19. Group.
# 20. Comments.
1731619445,b84e9af8434a4761a31e5156fd13c447,PennController,10,0,test_conc,NULL,PennController,21,_Trial_,Start,1731618950900,undefined,1248,criticize,abstract-negative,abstract,concrete,A,NULL
1731619445,b84e9af8434a4761a31e5156fd13c447,PennController,10,0,test_conc,NULL,PennController,21,_Header_,Start,1731618950900,undefined,1248,criticize,abstract-negative,abstract,concrete,A,NULL
1731619445,b84e9af8434a4761a31e5156fd13c447,PennController,10,0,test_conc,NULL,PennController,21,_Header_,End,1731618951152,undefined,1248,criticize,abstract-negative,abstract,concrete,A,NULL
1731619445,b84e9af8434a4761a31e5156fd13c447,PennController,10,0,test_conc,NULL,Selector,unnamed-Selector,Selection,abstract,1731618952903,undefined,1248,criticize,abstract-negative,abstract,concrete,A,abstract;concrete
1731619445,b84e9af8434a4761a31e5156fd13c447,PennController,10,0,test_conc,NULL,PennController,21,_Trial_,End,1731618952904,undefined,1248,criticize,abstract-negative,abstract,concrete,A,NULL
1731619445,b84e9af8434a4761a31e5156fd13c447,PennController,8,0,test_conc,NULL,PennController,19,_Trial_,Start,1731618952905,undefined,315,running,abstract-positive,abstract,concrete,A,NULL
1731619445,b84e9af8434a4761a31e5156fd13c447,PennController,8,0,test_conc,NULL,PennController,19,_Header_,Start,1731618952905,undefined,315,running,abstract-positive,abstract,concrete,A,NULL
1731619445,b84e9af8434a4761a31e5156fd13c447,PennController,8,0,test_conc,NULL,PennController,19,_Header_,End,1731618953163,undefined,315,running,abstract-positive,abstract,concrete,A,NULL
1731619445,b84e9af8434a4761a31e5156fd13c447,PennController,8,0,test_conc,NULL,Selector,unnamed-Selector,Selection,concrete,1731618953979,undefined,315,running,abstract-positive,abstract,concrete,A,abstract;concrete
1731619445,b84e9af8434a4761a31e5156fd13c447,PennController,8,0,test_conc,NULL,PennController,19,_Trial_,End,1731618953980,undefined,315,running,abstract-positive,abstract,concrete,A,NULL
1731619445,b84e9af8434a4761a31e5156fd13c447,PennController,18,0,test_conc,NULL,PennController,29,_Trial_,Start,1731618953981,undefined,305,loathe,abstract-negative,abstract,concrete,A,NULL
1731619445,b84e9af8434a4761a31e5156fd13c447,PennController,18,0,test_conc,NULL,PennController,29,_Header_,Start,1731618953981,undefined,305,loathe,abstract-negative,abstract,concrete,A,NULL
1731619445,b84e9af8434a4761a31e5156fd13c447,PennController,18,0,test_conc,NULL,PennController,29,_Header_,End,1731618954233,undefined,305,loathe,abstract-negative,abstract,concrete,A,NULL
1731619445,b84e9af8434a4761a31e5156fd13c447,PennController,18,0,test_conc,NULL,Selector,unnamed-Selector,Selection,concrete,1731618955047,undefined,305,loathe,abstract-negative,abstract,concrete,A,abstract;concrete
1731619445,b84e9af8434a4761a31e5156fd13c447,PennController,18,0,test_conc,NULL,PennController,29,_Trial_,End,1731618955048,undefined,305,loathe,abstract-negative,abstract,concrete,A,NULL
1731619445,b84e9af8434a4761a31e5156fd13c447,PennController,31,0,test_conc,NULL,PennController,42,_Trial_,Start,1731618955049,undefined,365,repair,concrete-positive,abstract,concrete,A,NULL
1731619445,b84e9af8434a4761a31e5156fd13c447,PennController,31,0,test_conc,NULL,PennController,42,_Header_,Start,1731618955049,undefined,365,repair,concrete-positive,abstract,concrete,A,NULL
1731619445,b84e9af8434a4761a31e5156fd13c447,PennController,31,0,test_conc,NULL,PennController,42,_Header_,End,1731618955307,undefined,365,repair,concrete-positive,abstract,concrete,A,NULL
1731619445,b84e9af8434a4761a31e5156fd13c447,PennController,31,0,test_conc,NULL,Selector,unnamed-Selector,Selection,concrete,1731618956180,undefined,365,repair,concrete-positive,abstract,concrete,A,abstract;concrete
1731619445,b84e9af8434a4761a31e5156fd13c447,PennController,31,0,test_conc,NULL,PennController,42,_Trial_,End,1731618956182,undefined,365,repair,concrete-positive,abstract,concrete,A,NULL
1731619445,b84e9af8434a4761a31e5156fd13c447,PennController,6,0,test_conc,NULL,PennController,17,_Trial_,Start,1731618956183,undefined,329,esteem,abstract-positive,abstract,concrete,A,NULL
1731619445,b84e9af8434a4761a31e5156fd13c447,PennController,6,0,test_conc,NULL,PennController,17,_Header_,Start,1731618956183,undefined,329,esteem,abstract-positive,abstract,concrete,A,NULL
1731619445,b84e9af8434a4761a31e5156fd13c447,PennController,6,0,test_conc,NULL,PennController,17,_Header_,End,1731618956439,undefined,329,esteem,abstract-positive,abstract,concrete,A,NULL
1731619445,b84e9af8434a4761a31e5156fd13c447,PennController,6,0,test_conc,NULL,Selector,unnamed-Selector,Selection,abstract,1731618957278,undefined,329,esteem,abstract-positive,abstract,concrete,A,abstract;concrete
1731619445,b84e9af8434a4761a31e5156fd13c447,PennController,6,0,test_conc,NULL,PennController,17,_Trial_,End,1731618957279,undefined,329,esteem,abstract-positive,abstract,concrete,A,NULL
1731619445,b84e9af8434a4761a31e5156fd13c447,PennController,19,0,test_conc,NULL,PennController,30,_Trial_,Start,1731618957280,undefined,421,cherish,abstract-positive,abstract,concrete,A,NULL
1731619445,b84e9af8434a4761a31e5156fd13c447,PennController,19,0,test_conc,NULL,PennController,30,_Header_,Start,1731618957280,undefined,421,cherish,abstract-positive,abstract,concrete,A,NULL
1731619445,b84e9af8434a4761a31e5156fd13c447,PennController,19,0,test_conc,NULL,PennController,30,_Header_,End,1731618957531,undefined,421,cherish,abstract-positive,abstract,concrete,A,NULL
1731619445,b84e9af8434a4761a31e5156fd13c447,PennController,19,0,test_conc,NULL,Selector,unnamed-Selector,Selection,concrete,1731618958459,undefined,421,cherish,abstract-positive,abstract,concrete,A,abstract;concrete
1731619445,b84e9af8434a4761a31e5156fd13c447,PennController,19,0,test_conc,NULL,PennController,30,_Trial_,End,1731618958460,undefined,421,cherish,abstract-positive,abstract,concrete,A,NULL
1731619445,b84e9af8434a4761a31e5156fd13c447,PennController,11,0,test_conc,NULL,PennController,22,_Trial_,Start,1731618958461,undefined,935,scratch,concrete-negative,abstract,concrete,A,NULL
1731619445,b84e9af8434a4761a31e5156fd13c447,PennController,11,0,test_conc,NULL,PennController,22,_Header_,Start,1731618958461,undefined,935,scratch,concrete-negative,abstract,concrete,A,NULL
1731619445,b84e9af8434a4761a31e5156fd13c447,PennController,11,0,test_conc,NULL,PennController,22,_Header_,End,1731618958716,undefined,935,scratch,concrete-negative,abstract,concrete,A,NULL
1731619445,b84e9af8434a4761a31e5156fd13c447,PennController,11,0,test_conc,NULL,Selector,unnamed-Selector,Selection,concrete,1731618960156,undefined,935,scratch,concrete-negative,abstract,concrete,A,abstract;concrete
1731619445,b84e9af8434a4761a31e5156fd13c447,PennController,11,0,test_conc,NULL,PennController,22,_Trial_,End,1731618960157,undefined,935,scratch,concrete-negative,abstract,concrete,A,NULL
1731619445,b84e9af8434a4761a31e5156fd13c447,PennController,38,0,test_conc,NULL,PennController,49,_Trial_,Start,1731618960158,undefined,1349,rot,concrete-negative,abstract,concrete,A,NULL
1731619445,b84e9af8434a4761a31e5156fd13c447,PennController,38,0,test_conc,NULL,PennController,49,_Header_,Start,1731618960158,undefined,1349,rot,concrete-negative,abstract,concrete,A,NULL
1731619445,b84e9af8434a4761a31e5156fd13c447,PennController,38,0,test_conc,NULL,PennController,49,_Header_,End,1731618960413,undefined,1349,rot,concrete-negative,abstract,concrete,A,NULL
1731619445,b84e9af8434a4761a31e5156fd13c447,PennController,38,0,test_conc,NULL,Selector,unnamed-Selector,Selection,concrete,1731618962272,undefined,1349,rot,concrete-negative,abstract,concrete,A,abstract;concrete
1731619445,b84e9af8434a4761a31e5156fd13c447,PennController,38,0,test_conc,NULL,PennController,49,_Trial_,End,1731618962273,undefined,1349,rot,concrete-negative,abstract,concrete,A,NULL
1731619445,b84e9af8434a4761a31e5156fd13c447,PennController,36,0,test_conc,NULL,PennController,47,_Trial_,Start,1731618962275,undefined,897,worry,abstract-negative,abstract,concrete,A,NULL
1731619445,b84e9af8434a4761a31e5156fd13c447,PennController,36,0,test_conc,NULL,PennController,47,_Header_,Start,1731618962275,undefined,897,worry,abstract-negative,abstract,concrete,A,NULL
1731619445,b84e9af8434a4761a31e5156fd13c447,PennController,36,0,test_conc,NULL,PennController,47,_Header_,End,1731618962525,undefined,897,worry,abstract-negative,abstract,concrete,A,NULL
1731619445,b84e9af8434a4761a31e5156fd13c447,PennController,36,0,test_conc,NULL,Selector,unnamed-Selector,Selection,abstract,1731618963926,undefined,897,worry,abstract-negative,abstract,concrete,A,abstract;concrete
1731619445,b84e9af8434a4761a31e5156fd13c447,PennController,36,0,test_conc,NULL,PennController,47,_Trial_,End,1731618963927,undefined,897,worry,abstract-negative,abstract,concrete,A,NULL
1731619445,b84e9af8434a4761a31e5156fd13c447,PennController,4,0,test_conc,NULL,PennController,15,_Trial_,Start,1731618963929,undefined,1339,befall,concrete-negative,abstract,concrete,A,NULL
1731619445,b84e9af8434a4761a31e5156fd13c447,PennController,4,0,test_conc,NULL,PennController,15,_Header_,Start,1731618963929,undefined,1339,befall,concrete-negative,abstract,concrete,A,NULL
1731619445,b84e9af8434a4761a31e5156fd13c447,PennController,4,0,test_conc,NULL,PennController,15,_Header_,End,1731618964185,undefined,1339,befall,concrete-negative,abstract,concrete,A,NULL
1731619445,b84e9af8434a4761a31e5156fd13c447,PennController,4,0,test_conc,NULL,Selector,unnamed-Selector,Selection,abstract,1731618966025,undefined,1339,befall,concrete-negative,abstract,concrete,A,abstract;concrete
1731619445,b84e9af8434a4761a31e5156fd13c447,PennController,4,0,test_conc,NULL,PennController,15,_Trial_,End,1731618966027,undefined,1339,befall,concrete-negative,abstract,concrete,A,NULL
1731619445,b84e9af8434a4761a31e5156fd13c447,PennController,23,0,test_conc,NULL,PennController,34,_Trial_,Start,1731618966028,undefined,1087,embolden,abstract-positive,abstract,concrete,A,NULL
1731619445,b84e9af8434a4761a31e5156fd13c447,PennController,23,0,test_conc,NULL,PennController,34,_Header_,Start,1731618966028,undefined,1087,embolden,abstract-positive,abstract,concrete,A,NULL
1731619445,b84e9af8434a4761a31e5156fd13c447,PennController,23,0,test_conc,NULL,PennController,34,_Header_,End,1731618966285,undefined,1087,embolden,abstract-positive,abstract,concrete,A,NULL
1731619445,b84e9af8434a4761a31e5156fd13c447,PennController,23,0,test_conc,NULL,Selector,unnamed-Selector,Selection,concrete,1731618967881,undefined,1087,embolden,abstract-positive,abstract,concrete,A,abstract;concrete
1731619445,b84e9af8434a4761a31e5156fd13c447,PennController,23,0,test_conc,NULL,PennController,34,_Trial_,End,1731618967882,undefined,1087,embolden,abstract-positive,abstract,concrete,A,NULL
1731619445,b84e9af8434a4761a31e5156fd13c447,PennController,14,0,test_conc,NULL,PennController,25,_Trial_,Start,1731618967883,undefined,865,qualify,concrete-positive,abstract,concrete,A,NULL
1731619445,b84e9af8434a4761a31e5156fd13c447,PennController,14,0,test_conc,NULL,PennController,25,_Header_,Start,1731618967883,undefined,865,qualify,concrete-positive,abstract,concrete,A,NULL
1731619445,b84e9af8434a4761a31e5156fd13c447,PennController,14,0,test_conc,NULL,PennController,25,_Header_,End,1731618968138,undefined,865,qualify,concrete-positive,abstract,concrete,A,NULL
1731619445,b84e9af8434a4761a31e5156fd13c447,PennController,14,0,test_conc,NULL,Selector,unnamed-Selector,Selection,concrete,1731618969505,undefined,865,qualify,concrete-positive,abstract,concrete,A,abstract;concrete
1731619445,b84e9af8434a4761a31e5156fd13c447,PennController,14,0,test_conc,NULL,PennController,25,_Trial_,End,1731618969506,undefined,865,qualify,concrete-positive,abstract,concrete,A,NULL
1731619445,b84e9af8434a4761a31e5156fd13c447,PennController,37,0,test_conc,NULL,PennController,48,_Trial_,Start,1731618969508,undefined,1224,kill,concrete-negative,abstract,concrete,A,NULL
1731619445,b84e9af8434a4761a31e5156fd13c447,PennController,37,0,test_conc,NULL,PennController,48,_Header_,Start,1731618969508,undefined,1224,kill,concrete-negative,abstract,concrete,A,NULL
1731619445,b84e9af8434a4761a31e5156fd13c447,PennController,37,0,test_conc,NULL,PennController,48,_Header_,End,1731618969765,undefined,1224,kill,concrete-negative,abstract,concrete,A,NULL
1731619445,b84e9af8434a4761a31e5156fd13c447,PennController,37,0,test_conc,NULL,Selector,unnamed-Selector,Selection,abstract,1731618971491,undefined,1224,kill,concrete-negative,abstract,concrete,A,abstract;concrete
1731619445,b84e9af8434a4761a31e5156fd13c447,PennController,37,0,test_conc,NULL,PennController,48,_Trial_,End,1731618971491,undefined,1224,kill,concrete-negative,abstract,concrete,A,NULL
1731619445,b84e9af8434a4761a31e5156fd13c447,PennController,27,0,test_conc,NULL,PennController,38,_Trial_,Start,1731618971492,undefined,423,cuddle,concrete-positive,abstract,concrete,A,NULL
1731619445,b84e9af8434a4761a31e5156fd13c447,PennController,27,0,test_conc,NULL,PennController,38,_Header_,Start,1731618971492,undefined,423,cuddle,concrete-positive,abstract,concrete,A,NULL
1731619445,b84e9af8434a4761a31e5156fd13c447,PennController,27,0,test_conc,NULL,PennController,38,_Header_,End,1731618971743,undefined,423,cuddle,concrete-positive,abstract,concrete,A,NULL
1731619445,b84e9af8434a4761a31e5156fd13c447,PennController,27,0,test_conc,NULL,Selector,unnamed-Selector,Selection,concrete,1731618972671,undefined,423,cuddle,concrete-positive,abstract,concrete,A,abstract;concrete
1731619445,b84e9af8434a4761a31e5156fd13c447,PennController,27,0,test_conc,NULL,PennController,38,_Trial_,End,1731618972672,undefined,423,cuddle,concrete-positive,abstract,concrete,A,NULL
1731619445,b84e9af8434a4761a31e5156fd13c447,PennController,15,0,test_conc,NULL,PennController,26,_Trial_,Start,1731618972674,undefined,962,scorn,abstract-negative,abstract,concrete,A,NULL
1731619445,b84e9af8434a4761a31e5156fd13c447,PennController,15,0,test_conc,NULL,PennController,26,_Header_,Start,1731618972674,undefined,962,scorn,abstract-negative,abstract,concrete,A,NULL
1731619445,b84e9af8434a4761a31e5156fd13c447,PennController,15,0,test_conc,NULL,PennController,26,_Header_,End,1731618972931,undefined,962,scorn,abstract-negative,abstract,concrete,A,NULL
1731619445,b84e9af8434a4761a31e5156fd13c447,PennController,15,0,test_conc,NULL,Selector,unnamed-Selector,Selection,abstract,1731618974401,undefined,962,scorn,abstract-negative,abstract,concrete,A,abstract;concrete
1731619445,b84e9af8434a4761a31e5156fd13c447,PennController,15,0,test_conc,NULL,PennController,26,_Trial_,End,1731618974402,undefined,962,scorn,abstract-negative,abstract,concrete,A,NULL
1731619445,b84e9af8434a4761a31e5156fd13c447,PennController,32,0,test_conc,NULL,PennController,43,_Trial_,Start,1731618974403,undefined,756,sail,abstract-positive,abstract,concrete,A,NULL
1731619445,b84e9af8434a4761a31e5156fd13c447,PennController,32,0,test_conc,NULL,PennController,43,_Header_,Start,1731618974403,undefined,756,sail,abstract-positive,abstract,concrete,A,NULL
1731619445,b84e9af8434a4761a31e5156fd13c447,PennController,32,0,test_conc,NULL,PennController,43,_Header_,End,1731618974659,undefined,756,sail,abstract-positive,abstract,concrete,A,NULL
1731619445,b84e9af8434a4761a31e5156fd13c447,PennController,32,0,test_conc,NULL,Selector,unnamed-Selector,Selection,abstract,1731618975918,undefined,756,sail,abstract-positive,abstract,concrete,A,abstract;concrete
1731619445,b84e9af8434a4761a31e5156fd13c447,PennController,32,0,test_conc,NULL,PennController,43,_Trial_,End,1731618975919,undefined,756,sail,abstract-positive,abstract,concrete,A,NULL
1731619445,b84e9af8434a4761a31e5156fd13c447,PennController,34,0,test_conc,NULL,PennController,45,_Trial_,Start,1731618975920,undefined,493,murder,concrete-negative,abstract,concrete,A,NULL
1731619445,b84e9af8434a4761a31e5156fd13c447,PennController,34,0,test_conc,NULL,PennController,45,_Header_,Start,1731618975920,undefined,493,murder,concrete-negative,abstract,concrete,A,NULL
1731619445,b84e9af8434a4761a31e5156fd13c447,PennController,34,0,test_conc,NULL,PennController,45,_Header_,End,1731618976170,undefined,493,murder,concrete-negative,abstract,concrete,A,NULL
1731619445,b84e9af8434a4761a31e5156fd13c447,PennController,34,0,test_conc,NULL,Selector,unnamed-Selector,Selection,concrete,1731618977173,undefined,493,murder,concrete-negative,abstract,concrete,A,abstract;concrete
1731619445,b84e9af8434a4761a31e5156fd13c447,PennController,34,0,test_conc,NULL,PennController,45,_Trial_,End,1731618977174,undefined,493,murder,concrete-negative,abstract,concrete,A,NULL
1731619445,b84e9af8434a4761a31e5156fd13c447,PennController,16,0,test_conc,NULL,PennController,27,_Trial_,Start,1731618977175,undefined,741,beware,concrete-negative,abstract,concrete,A,NULL
1731619445,b84e9af8434a4761a31e5156fd13c447,PennController,16,0,test_conc,NULL,PennController,27,_Header_,Start,1731618977175,undefined,741,beware,concrete-negative,abstract,concrete,A,NULL
1731619445,b84e9af8434a4761a31e5156fd13c447,PennController,16,0,test_conc,NULL,PennController,27,_Header_,End,1731618977427,undefined,741,beware,concrete-negative,abstract,concrete,A,NULL
1731619445,b84e9af8434a4761a31e5156fd13c447,PennController,16,0,test_conc,NULL,Selector,unnamed-Selector,Selection,concrete,1731618978670,undefined,741,beware,concrete-negative,abstract,concrete,A,abstract;concrete
1731619445,b84e9af8434a4761a31e5156fd13c447,PennController,16,0,test_conc,NULL,PennController,27,_Trial_,End,1731618978671,undefined,741,beware,concrete-negative,abstract,concrete,A,NULL
1731619445,b84e9af8434a4761a31e5156fd13c447,PennController,29,0,test_conc,NULL,PennController,40,_Trial_,Start,1731618978672,undefined,564,exploit,concrete-negative,abstract,concrete,A,NULL
1731619445,b84e9af8434a4761a31e5156fd13c447,PennController,29,0,test_conc,NULL,PennController,40,_Header_,Start,1731618978672,undefined,564,exploit,concrete-negative,abstract,concrete,A,NULL
1731619445,b84e9af8434a4761a31e5156fd13c447,PennController,29,0,test_conc,NULL,PennController,40,_Header_,End,1731618978927,undefined,564,exploit,concrete-negative,abstract,concrete,A,NULL
1731619445,b84e9af8434a4761a31e5156fd13c447,PennController,29,0,test_conc,NULL,Selector,unnamed-Selector,Selection,abstract,1731618979998,undefined,564,exploit,concrete-negative,abstract,concrete,A,abstract;concrete
1731619445,b84e9af8434a4761a31e5156fd13c447,PennController,29,0,test_conc,NULL,PennController,40,_Trial_,End,1731618979999,undefined,564,exploit,concrete-negative,abstract,concrete,A,NULL
1731619445,b84e9af8434a4761a31e5156fd13c447,PennController,24,0,test_conc,NULL,PennController,35,_Trial_,Start,1731618980000,undefined,980,respect,abstract-positive,abstract,concrete,A,NULL
1731619445,b84e9af8434a4761a31e5156fd13c447,PennController,24,0,test_conc,NULL,PennController,35,_Header_,Start,1731618980000,undefined,980,respect,abstract-positive,abstract,concrete,A,NULL
1731619445,b84e9af8434a4761a31e5156fd13c447,PennController,24,0,test_conc,NULL,PennController,35,_Header_,End,1731618980250,undefined,980,respect,abstract-positive,abstract,concrete,A,NULL
1731619445,b84e9af8434a4761a31e5156fd13c447,PennController,24,0,test_conc,NULL,Selector,unnamed-Selector,Selection,concrete,1731618981738,undefined,980,respect,abstract-positive,abstract,concrete,A,abstract;concrete
1731619445,b84e9af8434a4761a31e5156fd13c447,PennController,24,0,test_conc,NULL,PennController,35,_Trial_,End,1731618981739,undefined,980,respect,abstract-positive,abstract,concrete,A,NULL
1731619445,b84e9af8434a4761a31e5156fd13c447,PennController,40,0,test_conc,NULL,PennController,51,_Trial_,Start,1731618981740,undefined,456,behold,concrete-positive,abstract,concrete,A,NULL
1731619445,b84e9af8434a4761a31e5156fd13c447,PennController,40,0,test_conc,NULL,PennController,51,_Header_,Start,1731618981740,undefined,456,behold,concrete-positive,abstract,concrete,A,NULL
1731619445,b84e9af8434a4761a31e5156fd13c447,PennController,40,0,test_conc,NULL,PennController,51,_Header_,End,1731618981995,undefined,456,behold,concrete-positive,abstract,concrete,A,NULL
1731619445,b84e9af8434a4761a31e5156fd13c447,PennController,40,0,test_conc,NULL,Selector,unnamed-Selector,Selection,abstract,1731618982957,undefined,456,behold,concrete-positive,abstract,concrete,A,abstract;concrete
1731619445,b84e9af8434a4761a31e5156fd13c447,PennController,40,0,test_conc,NULL,PennController,51,_Trial_,End,1731618982958,undefined,456,behold,concrete-positive,abstract,concrete,A,NULL
1731619445,b84e9af8434a4761a31e5156fd13c447,PennController,21,0,test_conc,NULL,PennController,32,_Trial_,Start,1731618982959,undefined,907,excell,abstract-positive,abstract,concrete,A,NULL
1731619445,b84e9af8434a4761a31e5156fd13c447,PennController,21,0,test_conc,NULL,PennController,32,_Header_,Start,1731618982959,undefined,907,excell,abstract-positive,abstract,concrete,A,NULL
1731619445,b84e9af8434a4761a31e5156fd13c447,PennController,21,0,test_conc,NULL,PennController,32,_Header_,End,1731618983215,undefined,907,excell,abstract-positive,abstract,concrete,A,NULL
1731619445,b84e9af8434a4761a31e5156fd13c447,PennController,21,0,test_conc,NULL,Selector,unnamed-Selector,Selection,concrete,1731618984631,undefined,907,excell,abstract-positive,abstract,concrete,A,abstract;concrete
1731619445,b84e9af8434a4761a31e5156fd13c447,PennController,21,0,test_conc,NULL,PennController,32,_Trial_,End,1731618984632,undefined,907,excell,abstract-positive,abstract,concrete,A,NULL
1731619445,b84e9af8434a4761a31e5156fd13c447,PennController,26,0,test_conc,NULL,PennController,37,_Trial_,Start,1731618984633,undefined,97,flourish,abstract-positive,abstract,concrete,A,NULL
1731619445,b84e9af8434a4761a31e5156fd13c447,PennController,26,0,test_conc,NULL,PennController,37,_Header_,Start,1731618984633,undefined,97,flourish,abstract-positive,abstract,concrete,A,NULL
1731619445,b84e9af8434a4761a31e5156fd13c447,PennController,26,0,test_conc,NULL,PennController,37,_Header_,End,1731618984890,undefined,97,flourish,abstract-positive,abstract,concrete,A,NULL
1731619445,b84e9af8434a4761a31e5156fd13c447,PennController,26,0,test_conc,NULL,Selector,unnamed-Selector,Selection,abstract,1731618985495,undefined,97,flourish,abstract-positive,abstract,concrete,A,abstract;concrete
1731619445,b84e9af8434a4761a31e5156fd13c447,PennController,26,0,test_conc,NULL,PennController,37,_Trial_,End,1731618985496,undefined,97,flourish,abstract-positive,abstract,concrete,A,NULL
1731619445,b84e9af8434a4761a31e5156fd13c447,PennController,5,0,test_conc,NULL,PennController,16,_Trial_,Start,1731618985498,undefined,527,consider,concrete-positive,abstract,concrete,A,NULL
1731619445,b84e9af8434a4761a31e5156fd13c447,PennController,5,0,test_conc,NULL,PennController,16,_Header_,Start,1731618985498,undefined,527,consider,concrete-positive,abstract,concrete,A,NULL
1731619445,b84e9af8434a4761a31e5156fd13c447,PennController,5,0,test_conc,NULL,PennController,16,_Header_,End,1731618985754,undefined,527,consider,concrete-positive,abstract,concrete,A,NULL
1731619445,b84e9af8434a4761a31e5156fd13c447,PennController,5,0,test_conc,NULL,Selector,unnamed-Selector,Selection,concrete,1731618986783,undefined,527,consider,concrete-positive,abstract,concrete,A,abstract;concrete
1731619445,b84e9af8434a4761a31e5156fd13c447,PennController,5,0,test_conc,NULL,PennController,16,_Trial_,End,1731618986784,undefined,527,consider,concrete-positive,abstract,concrete,A,NULL
1731619445,b84e9af8434a4761a31e5156fd13c447,PennController,43,0,test_conc,NULL,PennController,54,_Trial_,Start,1731618986785,undefined,823,justify,concrete-positive,abstract,concrete,A,NULL
1731619445,b84e9af8434a4761a31e5156fd13c447,PennController,43,0,test_conc,NULL,PennController,54,_Header_,Start,1731618986785,undefined,823,justify,concrete-positive,abstract,concrete,A,NULL
1731619445,b84e9af8434a4761a31e5156fd13c447,PennController,43,0,test_conc,NULL,PennController,54,_Header_,End,1731618987035,undefined,823,justify,concrete-positive,abstract,concrete,A,NULL
1731619445,b84e9af8434a4761a31e5156fd13c447,PennController,43,0,test_conc,NULL,Selector,unnamed-Selector,Selection,concrete,1731618988363,undefined,823,justify,concrete-positive,abstract,concrete,A,abstract;concrete
1731619445,b84e9af8434a4761a31e5156fd13c447,PennController,43,0,test_conc,NULL,PennController,54,_Trial_,End,1731618988364,undefined,823,justify,concrete-positive,abstract,concrete,A,NULL
1731619445,b84e9af8434a4761a31e5156fd13c447,PennController,12,0,test_conc,NULL,PennController,23,_Trial_,Start,1731618988365,undefined,377,build,concrete-positive,abstract,concrete,A,NULL
1731619445,b84e9af8434a4761a31e5156fd13c447,PennController,12,0,test_conc,NULL,PennController,23,_Header_,Start,1731618988365,undefined,377,build,concrete-positive,abstract,concrete,A,NULL
1731619445,b84e9af8434a4761a31e5156fd13c447,PennController,12,0,test_conc,NULL,PennController,23,_Header_,End,1731618988621,undefined,377,build,concrete-positive,abstract,concrete,A,NULL
1731619445,b84e9af8434a4761a31e5156fd13c447,PennController,12,0,test_conc,NULL,Selector,unnamed-Selector,Selection,abstract,1731618989506,undefined,377,build,concrete-positive,abstract,concrete,A,abstract;concrete
1731619445,b84e9af8434a4761a31e5156fd13c447,PennController,12,0,test_conc,NULL,PennController,23,_Trial_,End,1731618989507,undefined,377,build,concrete-positive,abstract,concrete,A,NULL
1731619445,b84e9af8434a4761a31e5156fd13c447,PennController,20,0,test_conc,NULL,PennController,31,_Trial_,Start,1731618989508,undefined,882,hug,concrete-positive,abstract,concrete,A,NULL
1731619445,b84e9af8434a4761a31e5156fd13c447,PennController,20,0,test_conc,NULL,PennController,31,_Header_,Start,1731618989508,undefined,882,hug,concrete-positive,abstract,concrete,A,NULL
1731619445,b84e9af8434a4761a31e5156fd13c447,PennController,20,0,test_conc,NULL,PennController,31,_Header_,End,1731618989761,undefined,882,hug,concrete-positive,abstract,concrete,A,NULL
1731619445,b84e9af8434a4761a31e5156fd13c447,PennController,20,0,test_conc,NULL,Selector,unnamed-Selector,Selection,abstract,1731618991146,undefined,882,hug,concrete-positive,abstract,concrete,A,abstract;concrete
1731619445,b84e9af8434a4761a31e5156fd13c447,PennController,20,0,test_conc,NULL,PennController,31,_Trial_,End,1731618991147,undefined,882,hug,concrete-positive,abstract,concrete,A,NULL
1731619445,b84e9af8434a4761a31e5156fd13c447,PennController,35,0,test_conc,NULL,PennController,46,_Trial_,Start,1731618991148,undefined,467,adore,abstract-positive,abstract,concrete,A,NULL
1731619445,b84e9af8434a4761a31e5156fd13c447,PennController,35,0,test_conc,NULL,PennController,46,_Header_,Start,1731618991148,undefined,467,adore,abstract-positive,abstract,concrete,A,NULL
1731619445,b84e9af8434a4761a31e5156fd13c447,PennController,35,0,test_conc,NULL,PennController,46,_Header_,End,1731618991402,undefined,467,adore,abstract-positive,abstract,concrete,A,NULL
1731619445,b84e9af8434a4761a31e5156fd13c447,PennController,35,0,test_conc,NULL,Selector,unnamed-Selector,Selection,concrete,1731618992377,undefined,467,adore,abstract-positive,abstract,concrete,A,abstract;concrete
1731619445,b84e9af8434a4761a31e5156fd13c447,PennController,35,0,test_conc,NULL,PennController,46,_Trial_,End,1731618992378,undefined,467,adore,abstract-positive,abstract,concrete,A,NULL
1731619445,b84e9af8434a4761a31e5156fd13c447,PennController,7,0,test_conc,NULL,PennController,18,_Trial_,Start,1731618992379,undefined,411,fall,abstract-negative,abstract,concrete,A,NULL
1731619445,b84e9af8434a4761a31e5156fd13c447,PennController,7,0,test_conc,NULL,PennController,18,_Header_,Start,1731618992379,undefined,411,fall,abstract-negative,abstract,concrete,A,NULL
1731619445,b84e9af8434a4761a31e5156fd13c447,PennController,7,0,test_conc,NULL,PennController,18,_Header_,End,1731618992635,undefined,411,fall,abstract-negative,abstract,concrete,A,NULL
1731619445,b84e9af8434a4761a31e5156fd13c447,PennController,7,0,test_conc,NULL,Selector,unnamed-Selector,Selection,abstract,1731618993554,undefined,411,fall,abstract-negative,abstract,concrete,A,abstract;concrete
1731619445,b84e9af8434a4761a31e5156fd13c447,PennController,7,0,test_conc,NULL,PennController,18,_Trial_,End,1731618993555,undefined,411,fall,abstract-negative,abstract,concrete,A,NULL
1731619445,b84e9af8434a4761a31e5156fd13c447,PennController,22,0,test_conc,NULL,PennController,33,_Trial_,Start,1731618993556,undefined,487,resent,abstract-negative,abstract,concrete,A,NULL
1731619445,b84e9af8434a4761a31e5156fd13c447,PennController,22,0,test_conc,NULL,PennController,33,_Header_,Start,1731618993556,undefined,487,resent,abstract-negative,abstract,concrete,A,NULL
1731619445,b84e9af8434a4761a31e5156fd13c447,PennController,22,0,test_conc,NULL,PennController,33,_Header_,End,1731618993810,undefined,487,resent,abstract-negative,abstract,concrete,A,NULL
1731619445,b84e9af8434a4761a31e5156fd13c447,PennController,22,0,test_conc,NULL,Selector,unnamed-Selector,Selection,concrete,1731618994799,undefined,487,resent,abstract-negative,abstract,concrete,A,abstract;concrete
1731619445,b84e9af8434a4761a31e5156fd13c447,PennController,22,0,test_conc,NULL,PennController,33,_Trial_,End,1731618994800,undefined,487,resent,abstract-negative,abstract,concrete,A,NULL
1731619445,b84e9af8434a4761a31e5156fd13c447,PennController,25,0,test_conc,NULL,PennController,36,_Trial_,Start,1731618994801,undefined,911,admire,abstract-positive,abstract,concrete,A,NULL
1731619445,b84e9af8434a4761a31e5156fd13c447,PennController,25,0,test_conc,NULL,PennController,36,_Header_,Start,1731618994801,undefined,911,admire,abstract-positive,abstract,concrete,A,NULL
1731619445,b84e9af8434a4761a31e5156fd13c447,PennController,25,0,test_conc,NULL,PennController,36,_Header_,End,1731618995055,undefined,911,admire,abstract-positive,abstract,concrete,A,NULL
1731619445,b84e9af8434a4761a31e5156fd13c447,PennController,25,0,test_conc,NULL,Selector,unnamed-Selector,Selection,abstract,1731618996468,undefined,911,admire,abstract-positive,abstract,concrete,A,abstract;concrete
1731619445,b84e9af8434a4761a31e5156fd13c447,PennController,25,0,test_conc,NULL,PennController,36,_Trial_,End,1731618996469,undefined,911,admire,abstract-positive,abstract,concrete,A,NULL
1731619445,b84e9af8434a4761a31e5156fd13c447,PennController,13,0,test_conc,NULL,PennController,24,_Trial_,Start,1731618996470,undefined,707,impose,concrete-negative,abstract,concrete,A,NULL
1731619445,b84e9af8434a4761a31e5156fd13c447,PennController,13,0,test_conc,NULL,PennController,24,_Header_,Start,1731618996470,undefined,707,impose,concrete-negative,abstract,concrete,A,NULL
1731619445,b84e9af8434a4761a31e5156fd13c447,PennController,13,0,test_conc,NULL,PennController,24,_Header_,End,1731618996723,undefined,707,impose,concrete-negative,abstract,concrete,A,NULL
1731619445,b84e9af8434a4761a31e5156fd13c447,PennController,13,0,test_conc,NULL,Selector,unnamed-Selector,Selection,concrete,1731618997932,undefined,707,impose,concrete-negative,abstract,concrete,A,abstract;concrete
1731619445,b84e9af8434a4761a31e5156fd13c447,PennController,13,0,test_conc,NULL,PennController,24,_Trial_,End,1731618997933,undefined,707,impose,concrete-negative,abstract,concrete,A,NULL
1731619445,b84e9af8434a4761a31e5156fd13c447,PennController,39,0,test_conc,NULL,PennController,50,_Trial_,Start,1731618997934,undefined,605,smile,concrete-positive,abstract,concrete,A,NULL
1731619445,b84e9af8434a4761a31e5156fd13c447,PennController,39,0,test_conc,NULL,PennController,50,_Header_,Start,1731618997934,undefined,605,smile,concrete-positive,abstract,concrete,A,NULL
1731619445,b84e9af8434a4761a31e5156fd13c447,PennController,39,0,test_conc,NULL,PennController,50,_Header_,End,1731618998184,undefined,605,smile,concrete-positive,abstract,concrete,A,NULL
1731619445,b84e9af8434a4761a31e5156fd13c447,PennController,39,0,test_conc,NULL,Selector,unnamed-Selector,Selection,concrete,1731618999295,undefined,605,smile,concrete-positive,abstract,concrete,A,abstract;concrete
1731619445,b84e9af8434a4761a31e5156fd13c447,PennController,39,0,test_conc,NULL,PennController,50,_Trial_,End,1731618999296,undefined,605,smile,concrete-positive,abstract,concrete,A,NULL
1731619445,b84e9af8434a4761a31e5156fd13c447,PennController,17,0,test_conc,NULL,PennController,28,_Trial_,Start,1731618999297,undefined,562,obsess,abstract-negative,abstract,concrete,A,NULL
1731619445,b84e9af8434a4761a31e5156fd13c447,PennController,17,0,test_conc,NULL,PennController,28,_Header_,Start,1731618999297,undefined,562,obsess,abstract-negative,abstract,concrete,A,NULL
1731619445,b84e9af8434a4761a31e5156fd13c447,PennController,17,0,test_conc,NULL,PennController,28,_Header_,End,1731618999555,undefined,562,obsess,abstract-negative,abstract,concrete,A,NULL
1731619445,b84e9af8434a4761a31e5156fd13c447,PennController,17,0,test_conc,NULL,Selector,unnamed-Selector,Selection,abstract,1731619000626,undefined,562,obsess,abstract-negative,abstract,concrete,A,abstract;concrete
1731619445,b84e9af8434a4761a31e5156fd13c447,PennController,17,0,test_conc,NULL,PennController,28,_Trial_,End,1731619000627,undefined,562,obsess,abstract-negative,abstract,concrete,A,NULL
1731619445,b84e9af8434a4761a31e5156fd13c447,PennController,30,0,test_conc,NULL,PennController,41,_Trial_,Start,1731619000628,undefined,642,hurl,abstract-negative,abstract,concrete,A,NULL
1731619445,b84e9af8434a4761a31e5156fd13c447,PennController,30,0,test_conc,NULL,PennController,41,_Header_,Start,1731619000628,undefined,642,hurl,abstract-negative,abstract,concrete,A,NULL
1731619445,b84e9af8434a4761a31e5156fd13c447,PennController,30,0,test_conc,NULL,PennController,41,_Header_,End,1731619000879,undefined,642,hurl,abstract-negative,abstract,concrete,A,NULL
1731619445,b84e9af8434a4761a31e5156fd13c447,PennController,30,0,test_conc,NULL,Selector,unnamed-Selector,Selection,concrete,1731619002030,undefined,642,hurl,abstract-negative,abstract,concrete,A,abstract;concrete
1731619445,b84e9af8434a4761a31e5156fd13c447,PennController,30,0,test_conc,NULL,PennController,41,_Trial_,End,1731619002031,undefined,642,hurl,abstract-negative,abstract,concrete,A,NULL
1731619445,b84e9af8434a4761a31e5156fd13c447,PennController,28,0,test_conc,NULL,PennController,39,_Trial_,Start,1731619002033,undefined,1155,doubt,abstract-negative,abstract,concrete,A,NULL
1731619445,b84e9af8434a4761a31e5156fd13c447,PennController,28,0,test_conc,NULL,PennController,39,_Header_,Start,1731619002033,undefined,1155,doubt,abstract-negative,abstract,concrete,A,NULL
1731619445,b84e9af8434a4761a31e5156fd13c447,PennController,28,0,test_conc,NULL,PennController,39,_Header_,End,1731619002285,undefined,1155,doubt,abstract-negative,abstract,concrete,A,NULL
1731619445,b84e9af8434a4761a31e5156fd13c447,PennController,28,0,test_conc,NULL,Selector,unnamed-Selector,Selection,concrete,1731619003944,undefined,1155,doubt,abstract-negative,abstract,concrete,A,abstract;concrete
1731619445,b84e9af8434a4761a31e5156fd13c447,PennController,28,0,test_conc,NULL,PennController,39,_Trial_,End,1731619003945,undefined,1155,doubt,abstract-negative,abstract,concrete,A,NULL
1731619445,b84e9af8434a4761a31e5156fd13c447,PennController,9,0,test_conc,NULL,PennController,20,_Trial_,Start,1731619003946,undefined,550,break,concrete-negative,abstract,concrete,A,NULL
1731619445,b84e9af8434a4761a31e5156fd13c447,PennController,9,0,test_conc,NULL,PennController,20,_Header_,Start,1731619003946,undefined,550,break,concrete-negative,abstract,concrete,A,NULL
1731619445,b84e9af8434a4761a31e5156fd13c447,PennController,9,0,test_conc,NULL,PennController,20,_Header_,End,1731619004199,undefined,550,break,concrete-negative,abstract,concrete,A,NULL
1731619445,b84e9af8434a4761a31e5156fd13c447,PennController,9,0,test_conc,NULL,Selector,unnamed-Selector,Selection,abstract,1731619005254,undefined,550,break,concrete-negative,abstract,concrete,A,abstract;concrete
1731619445,b84e9af8434a4761a31e5156fd13c447,PennController,9,0,test_conc,NULL,PennController,20,_Trial_,End,1731619005254,undefined,550,break,concrete-negative,abstract,concrete,A,NULL
1731619445,b84e9af8434a4761a31e5156fd13c447,PennController,33,0,test_conc,NULL,PennController,44,_Trial_,Start,1731619005255,undefined,1029,smack,abstract-negative,abstract,concrete,A,NULL
1731619445,b84e9af8434a4761a31e5156fd13c447,PennController,33,0,test_conc,NULL,PennController,44,_Header_,Start,1731619005255,undefined,1029,smack,abstract-negative,abstract,concrete,A,NULL
1731619445,b84e9af8434a4761a31e5156fd13c447,PennController,33,0,test_conc,NULL,PennController,44,_Header_,End,1731619005510,undefined,1029,smack,abstract-negative,abstract,concrete,A,NULL
1731619445,b84e9af8434a4761a31e5156fd13c447,PennController,33,0,test_conc,NULL,Selector,unnamed-Selector,Selection,abstract,1731619007047,undefined,1029,smack,abstract-negative,abstract,concrete,A,abstract;concrete
1731619445,b84e9af8434a4761a31e5156fd13c447,PennController,33,0,test_conc,NULL,PennController,44,_Trial_,End,1731619007048,undefined,1029,smack,abstract-negative,abstract,concrete,A,NULL
1731619445,b84e9af8434a4761a31e5156fd13c447,PennController,41,0,test_conc,NULL,PennController,52,_Trial_,Start,1731619007049,undefined,805,feeling,concrete-positive,abstract,concrete,A,NULL
1731619445,b84e9af8434a4761a31e5156fd13c447,PennController,41,0,test_conc,NULL,PennController,52,_Header_,Start,1731619007049,undefined,805,feeling,concrete-positive,abstract,concrete,A,NULL
1731619445,b84e9af8434a4761a31e5156fd13c447,PennController,41,0,test_conc,NULL,PennController,52,_Header_,End,1731619007299,undefined,805,feeling,concrete-positive,abstract,concrete,A,NULL
1731619445,b84e9af8434a4761a31e5156fd13c447,PennController,41,0,test_conc,NULL,Selector,unnamed-Selector,Selection,concrete,1731619008605,undefined,805,feeling,concrete-positive,abstract,concrete,A,abstract;concrete
1731619445,b84e9af8434a4761a31e5156fd13c447,PennController,41,0,test_conc,NULL,PennController,52,_Trial_,End,1731619008606,undefined,805,feeling,concrete-positive,abstract,concrete,A,NULL
1731619445,b84e9af8434a4761a31e5156fd13c447,PennController,42,0,test_conc,NULL,PennController,53,_Trial_,Start,1731619008607,undefined,565,stab,concrete-negative,abstract,concrete,A,NULL
1731619445,b84e9af8434a4761a31e5156fd13c447,PennController,42,0,test_conc,NULL,PennController,53,_Header_,Start,1731619008607,undefined,565,stab,concrete-negative,abstract,concrete,A,NULL
1731619445,b84e9af8434a4761a31e5156fd13c447,PennController,42,0,test_conc,NULL,PennController,53,_Header_,End,1731619008865,undefined,565,stab,concrete-negative,abstract,concrete,A,NULL
1731619445,b84e9af8434a4761a31e5156fd13c447,PennController,42,0,test_conc,NULL,Selector,unnamed-Selector,Selection,abstract,1731619009932,undefined,565,stab,concrete-negative,abstract,concrete,A,abstract;concrete
1731619445,b84e9af8434a4761a31e5156fd13c447,PennController,42,0,test_conc,NULL,PennController,53,_Trial_,End,1731619009933,undefined,565,stab,concrete-negative,abstract,concrete,A,NULL
1731619445,b84e9af8434a4761a31e5156fd13c447,PennController,39,0,test_conc,NULL,PennController,50,_Trial_,Start,1731619009934,undefined,898,smile,concrete-positive,abstract,concrete,A,NULL
1731619445,b84e9af8434a4761a31e5156fd13c447,PennController,39,0,test_conc,NULL,PennController,50,_Header_,Start,1731619009934,undefined,898,smile,concrete-positive,abstract,concrete,A,NULL
1731619445,b84e9af8434a4761a31e5156fd13c447,PennController,39,0,test_conc,NULL,PennController,50,_Header_,End,1731619010189,undefined,898,smile,concrete-positive,abstract,concrete,A,NULL
1731619445,b84e9af8434a4761a31e5156fd13c447,PennController,39,0,test_conc,NULL,Selector,unnamed-Selector,Selection,concrete,1731619011590,undefined,898,smile,concrete-positive,abstract,concrete,A,abstract;concrete
1731619445,b84e9af8434a4761a31e5156fd13c447,PennController,39,0,test_conc,NULL,PennController,50,_Trial_,End,1731619011591,undefined,898,smile,concrete-positive,abstract,concrete,A,NULL
1731619445,b84e9af8434a4761a31e5156fd13c447,PennController,20,0,test_conc,NULL,PennController,31,_Trial_,Start,1731619011592,undefined,359,hug,concrete-positive,abstract,concrete,A,NULL
1731619445,b84e9af8434a4761a31e5156fd13c447,PennController,20,0,test_conc,NULL,PennController,31,_Header_,Start,1731619011592,undefined,359,hug,concrete-positive,abstract,concrete,A,NULL
1731619445,b84e9af8434a4761a31e5156fd13c447,PennController,20,0,test_conc,NULL,PennController,31,_Header_,End,1731619011846,undefined,359,hug,concrete-positive,abstract,concrete,A,NULL
1731619445,b84e9af8434a4761a31e5156fd13c447,PennController,20,0,test_conc,NULL,Selector,unnamed-Selector,Selection,abstract,1731619012708,undefined,359,hug,concrete-positive,abstract,concrete,A,abstract;concrete
1731619445,b84e9af8434a4761a31e5156fd13c447,PennController,20,0,test_conc,NULL,PennController,31,_Trial_,End,1731619012709,undefined,359,hug,concrete-positive,abstract,concrete,A,NULL
1731619445,b84e9af8434a4761a31e5156fd13c447,PennController,28,0,test_conc,NULL,PennController,39,_Trial_,Start,1731619012710,undefined,742,doubt,abstract-negative,abstract,concrete,A,NULL
1731619445,b84e9af8434a4761a31e5156fd13c447,PennController,28,0,test_conc,NULL,PennController,39,_Header_,Start,1731619012710,undefined,742,doubt,abstract-negative,abstract,concrete,A,NULL
1731619445,b84e9af8434a4761a31e5156fd13c447,PennController,28,0,test_conc,NULL,PennController,39,_Header_,End,1731619012960,undefined,742,doubt,abstract-negative,abstract,concrete,A,NULL
1731619445,b84e9af8434a4761a31e5156fd13c447,PennController,28,0,test_conc,NULL,Selector,unnamed-Selector,Selection,concrete,1731619014207,undefined,742,doubt,abstract-negative,abstract,concrete,A,abstract;concrete
1731619445,b84e9af8434a4761a31e5156fd13c447,PennController,28,0,test_conc,NULL,PennController,39,_Trial_,End,1731619014208,undefined,742,doubt,abstract-negative,abstract,concrete,A,NULL
1731619445,b84e9af8434a4761a31e5156fd13c447,PennController,8,0,test_conc,NULL,PennController,19,_Trial_,Start,1731619014209,undefined,1073,running,abstract-positive,abstract,concrete,A,NULL
1731619445,b84e9af8434a4761a31e5156fd13c447,PennController,8,0,test_conc,NULL,PennController,19,_Header_,Start,1731619014209,undefined,1073,running,abstract-positive,abstract,concrete,A,NULL
1731619445,b84e9af8434a4761a31e5156fd13c447,PennController,8,0,test_conc,NULL,PennController,19,_Header_,End,1731619014463,undefined,1073,running,abstract-positive,abstract,concrete,A,NULL
1731619445,b84e9af8434a4761a31e5156fd13c447,PennController,8,0,test_conc,NULL,Selector,unnamed-Selector,Selection,abstract,1731619016039,undefined,1073,running,abstract-positive,abstract,concrete,A,abstract;concrete
1731619445,b84e9af8434a4761a31e5156fd13c447,PennController,8,0,test_conc,NULL,PennController,19,_Trial_,End,1731619016039,undefined,1073,running,abstract-positive,abstract,concrete,A,NULL
1731619445,b84e9af8434a4761a31e5156fd13c447,PennController,25,0,test_conc,NULL,PennController,36,_Trial_,Start,1731619016040,undefined,44,admire,abstract-positive,abstract,concrete,A,NULL
1731619445,b84e9af8434a4761a31e5156fd13c447,PennController,25,0,test_conc,NULL,PennController,36,_Header_,Start,1731619016040,undefined,44,admire,abstract-positive,abstract,concrete,A,NULL
1731619445,b84e9af8434a4761a31e5156fd13c447,PennController,25,0,test_conc,NULL,PennController,36,_Header_,End,1731619016292,undefined,44,admire,abstract-positive,abstract,concrete,A,NULL
1731619445,b84e9af8434a4761a31e5156fd13c447,PennController,25,0,test_conc,NULL,Selector,unnamed-Selector,Selection,concrete,1731619016839,undefined,44,admire,abstract-positive,abstract,concrete,A,abstract;concrete
1731619445,b84e9af8434a4761a31e5156fd13c447,PennController,25,0,test_conc,NULL,PennController,36,_Trial_,End,1731619016840,undefined,44,admire,abstract-positive,abstract,concrete,A,NULL
1731619445,b84e9af8434a4761a31e5156fd13c447,PennController,6,0,test_conc,NULL,PennController,17,_Trial_,Start,1731619016841,undefined,397,esteem,abstract-positive,abstract,concrete,A,NULL
1731619445,b84e9af8434a4761a31e5156fd13c447,PennController,6,0,test_conc,NULL,PennController,17,_Header_,Start,1731619016841,undefined,397,esteem,abstract-positive,abstract,concrete,A,NULL
1731619445,b84e9af8434a4761a31e5156fd13c447,PennController,6,0,test_conc,NULL,PennController,17,_Header_,End,1731619017094,undefined,397,esteem,abstract-positive,abstract,concrete,A,NULL
1731619445,b84e9af8434a4761a31e5156fd13c447,PennController,6,0,test_conc,NULL,Selector,unnamed-Selector,Selection,abstract,1731619017994,undefined,397,esteem,abstract-positive,abstract,concrete,A,abstract;concrete
1731619445,b84e9af8434a4761a31e5156fd13c447,PennController,6,0,test_conc,NULL,PennController,17,_Trial_,End,1731619017995,undefined,397,esteem,abstract-positive,abstract,concrete,A,NULL
1731619445,b84e9af8434a4761a31e5156fd13c447,PennController,18,0,test_conc,NULL,PennController,29,_Trial_,Start,1731619017996,undefined,52,loathe,abstract-negative,abstract,concrete,A,NULL
1731619445,b84e9af8434a4761a31e5156fd13c447,PennController,18,0,test_conc,NULL,PennController,29,_Header_,Start,1731619017996,undefined,52,loathe,abstract-negative,abstract,concrete,A,NULL
1731619445,b84e9af8434a4761a31e5156fd13c447,PennController,18,0,test_conc,NULL,PennController,29,_Header_,End,1731619018251,undefined,52,loathe,abstract-negative,abstract,concrete,A,NULL
1731619445,b84e9af8434a4761a31e5156fd13c447,PennController,18,0,test_conc,NULL,Selector,unnamed-Selector,Selection,concrete,1731619018806,undefined,52,loathe,abstract-negative,abstract,concrete,A,abstract;concrete
1731619445,b84e9af8434a4761a31e5156fd13c447,PennController,18,0,test_conc,NULL,PennController,29,_Trial_,End,1731619018807,undefined,52,loathe,abstract-negative,abstract,concrete,A,NULL
1731619445,b84e9af8434a4761a31e5156fd13c447,PennController,10,0,test_conc,NULL,PennController,21,_Trial_,Start,1731619018809,undefined,169,criticize,abstract-negative,abstract,concrete,A,NULL
1731619445,b84e9af8434a4761a31e5156fd13c447,PennController,10,0,test_conc,NULL,PennController,21,_Header_,Start,1731619018809,undefined,169,criticize,abstract-negative,abstract,concrete,A,NULL
1731619445,b84e9af8434a4761a31e5156fd13c447,PennController,10,0,test_conc,NULL,PennController,21,_Header_,End,1731619019059,undefined,169,criticize,abstract-negative,abstract,concrete,A,NULL
1731619445,b84e9af8434a4761a31e5156fd13c447,PennController,10,0,test_conc,NULL,Selector,unnamed-Selector,Selection,abstract,1731619019738,undefined,169,criticize,abstract-negative,abstract,concrete,A,abstract;concrete
1731619445,b84e9af8434a4761a31e5156fd13c447,PennController,10,0,test_conc,NULL,PennController,21,_Trial_,End,1731619019739,undefined,169,criticize,abstract-negative,abstract,concrete,A,NULL
1731619445,b84e9af8434a4761a31e5156fd13c447,PennController,16,0,test_conc,NULL,PennController,27,_Trial_,Start,1731619019740,undefined,350,beware,concrete-negative,abstract,concrete,A,NULL
1731619445,b84e9af8434a4761a31e5156fd13c447,PennController,16,0,test_conc,NULL,PennController,27,_Header_,Start,1731619019740,undefined,350,beware,concrete-negative,abstract,concrete,A,NULL
1731619445,b84e9af8434a4761a31e5156fd13c447,PennController,16,0,test_conc,NULL,PennController,27,_Header_,End,1731619019996,undefined,350,beware,concrete-negative,abstract,concrete,A,NULL
1731619445,b84e9af8434a4761a31e5156fd13c447,PennController,16,0,test_conc,NULL,Selector,unnamed-Selector,Selection,concrete,1731619020850,undefined,350,beware,concrete-negative,abstract,concrete,A,abstract;concrete
1731619445,b84e9af8434a4761a31e5156fd13c447,PennController,16,0,test_conc,NULL,PennController,27,_Trial_,End,1731619020851,undefined,350,beware,concrete-negative,abstract,concrete,A,NULL
1731619445,b84e9af8434a4761a31e5156fd13c447,PennController,24,0,test_conc,NULL,PennController,35,_Trial_,Start,1731619020852,undefined,503,respect,abstract-positive,abstract,concrete,A,NULL
1731619445,b84e9af8434a4761a31e5156fd13c447,PennController,24,0,test_conc,NULL,PennController,35,_Header_,Start,1731619020852,undefined,503,respect,abstract-positive,abstract,concrete,A,NULL
1731619445,b84e9af8434a4761a31e5156fd13c447,PennController,24,0,test_conc,NULL,PennController,35,_Header_,End,1731619021108,undefined,503,respect,abstract-positive,abstract,concrete,A,NULL
1731619445,b84e9af8434a4761a31e5156fd13c447,PennController,24,0,test_conc,NULL,Selector,unnamed-Selector,Selection,abstract,1731619022113,undefined,503,respect,abstract-positive,abstract,concrete,A,abstract;concrete
1731619445,b84e9af8434a4761a31e5156fd13c447,PennController,24,0,test_conc,NULL,PennController,35,_Trial_,End,1731619022114,undefined,503,respect,abstract-positive,abstract,concrete,A,NULL
1731619445,b84e9af8434a4761a31e5156fd13c447,PennController,29,0,test_conc,NULL,PennController,40,_Trial_,Start,1731619022115,undefined,407,exploit,concrete-negative,abstract,concrete,A,NULL
1731619445,b84e9af8434a4761a31e5156fd13c447,PennController,29,0,test_conc,NULL,PennController,40,_Header_,Start,1731619022115,undefined,407,exploit,concrete-negative,abstract,concrete,A,NULL
1731619445,b84e9af8434a4761a31e5156fd13c447,PennController,29,0,test_conc,NULL,PennController,40,_Header_,End,1731619022371,undefined,407,exploit,concrete-negative,abstract,concrete,A,NULL
1731619445,b84e9af8434a4761a31e5156fd13c447,PennController,29,0,test_conc,NULL,Selector,unnamed-Selector,Selection,concrete,1731619023283,undefined,407,exploit,concrete-negative,abstract,concrete,A,abstract;concrete
1731619445,b84e9af8434a4761a31e5156fd13c447,PennController,29,0,test_conc,NULL,PennController,40,_Trial_,End,1731619023284,undefined,407,exploit,concrete-negative,abstract,concrete,A,NULL
1731619445,b84e9af8434a4761a31e5156fd13c447,PennController,32,0,test_conc,NULL,PennController,43,_Trial_,Start,1731619023285,undefined,419,sail,abstract-positive,abstract,concrete,A,NULL
1731619445,b84e9af8434a4761a31e5156fd13c447,PennController,32,0,test_conc,NULL,PennController,43,_Header_,Start,1731619023285,undefined,419,sail,abstract-positive,abstract,concrete,A,NULL
1731619445,b84e9af8434a4761a31e5156fd13c447,PennController,32,0,test_conc,NULL,PennController,43,_Header_,End,1731619023540,undefined,419,sail,abstract-positive,abstract,concrete,A,NULL
1731619445,b84e9af8434a4761a31e5156fd13c447,PennController,32,0,test_conc,NULL,Selector,unnamed-Selector,Selection,abstract,1731619024469,undefined,419,sail,abstract-positive,abstract,concrete,A,abstract;concrete
1731619445,b84e9af8434a4761a31e5156fd13c447,PennController,32,0,test_conc,NULL,PennController,43,_Trial_,End,1731619024470,undefined,419,sail,abstract-positive,abstract,concrete,A,NULL
1731619445,b84e9af8434a4761a31e5156fd13c447,PennController,30,0,test_conc,NULL,PennController,41,_Trial_,Start,1731619024471,undefined,461,hurl,abstract-negative,abstract,concrete,A,NULL
1731619445,b84e9af8434a4761a31e5156fd13c447,PennController,30,0,test_conc,NULL,PennController,41,_Header_,Start,1731619024471,undefined,461,hurl,abstract-negative,abstract,concrete,A,NULL
1731619445,b84e9af8434a4761a31e5156fd13c447,PennController,30,0,test_conc,NULL,PennController,41,_Header_,End,1731619024722,undefined,461,hurl,abstract-negative,abstract,concrete,A,NULL
1731619445,b84e9af8434a4761a31e5156fd13c447,PennController,30,0,test_conc,NULL,Selector,unnamed-Selector,Selection,concrete,1731619025684,undefined,461,hurl,abstract-negative,abstract,concrete,A,abstract;concrete
1731619445,b84e9af8434a4761a31e5156fd13c447,PennController,30,0,test_conc,NULL,PennController,41,_Trial_,End,1731619025685,undefined,461,hurl,abstract-negative,abstract,concrete,A,NULL
1731619445,b84e9af8434a4761a31e5156fd13c447,PennController,36,0,test_conc,NULL,PennController,47,_Trial_,Start,1731619025686,undefined,574,worry,abstract-negative,abstract,concrete,A,NULL
1731619445,b84e9af8434a4761a31e5156fd13c447,PennController,36,0,test_conc,NULL,PennController,47,_Header_,Start,1731619025686,undefined,574,worry,abstract-negative,abstract,concrete,A,NULL
1731619445,b84e9af8434a4761a31e5156fd13c447,PennController,36,0,test_conc,NULL,PennController,47,_Header_,End,1731619025938,undefined,574,worry,abstract-negative,abstract,concrete,A,NULL
1731619445,b84e9af8434a4761a31e5156fd13c447,PennController,36,0,test_conc,NULL,Selector,unnamed-Selector,Selection,concrete,1731619027020,undefined,574,worry,abstract-negative,abstract,concrete,A,abstract;concrete
1731619445,b84e9af8434a4761a31e5156fd13c447,PennController,36,0,test_conc,NULL,PennController,47,_Trial_,End,1731619027022,undefined,574,worry,abstract-negative,abstract,concrete,A,NULL
1731619445,b84e9af8434a4761a31e5156fd13c447,PennController,22,0,test_conc,NULL,PennController,33,_Trial_,Start,1731619027023,undefined,690,resent,abstract-negative,abstract,concrete,A,NULL
1731619445,b84e9af8434a4761a31e5156fd13c447,PennController,22,0,test_conc,NULL,PennController,33,_Header_,Start,1731619027023,undefined,690,resent,abstract-negative,abstract,concrete,A,NULL
1731619445,b84e9af8434a4761a31e5156fd13c447,PennController,22,0,test_conc,NULL,PennController,33,_Header_,End,1731619027279,undefined,690,resent,abstract-negative,abstract,concrete,A,NULL
1731619445,b84e9af8434a4761a31e5156fd13c447,PennController,22,0,test_conc,NULL,Selector,unnamed-Selector,Selection,abstract,1731619028477,undefined,690,resent,abstract-negative,abstract,concrete,A,abstract;concrete
1731619445,b84e9af8434a4761a31e5156fd13c447,PennController,22,0,test_conc,NULL,PennController,33,_Trial_,End,1731619028478,undefined,690,resent,abstract-negative,abstract,concrete,A,NULL
1731619445,b84e9af8434a4761a31e5156fd13c447,PennController,35,0,test_conc,NULL,PennController,46,_Trial_,Start,1731619028479,undefined,672,adore,abstract-positive,abstract,concrete,A,NULL
1731619445,b84e9af8434a4761a31e5156fd13c447,PennController,35,0,test_conc,NULL,PennController,46,_Header_,Start,1731619028479,undefined,672,adore,abstract-positive,abstract,concrete,A,NULL
1731619445,b84e9af8434a4761a31e5156fd13c447,PennController,35,0,test_conc,NULL,PennController,46,_Header_,End,1731619028737,undefined,672,adore,abstract-positive,abstract,concrete,A,NULL
1731619445,b84e9af8434a4761a31e5156fd13c447,PennController,35,0,test_conc,NULL,Selector,unnamed-Selector,Selection,concrete,1731619029912,undefined,672,adore,abstract-positive,abstract,concrete,A,abstract;concrete
1731619445,b84e9af8434a4761a31e5156fd13c447,PennController,35,0,test_conc,NULL,PennController,46,_Trial_,End,1731619029913,undefined,672,adore,abstract-positive,abstract,concrete,A,NULL
1731619445,b84e9af8434a4761a31e5156fd13c447,PennController,9,0,test_conc,NULL,PennController,20,_Trial_,Start,1731619029914,undefined,371,break,concrete-negative,abstract,concrete,A,NULL
1731619445,b84e9af8434a4761a31e5156fd13c447,PennController,9,0,test_conc,NULL,PennController,20,_Header_,Start,1731619029914,undefined,371,break,concrete-negative,abstract,concrete,A,NULL
1731619445,b84e9af8434a4761a31e5156fd13c447,PennController,9,0,test_conc,NULL,PennController,20,_Header_,End,1731619030167,undefined,371,break,concrete-negative,abstract,concrete,A,NULL
1731619445,b84e9af8434a4761a31e5156fd13c447,PennController,9,0,test_conc,NULL,Selector,unnamed-Selector,Selection,abstract,1731619031042,undefined,371,break,concrete-negative,abstract,concrete,A,abstract;concrete
1731619445,b84e9af8434a4761a31e5156fd13c447,PennController,9,0,test_conc,NULL,PennController,20,_Trial_,End,1731619031043,undefined,371,break,concrete-negative,abstract,concrete,A,NULL
1731619445,b84e9af8434a4761a31e5156fd13c447,PennController,4,0,test_conc,NULL,PennController,15,_Trial_,Start,1731619031044,undefined,626,befall,concrete-negative,abstract,concrete,A,NULL
1731619445,b84e9af8434a4761a31e5156fd13c447,PennController,4,0,test_conc,NULL,PennController,15,_Header_,Start,1731619031044,undefined,626,befall,concrete-negative,abstract,concrete,A,NULL
1731619445,b84e9af8434a4761a31e5156fd13c447,PennController,4,0,test_conc,NULL,PennController,15,_Header_,End,1731619031300,undefined,626,befall,concrete-negative,abstract,concrete,A,NULL
1731619445,b84e9af8434a4761a31e5156fd13c447,PennController,4,0,test_conc,NULL,Selector,unnamed-Selector,Selection,concrete,1731619032430,undefined,626,befall,concrete-negative,abstract,concrete,A,abstract;concrete
1731619445,b84e9af8434a4761a31e5156fd13c447,PennController,4,0,test_conc,NULL,PennController,15,_Trial_,End,1731619032431,undefined,626,befall,concrete-negative,abstract,concrete,A,NULL
1731619445,b84e9af8434a4761a31e5156fd13c447,PennController,13,0,test_conc,NULL,PennController,24,_Trial_,Start,1731619032432,undefined,80,impose,concrete-negative,abstract,concrete,A,NULL
1731619445,b84e9af8434a4761a31e5156fd13c447,PennController,13,0,test_conc,NULL,PennController,24,_Header_,Start,1731619032432,undefined,80,impose,concrete-negative,abstract,concrete,A,NULL
1731619445,b84e9af8434a4761a31e5156fd13c447,PennController,13,0,test_conc,NULL,PennController,24,_Header_,End,1731619032690,undefined,80,impose,concrete-negative,abstract,concrete,A,NULL
1731619445,b84e9af8434a4761a31e5156fd13c447,PennController,13,0,test_conc,NULL,Selector,unnamed-Selector,Selection,abstract,1731619033274,undefined,80,impose,concrete-negative,abstract,concrete,A,abstract;concrete
1731619445,b84e9af8434a4761a31e5156fd13c447,PennController,13,0,test_conc,NULL,PennController,24,_Trial_,End,1731619033275,undefined,80,impose,concrete-negative,abstract,concrete,A,NULL
1731619445,b84e9af8434a4761a31e5156fd13c447,PennController,42,0,test_conc,NULL,PennController,53,_Trial_,Start,1731619033276,undefined,574,stab,concrete-negative,abstract,concrete,A,NULL
1731619445,b84e9af8434a4761a31e5156fd13c447,PennController,42,0,test_conc,NULL,PennController,53,_Header_,Start,1731619033276,undefined,574,stab,concrete-negative,abstract,concrete,A,NULL
1731619445,b84e9af8434a4761a31e5156fd13c447,PennController,42,0,test_conc,NULL,PennController,53,_Header_,End,1731619033534,undefined,574,stab,concrete-negative,abstract,concrete,A,NULL
1731619445,b84e9af8434a4761a31e5156fd13c447,PennController,42,0,test_conc,NULL,Selector,unnamed-Selector,Selection,concrete,1731619034616,undefined,574,stab,concrete-negative,abstract,concrete,A,abstract;concrete
1731619445,b84e9af8434a4761a31e5156fd13c447,PennController,42,0,test_conc,NULL,PennController,53,_Trial_,End,1731619034617,undefined,574,stab,concrete-negative,abstract,concrete,A,NULL
1731619445,b84e9af8434a4761a31e5156fd13c447,PennController,26,0,test_conc,NULL,PennController,37,_Trial_,Start,1731619034618,undefined,573,flourish,abstract-positive,abstract,concrete,A,NULL
1731619445,b84e9af8434a4761a31e5156fd13c447,PennController,26,0,test_conc,NULL,PennController,37,_Header_,Start,1731619034618,undefined,573,flourish,abstract-positive,abstract,concrete,A,NULL
1731619445,b84e9af8434a4761a31e5156fd13c447,PennController,26,0,test_conc,NULL,PennController,37,_Header_,End,1731619034874,undefined,573,flourish,abstract-positive,abstract,concrete,A,NULL
1731619445,b84e9af8434a4761a31e5156fd13c447,PennController,26,0,test_conc,NULL,Selector,unnamed-Selector,Selection,abstract,1731619035952,undefined,573,flourish,abstract-positive,abstract,concrete,A,abstract;concrete
1731619445,b84e9af8434a4761a31e5156fd13c447,PennController,26,0,test_conc,NULL,PennController,37,_Trial_,End,1731619035953,undefined,573,flourish,abstract-positive,abstract,concrete,A,NULL
1731619445,b84e9af8434a4761a31e5156fd13c447,PennController,15,0,test_conc,NULL,PennController,26,_Trial_,Start,1731619035954,undefined,543,scorn,abstract-negative,abstract,concrete,A,NULL
1731619445,b84e9af8434a4761a31e5156fd13c447,PennController,15,0,test_conc,NULL,PennController,26,_Header_,Start,1731619035954,undefined,543,scorn,abstract-negative,abstract,concrete,A,NULL
1731619445,b84e9af8434a4761a31e5156fd13c447,PennController,15,0,test_conc,NULL,PennController,26,_Header_,End,1731619036207,undefined,543,scorn,abstract-negative,abstract,concrete,A,NULL
1731619445,b84e9af8434a4761a31e5156fd13c447,PennController,15,0,test_conc,NULL,Selector,unnamed-Selector,Selection,abstract,1731619037259,undefined,543,scorn,abstract-negative,abstract,concrete,A,abstract;concrete
1731619445,b84e9af8434a4761a31e5156fd13c447,PennController,15,0,test_conc,NULL,PennController,26,_Trial_,End,1731619037260,undefined,543,scorn,abstract-negative,abstract,concrete,A,NULL
1731619445,b84e9af8434a4761a31e5156fd13c447,PennController,40,0,test_conc,NULL,PennController,51,_Trial_,Start,1731619037262,undefined,2300,behold,concrete-positive,abstract,concrete,A,NULL
1731619445,b84e9af8434a4761a31e5156fd13c447,PennController,40,0,test_conc,NULL,PennController,51,_Header_,Start,1731619037262,undefined,2300,behold,concrete-positive,abstract,concrete,A,NULL
1731619445,b84e9af8434a4761a31e5156fd13c447,PennController,40,0,test_conc,NULL,PennController,51,_Header_,End,1731619037516,undefined,2300,behold,concrete-positive,abstract,concrete,A,NULL
1731619445,b84e9af8434a4761a31e5156fd13c447,PennController,40,0,test_conc,NULL,Selector,unnamed-Selector,Selection,abstract,1731619040323,undefined,2300,behold,concrete-positive,abstract,concrete,A,abstract;concrete
1731619445,b84e9af8434a4761a31e5156fd13c447,PennController,40,0,test_conc,NULL,PennController,51,_Trial_,End,1731619040324,undefined,2300,behold,concrete-positive,abstract,concrete,A,NULL
1731619445,b84e9af8434a4761a31e5156fd13c447,PennController,12,0,test_conc,NULL,PennController,23,_Trial_,Start,1731619040325,undefined,1818,build,concrete-positive,abstract,concrete,A,NULL
1731619445,b84e9af8434a4761a31e5156fd13c447,PennController,12,0,test_conc,NULL,PennController,23,_Header_,Start,1731619040325,undefined,1818,build,concrete-positive,abstract,concrete,A,NULL
1731619445,b84e9af8434a4761a31e5156fd13c447,PennController,12,0,test_conc,NULL,PennController,23,_Header_,End,1731619040580,undefined,1818,build,concrete-positive,abstract,concrete,A,NULL
1731619445,b84e9af8434a4761a31e5156fd13c447,PennController,12,0,test_conc,NULL,Selector,unnamed-Selector,Selection,abstract,1731619042905,undefined,1818,build,concrete-positive,abstract,concrete,A,abstract;concrete
1731619445,b84e9af8434a4761a31e5156fd13c447,PennController,12,0,test_conc,NULL,PennController,23,_Trial_,End,1731619042906,undefined,1818,build,concrete-positive,abstract,concrete,A,NULL
1731619445,b84e9af8434a4761a31e5156fd13c447,PennController,19,0,test_conc,NULL,PennController,30,_Trial_,Start,1731619042908,undefined,571,cherish,abstract-positive,abstract,concrete,A,NULL
1731619445,b84e9af8434a4761a31e5156fd13c447,PennController,19,0,test_conc,NULL,PennController,30,_Header_,Start,1731619042908,undefined,571,cherish,abstract-positive,abstract,concrete,A,NULL
1731619445,b84e9af8434a4761a31e5156fd13c447,PennController,19,0,test_conc,NULL,PennController,30,_Header_,End,1731619043161,undefined,571,cherish,abstract-positive,abstract,concrete,A,NULL
1731619445,b84e9af8434a4761a31e5156fd13c447,PennController,19,0,test_conc,NULL,Selector,unnamed-Selector,Selection,abstract,1731619044240,undefined,571,cherish,abstract-positive,abstract,concrete,A,abstract;concrete
1731619445,b84e9af8434a4761a31e5156fd13c447,PennController,19,0,test_conc,NULL,PennController,30,_Trial_,End,1731619044241,undefined,571,cherish,abstract-positive,abstract,concrete,A,NULL
1731619445,b84e9af8434a4761a31e5156fd13c447,PennController,43,0,test_conc,NULL,PennController,54,_Trial_,Start,1731619044243,undefined,693,justify,concrete-positive,abstract,concrete,A,NULL
1731619445,b84e9af8434a4761a31e5156fd13c447,PennController,43,0,test_conc,NULL,PennController,54,_Header_,Start,1731619044243,undefined,693,justify,concrete-positive,abstract,concrete,A,NULL
1731619445,b84e9af8434a4761a31e5156fd13c447,PennController,43,0,test_conc,NULL,PennController,54,_Header_,End,1731619044499,undefined,693,justify,concrete-positive,abstract,concrete,A,NULL
1731619445,b84e9af8434a4761a31e5156fd13c447,PennController,43,0,test_conc,NULL,Selector,unnamed-Selector,Selection,concrete,1731619045701,undefined,693,justify,concrete-positive,abstract,concrete,A,abstract;concrete
1731619445,b84e9af8434a4761a31e5156fd13c447,PennController,43,0,test_conc,NULL,PennController,54,_Trial_,End,1731619045702,undefined,693,justify,concrete-positive,abstract,concrete,A,NULL
1731619445,b84e9af8434a4761a31e5156fd13c447,PennController,38,0,test_conc,NULL,PennController,49,_Trial_,Start,1731619045703,undefined,938,rot,concrete-negative,abstract,concrete,A,NULL
1731619445,b84e9af8434a4761a31e5156fd13c447,PennController,38,0,test_conc,NULL,PennController,49,_Header_,Start,1731619045703,undefined,938,rot,concrete-negative,abstract,concrete,A,NULL
1731619445,b84e9af8434a4761a31e5156fd13c447,PennController,38,0,test_conc,NULL,PennController,49,_Header_,End,1731619045953,undefined,938,rot,concrete-negative,abstract,concrete,A,NULL
1731619445,b84e9af8434a4761a31e5156fd13c447,PennController,38,0,test_conc,NULL,Selector,unnamed-Selector,Selection,abstract,1731619047398,undefined,938,rot,concrete-negative,abstract,concrete,A,abstract;concrete
1731619445,b84e9af8434a4761a31e5156fd13c447,PennController,38,0,test_conc,NULL,PennController,49,_Trial_,End,1731619047399,undefined,938,rot,concrete-negative,abstract,concrete,A,NULL
1731619445,b84e9af8434a4761a31e5156fd13c447,PennController,11,0,test_conc,NULL,PennController,22,_Trial_,Start,1731619047400,undefined,537,scratch,concrete-negative,abstract,concrete,A,NULL
1731619445,b84e9af8434a4761a31e5156fd13c447,PennController,11,0,test_conc,NULL,PennController,22,_Header_,Start,1731619047400,undefined,537,scratch,concrete-negative,abstract,concrete,A,NULL
1731619445,b84e9af8434a4761a31e5156fd13c447,PennController,11,0,test_conc,NULL,PennController,22,_Header_,End,1731619047650,undefined,537,scratch,concrete-negative,abstract,concrete,A,NULL
1731619445,b84e9af8434a4761a31e5156fd13c447,PennController,11,0,test_conc,NULL,Selector,unnamed-Selector,Selection,abstract,1731619048694,undefined,537,scratch,concrete-negative,abstract,concrete,A,abstract;concrete
1731619445,b84e9af8434a4761a31e5156fd13c447,PennController,11,0,test_conc,NULL,PennController,22,_Trial_,End,1731619048695,undefined,537,scratch,concrete-negative,abstract,concrete,A,NULL
1731619445,b84e9af8434a4761a31e5156fd13c447,PennController,5,0,test_conc,NULL,PennController,16,_Trial_,Start,1731619048696,undefined,758,consider,concrete-positive,abstract,concrete,A,NULL
1731619445,b84e9af8434a4761a31e5156fd13c447,PennController,5,0,test_conc,NULL,PennController,16,_Header_,Start,1731619048696,undefined,758,consider,concrete-positive,abstract,concrete,A,NULL
1731619445,b84e9af8434a4761a31e5156fd13c447,PennController,5,0,test_conc,NULL,PennController,16,_Header_,End,1731619048950,undefined,758,consider,concrete-positive,abstract,concrete,A,NULL
1731619445,b84e9af8434a4761a31e5156fd13c447,PennController,5,0,test_conc,NULL,Selector,unnamed-Selector,Selection,abstract,1731619050209,undefined,758,consider,concrete-positive,abstract,concrete,A,abstract;concrete
1731619445,b84e9af8434a4761a31e5156fd13c447,PennController,5,0,test_conc,NULL,PennController,16,_Trial_,End,1731619050210,undefined,758,consider,concrete-positive,abstract,concrete,A,NULL
1731619445,b84e9af8434a4761a31e5156fd13c447,PennController,41,0,test_conc,NULL,PennController,52,_Trial_,Start,1731619050211,undefined,242,feeling,concrete-positive,abstract,concrete,A,NULL
1731619445,b84e9af8434a4761a31e5156fd13c447,PennController,41,0,test_conc,NULL,PennController,52,_Header_,Start,1731619050211,undefined,242,feeling,concrete-positive,abstract,concrete,A,NULL
1731619445,b84e9af8434a4761a31e5156fd13c447,PennController,41,0,test_conc,NULL,PennController,52,_Header_,End,1731619050465,undefined,242,feeling,concrete-positive,abstract,concrete,A,NULL
1731619445,b84e9af8434a4761a31e5156fd13c447,PennController,41,0,test_conc,NULL,Selector,unnamed-Selector,Selection,concrete,1731619051217,undefined,242,feeling,concrete-positive,abstract,concrete,A,abstract;concrete
1731619445,b84e9af8434a4761a31e5156fd13c447,PennController,41,0,test_conc,NULL,PennController,52,_Trial_,End,1731619051218,undefined,242,feeling,concrete-positive,abstract,concrete,A,NULL
1731619445,b84e9af8434a4761a31e5156fd13c447,PennController,31,0,test_conc,NULL,PennController,42,_Trial_,Start,1731619051219,undefined,445,repair,concrete-positive,abstract,concrete,A,NULL
1731619445,b84e9af8434a4761a31e5156fd13c447,PennController,31,0,test_conc,NULL,PennController,42,_Header_,Start,1731619051219,undefined,445,repair,concrete-positive,abstract,concrete,A,NULL
1731619445,b84e9af8434a4761a31e5156fd13c447,PennController,31,0,test_conc,NULL,PennController,42,_Header_,End,1731619051473,undefined,445,repair,concrete-positive,abstract,concrete,A,NULL
1731619445,b84e9af8434a4761a31e5156fd13c447,PennController,31,0,test_conc,NULL,Selector,unnamed-Selector,Selection,abstract,1731619052426,undefined,445,repair,concrete-positive,abstract,concrete,A,abstract;concrete
1731619445,b84e9af8434a4761a31e5156fd13c447,PennController,31,0,test_conc,NULL,PennController,42,_Trial_,End,1731619052427,undefined,445,repair,concrete-positive,abstract,concrete,A,NULL
1731619445,b84e9af8434a4761a31e5156fd13c447,PennController,21,0,test_conc,NULL,PennController,32,_Trial_,Start,1731619052428,undefined,456,excell,abstract-positive,abstract,concrete,A,NULL
1731619445,b84e9af8434a4761a31e5156fd13c447,PennController,21,0,test_conc,NULL,PennController,32,_Header_,Start,1731619052428,undefined,456,excell,abstract-positive,abstract,concrete,A,NULL
1731619445,b84e9af8434a4761a31e5156fd13c447,PennController,21,0,test_conc,NULL,PennController,32,_Header_,End,1731619052680,undefined,456,excell,abstract-positive,abstract,concrete,A,NULL
1731619445,b84e9af8434a4761a31e5156fd13c447,PennController,21,0,test_conc,NULL,Selector,unnamed-Selector,Selection,abstract,1731619053638,undefined,456,excell,abstract-positive,abstract,concrete,A,abstract;concrete
1731619445,b84e9af8434a4761a31e5156fd13c447,PennController,21,0,test_conc,NULL,PennController,32,_Trial_,End,1731619053639,undefined,456,excell,abstract-positive,abstract,concrete,A,NULL
1731619445,b84e9af8434a4761a31e5156fd13c447,PennController,33,0,test_conc,NULL,PennController,44,_Trial_,Start,1731619053640,undefined,327,smack,abstract-negative,abstract,concrete,A,NULL
1731619445,b84e9af8434a4761a31e5156fd13c447,PennController,33,0,test_conc,NULL,PennController,44,_Header_,Start,1731619053640,undefined,327,smack,abstract-negative,abstract,concrete,A,NULL
1731619445,b84e9af8434a4761a31e5156fd13c447,PennController,33,0,test_conc,NULL,PennController,44,_Header_,End,1731619053896,undefined,327,smack,abstract-negative,abstract,concrete,A,NULL
1731619445,b84e9af8434a4761a31e5156fd13c447,PennController,33,0,test_conc,NULL,Selector,unnamed-Selector,Selection,abstract,1731619054732,undefined,327,smack,abstract-negative,abstract,concrete,A,abstract;concrete
1731619445,b84e9af8434a4761a31e5156fd13c447,PennController,33,0,test_conc,NULL,PennController,44,_Trial_,End,1731619054733,undefined,327,smack,abstract-negative,abstract,concrete,A,NULL
1731619445,b84e9af8434a4761a31e5156fd13c447,PennController,37,0,test_conc,NULL,PennController,48,_Trial_,Start,1731619054734,undefined,372,kill,concrete-negative,abstract,concrete,A,NULL
1731619445,b84e9af8434a4761a31e5156fd13c447,PennController,37,0,test_conc,NULL,PennController,48,_Header_,Start,1731619054734,undefined,372,kill,concrete-negative,abstract,concrete,A,NULL
1731619445,b84e9af8434a4761a31e5156fd13c447,PennController,37,0,test_conc,NULL,PennController,48,_Header_,End,1731619054987,undefined,372,kill,concrete-negative,abstract,concrete,A,NULL
1731619445,b84e9af8434a4761a31e5156fd13c447,PennController,37,0,test_conc,NULL,Selector,unnamed-Selector,Selection,abstract,1731619055860,undefined,372,kill,concrete-negative,abstract,concrete,A,abstract;concrete
1731619445,b84e9af8434a4761a31e5156fd13c447,PennController,37,0,test_conc,NULL,PennController,48,_Trial_,End,1731619055861,undefined,372,kill,concrete-negative,abstract,concrete,A,NULL
1731619445,b84e9af8434a4761a31e5156fd13c447,PennController,27,0,test_conc,NULL,PennController,38,_Trial_,Start,1731619055862,undefined,416,cuddle,concrete-positive,abstract,concrete,A,NULL
1731619445,b84e9af8434a4761a31e5156fd13c447,PennController,27,0,test_conc,NULL,PennController,38,_Header_,Start,1731619055862,undefined,416,cuddle,concrete-positive,abstract,concrete,A,NULL
1731619445,b84e9af8434a4761a31e5156fd13c447,PennController,27,0,test_conc,NULL,PennController,38,_Header_,End,1731619056117,undefined,416,cuddle,concrete-positive,abstract,concrete,A,NULL
1731619445,b84e9af8434a4761a31e5156fd13c447,PennController,27,0,test_conc,NULL,Selector,unnamed-Selector,Selection,abstract,1731619057035,undefined,416,cuddle,concrete-positive,abstract,concrete,A,abstract;concrete
1731619445,b84e9af8434a4761a31e5156fd13c447,PennController,27,0,test_conc,NULL,PennController,38,_Trial_,End,1731619057036,undefined,416,cuddle,concrete-positive,abstract,concrete,A,NULL
1731619445,b84e9af8434a4761a31e5156fd13c447,PennController,23,0,test_conc,NULL,PennController,34,_Trial_,Start,1731619057038,undefined,470,embolden,abstract-positive,abstract,concrete,A,NULL
1731619445,b84e9af8434a4761a31e5156fd13c447,PennController,23,0,test_conc,NULL,PennController,34,_Header_,Start,1731619057038,undefined,470,embolden,abstract-positive,abstract,concrete,A,NULL
1731619445,b84e9af8434a4761a31e5156fd13c447,PennController,23,0,test_conc,NULL,PennController,34,_Header_,End,1731619057295,undefined,470,embolden,abstract-positive,abstract,concrete,A,NULL
1731619445,b84e9af8434a4761a31e5156fd13c447,PennController,23,0,test_conc,NULL,Selector,unnamed-Selector,Selection,abstract,1731619058272,undefined,470,embolden,abstract-positive,abstract,concrete,A,abstract;concrete
1731619445,b84e9af8434a4761a31e5156fd13c447,PennController,23,0,test_conc,NULL,PennController,34,_Trial_,End,1731619058273,undefined,470,embolden,abstract-positive,abstract,concrete,A,NULL
1731619445,b84e9af8434a4761a31e5156fd13c447,PennController,7,0,test_conc,NULL,PennController,18,_Trial_,Start,1731619058274,undefined,500,fall,abstract-negative,abstract,concrete,A,NULL
1731619445,b84e9af8434a4761a31e5156fd13c447,PennController,7,0,test_conc,NULL,PennController,18,_Header_,Start,1731619058274,undefined,500,fall,abstract-negative,abstract,concrete,A,NULL
1731619445,b84e9af8434a4761a31e5156fd13c447,PennController,7,0,test_conc,NULL,PennController,18,_Header_,End,1731619058525,undefined,500,fall,abstract-negative,abstract,concrete,A,NULL
1731619445,b84e9af8434a4761a31e5156fd13c447,PennController,7,0,test_conc,NULL,Selector,unnamed-Selector,Selection,abstract,1731619059526,undefined,500,fall,abstract-negative,abstract,concrete,A,abstract;concrete
1731619445,b84e9af8434a4761a31e5156fd13c447,PennController,7,0,test_conc,NULL,PennController,18,_Trial_,End,1731619059527,undefined,500,fall,abstract-negative,abstract,concrete,A,NULL
