#
# Results on Thu, 14 Nov 2024 18:42:42 GMT
# USER AGENT: Mozilla/5.0 (Windows NT 10.0; Win64; x64; rv:132.0) Gecko/20100101 Firefox/132.0
# Design number was non-random = 0
#
# Columns below this comment are as follows:
# 1. Results reception time.
# 2. MD5 hash of participant's IP address.
# 3. Controller name.
# 4. Order number of item.
# 5. Inner element number.
# 6. Label.
# 7. Latin Square Group.
# 8. PennElementType.
# 9. PennElementName.
# 10. Parameter.
# 11. Value.
# 12. EventTime.
# 13. Comments.
1731609762,4db8582b4f6c27e601c1ed826c9ad1e0,PennController,1,0,welcome,NULL,PennController,0,_Trial_,Start,1731608896738,NULL
1731609762,4db8582b4f6c27e601c1ed826c9ad1e0,PennController,1,0,welcome,NULL,PennController,0,_Header_,Start,1731608896738,NULL
1731609762,4db8582b4f6c27e601c1ed826c9ad1e0,PennController,1,0,welcome,NULL,PennController,0,_Header_,End,1731608896996,NULL
1731609762,4db8582b4f6c27e601c1ed826c9ad1e0,PennController,1,0,welcome,NULL,PennController,0,_Trial_,End,1731609042290,NULL
# 13. ID.
# 14. Comments.
1731609762,4db8582b4f6c27e601c1ed826c9ad1e0,PennController,124,0,consent,NULL,PennController,2,_Trial_,Start,1731609042292,5dd43c63390fb6428d4974f0,NULL
1731609762,4db8582b4f6c27e601c1ed826c9ad1e0,PennController,124,0,consent,NULL,PennController,2,_Header_,Start,1731609042292,5dd43c63390fb6428d4974f0,NULL
1731609762,4db8582b4f6c27e601c1ed826c9ad1e0,PennController,124,0,consent,NULL,PennController,2,_Header_,End,1731609042543,5dd43c63390fb6428d4974f0,NULL
1731609762,4db8582b4f6c27e601c1ed826c9ad1e0,PennController,124,0,consent,NULL,TextInput,ID,Final,5dd43c63390fb6428d4974f0,1731609084023,5dd43c63390fb6428d4974f0,NULL
1731609762,4db8582b4f6c27e601c1ed826c9ad1e0,PennController,124,0,consent,NULL,PennController,2,_Trial_,End,1731609084024,5dd43c63390fb6428d4974f0,NULL
# 13. Comments.
1731609762,4db8582b4f6c27e601c1ed826c9ad1e0,PennController,126,0,instructions1_val,NULL,PennController,4,_Trial_,Start,1731609084025,NULL
1731609762,4db8582b4f6c27e601c1ed826c9ad1e0,PennController,126,0,instructions1_val,NULL,PennController,4,_Header_,Start,1731609084025,NULL
1731609762,4db8582b4f6c27e601c1ed826c9ad1e0,PennController,126,0,instructions1_val,NULL,PennController,4,_Header_,End,1731609084278,NULL
1731609762,4db8582b4f6c27e601c1ed826c9ad1e0,PennController,126,0,instructions1_val,NULL,PennController,4,_Trial_,End,1731609117136,NULL
1731609762,4db8582b4f6c27e601c1ed826c9ad1e0,PennController,127,0,instructions2_val,NULL,PennController,5,_Trial_,Start,1731609117137,NULL
1731609762,4db8582b4f6c27e601c1ed826c9ad1e0,PennController,127,0,instructions2_val,NULL,PennController,5,_Header_,Start,1731609117137,NULL
1731609762,4db8582b4f6c27e601c1ed826c9ad1e0,PennController,127,0,instructions2_val,NULL,PennController,5,_Header_,End,1731609117395,NULL
1731609762,4db8582b4f6c27e601c1ed826c9ad1e0,PennController,127,0,instructions2_val,NULL,PennController,5,_Trial_,End,1731609137273,NULL
1731609762,4db8582b4f6c27e601c1ed826c9ad1e0,PennController,128,0,instructions3_hands,NULL,PennController,6,_Trial_,Start,1731609137274,NULL
1731609762,4db8582b4f6c27e601c1ed826c9ad1e0,PennController,128,0,instructions3_hands,NULL,PennController,6,_Header_,Start,1731609137274,NULL
1731609762,4db8582b4f6c27e601c1ed826c9ad1e0,PennController,128,0,instructions3_hands,NULL,PennController,6,_Header_,End,1731609137526,NULL
1731609762,4db8582b4f6c27e601c1ed826c9ad1e0,PennController,128,0,instructions3_hands,NULL,PennController,6,_Trial_,End,1731609147080,NULL
1731609762,4db8582b4f6c27e601c1ed826c9ad1e0,PennController,129,0,practice_intro_val,NULL,PennController,7,_Trial_,Start,1731609147083,NULL
1731609762,4db8582b4f6c27e601c1ed826c9ad1e0,PennController,129,0,practice_intro_val,NULL,PennController,7,_Header_,Start,1731609147083,NULL
1731609762,4db8582b4f6c27e601c1ed826c9ad1e0,PennController,129,0,practice_intro_val,NULL,PennController,7,_Header_,End,1731609147336,NULL
1731609762,4db8582b4f6c27e601c1ed826c9ad1e0,PennController,129,0,practice_intro_val,NULL,PennController,7,_Trial_,End,1731609149276,NULL
# 13. ID.
# 14. ReactionTime.
# 15. Word.
# 16. selectedKey.
# 17. selectedValue.
# 18. Key_value_F.
# 19. Key_value_J.
# 20. Group.
# 21. Comments.
1731609762,4db8582b4f6c27e601c1ed826c9ad1e0,PennController,113,0,calibrator_val_feedback,NULL,PennController,124,_Trial_,Start,1731609149280,undefined,1039,kitten,undefined,positive,negative,positive,A,NULL
1731609762,4db8582b4f6c27e601c1ed826c9ad1e0,PennController,113,0,calibrator_val_feedback,NULL,PennController,124,_Header_,Start,1731609149280,undefined,1039,kitten,undefined,positive,negative,positive,A,NULL
1731609762,4db8582b4f6c27e601c1ed826c9ad1e0,PennController,113,0,calibrator_val_feedback,NULL,PennController,124,_Header_,End,1731609149534,undefined,1039,kitten,undefined,positive,negative,positive,A,NULL
1731609762,4db8582b4f6c27e601c1ed826c9ad1e0,PennController,113,0,calibrator_val_feedback,NULL,Selector,Selection,Selection,positive,1731609151563,undefined,1039,kitten,undefined,positive,negative,positive,A,negative;positive
1731609762,4db8582b4f6c27e601c1ed826c9ad1e0,PennController,113,0,calibrator_val_feedback,NULL,PennController,124,_Trial_,End,1731609153092,undefined,1039,kitten,undefined,positive,negative,positive,A,NULL
1731609762,4db8582b4f6c27e601c1ed826c9ad1e0,PennController,107,0,calibrator_val_feedback,NULL,PennController,118,_Trial_,Start,1731609153096,undefined,1989,icebox,undefined,positive,negative,positive,A,NULL
1731609762,4db8582b4f6c27e601c1ed826c9ad1e0,PennController,107,0,calibrator_val_feedback,NULL,PennController,118,_Header_,Start,1731609153096,undefined,1989,icebox,undefined,positive,negative,positive,A,NULL
1731609762,4db8582b4f6c27e601c1ed826c9ad1e0,PennController,107,0,calibrator_val_feedback,NULL,PennController,118,_Header_,End,1731609153358,undefined,1989,icebox,undefined,positive,negative,positive,A,NULL
1731609762,4db8582b4f6c27e601c1ed826c9ad1e0,PennController,107,0,calibrator_val_feedback,NULL,Selector,Selection,Selection,positive,1731609155853,undefined,1989,icebox,undefined,positive,negative,positive,A,negative;positive
1731609762,4db8582b4f6c27e601c1ed826c9ad1e0,PennController,107,0,calibrator_val_feedback,NULL,PennController,118,_Trial_,End,1731609157867,undefined,1989,icebox,undefined,positive,negative,positive,A,NULL
1731609762,4db8582b4f6c27e601c1ed826c9ad1e0,PennController,112,0,calibrator_val_feedback,NULL,PennController,123,_Trial_,Start,1731609157872,undefined,926,joke,undefined,positive,negative,positive,A,NULL
1731609762,4db8582b4f6c27e601c1ed826c9ad1e0,PennController,112,0,calibrator_val_feedback,NULL,PennController,123,_Header_,Start,1731609157872,undefined,926,joke,undefined,positive,negative,positive,A,NULL
1731609762,4db8582b4f6c27e601c1ed826c9ad1e0,PennController,112,0,calibrator_val_feedback,NULL,PennController,123,_Header_,End,1731609158123,undefined,926,joke,undefined,positive,negative,positive,A,NULL
1731609762,4db8582b4f6c27e601c1ed826c9ad1e0,PennController,112,0,calibrator_val_feedback,NULL,Selector,Selection,Selection,positive,1731609159551,undefined,926,joke,undefined,positive,negative,positive,A,negative;positive
1731609762,4db8582b4f6c27e601c1ed826c9ad1e0,PennController,112,0,calibrator_val_feedback,NULL,PennController,123,_Trial_,End,1731609161563,undefined,926,joke,undefined,positive,negative,positive,A,NULL
1731609762,4db8582b4f6c27e601c1ed826c9ad1e0,PennController,110,0,calibrator_val_feedback,NULL,PennController,121,_Trial_,Start,1731609161566,undefined,956,invader,undefined,positive,negative,positive,A,NULL
1731609762,4db8582b4f6c27e601c1ed826c9ad1e0,PennController,110,0,calibrator_val_feedback,NULL,PennController,121,_Header_,Start,1731609161566,undefined,956,invader,undefined,positive,negative,positive,A,NULL
1731609762,4db8582b4f6c27e601c1ed826c9ad1e0,PennController,110,0,calibrator_val_feedback,NULL,PennController,121,_Header_,End,1731609161833,undefined,956,invader,undefined,positive,negative,positive,A,NULL
1731609762,4db8582b4f6c27e601c1ed826c9ad1e0,PennController,110,0,calibrator_val_feedback,NULL,Selector,Selection,Selection,negative,1731609163290,undefined,956,invader,undefined,positive,negative,positive,A,negative;positive
1731609762,4db8582b4f6c27e601c1ed826c9ad1e0,PennController,110,0,calibrator_val_feedback,NULL,PennController,121,_Trial_,End,1731609165295,undefined,956,invader,undefined,positive,negative,positive,A,NULL
1731609762,4db8582b4f6c27e601c1ed826c9ad1e0,PennController,105,0,calibrator_val_feedback,NULL,PennController,116,_Trial_,Start,1731609165299,undefined,840,grin,undefined,positive,negative,positive,A,NULL
1731609762,4db8582b4f6c27e601c1ed826c9ad1e0,PennController,105,0,calibrator_val_feedback,NULL,PennController,116,_Header_,Start,1731609165299,undefined,840,grin,undefined,positive,negative,positive,A,NULL
1731609762,4db8582b4f6c27e601c1ed826c9ad1e0,PennController,105,0,calibrator_val_feedback,NULL,PennController,116,_Header_,End,1731609165552,undefined,840,grin,undefined,positive,negative,positive,A,NULL
1731609762,4db8582b4f6c27e601c1ed826c9ad1e0,PennController,105,0,calibrator_val_feedback,NULL,Selector,Selection,Selection,positive,1731609166905,undefined,840,grin,undefined,positive,negative,positive,A,negative;positive
1731609762,4db8582b4f6c27e601c1ed826c9ad1e0,PennController,105,0,calibrator_val_feedback,NULL,PennController,116,_Trial_,End,1731609168912,undefined,840,grin,undefined,positive,negative,positive,A,NULL
1731609762,4db8582b4f6c27e601c1ed826c9ad1e0,PennController,109,0,calibrator_val_feedback,NULL,PennController,120,_Trial_,Start,1731609168915,undefined,800,insecure,undefined,positive,negative,positive,A,NULL
1731609762,4db8582b4f6c27e601c1ed826c9ad1e0,PennController,109,0,calibrator_val_feedback,NULL,PennController,120,_Header_,Start,1731609168915,undefined,800,insecure,undefined,positive,negative,positive,A,NULL
1731609762,4db8582b4f6c27e601c1ed826c9ad1e0,PennController,109,0,calibrator_val_feedback,NULL,PennController,120,_Header_,End,1731609169178,undefined,800,insecure,undefined,positive,negative,positive,A,NULL
1731609762,4db8582b4f6c27e601c1ed826c9ad1e0,PennController,109,0,calibrator_val_feedback,NULL,Selector,Selection,Selection,negative,1731609170491,undefined,800,insecure,undefined,positive,negative,positive,A,negative;positive
1731609762,4db8582b4f6c27e601c1ed826c9ad1e0,PennController,109,0,calibrator_val_feedback,NULL,PennController,120,_Trial_,End,1731609172499,undefined,800,insecure,undefined,positive,negative,positive,A,NULL
1731609762,4db8582b4f6c27e601c1ed826c9ad1e0,PennController,108,0,calibrator_val_feedback,NULL,PennController,119,_Trial_,Start,1731609172503,undefined,973,industry,undefined,positive,negative,positive,A,NULL
1731609762,4db8582b4f6c27e601c1ed826c9ad1e0,PennController,108,0,calibrator_val_feedback,NULL,PennController,119,_Header_,Start,1731609172503,undefined,973,industry,undefined,positive,negative,positive,A,NULL
1731609762,4db8582b4f6c27e601c1ed826c9ad1e0,PennController,108,0,calibrator_val_feedback,NULL,PennController,119,_Header_,End,1731609172761,undefined,973,industry,undefined,positive,negative,positive,A,NULL
1731609762,4db8582b4f6c27e601c1ed826c9ad1e0,PennController,108,0,calibrator_val_feedback,NULL,Selector,Selection,Selection,positive,1731609174249,undefined,973,industry,undefined,positive,negative,positive,A,negative;positive
1731609762,4db8582b4f6c27e601c1ed826c9ad1e0,PennController,108,0,calibrator_val_feedback,NULL,PennController,119,_Trial_,End,1731609176257,undefined,973,industry,undefined,positive,negative,positive,A,NULL
1731609762,4db8582b4f6c27e601c1ed826c9ad1e0,PennController,104,0,calibrator_val_feedback,NULL,PennController,115,_Trial_,Start,1731609176259,undefined,729,free,undefined,positive,negative,positive,A,NULL
1731609762,4db8582b4f6c27e601c1ed826c9ad1e0,PennController,104,0,calibrator_val_feedback,NULL,PennController,115,_Header_,Start,1731609176259,undefined,729,free,undefined,positive,negative,positive,A,NULL
1731609762,4db8582b4f6c27e601c1ed826c9ad1e0,PennController,104,0,calibrator_val_feedback,NULL,PennController,115,_Header_,End,1731609176522,undefined,729,free,undefined,positive,negative,positive,A,NULL
1731609762,4db8582b4f6c27e601c1ed826c9ad1e0,PennController,104,0,calibrator_val_feedback,NULL,Selector,Selection,Selection,positive,1731609177756,undefined,729,free,undefined,positive,negative,positive,A,negative;positive
1731609762,4db8582b4f6c27e601c1ed826c9ad1e0,PennController,104,0,calibrator_val_feedback,NULL,PennController,115,_Trial_,End,1731609179764,undefined,729,free,undefined,positive,negative,positive,A,NULL
1731609762,4db8582b4f6c27e601c1ed826c9ad1e0,PennController,111,0,calibrator_val_feedback,NULL,PennController,122,_Trial_,Start,1731609179766,undefined,735,jail,undefined,positive,negative,positive,A,NULL
1731609762,4db8582b4f6c27e601c1ed826c9ad1e0,PennController,111,0,calibrator_val_feedback,NULL,PennController,122,_Header_,Start,1731609179766,undefined,735,jail,undefined,positive,negative,positive,A,NULL
1731609762,4db8582b4f6c27e601c1ed826c9ad1e0,PennController,111,0,calibrator_val_feedback,NULL,PennController,122,_Header_,End,1731609180025,undefined,735,jail,undefined,positive,negative,positive,A,NULL
1731609762,4db8582b4f6c27e601c1ed826c9ad1e0,PennController,111,0,calibrator_val_feedback,NULL,Selector,Selection,Selection,negative,1731609181269,undefined,735,jail,undefined,positive,negative,positive,A,negative;positive
1731609762,4db8582b4f6c27e601c1ed826c9ad1e0,PennController,111,0,calibrator_val_feedback,NULL,PennController,122,_Trial_,End,1731609183278,undefined,735,jail,undefined,positive,negative,positive,A,NULL
1731609762,4db8582b4f6c27e601c1ed826c9ad1e0,PennController,106,0,calibrator_val_feedback,NULL,PennController,117,_Trial_,Start,1731609183281,undefined,928,hat,undefined,positive,negative,positive,A,NULL
1731609762,4db8582b4f6c27e601c1ed826c9ad1e0,PennController,106,0,calibrator_val_feedback,NULL,PennController,117,_Header_,Start,1731609183281,undefined,928,hat,undefined,positive,negative,positive,A,NULL
1731609762,4db8582b4f6c27e601c1ed826c9ad1e0,PennController,106,0,calibrator_val_feedback,NULL,PennController,117,_Header_,End,1731609183538,undefined,928,hat,undefined,positive,negative,positive,A,NULL
1731609762,4db8582b4f6c27e601c1ed826c9ad1e0,PennController,106,0,calibrator_val_feedback,NULL,Selector,Selection,Selection,positive,1731609184973,undefined,928,hat,undefined,positive,negative,positive,A,negative;positive
1731609762,4db8582b4f6c27e601c1ed826c9ad1e0,PennController,106,0,calibrator_val_feedback,NULL,PennController,117,_Trial_,End,1731609186985,undefined,928,hat,undefined,positive,negative,positive,A,NULL
# 16. Key_value_F.
# 17. Key_value_J.
# 18. Group.
# 19. Comments.
1731609762,4db8582b4f6c27e601c1ed826c9ad1e0,PennController,118,0,calibrator_val_no_feedback,NULL,PennController,129,_Trial_,Start,1731609186987,undefined,883,industry,negative,positive,A,NULL
1731609762,4db8582b4f6c27e601c1ed826c9ad1e0,PennController,118,0,calibrator_val_no_feedback,NULL,PennController,129,_Header_,Start,1731609186987,undefined,883,industry,negative,positive,A,NULL
1731609762,4db8582b4f6c27e601c1ed826c9ad1e0,PennController,118,0,calibrator_val_no_feedback,NULL,PennController,129,_Header_,End,1731609187247,undefined,883,industry,negative,positive,A,NULL
1731609762,4db8582b4f6c27e601c1ed826c9ad1e0,PennController,118,0,calibrator_val_no_feedback,NULL,Selector,unnamed-Selector,Selection,positive,1731609188636,undefined,883,industry,negative,positive,A,negative;positive
1731609762,4db8582b4f6c27e601c1ed826c9ad1e0,PennController,118,0,calibrator_val_no_feedback,NULL,PennController,129,_Trial_,End,1731609188639,undefined,883,industry,negative,positive,A,NULL
1731609762,4db8582b4f6c27e601c1ed826c9ad1e0,PennController,120,0,calibrator_val_no_feedback,NULL,PennController,131,_Trial_,Start,1731609188641,undefined,719,invader,negative,positive,A,NULL
1731609762,4db8582b4f6c27e601c1ed826c9ad1e0,PennController,120,0,calibrator_val_no_feedback,NULL,PennController,131,_Header_,Start,1731609188641,undefined,719,invader,negative,positive,A,NULL
1731609762,4db8582b4f6c27e601c1ed826c9ad1e0,PennController,120,0,calibrator_val_no_feedback,NULL,PennController,131,_Header_,End,1731609188896,undefined,719,invader,negative,positive,A,NULL
1731609762,4db8582b4f6c27e601c1ed826c9ad1e0,PennController,120,0,calibrator_val_no_feedback,NULL,Selector,unnamed-Selector,Selection,negative,1731609190123,undefined,719,invader,negative,positive,A,negative;positive
1731609762,4db8582b4f6c27e601c1ed826c9ad1e0,PennController,120,0,calibrator_val_no_feedback,NULL,PennController,131,_Trial_,End,1731609190125,undefined,719,invader,negative,positive,A,NULL
1731609762,4db8582b4f6c27e601c1ed826c9ad1e0,PennController,123,0,calibrator_val_no_feedback,NULL,PennController,134,_Trial_,Start,1731609190127,undefined,668,kitten,negative,positive,A,NULL
1731609762,4db8582b4f6c27e601c1ed826c9ad1e0,PennController,123,0,calibrator_val_no_feedback,NULL,PennController,134,_Header_,Start,1731609190127,undefined,668,kitten,negative,positive,A,NULL
1731609762,4db8582b4f6c27e601c1ed826c9ad1e0,PennController,123,0,calibrator_val_no_feedback,NULL,PennController,134,_Header_,End,1731609190380,undefined,668,kitten,negative,positive,A,NULL
1731609762,4db8582b4f6c27e601c1ed826c9ad1e0,PennController,123,0,calibrator_val_no_feedback,NULL,Selector,unnamed-Selector,Selection,positive,1731609191558,undefined,668,kitten,negative,positive,A,negative;positive
1731609762,4db8582b4f6c27e601c1ed826c9ad1e0,PennController,123,0,calibrator_val_no_feedback,NULL,PennController,134,_Trial_,End,1731609191561,undefined,668,kitten,negative,positive,A,NULL
1731609762,4db8582b4f6c27e601c1ed826c9ad1e0,PennController,115,0,calibrator_val_no_feedback,NULL,PennController,126,_Trial_,Start,1731609191562,undefined,589,grin,negative,positive,A,NULL
1731609762,4db8582b4f6c27e601c1ed826c9ad1e0,PennController,115,0,calibrator_val_no_feedback,NULL,PennController,126,_Header_,Start,1731609191562,undefined,589,grin,negative,positive,A,NULL
1731609762,4db8582b4f6c27e601c1ed826c9ad1e0,PennController,115,0,calibrator_val_no_feedback,NULL,PennController,126,_Header_,End,1731609191819,undefined,589,grin,negative,positive,A,NULL
1731609762,4db8582b4f6c27e601c1ed826c9ad1e0,PennController,115,0,calibrator_val_no_feedback,NULL,Selector,unnamed-Selector,Selection,positive,1731609192915,undefined,589,grin,negative,positive,A,negative;positive
1731609762,4db8582b4f6c27e601c1ed826c9ad1e0,PennController,115,0,calibrator_val_no_feedback,NULL,PennController,126,_Trial_,End,1731609192917,undefined,589,grin,negative,positive,A,NULL
1731609762,4db8582b4f6c27e601c1ed826c9ad1e0,PennController,114,0,calibrator_val_no_feedback,NULL,PennController,125,_Trial_,Start,1731609192919,undefined,562,free,negative,positive,A,NULL
1731609762,4db8582b4f6c27e601c1ed826c9ad1e0,PennController,114,0,calibrator_val_no_feedback,NULL,PennController,125,_Header_,Start,1731609192919,undefined,562,free,negative,positive,A,NULL
1731609762,4db8582b4f6c27e601c1ed826c9ad1e0,PennController,114,0,calibrator_val_no_feedback,NULL,PennController,125,_Header_,End,1731609193174,undefined,562,free,negative,positive,A,NULL
1731609762,4db8582b4f6c27e601c1ed826c9ad1e0,PennController,114,0,calibrator_val_no_feedback,NULL,Selector,unnamed-Selector,Selection,positive,1731609194254,undefined,562,free,negative,positive,A,negative;positive
1731609762,4db8582b4f6c27e601c1ed826c9ad1e0,PennController,114,0,calibrator_val_no_feedback,NULL,PennController,125,_Trial_,End,1731609194256,undefined,562,free,negative,positive,A,NULL
1731609762,4db8582b4f6c27e601c1ed826c9ad1e0,PennController,122,0,calibrator_val_no_feedback,NULL,PennController,133,_Trial_,Start,1731609194257,undefined,545,joke,negative,positive,A,NULL
1731609762,4db8582b4f6c27e601c1ed826c9ad1e0,PennController,122,0,calibrator_val_no_feedback,NULL,PennController,133,_Header_,Start,1731609194257,undefined,545,joke,negative,positive,A,NULL
1731609762,4db8582b4f6c27e601c1ed826c9ad1e0,PennController,122,0,calibrator_val_no_feedback,NULL,PennController,133,_Header_,End,1731609194519,undefined,545,joke,negative,positive,A,NULL
1731609762,4db8582b4f6c27e601c1ed826c9ad1e0,PennController,122,0,calibrator_val_no_feedback,NULL,Selector,unnamed-Selector,Selection,positive,1731609195567,undefined,545,joke,negative,positive,A,negative;positive
1731609762,4db8582b4f6c27e601c1ed826c9ad1e0,PennController,122,0,calibrator_val_no_feedback,NULL,PennController,133,_Trial_,End,1731609195569,undefined,545,joke,negative,positive,A,NULL
1731609762,4db8582b4f6c27e601c1ed826c9ad1e0,PennController,119,0,calibrator_val_no_feedback,NULL,PennController,130,_Trial_,Start,1731609195571,undefined,524,insecure,negative,positive,A,NULL
1731609762,4db8582b4f6c27e601c1ed826c9ad1e0,PennController,119,0,calibrator_val_no_feedback,NULL,PennController,130,_Header_,Start,1731609195571,undefined,524,insecure,negative,positive,A,NULL
1731609762,4db8582b4f6c27e601c1ed826c9ad1e0,PennController,119,0,calibrator_val_no_feedback,NULL,PennController,130,_Header_,End,1731609195838,undefined,524,insecure,negative,positive,A,NULL
1731609762,4db8582b4f6c27e601c1ed826c9ad1e0,PennController,119,0,calibrator_val_no_feedback,NULL,Selector,unnamed-Selector,Selection,negative,1731609196865,undefined,524,insecure,negative,positive,A,negative;positive
1731609762,4db8582b4f6c27e601c1ed826c9ad1e0,PennController,119,0,calibrator_val_no_feedback,NULL,PennController,130,_Trial_,End,1731609196867,undefined,524,insecure,negative,positive,A,NULL
1731609762,4db8582b4f6c27e601c1ed826c9ad1e0,PennController,121,0,calibrator_val_no_feedback,NULL,PennController,132,_Trial_,Start,1731609196869,undefined,917,jail,negative,positive,A,NULL
1731609762,4db8582b4f6c27e601c1ed826c9ad1e0,PennController,121,0,calibrator_val_no_feedback,NULL,PennController,132,_Header_,Start,1731609196869,undefined,917,jail,negative,positive,A,NULL
1731609762,4db8582b4f6c27e601c1ed826c9ad1e0,PennController,121,0,calibrator_val_no_feedback,NULL,PennController,132,_Header_,End,1731609197128,undefined,917,jail,negative,positive,A,NULL
1731609762,4db8582b4f6c27e601c1ed826c9ad1e0,PennController,121,0,calibrator_val_no_feedback,NULL,Selector,unnamed-Selector,Selection,negative,1731609198562,undefined,917,jail,negative,positive,A,negative;positive
1731609762,4db8582b4f6c27e601c1ed826c9ad1e0,PennController,121,0,calibrator_val_no_feedback,NULL,PennController,132,_Trial_,End,1731609198564,undefined,917,jail,negative,positive,A,NULL
1731609762,4db8582b4f6c27e601c1ed826c9ad1e0,PennController,116,0,calibrator_val_no_feedback,NULL,PennController,127,_Trial_,Start,1731609198567,undefined,625,hat,negative,positive,A,NULL
1731609762,4db8582b4f6c27e601c1ed826c9ad1e0,PennController,116,0,calibrator_val_no_feedback,NULL,PennController,127,_Header_,Start,1731609198567,undefined,625,hat,negative,positive,A,NULL
1731609762,4db8582b4f6c27e601c1ed826c9ad1e0,PennController,116,0,calibrator_val_no_feedback,NULL,PennController,127,_Header_,End,1731609198829,undefined,625,hat,negative,positive,A,NULL
1731609762,4db8582b4f6c27e601c1ed826c9ad1e0,PennController,116,0,calibrator_val_no_feedback,NULL,Selector,unnamed-Selector,Selection,positive,1731609199966,undefined,625,hat,negative,positive,A,negative;positive
1731609762,4db8582b4f6c27e601c1ed826c9ad1e0,PennController,116,0,calibrator_val_no_feedback,NULL,PennController,127,_Trial_,End,1731609199968,undefined,625,hat,negative,positive,A,NULL
1731609762,4db8582b4f6c27e601c1ed826c9ad1e0,PennController,117,0,calibrator_val_no_feedback,NULL,PennController,128,_Trial_,Start,1731609199970,undefined,565,icebox,negative,positive,A,NULL
1731609762,4db8582b4f6c27e601c1ed826c9ad1e0,PennController,117,0,calibrator_val_no_feedback,NULL,PennController,128,_Header_,Start,1731609199970,undefined,565,icebox,negative,positive,A,NULL
1731609762,4db8582b4f6c27e601c1ed826c9ad1e0,PennController,117,0,calibrator_val_no_feedback,NULL,PennController,128,_Header_,End,1731609200222,undefined,565,icebox,negative,positive,A,NULL
1731609762,4db8582b4f6c27e601c1ed826c9ad1e0,PennController,117,0,calibrator_val_no_feedback,NULL,Selector,unnamed-Selector,Selection,positive,1731609201297,undefined,565,icebox,negative,positive,A,negative;positive
1731609762,4db8582b4f6c27e601c1ed826c9ad1e0,PennController,117,0,calibrator_val_no_feedback,NULL,PennController,128,_Trial_,End,1731609201299,undefined,565,icebox,negative,positive,A,NULL
# 13. Comments.
1731609762,4db8582b4f6c27e601c1ed826c9ad1e0,PennController,130,0,endinstructions_val,NULL,PennController,8,_Trial_,Start,1731609201300,NULL
1731609762,4db8582b4f6c27e601c1ed826c9ad1e0,PennController,130,0,endinstructions_val,NULL,PennController,8,_Header_,Start,1731609201300,NULL
1731609762,4db8582b4f6c27e601c1ed826c9ad1e0,PennController,130,0,endinstructions_val,NULL,PennController,8,_Header_,End,1731609201557,NULL
1731609762,4db8582b4f6c27e601c1ed826c9ad1e0,PennController,130,0,endinstructions_val,NULL,PennController,8,_Trial_,End,1731609212110,NULL
# 13. ID.
# 14. ReactionTime.
# 15. Word.
# 16. ConcValCombo.
# 17. Key_value_F.
# 18. Key_value_J.
# 19. Group.
# 20. Comments.
1731609762,4db8582b4f6c27e601c1ed826c9ad1e0,PennController,59,0,test_val,NULL,PennController,70,_Trial_,Start,1731609212112,undefined,1008,cherish,abstract-positive,negative,positive,A,NULL
1731609762,4db8582b4f6c27e601c1ed826c9ad1e0,PennController,59,0,test_val,NULL,PennController,70,_Header_,Start,1731609212112,undefined,1008,cherish,abstract-positive,negative,positive,A,NULL
1731609762,4db8582b4f6c27e601c1ed826c9ad1e0,PennController,59,0,test_val,NULL,PennController,70,_Header_,End,1731609212380,undefined,1008,cherish,abstract-positive,negative,positive,A,NULL
1731609762,4db8582b4f6c27e601c1ed826c9ad1e0,PennController,59,0,test_val,NULL,Selector,unnamed-Selector,Selection,positive,1731609213891,undefined,1008,cherish,abstract-positive,negative,positive,A,negative;positive
1731609762,4db8582b4f6c27e601c1ed826c9ad1e0,PennController,59,0,test_val,NULL,PennController,70,_Trial_,End,1731609213893,undefined,1008,cherish,abstract-positive,negative,positive,A,NULL
1731609762,4db8582b4f6c27e601c1ed826c9ad1e0,PennController,69,0,test_val,NULL,PennController,80,_Trial_,Start,1731609213896,undefined,735,exploit,concrete-negative,negative,positive,A,NULL
1731609762,4db8582b4f6c27e601c1ed826c9ad1e0,PennController,69,0,test_val,NULL,PennController,80,_Header_,Start,1731609213896,undefined,735,exploit,concrete-negative,negative,positive,A,NULL
1731609762,4db8582b4f6c27e601c1ed826c9ad1e0,PennController,69,0,test_val,NULL,PennController,80,_Header_,End,1731609214160,undefined,735,exploit,concrete-negative,negative,positive,A,NULL
1731609762,4db8582b4f6c27e601c1ed826c9ad1e0,PennController,69,0,test_val,NULL,Selector,unnamed-Selector,Selection,negative,1731609215400,undefined,735,exploit,concrete-negative,negative,positive,A,negative;positive
1731609762,4db8582b4f6c27e601c1ed826c9ad1e0,PennController,69,0,test_val,NULL,PennController,80,_Trial_,End,1731609215402,undefined,735,exploit,concrete-negative,negative,positive,A,NULL
1731609762,4db8582b4f6c27e601c1ed826c9ad1e0,PennController,79,0,test_val,NULL,PennController,90,_Trial_,Start,1731609215404,undefined,550,smile,concrete-positive,negative,positive,A,NULL
1731609762,4db8582b4f6c27e601c1ed826c9ad1e0,PennController,79,0,test_val,NULL,PennController,90,_Header_,Start,1731609215404,undefined,550,smile,concrete-positive,negative,positive,A,NULL
1731609762,4db8582b4f6c27e601c1ed826c9ad1e0,PennController,79,0,test_val,NULL,PennController,90,_Header_,End,1731609215662,undefined,550,smile,concrete-positive,negative,positive,A,NULL
1731609762,4db8582b4f6c27e601c1ed826c9ad1e0,PennController,79,0,test_val,NULL,Selector,unnamed-Selector,Selection,positive,1731609216715,undefined,550,smile,concrete-positive,negative,positive,A,negative;positive
1731609762,4db8582b4f6c27e601c1ed826c9ad1e0,PennController,79,0,test_val,NULL,PennController,90,_Trial_,End,1731609216716,undefined,550,smile,concrete-positive,negative,positive,A,NULL
1731609762,4db8582b4f6c27e601c1ed826c9ad1e0,PennController,73,0,test_val,NULL,PennController,84,_Trial_,Start,1731609216718,undefined,770,smack,abstract-negative,negative,positive,A,NULL
1731609762,4db8582b4f6c27e601c1ed826c9ad1e0,PennController,73,0,test_val,NULL,PennController,84,_Header_,Start,1731609216718,undefined,770,smack,abstract-negative,negative,positive,A,NULL
1731609762,4db8582b4f6c27e601c1ed826c9ad1e0,PennController,73,0,test_val,NULL,PennController,84,_Header_,End,1731609216973,undefined,770,smack,abstract-negative,negative,positive,A,NULL
1731609762,4db8582b4f6c27e601c1ed826c9ad1e0,PennController,73,0,test_val,NULL,Selector,unnamed-Selector,Selection,negative,1731609218249,undefined,770,smack,abstract-negative,negative,positive,A,negative;positive
1731609762,4db8582b4f6c27e601c1ed826c9ad1e0,PennController,73,0,test_val,NULL,PennController,84,_Trial_,End,1731609218250,undefined,770,smack,abstract-negative,negative,positive,A,NULL
1731609762,4db8582b4f6c27e601c1ed826c9ad1e0,PennController,74,0,test_val,NULL,PennController,85,_Trial_,Start,1731609218253,undefined,722,murder,concrete-negative,negative,positive,A,NULL
1731609762,4db8582b4f6c27e601c1ed826c9ad1e0,PennController,74,0,test_val,NULL,PennController,85,_Header_,Start,1731609218253,undefined,722,murder,concrete-negative,negative,positive,A,NULL
1731609762,4db8582b4f6c27e601c1ed826c9ad1e0,PennController,74,0,test_val,NULL,PennController,85,_Header_,End,1731609218506,undefined,722,murder,concrete-negative,negative,positive,A,NULL
1731609762,4db8582b4f6c27e601c1ed826c9ad1e0,PennController,74,0,test_val,NULL,Selector,unnamed-Selector,Selection,negative,1731609219749,undefined,722,murder,concrete-negative,negative,positive,A,negative;positive
1731609762,4db8582b4f6c27e601c1ed826c9ad1e0,PennController,74,0,test_val,NULL,PennController,85,_Trial_,End,1731609219751,undefined,722,murder,concrete-negative,negative,positive,A,NULL
1731609762,4db8582b4f6c27e601c1ed826c9ad1e0,PennController,71,0,test_val,NULL,PennController,82,_Trial_,Start,1731609219753,undefined,1006,repair,concrete-positive,negative,positive,A,NULL
1731609762,4db8582b4f6c27e601c1ed826c9ad1e0,PennController,71,0,test_val,NULL,PennController,82,_Header_,Start,1731609219753,undefined,1006,repair,concrete-positive,negative,positive,A,NULL
1731609762,4db8582b4f6c27e601c1ed826c9ad1e0,PennController,71,0,test_val,NULL,PennController,82,_Header_,End,1731609220009,undefined,1006,repair,concrete-positive,negative,positive,A,NULL
1731609762,4db8582b4f6c27e601c1ed826c9ad1e0,PennController,71,0,test_val,NULL,Selector,unnamed-Selector,Selection,positive,1731609221523,undefined,1006,repair,concrete-positive,negative,positive,A,negative;positive
1731609762,4db8582b4f6c27e601c1ed826c9ad1e0,PennController,71,0,test_val,NULL,PennController,82,_Trial_,End,1731609221526,undefined,1006,repair,concrete-positive,negative,positive,A,NULL
1731609762,4db8582b4f6c27e601c1ed826c9ad1e0,PennController,53,0,test_val,NULL,PennController,64,_Trial_,Start,1731609221527,undefined,894,impose,concrete-negative,negative,positive,A,NULL
1731609762,4db8582b4f6c27e601c1ed826c9ad1e0,PennController,53,0,test_val,NULL,PennController,64,_Header_,Start,1731609221527,undefined,894,impose,concrete-negative,negative,positive,A,NULL
1731609762,4db8582b4f6c27e601c1ed826c9ad1e0,PennController,53,0,test_val,NULL,PennController,64,_Header_,End,1731609221792,undefined,894,impose,concrete-negative,negative,positive,A,NULL
1731609762,4db8582b4f6c27e601c1ed826c9ad1e0,PennController,53,0,test_val,NULL,Selector,unnamed-Selector,Selection,negative,1731609223188,undefined,894,impose,concrete-negative,negative,positive,A,negative;positive
1731609762,4db8582b4f6c27e601c1ed826c9ad1e0,PennController,53,0,test_val,NULL,PennController,64,_Trial_,End,1731609223191,undefined,894,impose,concrete-negative,negative,positive,A,NULL
1731609762,4db8582b4f6c27e601c1ed826c9ad1e0,PennController,81,0,test_val,NULL,PennController,92,_Trial_,Start,1731609223193,undefined,799,feeling,concrete-positive,negative,positive,A,NULL
1731609762,4db8582b4f6c27e601c1ed826c9ad1e0,PennController,81,0,test_val,NULL,PennController,92,_Header_,Start,1731609223193,undefined,799,feeling,concrete-positive,negative,positive,A,NULL
1731609762,4db8582b4f6c27e601c1ed826c9ad1e0,PennController,81,0,test_val,NULL,PennController,92,_Header_,End,1731609223447,undefined,799,feeling,concrete-positive,negative,positive,A,NULL
1731609762,4db8582b4f6c27e601c1ed826c9ad1e0,PennController,81,0,test_val,NULL,Selector,unnamed-Selector,Selection,positive,1731609224755,undefined,799,feeling,concrete-positive,negative,positive,A,negative;positive
1731609762,4db8582b4f6c27e601c1ed826c9ad1e0,PennController,81,0,test_val,NULL,PennController,92,_Trial_,End,1731609224757,undefined,799,feeling,concrete-positive,negative,positive,A,NULL
1731609762,4db8582b4f6c27e601c1ed826c9ad1e0,PennController,46,0,test_val,NULL,PennController,57,_Trial_,Start,1731609224759,undefined,754,esteem,abstract-positive,negative,positive,A,NULL
1731609762,4db8582b4f6c27e601c1ed826c9ad1e0,PennController,46,0,test_val,NULL,PennController,57,_Header_,Start,1731609224759,undefined,754,esteem,abstract-positive,negative,positive,A,NULL
1731609762,4db8582b4f6c27e601c1ed826c9ad1e0,PennController,46,0,test_val,NULL,PennController,57,_Header_,End,1731609225010,undefined,754,esteem,abstract-positive,negative,positive,A,NULL
1731609762,4db8582b4f6c27e601c1ed826c9ad1e0,PennController,46,0,test_val,NULL,Selector,unnamed-Selector,Selection,positive,1731609226272,undefined,754,esteem,abstract-positive,negative,positive,A,negative;positive
1731609762,4db8582b4f6c27e601c1ed826c9ad1e0,PennController,46,0,test_val,NULL,PennController,57,_Trial_,End,1731609226275,undefined,754,esteem,abstract-positive,negative,positive,A,NULL
1731609762,4db8582b4f6c27e601c1ed826c9ad1e0,PennController,58,0,test_val,NULL,PennController,69,_Trial_,Start,1731609226276,undefined,643,loathe,abstract-negative,negative,positive,A,NULL
1731609762,4db8582b4f6c27e601c1ed826c9ad1e0,PennController,58,0,test_val,NULL,PennController,69,_Header_,Start,1731609226276,undefined,643,loathe,abstract-negative,negative,positive,A,NULL
1731609762,4db8582b4f6c27e601c1ed826c9ad1e0,PennController,58,0,test_val,NULL,PennController,69,_Header_,End,1731609226529,undefined,643,loathe,abstract-negative,negative,positive,A,NULL
1731609762,4db8582b4f6c27e601c1ed826c9ad1e0,PennController,58,0,test_val,NULL,Selector,unnamed-Selector,Selection,negative,1731609227675,undefined,643,loathe,abstract-negative,negative,positive,A,negative;positive
1731609762,4db8582b4f6c27e601c1ed826c9ad1e0,PennController,58,0,test_val,NULL,PennController,69,_Trial_,End,1731609227677,undefined,643,loathe,abstract-negative,negative,positive,A,NULL
1731609762,4db8582b4f6c27e601c1ed826c9ad1e0,PennController,77,0,test_val,NULL,PennController,88,_Trial_,Start,1731609227679,undefined,710,kill,concrete-negative,negative,positive,A,NULL
1731609762,4db8582b4f6c27e601c1ed826c9ad1e0,PennController,77,0,test_val,NULL,PennController,88,_Header_,Start,1731609227679,undefined,710,kill,concrete-negative,negative,positive,A,NULL
1731609762,4db8582b4f6c27e601c1ed826c9ad1e0,PennController,77,0,test_val,NULL,PennController,88,_Header_,End,1731609227933,undefined,710,kill,concrete-negative,negative,positive,A,NULL
1731609762,4db8582b4f6c27e601c1ed826c9ad1e0,PennController,77,0,test_val,NULL,Selector,unnamed-Selector,Selection,negative,1731609229149,undefined,710,kill,concrete-negative,negative,positive,A,negative;positive
1731609762,4db8582b4f6c27e601c1ed826c9ad1e0,PennController,77,0,test_val,NULL,PennController,88,_Trial_,End,1731609229150,undefined,710,kill,concrete-negative,negative,positive,A,NULL
1731609762,4db8582b4f6c27e601c1ed826c9ad1e0,PennController,45,0,test_val,NULL,PennController,56,_Trial_,Start,1731609229152,undefined,771,consider,concrete-positive,negative,positive,A,NULL
1731609762,4db8582b4f6c27e601c1ed826c9ad1e0,PennController,45,0,test_val,NULL,PennController,56,_Header_,Start,1731609229152,undefined,771,consider,concrete-positive,negative,positive,A,NULL
1731609762,4db8582b4f6c27e601c1ed826c9ad1e0,PennController,45,0,test_val,NULL,PennController,56,_Header_,End,1731609229404,undefined,771,consider,concrete-positive,negative,positive,A,NULL
1731609762,4db8582b4f6c27e601c1ed826c9ad1e0,PennController,45,0,test_val,NULL,Selector,unnamed-Selector,Selection,positive,1731609230688,undefined,771,consider,concrete-positive,negative,positive,A,negative;positive
1731609762,4db8582b4f6c27e601c1ed826c9ad1e0,PennController,45,0,test_val,NULL,PennController,56,_Trial_,End,1731609230690,undefined,771,consider,concrete-positive,negative,positive,A,NULL
1731609762,4db8582b4f6c27e601c1ed826c9ad1e0,PennController,60,0,test_val,NULL,PennController,71,_Trial_,Start,1731609230692,undefined,647,hug,concrete-positive,negative,positive,A,NULL
1731609762,4db8582b4f6c27e601c1ed826c9ad1e0,PennController,60,0,test_val,NULL,PennController,71,_Header_,Start,1731609230692,undefined,647,hug,concrete-positive,negative,positive,A,NULL
1731609762,4db8582b4f6c27e601c1ed826c9ad1e0,PennController,60,0,test_val,NULL,PennController,71,_Header_,End,1731609230950,undefined,647,hug,concrete-positive,negative,positive,A,NULL
1731609762,4db8582b4f6c27e601c1ed826c9ad1e0,PennController,60,0,test_val,NULL,Selector,unnamed-Selector,Selection,positive,1731609232105,undefined,647,hug,concrete-positive,negative,positive,A,negative;positive
1731609762,4db8582b4f6c27e601c1ed826c9ad1e0,PennController,60,0,test_val,NULL,PennController,71,_Trial_,End,1731609232107,undefined,647,hug,concrete-positive,negative,positive,A,NULL
1731609762,4db8582b4f6c27e601c1ed826c9ad1e0,PennController,83,0,test_val,NULL,PennController,94,_Trial_,Start,1731609232109,undefined,1517,justify,concrete-positive,negative,positive,A,NULL
1731609762,4db8582b4f6c27e601c1ed826c9ad1e0,PennController,83,0,test_val,NULL,PennController,94,_Header_,Start,1731609232109,undefined,1517,justify,concrete-positive,negative,positive,A,NULL
1731609762,4db8582b4f6c27e601c1ed826c9ad1e0,PennController,83,0,test_val,NULL,PennController,94,_Header_,End,1731609232370,undefined,1517,justify,concrete-positive,negative,positive,A,NULL
1731609762,4db8582b4f6c27e601c1ed826c9ad1e0,PennController,83,0,test_val,NULL,Selector,unnamed-Selector,Selection,positive,1731609234389,undefined,1517,justify,concrete-positive,negative,positive,A,negative;positive
1731609762,4db8582b4f6c27e601c1ed826c9ad1e0,PennController,83,0,test_val,NULL,PennController,94,_Trial_,End,1731609234390,undefined,1517,justify,concrete-positive,negative,positive,A,NULL
1731609762,4db8582b4f6c27e601c1ed826c9ad1e0,PennController,44,0,test_val,NULL,PennController,55,_Trial_,Start,1731609234392,undefined,971,befall,concrete-negative,negative,positive,A,NULL
1731609762,4db8582b4f6c27e601c1ed826c9ad1e0,PennController,44,0,test_val,NULL,PennController,55,_Header_,Start,1731609234392,undefined,971,befall,concrete-negative,negative,positive,A,NULL
1731609762,4db8582b4f6c27e601c1ed826c9ad1e0,PennController,44,0,test_val,NULL,PennController,55,_Header_,End,1731609234642,undefined,971,befall,concrete-negative,negative,positive,A,NULL
1731609762,4db8582b4f6c27e601c1ed826c9ad1e0,PennController,44,0,test_val,NULL,Selector,unnamed-Selector,Selection,negative,1731609236116,undefined,971,befall,concrete-negative,negative,positive,A,negative;positive
1731609762,4db8582b4f6c27e601c1ed826c9ad1e0,PennController,44,0,test_val,NULL,PennController,55,_Trial_,End,1731609236119,undefined,971,befall,concrete-negative,negative,positive,A,NULL
1731609762,4db8582b4f6c27e601c1ed826c9ad1e0,PennController,52,0,test_val,NULL,PennController,63,_Trial_,Start,1731609236121,undefined,866,build,concrete-positive,negative,positive,A,NULL
1731609762,4db8582b4f6c27e601c1ed826c9ad1e0,PennController,52,0,test_val,NULL,PennController,63,_Header_,Start,1731609236121,undefined,866,build,concrete-positive,negative,positive,A,NULL
1731609762,4db8582b4f6c27e601c1ed826c9ad1e0,PennController,52,0,test_val,NULL,PennController,63,_Header_,End,1731609236382,undefined,866,build,concrete-positive,negative,positive,A,NULL
1731609762,4db8582b4f6c27e601c1ed826c9ad1e0,PennController,52,0,test_val,NULL,Selector,unnamed-Selector,Selection,positive,1731609237759,undefined,866,build,concrete-positive,negative,positive,A,negative;positive
1731609762,4db8582b4f6c27e601c1ed826c9ad1e0,PennController,52,0,test_val,NULL,PennController,63,_Trial_,End,1731609237761,undefined,866,build,concrete-positive,negative,positive,A,NULL
1731609762,4db8582b4f6c27e601c1ed826c9ad1e0,PennController,75,0,test_val,NULL,PennController,86,_Trial_,Start,1731609237763,undefined,670,adore,abstract-positive,negative,positive,A,NULL
1731609762,4db8582b4f6c27e601c1ed826c9ad1e0,PennController,75,0,test_val,NULL,PennController,86,_Header_,Start,1731609237763,undefined,670,adore,abstract-positive,negative,positive,A,NULL
1731609762,4db8582b4f6c27e601c1ed826c9ad1e0,PennController,75,0,test_val,NULL,PennController,86,_Header_,End,1731609238023,undefined,670,adore,abstract-positive,negative,positive,A,NULL
1731609762,4db8582b4f6c27e601c1ed826c9ad1e0,PennController,75,0,test_val,NULL,Selector,unnamed-Selector,Selection,positive,1731609239206,undefined,670,adore,abstract-positive,negative,positive,A,negative;positive
1731609762,4db8582b4f6c27e601c1ed826c9ad1e0,PennController,75,0,test_val,NULL,PennController,86,_Trial_,End,1731609239207,undefined,670,adore,abstract-positive,negative,positive,A,NULL
1731609762,4db8582b4f6c27e601c1ed826c9ad1e0,PennController,64,0,test_val,NULL,PennController,75,_Trial_,Start,1731609239209,undefined,873,respect,abstract-positive,negative,positive,A,NULL
1731609762,4db8582b4f6c27e601c1ed826c9ad1e0,PennController,64,0,test_val,NULL,PennController,75,_Header_,Start,1731609239209,undefined,873,respect,abstract-positive,negative,positive,A,NULL
1731609762,4db8582b4f6c27e601c1ed826c9ad1e0,PennController,64,0,test_val,NULL,PennController,75,_Header_,End,1731609239464,undefined,873,respect,abstract-positive,negative,positive,A,NULL
1731609762,4db8582b4f6c27e601c1ed826c9ad1e0,PennController,64,0,test_val,NULL,Selector,unnamed-Selector,Selection,positive,1731609240843,undefined,873,respect,abstract-positive,negative,positive,A,negative;positive
1731609762,4db8582b4f6c27e601c1ed826c9ad1e0,PennController,64,0,test_val,NULL,PennController,75,_Trial_,End,1731609240845,undefined,873,respect,abstract-positive,negative,positive,A,NULL
1731609762,4db8582b4f6c27e601c1ed826c9ad1e0,PennController,70,0,test_val,NULL,PennController,81,_Trial_,Start,1731609240847,undefined,697,hurl,abstract-negative,negative,positive,A,NULL
1731609762,4db8582b4f6c27e601c1ed826c9ad1e0,PennController,70,0,test_val,NULL,PennController,81,_Header_,Start,1731609240847,undefined,697,hurl,abstract-negative,negative,positive,A,NULL
1731609762,4db8582b4f6c27e601c1ed826c9ad1e0,PennController,70,0,test_val,NULL,PennController,81,_Header_,End,1731609241113,undefined,697,hurl,abstract-negative,negative,positive,A,NULL
1731609762,4db8582b4f6c27e601c1ed826c9ad1e0,PennController,70,0,test_val,NULL,Selector,unnamed-Selector,Selection,negative,1731609242322,undefined,697,hurl,abstract-negative,negative,positive,A,negative;positive
1731609762,4db8582b4f6c27e601c1ed826c9ad1e0,PennController,70,0,test_val,NULL,PennController,81,_Trial_,End,1731609242324,undefined,697,hurl,abstract-negative,negative,positive,A,NULL
1731609762,4db8582b4f6c27e601c1ed826c9ad1e0,PennController,72,0,test_val,NULL,PennController,83,_Trial_,Start,1731609242326,undefined,1427,sail,abstract-positive,negative,positive,A,NULL
1731609762,4db8582b4f6c27e601c1ed826c9ad1e0,PennController,72,0,test_val,NULL,PennController,83,_Header_,Start,1731609242326,undefined,1427,sail,abstract-positive,negative,positive,A,NULL
1731609762,4db8582b4f6c27e601c1ed826c9ad1e0,PennController,72,0,test_val,NULL,PennController,83,_Header_,End,1731609242578,undefined,1427,sail,abstract-positive,negative,positive,A,NULL
1731609762,4db8582b4f6c27e601c1ed826c9ad1e0,PennController,72,0,test_val,NULL,Selector,unnamed-Selector,Selection,positive,1731609244514,undefined,1427,sail,abstract-positive,negative,positive,A,negative;positive
1731609762,4db8582b4f6c27e601c1ed826c9ad1e0,PennController,72,0,test_val,NULL,PennController,83,_Trial_,End,1731609244518,undefined,1427,sail,abstract-positive,negative,positive,A,NULL
1731609762,4db8582b4f6c27e601c1ed826c9ad1e0,PennController,51,0,test_val,NULL,PennController,62,_Trial_,Start,1731609244520,undefined,849,scratch,concrete-negative,negative,positive,A,NULL
1731609762,4db8582b4f6c27e601c1ed826c9ad1e0,PennController,51,0,test_val,NULL,PennController,62,_Header_,Start,1731609244520,undefined,849,scratch,concrete-negative,negative,positive,A,NULL
1731609762,4db8582b4f6c27e601c1ed826c9ad1e0,PennController,51,0,test_val,NULL,PennController,62,_Header_,End,1731609244782,undefined,849,scratch,concrete-negative,negative,positive,A,NULL
1731609762,4db8582b4f6c27e601c1ed826c9ad1e0,PennController,51,0,test_val,NULL,Selector,unnamed-Selector,Selection,negative,1731609246135,undefined,849,scratch,concrete-negative,negative,positive,A,negative;positive
1731609762,4db8582b4f6c27e601c1ed826c9ad1e0,PennController,51,0,test_val,NULL,PennController,62,_Trial_,End,1731609246138,undefined,849,scratch,concrete-negative,negative,positive,A,NULL
1731609762,4db8582b4f6c27e601c1ed826c9ad1e0,PennController,62,0,test_val,NULL,PennController,73,_Trial_,Start,1731609246139,undefined,657,resent,abstract-negative,negative,positive,A,NULL
1731609762,4db8582b4f6c27e601c1ed826c9ad1e0,PennController,62,0,test_val,NULL,PennController,73,_Header_,Start,1731609246139,undefined,657,resent,abstract-negative,negative,positive,A,NULL
1731609762,4db8582b4f6c27e601c1ed826c9ad1e0,PennController,62,0,test_val,NULL,PennController,73,_Header_,End,1731609246393,undefined,657,resent,abstract-negative,negative,positive,A,NULL
1731609762,4db8582b4f6c27e601c1ed826c9ad1e0,PennController,62,0,test_val,NULL,Selector,unnamed-Selector,Selection,negative,1731609247558,undefined,657,resent,abstract-negative,negative,positive,A,negative;positive
1731609762,4db8582b4f6c27e601c1ed826c9ad1e0,PennController,62,0,test_val,NULL,PennController,73,_Trial_,End,1731609247560,undefined,657,resent,abstract-negative,negative,positive,A,NULL
1731609762,4db8582b4f6c27e601c1ed826c9ad1e0,PennController,61,0,test_val,NULL,PennController,72,_Trial_,Start,1731609247562,undefined,1356,excell,abstract-positive,negative,positive,A,NULL
1731609762,4db8582b4f6c27e601c1ed826c9ad1e0,PennController,61,0,test_val,NULL,PennController,72,_Header_,Start,1731609247562,undefined,1356,excell,abstract-positive,negative,positive,A,NULL
1731609762,4db8582b4f6c27e601c1ed826c9ad1e0,PennController,61,0,test_val,NULL,PennController,72,_Header_,End,1731609247827,undefined,1356,excell,abstract-positive,negative,positive,A,NULL
1731609762,4db8582b4f6c27e601c1ed826c9ad1e0,PennController,61,0,test_val,NULL,Selector,unnamed-Selector,Selection,positive,1731609249695,undefined,1356,excell,abstract-positive,negative,positive,A,negative;positive
1731609762,4db8582b4f6c27e601c1ed826c9ad1e0,PennController,61,0,test_val,NULL,PennController,72,_Trial_,End,1731609249696,undefined,1356,excell,abstract-positive,negative,positive,A,NULL
1731609762,4db8582b4f6c27e601c1ed826c9ad1e0,PennController,63,0,test_val,NULL,PennController,74,_Trial_,Start,1731609249697,undefined,710,embolden,abstract-positive,negative,positive,A,NULL
1731609762,4db8582b4f6c27e601c1ed826c9ad1e0,PennController,63,0,test_val,NULL,PennController,74,_Header_,Start,1731609249697,undefined,710,embolden,abstract-positive,negative,positive,A,NULL
1731609762,4db8582b4f6c27e601c1ed826c9ad1e0,PennController,63,0,test_val,NULL,PennController,74,_Header_,End,1731609249951,undefined,710,embolden,abstract-positive,negative,positive,A,NULL
1731609762,4db8582b4f6c27e601c1ed826c9ad1e0,PennController,63,0,test_val,NULL,Selector,unnamed-Selector,Selection,positive,1731609251170,undefined,710,embolden,abstract-positive,negative,positive,A,negative;positive
1731609762,4db8582b4f6c27e601c1ed826c9ad1e0,PennController,63,0,test_val,NULL,PennController,74,_Trial_,End,1731609251172,undefined,710,embolden,abstract-positive,negative,positive,A,NULL
1731609762,4db8582b4f6c27e601c1ed826c9ad1e0,PennController,65,0,test_val,NULL,PennController,76,_Trial_,Start,1731609251174,undefined,719,admire,abstract-positive,negative,positive,A,NULL
1731609762,4db8582b4f6c27e601c1ed826c9ad1e0,PennController,65,0,test_val,NULL,PennController,76,_Header_,Start,1731609251174,undefined,719,admire,abstract-positive,negative,positive,A,NULL
1731609762,4db8582b4f6c27e601c1ed826c9ad1e0,PennController,65,0,test_val,NULL,PennController,76,_Header_,End,1731609251441,undefined,719,admire,abstract-positive,negative,positive,A,NULL
1731609762,4db8582b4f6c27e601c1ed826c9ad1e0,PennController,65,0,test_val,NULL,Selector,unnamed-Selector,Selection,positive,1731609252675,undefined,719,admire,abstract-positive,negative,positive,A,negative;positive
1731609762,4db8582b4f6c27e601c1ed826c9ad1e0,PennController,65,0,test_val,NULL,PennController,76,_Trial_,End,1731609252676,undefined,719,admire,abstract-positive,negative,positive,A,NULL
1731609762,4db8582b4f6c27e601c1ed826c9ad1e0,PennController,57,0,test_val,NULL,PennController,68,_Trial_,Start,1731609252678,undefined,1075,obsess,abstract-negative,negative,positive,A,NULL
1731609762,4db8582b4f6c27e601c1ed826c9ad1e0,PennController,57,0,test_val,NULL,PennController,68,_Header_,Start,1731609252678,undefined,1075,obsess,abstract-negative,negative,positive,A,NULL
1731609762,4db8582b4f6c27e601c1ed826c9ad1e0,PennController,57,0,test_val,NULL,PennController,68,_Header_,End,1731609252935,undefined,1075,obsess,abstract-negative,negative,positive,A,NULL
1731609762,4db8582b4f6c27e601c1ed826c9ad1e0,PennController,57,0,test_val,NULL,Selector,unnamed-Selector,Selection,negative,1731609254523,undefined,1075,obsess,abstract-negative,negative,positive,A,negative;positive
1731609762,4db8582b4f6c27e601c1ed826c9ad1e0,PennController,57,0,test_val,NULL,PennController,68,_Trial_,End,1731609254525,undefined,1075,obsess,abstract-negative,negative,positive,A,NULL
1731609762,4db8582b4f6c27e601c1ed826c9ad1e0,PennController,47,0,test_val,NULL,PennController,58,_Trial_,Start,1731609254528,undefined,772,fall,abstract-negative,negative,positive,A,NULL
1731609762,4db8582b4f6c27e601c1ed826c9ad1e0,PennController,47,0,test_val,NULL,PennController,58,_Header_,Start,1731609254528,undefined,772,fall,abstract-negative,negative,positive,A,NULL
1731609762,4db8582b4f6c27e601c1ed826c9ad1e0,PennController,47,0,test_val,NULL,PennController,58,_Header_,End,1731609254786,undefined,772,fall,abstract-negative,negative,positive,A,NULL
1731609762,4db8582b4f6c27e601c1ed826c9ad1e0,PennController,47,0,test_val,NULL,Selector,unnamed-Selector,Selection,negative,1731609256066,undefined,772,fall,abstract-negative,negative,positive,A,negative;positive
1731609762,4db8582b4f6c27e601c1ed826c9ad1e0,PennController,47,0,test_val,NULL,PennController,58,_Trial_,End,1731609256068,undefined,772,fall,abstract-negative,negative,positive,A,NULL
1731609762,4db8582b4f6c27e601c1ed826c9ad1e0,PennController,54,0,test_val,NULL,PennController,65,_Trial_,Start,1731609256070,undefined,1093,qualify,concrete-positive,negative,positive,A,NULL
1731609762,4db8582b4f6c27e601c1ed826c9ad1e0,PennController,54,0,test_val,NULL,PennController,65,_Header_,Start,1731609256070,undefined,1093,qualify,concrete-positive,negative,positive,A,NULL
1731609762,4db8582b4f6c27e601c1ed826c9ad1e0,PennController,54,0,test_val,NULL,PennController,65,_Header_,End,1731609256322,undefined,1093,qualify,concrete-positive,negative,positive,A,NULL
1731609762,4db8582b4f6c27e601c1ed826c9ad1e0,PennController,54,0,test_val,NULL,Selector,unnamed-Selector,Selection,positive,1731609257928,undefined,1093,qualify,concrete-positive,negative,positive,A,negative;positive
1731609762,4db8582b4f6c27e601c1ed826c9ad1e0,PennController,54,0,test_val,NULL,PennController,65,_Trial_,End,1731609257931,undefined,1093,qualify,concrete-positive,negative,positive,A,NULL
1731609762,4db8582b4f6c27e601c1ed826c9ad1e0,PennController,49,0,test_val,NULL,PennController,60,_Trial_,Start,1731609257932,undefined,1336,break,concrete-negative,negative,positive,A,NULL
1731609762,4db8582b4f6c27e601c1ed826c9ad1e0,PennController,49,0,test_val,NULL,PennController,60,_Header_,Start,1731609257932,undefined,1336,break,concrete-negative,negative,positive,A,NULL
1731609762,4db8582b4f6c27e601c1ed826c9ad1e0,PennController,49,0,test_val,NULL,PennController,60,_Header_,End,1731609258191,undefined,1336,break,concrete-negative,negative,positive,A,NULL
1731609762,4db8582b4f6c27e601c1ed826c9ad1e0,PennController,49,0,test_val,NULL,Selector,unnamed-Selector,Selection,negative,1731609260040,undefined,1336,break,concrete-negative,negative,positive,A,negative;positive
1731609762,4db8582b4f6c27e601c1ed826c9ad1e0,PennController,49,0,test_val,NULL,PennController,60,_Trial_,End,1731609260043,undefined,1336,break,concrete-negative,negative,positive,A,NULL
1731609762,4db8582b4f6c27e601c1ed826c9ad1e0,PennController,67,0,test_val,NULL,PennController,78,_Trial_,Start,1731609260045,undefined,833,cuddle,concrete-positive,negative,positive,A,NULL
1731609762,4db8582b4f6c27e601c1ed826c9ad1e0,PennController,67,0,test_val,NULL,PennController,78,_Header_,Start,1731609260045,undefined,833,cuddle,concrete-positive,negative,positive,A,NULL
1731609762,4db8582b4f6c27e601c1ed826c9ad1e0,PennController,67,0,test_val,NULL,PennController,78,_Header_,End,1731609260296,undefined,833,cuddle,concrete-positive,negative,positive,A,NULL
1731609762,4db8582b4f6c27e601c1ed826c9ad1e0,PennController,67,0,test_val,NULL,Selector,unnamed-Selector,Selection,positive,1731609261648,undefined,833,cuddle,concrete-positive,negative,positive,A,negative;positive
1731609762,4db8582b4f6c27e601c1ed826c9ad1e0,PennController,67,0,test_val,NULL,PennController,78,_Trial_,End,1731609261650,undefined,833,cuddle,concrete-positive,negative,positive,A,NULL
1731609762,4db8582b4f6c27e601c1ed826c9ad1e0,PennController,80,0,test_val,NULL,PennController,91,_Trial_,Start,1731609261651,undefined,995,behold,concrete-positive,negative,positive,A,NULL
1731609762,4db8582b4f6c27e601c1ed826c9ad1e0,PennController,80,0,test_val,NULL,PennController,91,_Header_,Start,1731609261651,undefined,995,behold,concrete-positive,negative,positive,A,NULL
1731609762,4db8582b4f6c27e601c1ed826c9ad1e0,PennController,80,0,test_val,NULL,PennController,91,_Header_,End,1731609261908,undefined,995,behold,concrete-positive,negative,positive,A,NULL
1731609762,4db8582b4f6c27e601c1ed826c9ad1e0,PennController,80,0,test_val,NULL,Selector,unnamed-Selector,Selection,positive,1731609263405,undefined,995,behold,concrete-positive,negative,positive,A,negative;positive
1731609762,4db8582b4f6c27e601c1ed826c9ad1e0,PennController,80,0,test_val,NULL,PennController,91,_Trial_,End,1731609263408,undefined,995,behold,concrete-positive,negative,positive,A,NULL
1731609762,4db8582b4f6c27e601c1ed826c9ad1e0,PennController,78,0,test_val,NULL,PennController,89,_Trial_,Start,1731609263410,undefined,642,rot,concrete-negative,negative,positive,A,NULL
1731609762,4db8582b4f6c27e601c1ed826c9ad1e0,PennController,78,0,test_val,NULL,PennController,89,_Header_,Start,1731609263410,undefined,642,rot,concrete-negative,negative,positive,A,NULL
1731609762,4db8582b4f6c27e601c1ed826c9ad1e0,PennController,78,0,test_val,NULL,PennController,89,_Header_,End,1731609263662,undefined,642,rot,concrete-negative,negative,positive,A,NULL
1731609762,4db8582b4f6c27e601c1ed826c9ad1e0,PennController,78,0,test_val,NULL,Selector,unnamed-Selector,Selection,negative,1731609264812,undefined,642,rot,concrete-negative,negative,positive,A,negative;positive
1731609762,4db8582b4f6c27e601c1ed826c9ad1e0,PennController,78,0,test_val,NULL,PennController,89,_Trial_,End,1731609264815,undefined,642,rot,concrete-negative,negative,positive,A,NULL
1731609762,4db8582b4f6c27e601c1ed826c9ad1e0,PennController,50,0,test_val,NULL,PennController,61,_Trial_,Start,1731609264817,undefined,1006,criticize,abstract-negative,negative,positive,A,NULL
1731609762,4db8582b4f6c27e601c1ed826c9ad1e0,PennController,50,0,test_val,NULL,PennController,61,_Header_,Start,1731609264817,undefined,1006,criticize,abstract-negative,negative,positive,A,NULL
1731609762,4db8582b4f6c27e601c1ed826c9ad1e0,PennController,50,0,test_val,NULL,PennController,61,_Header_,End,1731609265068,undefined,1006,criticize,abstract-negative,negative,positive,A,NULL
1731609762,4db8582b4f6c27e601c1ed826c9ad1e0,PennController,50,0,test_val,NULL,Selector,unnamed-Selector,Selection,negative,1731609266591,undefined,1006,criticize,abstract-negative,negative,positive,A,negative;positive
1731609762,4db8582b4f6c27e601c1ed826c9ad1e0,PennController,50,0,test_val,NULL,PennController,61,_Trial_,End,1731609266593,undefined,1006,criticize,abstract-negative,negative,positive,A,NULL
1731609762,4db8582b4f6c27e601c1ed826c9ad1e0,PennController,76,0,test_val,NULL,PennController,87,_Trial_,Start,1731609266594,undefined,687,worry,abstract-negative,negative,positive,A,NULL
1731609762,4db8582b4f6c27e601c1ed826c9ad1e0,PennController,76,0,test_val,NULL,PennController,87,_Header_,Start,1731609266594,undefined,687,worry,abstract-negative,negative,positive,A,NULL
1731609762,4db8582b4f6c27e601c1ed826c9ad1e0,PennController,76,0,test_val,NULL,PennController,87,_Header_,End,1731609266860,undefined,687,worry,abstract-negative,negative,positive,A,NULL
1731609762,4db8582b4f6c27e601c1ed826c9ad1e0,PennController,76,0,test_val,NULL,Selector,unnamed-Selector,Selection,negative,1731609268063,undefined,687,worry,abstract-negative,negative,positive,A,negative;positive
1731609762,4db8582b4f6c27e601c1ed826c9ad1e0,PennController,76,0,test_val,NULL,PennController,87,_Trial_,End,1731609268065,undefined,687,worry,abstract-negative,negative,positive,A,NULL
1731609762,4db8582b4f6c27e601c1ed826c9ad1e0,PennController,66,0,test_val,NULL,PennController,77,_Trial_,Start,1731609268067,undefined,730,flourish,abstract-positive,negative,positive,A,NULL
1731609762,4db8582b4f6c27e601c1ed826c9ad1e0,PennController,66,0,test_val,NULL,PennController,77,_Header_,Start,1731609268067,undefined,730,flourish,abstract-positive,negative,positive,A,NULL
1731609762,4db8582b4f6c27e601c1ed826c9ad1e0,PennController,66,0,test_val,NULL,PennController,77,_Header_,End,1731609268322,undefined,730,flourish,abstract-positive,negative,positive,A,NULL
1731609762,4db8582b4f6c27e601c1ed826c9ad1e0,PennController,66,0,test_val,NULL,Selector,unnamed-Selector,Selection,positive,1731609269558,undefined,730,flourish,abstract-positive,negative,positive,A,negative;positive
1731609762,4db8582b4f6c27e601c1ed826c9ad1e0,PennController,66,0,test_val,NULL,PennController,77,_Trial_,End,1731609269560,undefined,730,flourish,abstract-positive,negative,positive,A,NULL
1731609762,4db8582b4f6c27e601c1ed826c9ad1e0,PennController,55,0,test_val,NULL,PennController,66,_Trial_,Start,1731609269562,undefined,716,scorn,abstract-negative,negative,positive,A,NULL
1731609762,4db8582b4f6c27e601c1ed826c9ad1e0,PennController,55,0,test_val,NULL,PennController,66,_Header_,Start,1731609269562,undefined,716,scorn,abstract-negative,negative,positive,A,NULL
1731609762,4db8582b4f6c27e601c1ed826c9ad1e0,PennController,55,0,test_val,NULL,PennController,66,_Header_,End,1731609269815,undefined,716,scorn,abstract-negative,negative,positive,A,NULL
1731609762,4db8582b4f6c27e601c1ed826c9ad1e0,PennController,55,0,test_val,NULL,Selector,unnamed-Selector,Selection,negative,1731609271050,undefined,716,scorn,abstract-negative,negative,positive,A,negative;positive
1731609762,4db8582b4f6c27e601c1ed826c9ad1e0,PennController,55,0,test_val,NULL,PennController,66,_Trial_,End,1731609271053,undefined,716,scorn,abstract-negative,negative,positive,A,NULL
1731609762,4db8582b4f6c27e601c1ed826c9ad1e0,PennController,56,0,test_val,NULL,PennController,67,_Trial_,Start,1731609271054,undefined,975,beware,concrete-negative,negative,positive,A,NULL
1731609762,4db8582b4f6c27e601c1ed826c9ad1e0,PennController,56,0,test_val,NULL,PennController,67,_Header_,Start,1731609271054,undefined,975,beware,concrete-negative,negative,positive,A,NULL
1731609762,4db8582b4f6c27e601c1ed826c9ad1e0,PennController,56,0,test_val,NULL,PennController,67,_Header_,End,1731609271316,undefined,975,beware,concrete-negative,negative,positive,A,NULL
1731609762,4db8582b4f6c27e601c1ed826c9ad1e0,PennController,56,0,test_val,NULL,Selector,unnamed-Selector,Selection,negative,1731609272798,undefined,975,beware,concrete-negative,negative,positive,A,negative;positive
1731609762,4db8582b4f6c27e601c1ed826c9ad1e0,PennController,56,0,test_val,NULL,PennController,67,_Trial_,End,1731609272800,undefined,975,beware,concrete-negative,negative,positive,A,NULL
1731609762,4db8582b4f6c27e601c1ed826c9ad1e0,PennController,48,0,test_val,NULL,PennController,59,_Trial_,Start,1731609272801,undefined,1123,running,abstract-positive,negative,positive,A,NULL
1731609762,4db8582b4f6c27e601c1ed826c9ad1e0,PennController,48,0,test_val,NULL,PennController,59,_Header_,Start,1731609272801,undefined,1123,running,abstract-positive,negative,positive,A,NULL
1731609762,4db8582b4f6c27e601c1ed826c9ad1e0,PennController,48,0,test_val,NULL,PennController,59,_Header_,End,1731609273054,undefined,1123,running,abstract-positive,negative,positive,A,NULL
1731609762,4db8582b4f6c27e601c1ed826c9ad1e0,PennController,48,0,test_val,NULL,Selector,unnamed-Selector,Selection,positive,1731609274688,undefined,1123,running,abstract-positive,negative,positive,A,negative;positive
1731609762,4db8582b4f6c27e601c1ed826c9ad1e0,PennController,48,0,test_val,NULL,PennController,59,_Trial_,End,1731609274690,undefined,1123,running,abstract-positive,negative,positive,A,NULL
1731609762,4db8582b4f6c27e601c1ed826c9ad1e0,PennController,68,0,test_val,NULL,PennController,79,_Trial_,Start,1731609274691,undefined,818,doubt,abstract-negative,negative,positive,A,NULL
1731609762,4db8582b4f6c27e601c1ed826c9ad1e0,PennController,68,0,test_val,NULL,PennController,79,_Header_,Start,1731609274691,undefined,818,doubt,abstract-negative,negative,positive,A,NULL
1731609762,4db8582b4f6c27e601c1ed826c9ad1e0,PennController,68,0,test_val,NULL,PennController,79,_Header_,End,1731609274947,undefined,818,doubt,abstract-negative,negative,positive,A,NULL
1731609762,4db8582b4f6c27e601c1ed826c9ad1e0,PennController,68,0,test_val,NULL,Selector,unnamed-Selector,Selection,negative,1731609276268,undefined,818,doubt,abstract-negative,negative,positive,A,negative;positive
1731609762,4db8582b4f6c27e601c1ed826c9ad1e0,PennController,68,0,test_val,NULL,PennController,79,_Trial_,End,1731609276269,undefined,818,doubt,abstract-negative,negative,positive,A,NULL
1731609762,4db8582b4f6c27e601c1ed826c9ad1e0,PennController,82,0,test_val,NULL,PennController,93,_Trial_,Start,1731609276271,undefined,626,stab,concrete-negative,negative,positive,A,NULL
1731609762,4db8582b4f6c27e601c1ed826c9ad1e0,PennController,82,0,test_val,NULL,PennController,93,_Header_,Start,1731609276271,undefined,626,stab,concrete-negative,negative,positive,A,NULL
1731609762,4db8582b4f6c27e601c1ed826c9ad1e0,PennController,82,0,test_val,NULL,PennController,93,_Header_,End,1731609276530,undefined,626,stab,concrete-negative,negative,positive,A,NULL
1731609762,4db8582b4f6c27e601c1ed826c9ad1e0,PennController,82,0,test_val,NULL,Selector,unnamed-Selector,Selection,negative,1731609277660,undefined,626,stab,concrete-negative,negative,positive,A,negative;positive
1731609762,4db8582b4f6c27e601c1ed826c9ad1e0,PennController,82,0,test_val,NULL,PennController,93,_Trial_,End,1731609277662,undefined,626,stab,concrete-negative,negative,positive,A,NULL
1731609762,4db8582b4f6c27e601c1ed826c9ad1e0,PennController,71,0,test_val,NULL,PennController,82,_Trial_,Start,1731609277664,undefined,684,repair,concrete-positive,negative,positive,A,NULL
1731609762,4db8582b4f6c27e601c1ed826c9ad1e0,PennController,71,0,test_val,NULL,PennController,82,_Header_,Start,1731609277664,undefined,684,repair,concrete-positive,negative,positive,A,NULL
1731609762,4db8582b4f6c27e601c1ed826c9ad1e0,PennController,71,0,test_val,NULL,PennController,82,_Header_,End,1731609277914,undefined,684,repair,concrete-positive,negative,positive,A,NULL
1731609762,4db8582b4f6c27e601c1ed826c9ad1e0,PennController,71,0,test_val,NULL,Selector,unnamed-Selector,Selection,positive,1731609279101,undefined,684,repair,concrete-positive,negative,positive,A,negative;positive
1731609762,4db8582b4f6c27e601c1ed826c9ad1e0,PennController,71,0,test_val,NULL,PennController,82,_Trial_,End,1731609279102,undefined,684,repair,concrete-positive,negative,positive,A,NULL
1731609762,4db8582b4f6c27e601c1ed826c9ad1e0,PennController,82,0,test_val,NULL,PennController,93,_Trial_,Start,1731609279104,undefined,610,stab,concrete-negative,negative,positive,A,NULL
1731609762,4db8582b4f6c27e601c1ed826c9ad1e0,PennController,82,0,test_val,NULL,PennController,93,_Header_,Start,1731609279104,undefined,610,stab,concrete-negative,negative,positive,A,NULL
1731609762,4db8582b4f6c27e601c1ed826c9ad1e0,PennController,82,0,test_val,NULL,PennController,93,_Header_,End,1731609279358,undefined,610,stab,concrete-negative,negative,positive,A,NULL
1731609762,4db8582b4f6c27e601c1ed826c9ad1e0,PennController,82,0,test_val,NULL,Selector,unnamed-Selector,Selection,negative,1731609280470,undefined,610,stab,concrete-negative,negative,positive,A,negative;positive
1731609762,4db8582b4f6c27e601c1ed826c9ad1e0,PennController,82,0,test_val,NULL,PennController,93,_Trial_,End,1731609280471,undefined,610,stab,concrete-negative,negative,positive,A,NULL
1731609762,4db8582b4f6c27e601c1ed826c9ad1e0,PennController,53,0,test_val,NULL,PennController,64,_Trial_,Start,1731609280474,undefined,1211,impose,concrete-negative,negative,positive,A,NULL
1731609762,4db8582b4f6c27e601c1ed826c9ad1e0,PennController,53,0,test_val,NULL,PennController,64,_Header_,Start,1731609280474,undefined,1211,impose,concrete-negative,negative,positive,A,NULL
1731609762,4db8582b4f6c27e601c1ed826c9ad1e0,PennController,53,0,test_val,NULL,PennController,64,_Header_,End,1731609280727,undefined,1211,impose,concrete-negative,negative,positive,A,NULL
1731609762,4db8582b4f6c27e601c1ed826c9ad1e0,PennController,53,0,test_val,NULL,Selector,unnamed-Selector,Selection,negative,1731609282451,undefined,1211,impose,concrete-negative,negative,positive,A,negative;positive
1731609762,4db8582b4f6c27e601c1ed826c9ad1e0,PennController,53,0,test_val,NULL,PennController,64,_Trial_,End,1731609282452,undefined,1211,impose,concrete-negative,negative,positive,A,NULL
1731609762,4db8582b4f6c27e601c1ed826c9ad1e0,PennController,65,0,test_val,NULL,PennController,76,_Trial_,Start,1731609282453,undefined,775,admire,abstract-positive,negative,positive,A,NULL
1731609762,4db8582b4f6c27e601c1ed826c9ad1e0,PennController,65,0,test_val,NULL,PennController,76,_Header_,Start,1731609282453,undefined,775,admire,abstract-positive,negative,positive,A,NULL
1731609762,4db8582b4f6c27e601c1ed826c9ad1e0,PennController,65,0,test_val,NULL,PennController,76,_Header_,End,1731609282709,undefined,775,admire,abstract-positive,negative,positive,A,NULL
1731609762,4db8582b4f6c27e601c1ed826c9ad1e0,PennController,65,0,test_val,NULL,Selector,unnamed-Selector,Selection,positive,1731609283996,undefined,775,admire,abstract-positive,negative,positive,A,negative;positive
1731609762,4db8582b4f6c27e601c1ed826c9ad1e0,PennController,65,0,test_val,NULL,PennController,76,_Trial_,End,1731609283999,undefined,775,admire,abstract-positive,negative,positive,A,NULL
1731609762,4db8582b4f6c27e601c1ed826c9ad1e0,PennController,72,0,test_val,NULL,PennController,83,_Trial_,Start,1731609284000,undefined,1060,sail,abstract-positive,negative,positive,A,NULL
1731609762,4db8582b4f6c27e601c1ed826c9ad1e0,PennController,72,0,test_val,NULL,PennController,83,_Header_,Start,1731609284000,undefined,1060,sail,abstract-positive,negative,positive,A,NULL
1731609762,4db8582b4f6c27e601c1ed826c9ad1e0,PennController,72,0,test_val,NULL,PennController,83,_Header_,End,1731609284252,undefined,1060,sail,abstract-positive,negative,positive,A,NULL
1731609762,4db8582b4f6c27e601c1ed826c9ad1e0,PennController,72,0,test_val,NULL,Selector,unnamed-Selector,Selection,positive,1731609285815,undefined,1060,sail,abstract-positive,negative,positive,A,negative;positive
1731609762,4db8582b4f6c27e601c1ed826c9ad1e0,PennController,72,0,test_val,NULL,PennController,83,_Trial_,End,1731609285817,undefined,1060,sail,abstract-positive,negative,positive,A,NULL
1731609762,4db8582b4f6c27e601c1ed826c9ad1e0,PennController,83,0,test_val,NULL,PennController,94,_Trial_,Start,1731609285819,undefined,1554,justify,concrete-positive,negative,positive,A,NULL
1731609762,4db8582b4f6c27e601c1ed826c9ad1e0,PennController,83,0,test_val,NULL,PennController,94,_Header_,Start,1731609285819,undefined,1554,justify,concrete-positive,negative,positive,A,NULL
1731609762,4db8582b4f6c27e601c1ed826c9ad1e0,PennController,83,0,test_val,NULL,PennController,94,_Header_,End,1731609286075,undefined,1554,justify,concrete-positive,negative,positive,A,NULL
1731609762,4db8582b4f6c27e601c1ed826c9ad1e0,PennController,83,0,test_val,NULL,Selector,unnamed-Selector,Selection,positive,1731609288149,undefined,1554,justify,concrete-positive,negative,positive,A,negative;positive
1731609762,4db8582b4f6c27e601c1ed826c9ad1e0,PennController,83,0,test_val,NULL,PennController,94,_Trial_,End,1731609288151,undefined,1554,justify,concrete-positive,negative,positive,A,NULL
1731609762,4db8582b4f6c27e601c1ed826c9ad1e0,PennController,52,0,test_val,NULL,PennController,63,_Trial_,Start,1731609288153,undefined,693,build,concrete-positive,negative,positive,A,NULL
1731609762,4db8582b4f6c27e601c1ed826c9ad1e0,PennController,52,0,test_val,NULL,PennController,63,_Header_,Start,1731609288153,undefined,693,build,concrete-positive,negative,positive,A,NULL
1731609762,4db8582b4f6c27e601c1ed826c9ad1e0,PennController,52,0,test_val,NULL,PennController,63,_Header_,End,1731609288407,undefined,693,build,concrete-positive,negative,positive,A,NULL
1731609762,4db8582b4f6c27e601c1ed826c9ad1e0,PennController,52,0,test_val,NULL,Selector,unnamed-Selector,Selection,positive,1731609289610,undefined,693,build,concrete-positive,negative,positive,A,negative;positive
1731609762,4db8582b4f6c27e601c1ed826c9ad1e0,PennController,52,0,test_val,NULL,PennController,63,_Trial_,End,1731609289612,undefined,693,build,concrete-positive,negative,positive,A,NULL
1731609762,4db8582b4f6c27e601c1ed826c9ad1e0,PennController,49,0,test_val,NULL,PennController,60,_Trial_,Start,1731609289614,undefined,730,break,concrete-negative,negative,positive,A,NULL
1731609762,4db8582b4f6c27e601c1ed826c9ad1e0,PennController,49,0,test_val,NULL,PennController,60,_Header_,Start,1731609289614,undefined,730,break,concrete-negative,negative,positive,A,NULL
1731609762,4db8582b4f6c27e601c1ed826c9ad1e0,PennController,49,0,test_val,NULL,PennController,60,_Header_,End,1731609289864,undefined,730,break,concrete-negative,negative,positive,A,NULL
1731609762,4db8582b4f6c27e601c1ed826c9ad1e0,PennController,49,0,test_val,NULL,Selector,unnamed-Selector,Selection,negative,1731609291107,undefined,730,break,concrete-negative,negative,positive,A,negative;positive
1731609762,4db8582b4f6c27e601c1ed826c9ad1e0,PennController,49,0,test_val,NULL,PennController,60,_Trial_,End,1731609291108,undefined,730,break,concrete-negative,negative,positive,A,NULL
1731609762,4db8582b4f6c27e601c1ed826c9ad1e0,PennController,45,0,test_val,NULL,PennController,56,_Trial_,Start,1731609291110,undefined,932,consider,concrete-positive,negative,positive,A,NULL
1731609762,4db8582b4f6c27e601c1ed826c9ad1e0,PennController,45,0,test_val,NULL,PennController,56,_Header_,Start,1731609291110,undefined,932,consider,concrete-positive,negative,positive,A,NULL
1731609762,4db8582b4f6c27e601c1ed826c9ad1e0,PennController,45,0,test_val,NULL,PennController,56,_Header_,End,1731609291366,undefined,932,consider,concrete-positive,negative,positive,A,NULL
1731609762,4db8582b4f6c27e601c1ed826c9ad1e0,PennController,45,0,test_val,NULL,Selector,unnamed-Selector,Selection,positive,1731609292810,undefined,932,consider,concrete-positive,negative,positive,A,negative;positive
1731609762,4db8582b4f6c27e601c1ed826c9ad1e0,PennController,45,0,test_val,NULL,PennController,56,_Trial_,End,1731609292812,undefined,932,consider,concrete-positive,negative,positive,A,NULL
1731609762,4db8582b4f6c27e601c1ed826c9ad1e0,PennController,46,0,test_val,NULL,PennController,57,_Trial_,Start,1731609292813,undefined,643,esteem,abstract-positive,negative,positive,A,NULL
1731609762,4db8582b4f6c27e601c1ed826c9ad1e0,PennController,46,0,test_val,NULL,PennController,57,_Header_,Start,1731609292813,undefined,643,esteem,abstract-positive,negative,positive,A,NULL
1731609762,4db8582b4f6c27e601c1ed826c9ad1e0,PennController,46,0,test_val,NULL,PennController,57,_Header_,End,1731609293075,undefined,643,esteem,abstract-positive,negative,positive,A,NULL
1731609762,4db8582b4f6c27e601c1ed826c9ad1e0,PennController,46,0,test_val,NULL,Selector,unnamed-Selector,Selection,positive,1731609294223,undefined,643,esteem,abstract-positive,negative,positive,A,negative;positive
1731609762,4db8582b4f6c27e601c1ed826c9ad1e0,PennController,46,0,test_val,NULL,PennController,57,_Trial_,End,1731609294225,undefined,643,esteem,abstract-positive,negative,positive,A,NULL
1731609762,4db8582b4f6c27e601c1ed826c9ad1e0,PennController,59,0,test_val,NULL,PennController,70,_Trial_,Start,1731609294226,undefined,547,cherish,abstract-positive,negative,positive,A,NULL
1731609762,4db8582b4f6c27e601c1ed826c9ad1e0,PennController,59,0,test_val,NULL,PennController,70,_Header_,Start,1731609294226,undefined,547,cherish,abstract-positive,negative,positive,A,NULL
1731609762,4db8582b4f6c27e601c1ed826c9ad1e0,PennController,59,0,test_val,NULL,PennController,70,_Header_,End,1731609294489,undefined,547,cherish,abstract-positive,negative,positive,A,NULL
1731609762,4db8582b4f6c27e601c1ed826c9ad1e0,PennController,59,0,test_val,NULL,Selector,unnamed-Selector,Selection,positive,1731609295550,undefined,547,cherish,abstract-positive,negative,positive,A,negative;positive
1731609762,4db8582b4f6c27e601c1ed826c9ad1e0,PennController,59,0,test_val,NULL,PennController,70,_Trial_,End,1731609295551,undefined,547,cherish,abstract-positive,negative,positive,A,NULL
1731609762,4db8582b4f6c27e601c1ed826c9ad1e0,PennController,55,0,test_val,NULL,PennController,66,_Trial_,Start,1731609295553,undefined,550,scorn,abstract-negative,negative,positive,A,NULL
1731609762,4db8582b4f6c27e601c1ed826c9ad1e0,PennController,55,0,test_val,NULL,PennController,66,_Header_,Start,1731609295553,undefined,550,scorn,abstract-negative,negative,positive,A,NULL
1731609762,4db8582b4f6c27e601c1ed826c9ad1e0,PennController,55,0,test_val,NULL,PennController,66,_Header_,End,1731609295821,undefined,550,scorn,abstract-negative,negative,positive,A,NULL
1731609762,4db8582b4f6c27e601c1ed826c9ad1e0,PennController,55,0,test_val,NULL,Selector,unnamed-Selector,Selection,negative,1731609296884,undefined,550,scorn,abstract-negative,negative,positive,A,negative;positive
1731609762,4db8582b4f6c27e601c1ed826c9ad1e0,PennController,55,0,test_val,NULL,PennController,66,_Trial_,End,1731609296885,undefined,550,scorn,abstract-negative,negative,positive,A,NULL
1731609762,4db8582b4f6c27e601c1ed826c9ad1e0,PennController,73,0,test_val,NULL,PennController,84,_Trial_,Start,1731609296886,undefined,758,smack,abstract-negative,negative,positive,A,NULL
1731609762,4db8582b4f6c27e601c1ed826c9ad1e0,PennController,73,0,test_val,NULL,PennController,84,_Header_,Start,1731609296886,undefined,758,smack,abstract-negative,negative,positive,A,NULL
1731609762,4db8582b4f6c27e601c1ed826c9ad1e0,PennController,73,0,test_val,NULL,PennController,84,_Header_,End,1731609297144,undefined,758,smack,abstract-negative,negative,positive,A,NULL
1731609762,4db8582b4f6c27e601c1ed826c9ad1e0,PennController,73,0,test_val,NULL,Selector,unnamed-Selector,Selection,negative,1731609298409,undefined,758,smack,abstract-negative,negative,positive,A,negative;positive
1731609762,4db8582b4f6c27e601c1ed826c9ad1e0,PennController,73,0,test_val,NULL,PennController,84,_Trial_,End,1731609298411,undefined,758,smack,abstract-negative,negative,positive,A,NULL
1731609762,4db8582b4f6c27e601c1ed826c9ad1e0,PennController,57,0,test_val,NULL,PennController,68,_Trial_,Start,1731609298412,undefined,1000,obsess,abstract-negative,negative,positive,A,NULL
1731609762,4db8582b4f6c27e601c1ed826c9ad1e0,PennController,57,0,test_val,NULL,PennController,68,_Header_,Start,1731609298412,undefined,1000,obsess,abstract-negative,negative,positive,A,NULL
1731609762,4db8582b4f6c27e601c1ed826c9ad1e0,PennController,57,0,test_val,NULL,PennController,68,_Header_,End,1731609298679,undefined,1000,obsess,abstract-negative,negative,positive,A,NULL
1731609762,4db8582b4f6c27e601c1ed826c9ad1e0,PennController,57,0,test_val,NULL,Selector,unnamed-Selector,Selection,negative,1731609300193,undefined,1000,obsess,abstract-negative,negative,positive,A,negative;positive
1731609762,4db8582b4f6c27e601c1ed826c9ad1e0,PennController,57,0,test_val,NULL,PennController,68,_Trial_,End,1731609300196,undefined,1000,obsess,abstract-negative,negative,positive,A,NULL
1731609762,4db8582b4f6c27e601c1ed826c9ad1e0,PennController,80,0,test_val,NULL,PennController,91,_Trial_,Start,1731609300197,undefined,576,behold,concrete-positive,negative,positive,A,NULL
1731609762,4db8582b4f6c27e601c1ed826c9ad1e0,PennController,80,0,test_val,NULL,PennController,91,_Header_,Start,1731609300197,undefined,576,behold,concrete-positive,negative,positive,A,NULL
1731609762,4db8582b4f6c27e601c1ed826c9ad1e0,PennController,80,0,test_val,NULL,PennController,91,_Header_,End,1731609300452,undefined,576,behold,concrete-positive,negative,positive,A,NULL
1731609762,4db8582b4f6c27e601c1ed826c9ad1e0,PennController,80,0,test_val,NULL,Selector,unnamed-Selector,Selection,positive,1731609301534,undefined,576,behold,concrete-positive,negative,positive,A,negative;positive
1731609762,4db8582b4f6c27e601c1ed826c9ad1e0,PennController,80,0,test_val,NULL,PennController,91,_Trial_,End,1731609301536,undefined,576,behold,concrete-positive,negative,positive,A,NULL
1731609762,4db8582b4f6c27e601c1ed826c9ad1e0,PennController,50,0,test_val,NULL,PennController,61,_Trial_,Start,1731609301538,undefined,604,criticize,abstract-negative,negative,positive,A,NULL
1731609762,4db8582b4f6c27e601c1ed826c9ad1e0,PennController,50,0,test_val,NULL,PennController,61,_Header_,Start,1731609301538,undefined,604,criticize,abstract-negative,negative,positive,A,NULL
1731609762,4db8582b4f6c27e601c1ed826c9ad1e0,PennController,50,0,test_val,NULL,PennController,61,_Header_,End,1731609301796,undefined,604,criticize,abstract-negative,negative,positive,A,NULL
1731609762,4db8582b4f6c27e601c1ed826c9ad1e0,PennController,50,0,test_val,NULL,Selector,unnamed-Selector,Selection,negative,1731609302909,undefined,604,criticize,abstract-negative,negative,positive,A,negative;positive
1731609762,4db8582b4f6c27e601c1ed826c9ad1e0,PennController,50,0,test_val,NULL,PennController,61,_Trial_,End,1731609302911,undefined,604,criticize,abstract-negative,negative,positive,A,NULL
1731609762,4db8582b4f6c27e601c1ed826c9ad1e0,PennController,56,0,test_val,NULL,PennController,67,_Trial_,Start,1731609302912,undefined,679,beware,concrete-negative,negative,positive,A,NULL
1731609762,4db8582b4f6c27e601c1ed826c9ad1e0,PennController,56,0,test_val,NULL,PennController,67,_Header_,Start,1731609302912,undefined,679,beware,concrete-negative,negative,positive,A,NULL
1731609762,4db8582b4f6c27e601c1ed826c9ad1e0,PennController,56,0,test_val,NULL,PennController,67,_Header_,End,1731609303172,undefined,679,beware,concrete-negative,negative,positive,A,NULL
1731609762,4db8582b4f6c27e601c1ed826c9ad1e0,PennController,56,0,test_val,NULL,Selector,unnamed-Selector,Selection,negative,1731609304371,undefined,679,beware,concrete-negative,negative,positive,A,negative;positive
1731609762,4db8582b4f6c27e601c1ed826c9ad1e0,PennController,56,0,test_val,NULL,PennController,67,_Trial_,End,1731609304373,undefined,679,beware,concrete-negative,negative,positive,A,NULL
1731609762,4db8582b4f6c27e601c1ed826c9ad1e0,PennController,61,0,test_val,NULL,PennController,72,_Trial_,Start,1731609304374,undefined,679,excell,abstract-positive,negative,positive,A,NULL
1731609762,4db8582b4f6c27e601c1ed826c9ad1e0,PennController,61,0,test_val,NULL,PennController,72,_Header_,Start,1731609304374,undefined,679,excell,abstract-positive,negative,positive,A,NULL
1731609762,4db8582b4f6c27e601c1ed826c9ad1e0,PennController,61,0,test_val,NULL,PennController,72,_Header_,End,1731609304633,undefined,679,excell,abstract-positive,negative,positive,A,NULL
1731609762,4db8582b4f6c27e601c1ed826c9ad1e0,PennController,61,0,test_val,NULL,Selector,unnamed-Selector,Selection,positive,1731609305814,undefined,679,excell,abstract-positive,negative,positive,A,negative;positive
1731609762,4db8582b4f6c27e601c1ed826c9ad1e0,PennController,61,0,test_val,NULL,PennController,72,_Trial_,End,1731609305816,undefined,679,excell,abstract-positive,negative,positive,A,NULL
1731609762,4db8582b4f6c27e601c1ed826c9ad1e0,PennController,75,0,test_val,NULL,PennController,86,_Trial_,Start,1731609305818,undefined,614,adore,abstract-positive,negative,positive,A,NULL
1731609762,4db8582b4f6c27e601c1ed826c9ad1e0,PennController,75,0,test_val,NULL,PennController,86,_Header_,Start,1731609305818,undefined,614,adore,abstract-positive,negative,positive,A,NULL
1731609762,4db8582b4f6c27e601c1ed826c9ad1e0,PennController,75,0,test_val,NULL,PennController,86,_Header_,End,1731609306081,undefined,614,adore,abstract-positive,negative,positive,A,NULL
1731609762,4db8582b4f6c27e601c1ed826c9ad1e0,PennController,75,0,test_val,NULL,Selector,unnamed-Selector,Selection,positive,1731609307196,undefined,614,adore,abstract-positive,negative,positive,A,negative;positive
1731609762,4db8582b4f6c27e601c1ed826c9ad1e0,PennController,75,0,test_val,NULL,PennController,86,_Trial_,End,1731609307198,undefined,614,adore,abstract-positive,negative,positive,A,NULL
1731609762,4db8582b4f6c27e601c1ed826c9ad1e0,PennController,67,0,test_val,NULL,PennController,78,_Trial_,Start,1731609307199,undefined,558,cuddle,concrete-positive,negative,positive,A,NULL
1731609762,4db8582b4f6c27e601c1ed826c9ad1e0,PennController,67,0,test_val,NULL,PennController,78,_Header_,Start,1731609307199,undefined,558,cuddle,concrete-positive,negative,positive,A,NULL
1731609762,4db8582b4f6c27e601c1ed826c9ad1e0,PennController,67,0,test_val,NULL,PennController,78,_Header_,End,1731609307466,undefined,558,cuddle,concrete-positive,negative,positive,A,NULL
1731609762,4db8582b4f6c27e601c1ed826c9ad1e0,PennController,67,0,test_val,NULL,Selector,unnamed-Selector,Selection,positive,1731609308536,undefined,558,cuddle,concrete-positive,negative,positive,A,negative;positive
1731609762,4db8582b4f6c27e601c1ed826c9ad1e0,PennController,67,0,test_val,NULL,PennController,78,_Trial_,End,1731609308538,undefined,558,cuddle,concrete-positive,negative,positive,A,NULL
1731609762,4db8582b4f6c27e601c1ed826c9ad1e0,PennController,79,0,test_val,NULL,PennController,90,_Trial_,Start,1731609308540,undefined,605,smile,concrete-positive,negative,positive,A,NULL
1731609762,4db8582b4f6c27e601c1ed826c9ad1e0,PennController,79,0,test_val,NULL,PennController,90,_Header_,Start,1731609308540,undefined,605,smile,concrete-positive,negative,positive,A,NULL
1731609762,4db8582b4f6c27e601c1ed826c9ad1e0,PennController,79,0,test_val,NULL,PennController,90,_Header_,End,1731609308799,undefined,605,smile,concrete-positive,negative,positive,A,NULL
1731609762,4db8582b4f6c27e601c1ed826c9ad1e0,PennController,79,0,test_val,NULL,Selector,unnamed-Selector,Selection,positive,1731609309919,undefined,605,smile,concrete-positive,negative,positive,A,negative;positive
1731609762,4db8582b4f6c27e601c1ed826c9ad1e0,PennController,79,0,test_val,NULL,PennController,90,_Trial_,End,1731609309921,undefined,605,smile,concrete-positive,negative,positive,A,NULL
1731609762,4db8582b4f6c27e601c1ed826c9ad1e0,PennController,44,0,test_val,NULL,PennController,55,_Trial_,Start,1731609309922,undefined,955,befall,concrete-negative,negative,positive,A,NULL
1731609762,4db8582b4f6c27e601c1ed826c9ad1e0,PennController,44,0,test_val,NULL,PennController,55,_Header_,Start,1731609309922,undefined,955,befall,concrete-negative,negative,positive,A,NULL
1731609762,4db8582b4f6c27e601c1ed826c9ad1e0,PennController,44,0,test_val,NULL,PennController,55,_Header_,End,1731609310179,undefined,955,befall,concrete-negative,negative,positive,A,NULL
1731609762,4db8582b4f6c27e601c1ed826c9ad1e0,PennController,44,0,test_val,NULL,Selector,unnamed-Selector,Selection,negative,1731609311637,undefined,955,befall,concrete-negative,negative,positive,A,negative;positive
1731609762,4db8582b4f6c27e601c1ed826c9ad1e0,PennController,44,0,test_val,NULL,PennController,55,_Trial_,End,1731609311638,undefined,955,befall,concrete-negative,negative,positive,A,NULL
1731609762,4db8582b4f6c27e601c1ed826c9ad1e0,PennController,62,0,test_val,NULL,PennController,73,_Trial_,Start,1731609311640,undefined,758,resent,abstract-negative,negative,positive,A,NULL
1731609762,4db8582b4f6c27e601c1ed826c9ad1e0,PennController,62,0,test_val,NULL,PennController,73,_Header_,Start,1731609311640,undefined,758,resent,abstract-negative,negative,positive,A,NULL
1731609762,4db8582b4f6c27e601c1ed826c9ad1e0,PennController,62,0,test_val,NULL,PennController,73,_Header_,End,1731609311894,undefined,758,resent,abstract-negative,negative,positive,A,NULL
1731609762,4db8582b4f6c27e601c1ed826c9ad1e0,PennController,62,0,test_val,NULL,Selector,unnamed-Selector,Selection,negative,1731609313161,undefined,758,resent,abstract-negative,negative,positive,A,negative;positive
1731609762,4db8582b4f6c27e601c1ed826c9ad1e0,PennController,62,0,test_val,NULL,PennController,73,_Trial_,End,1731609313163,undefined,758,resent,abstract-negative,negative,positive,A,NULL
1731609762,4db8582b4f6c27e601c1ed826c9ad1e0,PennController,81,0,test_val,NULL,PennController,92,_Trial_,Start,1731609313164,undefined,758,feeling,concrete-positive,negative,positive,A,NULL
1731609762,4db8582b4f6c27e601c1ed826c9ad1e0,PennController,81,0,test_val,NULL,PennController,92,_Header_,Start,1731609313164,undefined,758,feeling,concrete-positive,negative,positive,A,NULL
1731609762,4db8582b4f6c27e601c1ed826c9ad1e0,PennController,81,0,test_val,NULL,PennController,92,_Header_,End,1731609313423,undefined,758,feeling,concrete-positive,negative,positive,A,NULL
1731609762,4db8582b4f6c27e601c1ed826c9ad1e0,PennController,81,0,test_val,NULL,Selector,unnamed-Selector,Selection,positive,1731609314684,undefined,758,feeling,concrete-positive,negative,positive,A,negative;positive
1731609762,4db8582b4f6c27e601c1ed826c9ad1e0,PennController,81,0,test_val,NULL,PennController,92,_Trial_,End,1731609314686,undefined,758,feeling,concrete-positive,negative,positive,A,NULL
1731609762,4db8582b4f6c27e601c1ed826c9ad1e0,PennController,69,0,test_val,NULL,PennController,80,_Trial_,Start,1731609314687,undefined,766,exploit,concrete-negative,negative,positive,A,NULL
1731609762,4db8582b4f6c27e601c1ed826c9ad1e0,PennController,69,0,test_val,NULL,PennController,80,_Header_,Start,1731609314687,undefined,766,exploit,concrete-negative,negative,positive,A,NULL
1731609762,4db8582b4f6c27e601c1ed826c9ad1e0,PennController,69,0,test_val,NULL,PennController,80,_Header_,End,1731609314945,undefined,766,exploit,concrete-negative,negative,positive,A,NULL
1731609762,4db8582b4f6c27e601c1ed826c9ad1e0,PennController,69,0,test_val,NULL,Selector,unnamed-Selector,Selection,negative,1731609316214,undefined,766,exploit,concrete-negative,negative,positive,A,negative;positive
1731609762,4db8582b4f6c27e601c1ed826c9ad1e0,PennController,69,0,test_val,NULL,PennController,80,_Trial_,End,1731609316216,undefined,766,exploit,concrete-negative,negative,positive,A,NULL
1731609762,4db8582b4f6c27e601c1ed826c9ad1e0,PennController,68,0,test_val,NULL,PennController,79,_Trial_,Start,1731609316219,undefined,759,doubt,abstract-negative,negative,positive,A,NULL
1731609762,4db8582b4f6c27e601c1ed826c9ad1e0,PennController,68,0,test_val,NULL,PennController,79,_Header_,Start,1731609316219,undefined,759,doubt,abstract-negative,negative,positive,A,NULL
1731609762,4db8582b4f6c27e601c1ed826c9ad1e0,PennController,68,0,test_val,NULL,PennController,79,_Header_,End,1731609316478,undefined,759,doubt,abstract-negative,negative,positive,A,NULL
1731609762,4db8582b4f6c27e601c1ed826c9ad1e0,PennController,68,0,test_val,NULL,Selector,unnamed-Selector,Selection,negative,1731609317740,undefined,759,doubt,abstract-negative,negative,positive,A,negative;positive
1731609762,4db8582b4f6c27e601c1ed826c9ad1e0,PennController,68,0,test_val,NULL,PennController,79,_Trial_,End,1731609317741,undefined,759,doubt,abstract-negative,negative,positive,A,NULL
1731609762,4db8582b4f6c27e601c1ed826c9ad1e0,PennController,60,0,test_val,NULL,PennController,71,_Trial_,Start,1731609317742,undefined,756,hug,concrete-positive,negative,positive,A,NULL
1731609762,4db8582b4f6c27e601c1ed826c9ad1e0,PennController,60,0,test_val,NULL,PennController,71,_Header_,Start,1731609317742,undefined,756,hug,concrete-positive,negative,positive,A,NULL
1731609762,4db8582b4f6c27e601c1ed826c9ad1e0,PennController,60,0,test_val,NULL,PennController,71,_Header_,End,1731609317993,undefined,756,hug,concrete-positive,negative,positive,A,NULL
1731609762,4db8582b4f6c27e601c1ed826c9ad1e0,PennController,60,0,test_val,NULL,Selector,unnamed-Selector,Selection,positive,1731609319251,undefined,756,hug,concrete-positive,negative,positive,A,negative;positive
1731609762,4db8582b4f6c27e601c1ed826c9ad1e0,PennController,60,0,test_val,NULL,PennController,71,_Trial_,End,1731609319254,undefined,756,hug,concrete-positive,negative,positive,A,NULL
1731609762,4db8582b4f6c27e601c1ed826c9ad1e0,PennController,78,0,test_val,NULL,PennController,89,_Trial_,Start,1731609319255,undefined,560,rot,concrete-negative,negative,positive,A,NULL
1731609762,4db8582b4f6c27e601c1ed826c9ad1e0,PennController,78,0,test_val,NULL,PennController,89,_Header_,Start,1731609319255,undefined,560,rot,concrete-negative,negative,positive,A,NULL
1731609762,4db8582b4f6c27e601c1ed826c9ad1e0,PennController,78,0,test_val,NULL,PennController,89,_Header_,End,1731609319509,undefined,560,rot,concrete-negative,negative,positive,A,NULL
1731609762,4db8582b4f6c27e601c1ed826c9ad1e0,PennController,78,0,test_val,NULL,Selector,unnamed-Selector,Selection,negative,1731609320583,undefined,560,rot,concrete-negative,negative,positive,A,negative;positive
1731609762,4db8582b4f6c27e601c1ed826c9ad1e0,PennController,78,0,test_val,NULL,PennController,89,_Trial_,End,1731609320585,undefined,560,rot,concrete-negative,negative,positive,A,NULL
1731609762,4db8582b4f6c27e601c1ed826c9ad1e0,PennController,77,0,test_val,NULL,PennController,88,_Trial_,Start,1731609320586,undefined,636,kill,concrete-negative,negative,positive,A,NULL
1731609762,4db8582b4f6c27e601c1ed826c9ad1e0,PennController,77,0,test_val,NULL,PennController,88,_Header_,Start,1731609320586,undefined,636,kill,concrete-negative,negative,positive,A,NULL
1731609762,4db8582b4f6c27e601c1ed826c9ad1e0,PennController,77,0,test_val,NULL,PennController,88,_Header_,End,1731609320842,undefined,636,kill,concrete-negative,negative,positive,A,NULL
1731609762,4db8582b4f6c27e601c1ed826c9ad1e0,PennController,77,0,test_val,NULL,Selector,unnamed-Selector,Selection,negative,1731609321982,undefined,636,kill,concrete-negative,negative,positive,A,negative;positive
1731609762,4db8582b4f6c27e601c1ed826c9ad1e0,PennController,77,0,test_val,NULL,PennController,88,_Trial_,End,1731609321983,undefined,636,kill,concrete-negative,negative,positive,A,NULL
1731609762,4db8582b4f6c27e601c1ed826c9ad1e0,PennController,74,0,test_val,NULL,PennController,85,_Trial_,Start,1731609321984,undefined,593,murder,concrete-negative,negative,positive,A,NULL
1731609762,4db8582b4f6c27e601c1ed826c9ad1e0,PennController,74,0,test_val,NULL,PennController,85,_Header_,Start,1731609321984,undefined,593,murder,concrete-negative,negative,positive,A,NULL
1731609762,4db8582b4f6c27e601c1ed826c9ad1e0,PennController,74,0,test_val,NULL,PennController,85,_Header_,End,1731609322237,undefined,593,murder,concrete-negative,negative,positive,A,NULL
1731609762,4db8582b4f6c27e601c1ed826c9ad1e0,PennController,74,0,test_val,NULL,Selector,unnamed-Selector,Selection,negative,1731609323335,undefined,593,murder,concrete-negative,negative,positive,A,negative;positive
1731609762,4db8582b4f6c27e601c1ed826c9ad1e0,PennController,74,0,test_val,NULL,PennController,85,_Trial_,End,1731609323336,undefined,593,murder,concrete-negative,negative,positive,A,NULL
1731609762,4db8582b4f6c27e601c1ed826c9ad1e0,PennController,58,0,test_val,NULL,PennController,69,_Trial_,Start,1731609323339,undefined,646,loathe,abstract-negative,negative,positive,A,NULL
1731609762,4db8582b4f6c27e601c1ed826c9ad1e0,PennController,58,0,test_val,NULL,PennController,69,_Header_,Start,1731609323339,undefined,646,loathe,abstract-negative,negative,positive,A,NULL
1731609762,4db8582b4f6c27e601c1ed826c9ad1e0,PennController,58,0,test_val,NULL,PennController,69,_Header_,End,1731609323590,undefined,646,loathe,abstract-negative,negative,positive,A,NULL
1731609762,4db8582b4f6c27e601c1ed826c9ad1e0,PennController,58,0,test_val,NULL,Selector,unnamed-Selector,Selection,negative,1731609324746,undefined,646,loathe,abstract-negative,negative,positive,A,negative;positive
1731609762,4db8582b4f6c27e601c1ed826c9ad1e0,PennController,58,0,test_val,NULL,PennController,69,_Trial_,End,1731609324747,undefined,646,loathe,abstract-negative,negative,positive,A,NULL
1731609762,4db8582b4f6c27e601c1ed826c9ad1e0,PennController,66,0,test_val,NULL,PennController,77,_Trial_,Start,1731609324749,undefined,515,flourish,abstract-positive,negative,positive,A,NULL
1731609762,4db8582b4f6c27e601c1ed826c9ad1e0,PennController,66,0,test_val,NULL,PennController,77,_Header_,Start,1731609324749,undefined,515,flourish,abstract-positive,negative,positive,A,NULL
1731609762,4db8582b4f6c27e601c1ed826c9ad1e0,PennController,66,0,test_val,NULL,PennController,77,_Header_,End,1731609325008,undefined,515,flourish,abstract-positive,negative,positive,A,NULL
1731609762,4db8582b4f6c27e601c1ed826c9ad1e0,PennController,66,0,test_val,NULL,Selector,unnamed-Selector,Selection,positive,1731609326028,undefined,515,flourish,abstract-positive,negative,positive,A,negative;positive
1731609762,4db8582b4f6c27e601c1ed826c9ad1e0,PennController,66,0,test_val,NULL,PennController,77,_Trial_,End,1731609326030,undefined,515,flourish,abstract-positive,negative,positive,A,NULL
1731609762,4db8582b4f6c27e601c1ed826c9ad1e0,PennController,48,0,test_val,NULL,PennController,59,_Trial_,Start,1731609326032,undefined,572,running,abstract-positive,negative,positive,A,NULL
1731609762,4db8582b4f6c27e601c1ed826c9ad1e0,PennController,48,0,test_val,NULL,PennController,59,_Header_,Start,1731609326032,undefined,572,running,abstract-positive,negative,positive,A,NULL
1731609762,4db8582b4f6c27e601c1ed826c9ad1e0,PennController,48,0,test_val,NULL,PennController,59,_Header_,End,1731609326283,undefined,572,running,abstract-positive,negative,positive,A,NULL
1731609762,4db8582b4f6c27e601c1ed826c9ad1e0,PennController,48,0,test_val,NULL,Selector,unnamed-Selector,Selection,positive,1731609327367,undefined,572,running,abstract-positive,negative,positive,A,negative;positive
1731609762,4db8582b4f6c27e601c1ed826c9ad1e0,PennController,48,0,test_val,NULL,PennController,59,_Trial_,End,1731609327370,undefined,572,running,abstract-positive,negative,positive,A,NULL
1731609762,4db8582b4f6c27e601c1ed826c9ad1e0,PennController,54,0,test_val,NULL,PennController,65,_Trial_,Start,1731609327372,undefined,655,qualify,concrete-positive,negative,positive,A,NULL
1731609762,4db8582b4f6c27e601c1ed826c9ad1e0,PennController,54,0,test_val,NULL,PennController,65,_Header_,Start,1731609327372,undefined,655,qualify,concrete-positive,negative,positive,A,NULL
1731609762,4db8582b4f6c27e601c1ed826c9ad1e0,PennController,54,0,test_val,NULL,PennController,65,_Header_,End,1731609327623,undefined,655,qualify,concrete-positive,negative,positive,A,NULL
1731609762,4db8582b4f6c27e601c1ed826c9ad1e0,PennController,54,0,test_val,NULL,Selector,unnamed-Selector,Selection,positive,1731609328788,undefined,655,qualify,concrete-positive,negative,positive,A,negative;positive
1731609762,4db8582b4f6c27e601c1ed826c9ad1e0,PennController,54,0,test_val,NULL,PennController,65,_Trial_,End,1731609328791,undefined,655,qualify,concrete-positive,negative,positive,A,NULL
1731609762,4db8582b4f6c27e601c1ed826c9ad1e0,PennController,64,0,test_val,NULL,PennController,75,_Trial_,Start,1731609328792,undefined,527,respect,abstract-positive,negative,positive,A,NULL
1731609762,4db8582b4f6c27e601c1ed826c9ad1e0,PennController,64,0,test_val,NULL,PennController,75,_Header_,Start,1731609328792,undefined,527,respect,abstract-positive,negative,positive,A,NULL
1731609762,4db8582b4f6c27e601c1ed826c9ad1e0,PennController,64,0,test_val,NULL,PennController,75,_Header_,End,1731609329048,undefined,527,respect,abstract-positive,negative,positive,A,NULL
1731609762,4db8582b4f6c27e601c1ed826c9ad1e0,PennController,64,0,test_val,NULL,Selector,unnamed-Selector,Selection,positive,1731609330083,undefined,527,respect,abstract-positive,negative,positive,A,negative;positive
1731609762,4db8582b4f6c27e601c1ed826c9ad1e0,PennController,64,0,test_val,NULL,PennController,75,_Trial_,End,1731609330085,undefined,527,respect,abstract-positive,negative,positive,A,NULL
1731609762,4db8582b4f6c27e601c1ed826c9ad1e0,PennController,76,0,test_val,NULL,PennController,87,_Trial_,Start,1731609330086,undefined,696,worry,abstract-negative,negative,positive,A,NULL
1731609762,4db8582b4f6c27e601c1ed826c9ad1e0,PennController,76,0,test_val,NULL,PennController,87,_Header_,Start,1731609330086,undefined,696,worry,abstract-negative,negative,positive,A,NULL
1731609762,4db8582b4f6c27e601c1ed826c9ad1e0,PennController,76,0,test_val,NULL,PennController,87,_Header_,End,1731609330338,undefined,696,worry,abstract-negative,negative,positive,A,NULL
1731609762,4db8582b4f6c27e601c1ed826c9ad1e0,PennController,76,0,test_val,NULL,Selector,unnamed-Selector,Selection,negative,1731609331546,undefined,696,worry,abstract-negative,negative,positive,A,negative;positive
1731609762,4db8582b4f6c27e601c1ed826c9ad1e0,PennController,76,0,test_val,NULL,PennController,87,_Trial_,End,1731609331548,undefined,696,worry,abstract-negative,negative,positive,A,NULL
1731609762,4db8582b4f6c27e601c1ed826c9ad1e0,PennController,63,0,test_val,NULL,PennController,74,_Trial_,Start,1731609331549,undefined,665,embolden,abstract-positive,negative,positive,A,NULL
1731609762,4db8582b4f6c27e601c1ed826c9ad1e0,PennController,63,0,test_val,NULL,PennController,74,_Header_,Start,1731609331549,undefined,665,embolden,abstract-positive,negative,positive,A,NULL
1731609762,4db8582b4f6c27e601c1ed826c9ad1e0,PennController,63,0,test_val,NULL,PennController,74,_Header_,End,1731609331803,undefined,665,embolden,abstract-positive,negative,positive,A,NULL
1731609762,4db8582b4f6c27e601c1ed826c9ad1e0,PennController,63,0,test_val,NULL,Selector,unnamed-Selector,Selection,positive,1731609332973,undefined,665,embolden,abstract-positive,negative,positive,A,negative;positive
1731609762,4db8582b4f6c27e601c1ed826c9ad1e0,PennController,63,0,test_val,NULL,PennController,74,_Trial_,End,1731609332974,undefined,665,embolden,abstract-positive,negative,positive,A,NULL
1731609762,4db8582b4f6c27e601c1ed826c9ad1e0,PennController,47,0,test_val,NULL,PennController,58,_Trial_,Start,1731609332975,undefined,570,fall,abstract-negative,negative,positive,A,NULL
1731609762,4db8582b4f6c27e601c1ed826c9ad1e0,PennController,47,0,test_val,NULL,PennController,58,_Header_,Start,1731609332975,undefined,570,fall,abstract-negative,negative,positive,A,NULL
1731609762,4db8582b4f6c27e601c1ed826c9ad1e0,PennController,47,0,test_val,NULL,PennController,58,_Header_,End,1731609333228,undefined,570,fall,abstract-negative,negative,positive,A,NULL
