#
# Results on Mon, 27 Jan 2025 17:18:44 GMT
# USER AGENT: Mozilla/5.0 (Windows NT 10.0; Win64; x64) AppleWebKit/537.36 (KHTML, like Gecko) Chrome/132.0.0.0 Safari/537.36
# Design number was non-random = 5
#
# Columns below this comment are as follows:
# 1. Results reception time.
# 2. MD5 hash of participant's IP address.
# 3. Controller name.
# 4. Order number of item.
# 5. Inner element number.
# 6. Label.
# 7. Latin Square Group.
# 8. PennElementType.
# 9. PennElementName.
# 10. Parameter.
# 11. Value.
# 12. EventTime.
# 13. Comments.
1737998324,d50233b7f52230f3cccf041f3085f436,PennController,1,0,welcome,NULL,PennController,0,_Trial_,Start,1737997786229,NULL
1737998324,d50233b7f52230f3cccf041f3085f436,PennController,1,0,welcome,NULL,PennController,0,_Header_,Start,1737997786229,NULL
1737998324,d50233b7f52230f3cccf041f3085f436,PennController,1,0,welcome,NULL,PennController,0,_Header_,End,1737997786484,NULL
1737998324,d50233b7f52230f3cccf041f3085f436,PennController,1,0,welcome,NULL,PennController,0,_Trial_,End,1737997788728,NULL
# 13. ID.
# 14. Comments.
1737998324,d50233b7f52230f3cccf041f3085f436,PennController,124,0,consent,NULL,PennController,2,_Trial_,Start,1737997788730,66594968a8fca6ea85c9ac19,NULL
1737998324,d50233b7f52230f3cccf041f3085f436,PennController,124,0,consent,NULL,PennController,2,_Header_,Start,1737997788730,66594968a8fca6ea85c9ac19,NULL
1737998324,d50233b7f52230f3cccf041f3085f436,PennController,124,0,consent,NULL,PennController,2,_Header_,End,1737997788983,66594968a8fca6ea85c9ac19,NULL
1737998324,d50233b7f52230f3cccf041f3085f436,PennController,124,0,consent,NULL,TextInput,ID,First,,1737997795250,66594968a8fca6ea85c9ac19,Control
1737998324,d50233b7f52230f3cccf041f3085f436,PennController,124,0,consent,NULL,TextInput,ID,Final,66594968a8fca6ea85c9ac19,1737997800347,66594968a8fca6ea85c9ac19,NULL
1737998324,d50233b7f52230f3cccf041f3085f436,PennController,124,0,consent,NULL,PennController,2,_Trial_,End,1737997800347,66594968a8fca6ea85c9ac19,NULL
# 13. Comments.
1737998324,d50233b7f52230f3cccf041f3085f436,PennController,126,0,instructions1_conc,NULL,PennController,4,_Trial_,Start,1737997800348,NULL
1737998324,d50233b7f52230f3cccf041f3085f436,PennController,126,0,instructions1_conc,NULL,PennController,4,_Header_,Start,1737997800348,NULL
1737998324,d50233b7f52230f3cccf041f3085f436,PennController,126,0,instructions1_conc,NULL,PennController,4,_Header_,End,1737997800601,NULL
1737998324,d50233b7f52230f3cccf041f3085f436,PennController,126,0,instructions1_conc,NULL,PennController,4,_Trial_,End,1737997815065,NULL
1737998324,d50233b7f52230f3cccf041f3085f436,PennController,127,0,instructions2_conc,NULL,PennController,5,_Trial_,Start,1737997815066,NULL
1737998324,d50233b7f52230f3cccf041f3085f436,PennController,127,0,instructions2_conc,NULL,PennController,5,_Header_,Start,1737997815066,NULL
1737998324,d50233b7f52230f3cccf041f3085f436,PennController,127,0,instructions2_conc,NULL,PennController,5,_Header_,End,1737997815318,NULL
1737998324,d50233b7f52230f3cccf041f3085f436,PennController,127,0,instructions2_conc,NULL,PennController,5,_Trial_,End,1737997818366,NULL
1737998324,d50233b7f52230f3cccf041f3085f436,PennController,134,0,instructions3_hands,NULL,PennController,12,_Trial_,Start,1737997818367,NULL
1737998324,d50233b7f52230f3cccf041f3085f436,PennController,134,0,instructions3_hands,NULL,PennController,12,_Header_,Start,1737997818367,NULL
1737998324,d50233b7f52230f3cccf041f3085f436,PennController,134,0,instructions3_hands,NULL,PennController,12,_Header_,End,1737997818618,NULL
1737998324,d50233b7f52230f3cccf041f3085f436,PennController,134,0,instructions3_hands,NULL,PennController,12,_Trial_,End,1737997823873,NULL
1737998324,d50233b7f52230f3cccf041f3085f436,PennController,129,0,practice_intro_conc,NULL,PennController,7,_Trial_,Start,1737997823874,NULL
1737998324,d50233b7f52230f3cccf041f3085f436,PennController,129,0,practice_intro_conc,NULL,PennController,7,_Header_,Start,1737997823874,NULL
1737998324,d50233b7f52230f3cccf041f3085f436,PennController,129,0,practice_intro_conc,NULL,PennController,7,_Header_,End,1737997824128,NULL
1737998324,d50233b7f52230f3cccf041f3085f436,PennController,129,0,practice_intro_conc,NULL,PennController,7,_Trial_,End,1737997825347,NULL
# 13. ID.
# 14. ReactionTime.
# 15. Word.
# 16. selectedKey.
# 17. selectedValue.
# 18. Key_value_F.
# 19. Key_value_J.
# 20. Group.
# 21. Comments.
1737998324,d50233b7f52230f3cccf041f3085f436,PennController,87,0,calibrator_conc_feedback,NULL,PennController,98,_Trial_,Start,1737997825350,undefined,1569,marriage,undefined,concrete,abstract,concrete,A,NULL
1737998324,d50233b7f52230f3cccf041f3085f436,PennController,87,0,calibrator_conc_feedback,NULL,PennController,98,_Header_,Start,1737997825350,undefined,1569,marriage,undefined,concrete,abstract,concrete,A,NULL
1737998324,d50233b7f52230f3cccf041f3085f436,PennController,87,0,calibrator_conc_feedback,NULL,PennController,98,_Header_,End,1737997825602,undefined,1569,marriage,undefined,concrete,abstract,concrete,A,NULL
1737998324,d50233b7f52230f3cccf041f3085f436,PennController,87,0,calibrator_conc_feedback,NULL,Selector,Selection,Selection,concrete,1737997827671,undefined,1569,marriage,undefined,concrete,abstract,concrete,A,abstract;concrete
1737998324,d50233b7f52230f3cccf041f3085f436,PennController,87,0,calibrator_conc_feedback,NULL,PennController,98,_Trial_,End,1737997829676,undefined,1569,marriage,undefined,concrete,abstract,concrete,A,NULL
1737998324,d50233b7f52230f3cccf041f3085f436,PennController,86,0,calibrator_conc_feedback,NULL,PennController,97,_Trial_,Start,1737997829676,undefined,1488,kick,undefined,concrete,abstract,concrete,A,NULL
1737998324,d50233b7f52230f3cccf041f3085f436,PennController,86,0,calibrator_conc_feedback,NULL,PennController,97,_Header_,Start,1737997829676,undefined,1488,kick,undefined,concrete,abstract,concrete,A,NULL
1737998324,d50233b7f52230f3cccf041f3085f436,PennController,86,0,calibrator_conc_feedback,NULL,PennController,97,_Header_,End,1737997829926,undefined,1488,kick,undefined,concrete,abstract,concrete,A,NULL
1737998324,d50233b7f52230f3cccf041f3085f436,PennController,86,0,calibrator_conc_feedback,NULL,Selector,Selection,Selection,concrete,1737997831916,undefined,1488,kick,undefined,concrete,abstract,concrete,A,abstract;concrete
1737998324,d50233b7f52230f3cccf041f3085f436,PennController,86,0,calibrator_conc_feedback,NULL,PennController,97,_Trial_,End,1737997833921,undefined,1488,kick,undefined,concrete,abstract,concrete,A,NULL
1737998324,d50233b7f52230f3cccf041f3085f436,PennController,93,0,calibrator_conc_feedback,NULL,PennController,104,_Trial_,Start,1737997833922,undefined,1703,insecure,undefined,concrete,abstract,concrete,A,NULL
1737998324,d50233b7f52230f3cccf041f3085f436,PennController,93,0,calibrator_conc_feedback,NULL,PennController,104,_Header_,Start,1737997833922,undefined,1703,insecure,undefined,concrete,abstract,concrete,A,NULL
1737998324,d50233b7f52230f3cccf041f3085f436,PennController,93,0,calibrator_conc_feedback,NULL,PennController,104,_Header_,End,1737997834173,undefined,1703,insecure,undefined,concrete,abstract,concrete,A,NULL
1737998324,d50233b7f52230f3cccf041f3085f436,PennController,93,0,calibrator_conc_feedback,NULL,Selector,Selection,Selection,abstract,1737997836381,undefined,1703,insecure,undefined,concrete,abstract,concrete,A,abstract;concrete
1737998324,d50233b7f52230f3cccf041f3085f436,PennController,93,0,calibrator_conc_feedback,NULL,PennController,104,_Trial_,End,1737997838387,undefined,1703,insecure,undefined,concrete,abstract,concrete,A,NULL
1737998324,d50233b7f52230f3cccf041f3085f436,PennController,88,0,calibrator_conc_feedback,NULL,PennController,99,_Trial_,Start,1737997838389,undefined,1158,polite,undefined,concrete,abstract,concrete,A,NULL
1737998324,d50233b7f52230f3cccf041f3085f436,PennController,88,0,calibrator_conc_feedback,NULL,PennController,99,_Header_,Start,1737997838389,undefined,1158,polite,undefined,concrete,abstract,concrete,A,NULL
1737998324,d50233b7f52230f3cccf041f3085f436,PennController,88,0,calibrator_conc_feedback,NULL,PennController,99,_Header_,End,1737997838642,undefined,1158,polite,undefined,concrete,abstract,concrete,A,NULL
1737998324,d50233b7f52230f3cccf041f3085f436,PennController,88,0,calibrator_conc_feedback,NULL,Selector,Selection,Selection,abstract,1737997840306,undefined,1158,polite,undefined,concrete,abstract,concrete,A,abstract;concrete
1737998324,d50233b7f52230f3cccf041f3085f436,PennController,88,0,calibrator_conc_feedback,NULL,PennController,99,_Trial_,End,1737997842312,undefined,1158,polite,undefined,concrete,abstract,concrete,A,NULL
1737998324,d50233b7f52230f3cccf041f3085f436,PennController,92,0,calibrator_conc_feedback,NULL,PennController,103,_Trial_,Start,1737997842314,undefined,1991,whistle,undefined,concrete,abstract,concrete,A,NULL
1737998324,d50233b7f52230f3cccf041f3085f436,PennController,92,0,calibrator_conc_feedback,NULL,PennController,103,_Header_,Start,1737997842314,undefined,1991,whistle,undefined,concrete,abstract,concrete,A,NULL
1737998324,d50233b7f52230f3cccf041f3085f436,PennController,92,0,calibrator_conc_feedback,NULL,PennController,103,_Header_,End,1737997842567,undefined,1991,whistle,undefined,concrete,abstract,concrete,A,NULL
1737998324,d50233b7f52230f3cccf041f3085f436,PennController,92,0,calibrator_conc_feedback,NULL,Selector,Selection,Selection,concrete,1737997845059,undefined,1991,whistle,undefined,concrete,abstract,concrete,A,abstract;concrete
1737998324,d50233b7f52230f3cccf041f3085f436,PennController,92,0,calibrator_conc_feedback,NULL,PennController,103,_Trial_,End,1737997847065,undefined,1991,whistle,undefined,concrete,abstract,concrete,A,NULL
1737998324,d50233b7f52230f3cccf041f3085f436,PennController,89,0,calibrator_conc_feedback,NULL,PennController,100,_Trial_,Start,1737997847067,undefined,928,shirt,undefined,concrete,abstract,concrete,A,NULL
1737998324,d50233b7f52230f3cccf041f3085f436,PennController,89,0,calibrator_conc_feedback,NULL,PennController,100,_Header_,Start,1737997847067,undefined,928,shirt,undefined,concrete,abstract,concrete,A,NULL
1737998324,d50233b7f52230f3cccf041f3085f436,PennController,89,0,calibrator_conc_feedback,NULL,PennController,100,_Header_,End,1737997847320,undefined,928,shirt,undefined,concrete,abstract,concrete,A,NULL
1737998324,d50233b7f52230f3cccf041f3085f436,PennController,89,0,calibrator_conc_feedback,NULL,Selector,Selection,Selection,concrete,1737997848749,undefined,928,shirt,undefined,concrete,abstract,concrete,A,abstract;concrete
1737998324,d50233b7f52230f3cccf041f3085f436,PennController,89,0,calibrator_conc_feedback,NULL,PennController,100,_Trial_,End,1737997850756,undefined,928,shirt,undefined,concrete,abstract,concrete,A,NULL
1737998324,d50233b7f52230f3cccf041f3085f436,PennController,90,0,calibrator_conc_feedback,NULL,PennController,101,_Trial_,Start,1737997850758,undefined,970,sugar,undefined,concrete,abstract,concrete,A,NULL
1737998324,d50233b7f52230f3cccf041f3085f436,PennController,90,0,calibrator_conc_feedback,NULL,PennController,101,_Header_,Start,1737997850758,undefined,970,sugar,undefined,concrete,abstract,concrete,A,NULL
1737998324,d50233b7f52230f3cccf041f3085f436,PennController,90,0,calibrator_conc_feedback,NULL,PennController,101,_Header_,End,1737997851009,undefined,970,sugar,undefined,concrete,abstract,concrete,A,NULL
1737998324,d50233b7f52230f3cccf041f3085f436,PennController,90,0,calibrator_conc_feedback,NULL,Selector,Selection,Selection,concrete,1737997852484,undefined,970,sugar,undefined,concrete,abstract,concrete,A,abstract;concrete
1737998324,d50233b7f52230f3cccf041f3085f436,PennController,90,0,calibrator_conc_feedback,NULL,PennController,101,_Trial_,End,1737997854487,undefined,970,sugar,undefined,concrete,abstract,concrete,A,NULL
1737998324,d50233b7f52230f3cccf041f3085f436,PennController,91,0,calibrator_conc_feedback,NULL,PennController,102,_Trial_,Start,1737997854489,undefined,1012,theory,undefined,concrete,abstract,concrete,A,NULL
1737998324,d50233b7f52230f3cccf041f3085f436,PennController,91,0,calibrator_conc_feedback,NULL,PennController,102,_Header_,Start,1737997854489,undefined,1012,theory,undefined,concrete,abstract,concrete,A,NULL
1737998324,d50233b7f52230f3cccf041f3085f436,PennController,91,0,calibrator_conc_feedback,NULL,PennController,102,_Header_,End,1737997854742,undefined,1012,theory,undefined,concrete,abstract,concrete,A,NULL
1737998324,d50233b7f52230f3cccf041f3085f436,PennController,91,0,calibrator_conc_feedback,NULL,Selector,Selection,Selection,abstract,1737997856257,undefined,1012,theory,undefined,concrete,abstract,concrete,A,abstract;concrete
1737998324,d50233b7f52230f3cccf041f3085f436,PennController,91,0,calibrator_conc_feedback,NULL,PennController,102,_Trial_,End,1737997858262,undefined,1012,theory,undefined,concrete,abstract,concrete,A,NULL
1737998324,d50233b7f52230f3cccf041f3085f436,PennController,85,0,calibrator_conc_feedback,NULL,PennController,96,_Trial_,Start,1737997858264,undefined,942,grasshopper,undefined,concrete,abstract,concrete,A,NULL
1737998324,d50233b7f52230f3cccf041f3085f436,PennController,85,0,calibrator_conc_feedback,NULL,PennController,96,_Header_,Start,1737997858264,undefined,942,grasshopper,undefined,concrete,abstract,concrete,A,NULL
1737998324,d50233b7f52230f3cccf041f3085f436,PennController,85,0,calibrator_conc_feedback,NULL,PennController,96,_Header_,End,1737997858517,undefined,942,grasshopper,undefined,concrete,abstract,concrete,A,NULL
1737998324,d50233b7f52230f3cccf041f3085f436,PennController,85,0,calibrator_conc_feedback,NULL,Selector,Selection,Selection,concrete,1737997859963,undefined,942,grasshopper,undefined,concrete,abstract,concrete,A,abstract;concrete
1737998324,d50233b7f52230f3cccf041f3085f436,PennController,85,0,calibrator_conc_feedback,NULL,PennController,96,_Trial_,End,1737997861969,undefined,942,grasshopper,undefined,concrete,abstract,concrete,A,NULL
1737998324,d50233b7f52230f3cccf041f3085f436,PennController,84,0,calibrator_conc_feedback,NULL,PennController,95,_Trial_,Start,1737997861971,undefined,795,gas,undefined,concrete,abstract,concrete,A,NULL
1737998324,d50233b7f52230f3cccf041f3085f436,PennController,84,0,calibrator_conc_feedback,NULL,PennController,95,_Header_,Start,1737997861971,undefined,795,gas,undefined,concrete,abstract,concrete,A,NULL
1737998324,d50233b7f52230f3cccf041f3085f436,PennController,84,0,calibrator_conc_feedback,NULL,PennController,95,_Header_,End,1737997862224,undefined,795,gas,undefined,concrete,abstract,concrete,A,NULL
1737998324,d50233b7f52230f3cccf041f3085f436,PennController,84,0,calibrator_conc_feedback,NULL,Selector,Selection,Selection,concrete,1737997863523,undefined,795,gas,undefined,concrete,abstract,concrete,A,abstract;concrete
1737998324,d50233b7f52230f3cccf041f3085f436,PennController,84,0,calibrator_conc_feedback,NULL,PennController,95,_Trial_,End,1737997865527,undefined,795,gas,undefined,concrete,abstract,concrete,A,NULL
# 16. Key_value_F.
# 17. Key_value_J.
# 18. Group.
# 19. Comments.
1737998324,d50233b7f52230f3cccf041f3085f436,PennController,100,0,calibrator_conc_no_feedback,NULL,PennController,111,_Trial_,Start,1737997865529,undefined,803,sugar,abstract,concrete,A,NULL
1737998324,d50233b7f52230f3cccf041f3085f436,PennController,100,0,calibrator_conc_no_feedback,NULL,PennController,111,_Header_,Start,1737997865529,undefined,803,sugar,abstract,concrete,A,NULL
1737998324,d50233b7f52230f3cccf041f3085f436,PennController,100,0,calibrator_conc_no_feedback,NULL,PennController,111,_Header_,End,1737997865780,undefined,803,sugar,abstract,concrete,A,NULL
1737998324,d50233b7f52230f3cccf041f3085f436,PennController,100,0,calibrator_conc_no_feedback,NULL,Selector,unnamed-Selector,Selection,concrete,1737997867087,undefined,803,sugar,abstract,concrete,A,abstract;concrete
1737998324,d50233b7f52230f3cccf041f3085f436,PennController,100,0,calibrator_conc_no_feedback,NULL,PennController,111,_Trial_,End,1737997867089,undefined,803,sugar,abstract,concrete,A,NULL
1737998324,d50233b7f52230f3cccf041f3085f436,PennController,102,0,calibrator_conc_no_feedback,NULL,PennController,113,_Trial_,Start,1737997867091,undefined,1101,whistle,abstract,concrete,A,NULL
1737998324,d50233b7f52230f3cccf041f3085f436,PennController,102,0,calibrator_conc_no_feedback,NULL,PennController,113,_Header_,Start,1737997867091,undefined,1101,whistle,abstract,concrete,A,NULL
1737998324,d50233b7f52230f3cccf041f3085f436,PennController,102,0,calibrator_conc_no_feedback,NULL,PennController,113,_Header_,End,1737997867344,undefined,1101,whistle,abstract,concrete,A,NULL
1737998324,d50233b7f52230f3cccf041f3085f436,PennController,102,0,calibrator_conc_no_feedback,NULL,Selector,unnamed-Selector,Selection,concrete,1737997868949,undefined,1101,whistle,abstract,concrete,A,abstract;concrete
1737998324,d50233b7f52230f3cccf041f3085f436,PennController,102,0,calibrator_conc_no_feedback,NULL,PennController,113,_Trial_,End,1737997868950,undefined,1101,whistle,abstract,concrete,A,NULL
1737998324,d50233b7f52230f3cccf041f3085f436,PennController,94,0,calibrator_conc_no_feedback,NULL,PennController,105,_Trial_,Start,1737997868951,undefined,761,gas,abstract,concrete,A,NULL
1737998324,d50233b7f52230f3cccf041f3085f436,PennController,94,0,calibrator_conc_no_feedback,NULL,PennController,105,_Header_,Start,1737997868951,undefined,761,gas,abstract,concrete,A,NULL
1737998324,d50233b7f52230f3cccf041f3085f436,PennController,94,0,calibrator_conc_no_feedback,NULL,PennController,105,_Header_,End,1737997869204,undefined,761,gas,abstract,concrete,A,NULL
1737998324,d50233b7f52230f3cccf041f3085f436,PennController,94,0,calibrator_conc_no_feedback,NULL,Selector,unnamed-Selector,Selection,concrete,1737997870468,undefined,761,gas,abstract,concrete,A,abstract;concrete
1737998324,d50233b7f52230f3cccf041f3085f436,PennController,94,0,calibrator_conc_no_feedback,NULL,PennController,105,_Trial_,End,1737997870470,undefined,761,gas,abstract,concrete,A,NULL
1737998324,d50233b7f52230f3cccf041f3085f436,PennController,98,0,calibrator_conc_no_feedback,NULL,PennController,109,_Trial_,Start,1737997870472,undefined,731,polite,abstract,concrete,A,NULL
1737998324,d50233b7f52230f3cccf041f3085f436,PennController,98,0,calibrator_conc_no_feedback,NULL,PennController,109,_Header_,Start,1737997870472,undefined,731,polite,abstract,concrete,A,NULL
1737998324,d50233b7f52230f3cccf041f3085f436,PennController,98,0,calibrator_conc_no_feedback,NULL,PennController,109,_Header_,End,1737997870724,undefined,731,polite,abstract,concrete,A,NULL
1737998324,d50233b7f52230f3cccf041f3085f436,PennController,98,0,calibrator_conc_no_feedback,NULL,Selector,unnamed-Selector,Selection,abstract,1737997871957,undefined,731,polite,abstract,concrete,A,abstract;concrete
1737998324,d50233b7f52230f3cccf041f3085f436,PennController,98,0,calibrator_conc_no_feedback,NULL,PennController,109,_Trial_,End,1737997871957,undefined,731,polite,abstract,concrete,A,NULL
1737998324,d50233b7f52230f3cccf041f3085f436,PennController,96,0,calibrator_conc_no_feedback,NULL,PennController,107,_Trial_,Start,1737997871958,undefined,684,kick,abstract,concrete,A,NULL
1737998324,d50233b7f52230f3cccf041f3085f436,PennController,96,0,calibrator_conc_no_feedback,NULL,PennController,107,_Header_,Start,1737997871958,undefined,684,kick,abstract,concrete,A,NULL
1737998324,d50233b7f52230f3cccf041f3085f436,PennController,96,0,calibrator_conc_no_feedback,NULL,PennController,107,_Header_,End,1737997872210,undefined,684,kick,abstract,concrete,A,NULL
1737998324,d50233b7f52230f3cccf041f3085f436,PennController,96,0,calibrator_conc_no_feedback,NULL,Selector,unnamed-Selector,Selection,concrete,1737997873399,undefined,684,kick,abstract,concrete,A,abstract;concrete
1737998324,d50233b7f52230f3cccf041f3085f436,PennController,96,0,calibrator_conc_no_feedback,NULL,PennController,107,_Trial_,End,1737997873399,undefined,684,kick,abstract,concrete,A,NULL
1737998324,d50233b7f52230f3cccf041f3085f436,PennController,103,0,calibrator_conc_no_feedback,NULL,PennController,114,_Trial_,Start,1737997873400,undefined,850,insecure,abstract,concrete,A,NULL
1737998324,d50233b7f52230f3cccf041f3085f436,PennController,103,0,calibrator_conc_no_feedback,NULL,PennController,114,_Header_,Start,1737997873400,undefined,850,insecure,abstract,concrete,A,NULL
1737998324,d50233b7f52230f3cccf041f3085f436,PennController,103,0,calibrator_conc_no_feedback,NULL,PennController,114,_Header_,End,1737997873653,undefined,850,insecure,abstract,concrete,A,NULL
1737998324,d50233b7f52230f3cccf041f3085f436,PennController,103,0,calibrator_conc_no_feedback,NULL,Selector,unnamed-Selector,Selection,abstract,1737997875011,undefined,850,insecure,abstract,concrete,A,abstract;concrete
1737998324,d50233b7f52230f3cccf041f3085f436,PennController,103,0,calibrator_conc_no_feedback,NULL,PennController,114,_Trial_,End,1737997875013,undefined,850,insecure,abstract,concrete,A,NULL
1737998324,d50233b7f52230f3cccf041f3085f436,PennController,99,0,calibrator_conc_no_feedback,NULL,PennController,110,_Trial_,Start,1737997875015,undefined,607,shirt,abstract,concrete,A,NULL
1737998324,d50233b7f52230f3cccf041f3085f436,PennController,99,0,calibrator_conc_no_feedback,NULL,PennController,110,_Header_,Start,1737997875015,undefined,607,shirt,abstract,concrete,A,NULL
1737998324,d50233b7f52230f3cccf041f3085f436,PennController,99,0,calibrator_conc_no_feedback,NULL,PennController,110,_Header_,End,1737997875268,undefined,607,shirt,abstract,concrete,A,NULL
1737998324,d50233b7f52230f3cccf041f3085f436,PennController,99,0,calibrator_conc_no_feedback,NULL,Selector,unnamed-Selector,Selection,concrete,1737997876377,undefined,607,shirt,abstract,concrete,A,abstract;concrete
1737998324,d50233b7f52230f3cccf041f3085f436,PennController,99,0,calibrator_conc_no_feedback,NULL,PennController,110,_Trial_,End,1737997876379,undefined,607,shirt,abstract,concrete,A,NULL
1737998324,d50233b7f52230f3cccf041f3085f436,PennController,95,0,calibrator_conc_no_feedback,NULL,PennController,106,_Trial_,Start,1737997876381,undefined,579,grasshopper,abstract,concrete,A,NULL
1737998324,d50233b7f52230f3cccf041f3085f436,PennController,95,0,calibrator_conc_no_feedback,NULL,PennController,106,_Header_,Start,1737997876381,undefined,579,grasshopper,abstract,concrete,A,NULL
1737998324,d50233b7f52230f3cccf041f3085f436,PennController,95,0,calibrator_conc_no_feedback,NULL,PennController,106,_Header_,End,1737997876635,undefined,579,grasshopper,abstract,concrete,A,NULL
1737998324,d50233b7f52230f3cccf041f3085f436,PennController,95,0,calibrator_conc_no_feedback,NULL,Selector,unnamed-Selector,Selection,concrete,1737997877717,undefined,579,grasshopper,abstract,concrete,A,abstract;concrete
1737998324,d50233b7f52230f3cccf041f3085f436,PennController,95,0,calibrator_conc_no_feedback,NULL,PennController,106,_Trial_,End,1737997877719,undefined,579,grasshopper,abstract,concrete,A,NULL
1737998324,d50233b7f52230f3cccf041f3085f436,PennController,97,0,calibrator_conc_no_feedback,NULL,PennController,108,_Trial_,Start,1737997877720,undefined,867,marriage,abstract,concrete,A,NULL
1737998324,d50233b7f52230f3cccf041f3085f436,PennController,97,0,calibrator_conc_no_feedback,NULL,PennController,108,_Header_,Start,1737997877720,undefined,867,marriage,abstract,concrete,A,NULL
1737998324,d50233b7f52230f3cccf041f3085f436,PennController,97,0,calibrator_conc_no_feedback,NULL,PennController,108,_Header_,End,1737997877971,undefined,867,marriage,abstract,concrete,A,NULL
1737998324,d50233b7f52230f3cccf041f3085f436,PennController,97,0,calibrator_conc_no_feedback,NULL,Selector,unnamed-Selector,Selection,abstract,1737997879342,undefined,867,marriage,abstract,concrete,A,abstract;concrete
1737998324,d50233b7f52230f3cccf041f3085f436,PennController,97,0,calibrator_conc_no_feedback,NULL,PennController,108,_Trial_,End,1737997879342,undefined,867,marriage,abstract,concrete,A,NULL
1737998324,d50233b7f52230f3cccf041f3085f436,PennController,101,0,calibrator_conc_no_feedback,NULL,PennController,112,_Trial_,Start,1737997879343,undefined,883,theory,abstract,concrete,A,NULL
1737998324,d50233b7f52230f3cccf041f3085f436,PennController,101,0,calibrator_conc_no_feedback,NULL,PennController,112,_Header_,Start,1737997879343,undefined,883,theory,abstract,concrete,A,NULL
1737998324,d50233b7f52230f3cccf041f3085f436,PennController,101,0,calibrator_conc_no_feedback,NULL,PennController,112,_Header_,End,1737997879597,undefined,883,theory,abstract,concrete,A,NULL
1737998324,d50233b7f52230f3cccf041f3085f436,PennController,101,0,calibrator_conc_no_feedback,NULL,Selector,unnamed-Selector,Selection,abstract,1737997880986,undefined,883,theory,abstract,concrete,A,abstract;concrete
1737998324,d50233b7f52230f3cccf041f3085f436,PennController,101,0,calibrator_conc_no_feedback,NULL,PennController,112,_Trial_,End,1737997880988,undefined,883,theory,abstract,concrete,A,NULL
# 13. Comments.
1737998324,d50233b7f52230f3cccf041f3085f436,PennController,130,0,endinstructions_conc,NULL,PennController,8,_Trial_,Start,1737997880990,NULL
1737998324,d50233b7f52230f3cccf041f3085f436,PennController,130,0,endinstructions_conc,NULL,PennController,8,_Header_,Start,1737997880990,NULL
1737998324,d50233b7f52230f3cccf041f3085f436,PennController,130,0,endinstructions_conc,NULL,PennController,8,_Header_,End,1737997881240,NULL
1737998324,d50233b7f52230f3cccf041f3085f436,PennController,130,0,endinstructions_conc,NULL,PennController,8,_Trial_,End,1737997887143,NULL
# 13. ID.
# 14. ReactionTime.
# 15. Word.
# 16. ConcValCombo.
# 17. Key_value_F.
# 18. Key_value_J.
# 19. Group.
# 20. Comments.
1737998324,d50233b7f52230f3cccf041f3085f436,PennController,34,0,test_conc,NULL,PennController,45,_Trial_,Start,1737997887144,undefined,1000,smoke,concrete-negative,concrete,abstract,A,NULL
1737998324,d50233b7f52230f3cccf041f3085f436,PennController,34,0,test_conc,NULL,PennController,45,_Header_,Start,1737997887144,undefined,1000,smoke,concrete-negative,concrete,abstract,A,NULL
1737998324,d50233b7f52230f3cccf041f3085f436,PennController,34,0,test_conc,NULL,PennController,45,_Header_,End,1737997887398,undefined,1000,smoke,concrete-negative,concrete,abstract,A,NULL
1737998324,d50233b7f52230f3cccf041f3085f436,PennController,34,0,test_conc,NULL,Selector,unnamed-Selector,Selection,abstract,1737997888901,undefined,1000,smoke,concrete-negative,concrete,abstract,A,concrete;abstract
1737998324,d50233b7f52230f3cccf041f3085f436,PennController,34,0,test_conc,NULL,PennController,45,_Trial_,End,1737997888903,undefined,1000,smoke,concrete-negative,concrete,abstract,A,NULL
1737998324,d50233b7f52230f3cccf041f3085f436,PennController,21,0,test_conc,NULL,PennController,32,_Trial_,Start,1737997888905,undefined,731,rain,concrete-positive,concrete,abstract,A,NULL
1737998324,d50233b7f52230f3cccf041f3085f436,PennController,21,0,test_conc,NULL,PennController,32,_Header_,Start,1737997888905,undefined,731,rain,concrete-positive,concrete,abstract,A,NULL
1737998324,d50233b7f52230f3cccf041f3085f436,PennController,21,0,test_conc,NULL,PennController,32,_Header_,End,1737997889159,undefined,731,rain,concrete-positive,concrete,abstract,A,NULL
1737998324,d50233b7f52230f3cccf041f3085f436,PennController,21,0,test_conc,NULL,Selector,unnamed-Selector,Selection,abstract,1737997890396,undefined,731,rain,concrete-positive,concrete,abstract,A,concrete;abstract
1737998324,d50233b7f52230f3cccf041f3085f436,PennController,21,0,test_conc,NULL,PennController,32,_Trial_,End,1737997890397,undefined,731,rain,concrete-positive,concrete,abstract,A,NULL
1737998324,d50233b7f52230f3cccf041f3085f436,PennController,20,0,test_conc,NULL,PennController,31,_Trial_,Start,1737997890397,undefined,1247,home,concrete-positive,concrete,abstract,A,NULL
1737998324,d50233b7f52230f3cccf041f3085f436,PennController,20,0,test_conc,NULL,PennController,31,_Header_,Start,1737997890397,undefined,1247,home,concrete-positive,concrete,abstract,A,NULL
1737998324,d50233b7f52230f3cccf041f3085f436,PennController,20,0,test_conc,NULL,PennController,31,_Header_,End,1737997890649,undefined,1247,home,concrete-positive,concrete,abstract,A,NULL
1737998324,d50233b7f52230f3cccf041f3085f436,PennController,20,0,test_conc,NULL,Selector,unnamed-Selector,Selection,concrete,1737997892399,undefined,1247,home,concrete-positive,concrete,abstract,A,concrete;abstract
1737998324,d50233b7f52230f3cccf041f3085f436,PennController,20,0,test_conc,NULL,PennController,31,_Trial_,End,1737997892400,undefined,1247,home,concrete-positive,concrete,abstract,A,NULL
1737998324,d50233b7f52230f3cccf041f3085f436,PennController,24,0,test_conc,NULL,PennController,35,_Trial_,Start,1737997892400,undefined,980,love,abstract-positive,concrete,abstract,A,NULL
1737998324,d50233b7f52230f3cccf041f3085f436,PennController,24,0,test_conc,NULL,PennController,35,_Header_,Start,1737997892400,undefined,980,love,abstract-positive,concrete,abstract,A,NULL
1737998324,d50233b7f52230f3cccf041f3085f436,PennController,24,0,test_conc,NULL,PennController,35,_Header_,End,1737997892650,undefined,980,love,abstract-positive,concrete,abstract,A,NULL
1737998324,d50233b7f52230f3cccf041f3085f436,PennController,24,0,test_conc,NULL,Selector,unnamed-Selector,Selection,abstract,1737997894132,undefined,980,love,abstract-positive,concrete,abstract,A,concrete;abstract
1737998324,d50233b7f52230f3cccf041f3085f436,PennController,24,0,test_conc,NULL,PennController,35,_Trial_,End,1737997894133,undefined,980,love,abstract-positive,concrete,abstract,A,NULL
1737998324,d50233b7f52230f3cccf041f3085f436,PennController,25,0,test_conc,NULL,PennController,36,_Trial_,Start,1737997894133,undefined,1580,hope,abstract-positive,concrete,abstract,A,NULL
1737998324,d50233b7f52230f3cccf041f3085f436,PennController,25,0,test_conc,NULL,PennController,36,_Header_,Start,1737997894133,undefined,1580,hope,abstract-positive,concrete,abstract,A,NULL
1737998324,d50233b7f52230f3cccf041f3085f436,PennController,25,0,test_conc,NULL,PennController,36,_Header_,End,1737997894386,undefined,1580,hope,abstract-positive,concrete,abstract,A,NULL
1737998324,d50233b7f52230f3cccf041f3085f436,PennController,25,0,test_conc,NULL,Selector,unnamed-Selector,Selection,abstract,1737997896469,undefined,1580,hope,abstract-positive,concrete,abstract,A,concrete;abstract
1737998324,d50233b7f52230f3cccf041f3085f436,PennController,25,0,test_conc,NULL,PennController,36,_Trial_,End,1737997896469,undefined,1580,hope,abstract-positive,concrete,abstract,A,NULL
1737998324,d50233b7f52230f3cccf041f3085f436,PennController,29,0,test_conc,NULL,PennController,40,_Trial_,Start,1737997896470,undefined,1529,kindness,abstract-positive,concrete,abstract,A,NULL
1737998324,d50233b7f52230f3cccf041f3085f436,PennController,29,0,test_conc,NULL,PennController,40,_Header_,Start,1737997896470,undefined,1529,kindness,abstract-positive,concrete,abstract,A,NULL
1737998324,d50233b7f52230f3cccf041f3085f436,PennController,29,0,test_conc,NULL,PennController,40,_Header_,End,1737997896720,undefined,1529,kindness,abstract-positive,concrete,abstract,A,NULL
1737998324,d50233b7f52230f3cccf041f3085f436,PennController,29,0,test_conc,NULL,Selector,unnamed-Selector,Selection,abstract,1737997898755,undefined,1529,kindness,abstract-positive,concrete,abstract,A,concrete;abstract
1737998324,d50233b7f52230f3cccf041f3085f436,PennController,29,0,test_conc,NULL,PennController,40,_Trial_,End,1737997898757,undefined,1529,kindness,abstract-positive,concrete,abstract,A,NULL
1737998324,d50233b7f52230f3cccf041f3085f436,PennController,8,0,test_conc,NULL,PennController,19,_Trial_,Start,1737997898759,undefined,968,guilt,abstract-negative,concrete,abstract,A,NULL
1737998324,d50233b7f52230f3cccf041f3085f436,PennController,8,0,test_conc,NULL,PennController,19,_Header_,Start,1737997898759,undefined,968,guilt,abstract-negative,concrete,abstract,A,NULL
1737998324,d50233b7f52230f3cccf041f3085f436,PennController,8,0,test_conc,NULL,PennController,19,_Header_,End,1737997899011,undefined,968,guilt,abstract-negative,concrete,abstract,A,NULL
1737998324,d50233b7f52230f3cccf041f3085f436,PennController,8,0,test_conc,NULL,Selector,unnamed-Selector,Selection,abstract,1737997900485,undefined,968,guilt,abstract-negative,concrete,abstract,A,concrete;abstract
1737998324,d50233b7f52230f3cccf041f3085f436,PennController,8,0,test_conc,NULL,PennController,19,_Trial_,End,1737997900487,undefined,968,guilt,abstract-negative,concrete,abstract,A,NULL
1737998324,d50233b7f52230f3cccf041f3085f436,PennController,12,0,test_conc,NULL,PennController,23,_Trial_,Start,1737997900488,undefined,817,shame,abstract-negative,concrete,abstract,A,NULL
1737998324,d50233b7f52230f3cccf041f3085f436,PennController,12,0,test_conc,NULL,PennController,23,_Header_,Start,1737997900489,undefined,817,shame,abstract-negative,concrete,abstract,A,NULL
1737998324,d50233b7f52230f3cccf041f3085f436,PennController,12,0,test_conc,NULL,PennController,23,_Header_,End,1737997900741,undefined,817,shame,abstract-negative,concrete,abstract,A,NULL
1737998324,d50233b7f52230f3cccf041f3085f436,PennController,12,0,test_conc,NULL,Selector,unnamed-Selector,Selection,abstract,1737997902060,undefined,817,shame,abstract-negative,concrete,abstract,A,concrete;abstract
1737998324,d50233b7f52230f3cccf041f3085f436,PennController,12,0,test_conc,NULL,PennController,23,_Trial_,End,1737997902060,undefined,817,shame,abstract-negative,concrete,abstract,A,NULL
1737998324,d50233b7f52230f3cccf041f3085f436,PennController,15,0,test_conc,NULL,PennController,26,_Trial_,Start,1737997902061,undefined,1574,laughter,concrete-positive,concrete,abstract,A,NULL
1737998324,d50233b7f52230f3cccf041f3085f436,PennController,15,0,test_conc,NULL,PennController,26,_Header_,Start,1737997902061,undefined,1574,laughter,concrete-positive,concrete,abstract,A,NULL
1737998324,d50233b7f52230f3cccf041f3085f436,PennController,15,0,test_conc,NULL,PennController,26,_Header_,End,1737997902313,undefined,1574,laughter,concrete-positive,concrete,abstract,A,NULL
1737998324,d50233b7f52230f3cccf041f3085f436,PennController,15,0,test_conc,NULL,Selector,unnamed-Selector,Selection,concrete,1737997904388,undefined,1574,laughter,concrete-positive,concrete,abstract,A,concrete;abstract
1737998324,d50233b7f52230f3cccf041f3085f436,PennController,15,0,test_conc,NULL,PennController,26,_Trial_,End,1737997904390,undefined,1574,laughter,concrete-positive,concrete,abstract,A,NULL
1737998324,d50233b7f52230f3cccf041f3085f436,PennController,28,0,test_conc,NULL,PennController,39,_Trial_,Start,1737997904392,undefined,967,freedom,abstract-positive,concrete,abstract,A,NULL
1737998324,d50233b7f52230f3cccf041f3085f436,PennController,28,0,test_conc,NULL,PennController,39,_Header_,Start,1737997904392,undefined,967,freedom,abstract-positive,concrete,abstract,A,NULL
1737998324,d50233b7f52230f3cccf041f3085f436,PennController,28,0,test_conc,NULL,PennController,39,_Header_,End,1737997904642,undefined,967,freedom,abstract-positive,concrete,abstract,A,NULL
1737998324,d50233b7f52230f3cccf041f3085f436,PennController,28,0,test_conc,NULL,Selector,unnamed-Selector,Selection,abstract,1737997906111,undefined,967,freedom,abstract-positive,concrete,abstract,A,concrete;abstract
1737998324,d50233b7f52230f3cccf041f3085f436,PennController,28,0,test_conc,NULL,PennController,39,_Trial_,End,1737997906113,undefined,967,freedom,abstract-positive,concrete,abstract,A,NULL
1737998324,d50233b7f52230f3cccf041f3085f436,PennController,32,0,test_conc,NULL,PennController,43,_Trial_,Start,1737997906115,undefined,1061,gratitude,abstract-positive,concrete,abstract,A,NULL
1737998324,d50233b7f52230f3cccf041f3085f436,PennController,32,0,test_conc,NULL,PennController,43,_Header_,Start,1737997906115,undefined,1061,gratitude,abstract-positive,concrete,abstract,A,NULL
1737998324,d50233b7f52230f3cccf041f3085f436,PennController,32,0,test_conc,NULL,PennController,43,_Header_,End,1737997906367,undefined,1061,gratitude,abstract-positive,concrete,abstract,A,NULL
1737998324,d50233b7f52230f3cccf041f3085f436,PennController,32,0,test_conc,NULL,Selector,unnamed-Selector,Selection,abstract,1737997907931,undefined,1061,gratitude,abstract-positive,concrete,abstract,A,concrete;abstract
1737998324,d50233b7f52230f3cccf041f3085f436,PennController,32,0,test_conc,NULL,PennController,43,_Trial_,End,1737997907933,undefined,1061,gratitude,abstract-positive,concrete,abstract,A,NULL
1737998324,d50233b7f52230f3cccf041f3085f436,PennController,10,0,test_conc,NULL,PennController,21,_Trial_,Start,1737997907935,undefined,773,resentment,abstract-negative,concrete,abstract,A,NULL
1737998324,d50233b7f52230f3cccf041f3085f436,PennController,10,0,test_conc,NULL,PennController,21,_Header_,Start,1737997907935,undefined,773,resentment,abstract-negative,concrete,abstract,A,NULL
1737998324,d50233b7f52230f3cccf041f3085f436,PennController,10,0,test_conc,NULL,PennController,21,_Header_,End,1737997908187,undefined,773,resentment,abstract-negative,concrete,abstract,A,NULL
1737998324,d50233b7f52230f3cccf041f3085f436,PennController,10,0,test_conc,NULL,Selector,unnamed-Selector,Selection,abstract,1737997909462,undefined,773,resentment,abstract-negative,concrete,abstract,A,concrete;abstract
1737998324,d50233b7f52230f3cccf041f3085f436,PennController,10,0,test_conc,NULL,PennController,21,_Trial_,End,1737997909463,undefined,773,resentment,abstract-negative,concrete,abstract,A,NULL
1737998324,d50233b7f52230f3cccf041f3085f436,PennController,13,0,test_conc,NULL,PennController,24,_Trial_,Start,1737997909464,undefined,682,envy,abstract-negative,concrete,abstract,A,NULL
1737998324,d50233b7f52230f3cccf041f3085f436,PennController,13,0,test_conc,NULL,PennController,24,_Header_,Start,1737997909464,undefined,682,envy,abstract-negative,concrete,abstract,A,NULL
1737998324,d50233b7f52230f3cccf041f3085f436,PennController,13,0,test_conc,NULL,PennController,24,_Header_,End,1737997909715,undefined,682,envy,abstract-negative,concrete,abstract,A,NULL
1737998324,d50233b7f52230f3cccf041f3085f436,PennController,13,0,test_conc,NULL,Selector,unnamed-Selector,Selection,abstract,1737997910901,undefined,682,envy,abstract-negative,concrete,abstract,A,concrete;abstract
1737998324,d50233b7f52230f3cccf041f3085f436,PennController,13,0,test_conc,NULL,PennController,24,_Trial_,End,1737997910903,undefined,682,envy,abstract-negative,concrete,abstract,A,NULL
1737998324,d50233b7f52230f3cccf041f3085f436,PennController,33,0,test_conc,NULL,PennController,44,_Trial_,Start,1737997910904,undefined,801,inspiration,abstract-positive,concrete,abstract,A,NULL
1737998324,d50233b7f52230f3cccf041f3085f436,PennController,33,0,test_conc,NULL,PennController,44,_Header_,Start,1737997910904,undefined,801,inspiration,abstract-positive,concrete,abstract,A,NULL
1737998324,d50233b7f52230f3cccf041f3085f436,PennController,33,0,test_conc,NULL,PennController,44,_Header_,End,1737997911155,undefined,801,inspiration,abstract-positive,concrete,abstract,A,NULL
1737998324,d50233b7f52230f3cccf041f3085f436,PennController,33,0,test_conc,NULL,Selector,unnamed-Selector,Selection,abstract,1737997912460,undefined,801,inspiration,abstract-positive,concrete,abstract,A,concrete;abstract
1737998324,d50233b7f52230f3cccf041f3085f436,PennController,33,0,test_conc,NULL,PennController,44,_Trial_,End,1737997912462,undefined,801,inspiration,abstract-positive,concrete,abstract,A,NULL
1737998324,d50233b7f52230f3cccf041f3085f436,PennController,4,0,test_conc,NULL,PennController,15,_Trial_,Start,1737997912464,undefined,1220,lonliness,abstract-negative,concrete,abstract,A,NULL
1737998324,d50233b7f52230f3cccf041f3085f436,PennController,4,0,test_conc,NULL,PennController,15,_Header_,Start,1737997912464,undefined,1220,lonliness,abstract-negative,concrete,abstract,A,NULL
1737998324,d50233b7f52230f3cccf041f3085f436,PennController,4,0,test_conc,NULL,PennController,15,_Header_,End,1737997912716,undefined,1220,lonliness,abstract-negative,concrete,abstract,A,NULL
1737998324,d50233b7f52230f3cccf041f3085f436,PennController,4,0,test_conc,NULL,Selector,unnamed-Selector,Selection,abstract,1737997914436,undefined,1220,lonliness,abstract-negative,concrete,abstract,A,concrete;abstract
1737998324,d50233b7f52230f3cccf041f3085f436,PennController,4,0,test_conc,NULL,PennController,15,_Trial_,End,1737997914438,undefined,1220,lonliness,abstract-negative,concrete,abstract,A,NULL
1737998324,d50233b7f52230f3cccf041f3085f436,PennController,18,0,test_conc,NULL,PennController,29,_Trial_,Start,1737997914440,undefined,729,beach,concrete-positive,concrete,abstract,A,NULL
1737998324,d50233b7f52230f3cccf041f3085f436,PennController,18,0,test_conc,NULL,PennController,29,_Header_,Start,1737997914440,undefined,729,beach,concrete-positive,concrete,abstract,A,NULL
1737998324,d50233b7f52230f3cccf041f3085f436,PennController,18,0,test_conc,NULL,PennController,29,_Header_,End,1737997914690,undefined,729,beach,concrete-positive,concrete,abstract,A,NULL
1737998324,d50233b7f52230f3cccf041f3085f436,PennController,18,0,test_conc,NULL,Selector,unnamed-Selector,Selection,concrete,1737997915921,undefined,729,beach,concrete-positive,concrete,abstract,A,concrete;abstract
1737998324,d50233b7f52230f3cccf041f3085f436,PennController,18,0,test_conc,NULL,PennController,29,_Trial_,End,1737997915922,undefined,729,beach,concrete-positive,concrete,abstract,A,NULL
1737998324,d50233b7f52230f3cccf041f3085f436,PennController,5,0,test_conc,NULL,PennController,16,_Trial_,Start,1737997915923,undefined,626,regret,abstract-negative,concrete,abstract,A,NULL
1737998324,d50233b7f52230f3cccf041f3085f436,PennController,5,0,test_conc,NULL,PennController,16,_Header_,Start,1737997915923,undefined,626,regret,abstract-negative,concrete,abstract,A,NULL
1737998324,d50233b7f52230f3cccf041f3085f436,PennController,5,0,test_conc,NULL,PennController,16,_Header_,End,1737997916173,undefined,626,regret,abstract-negative,concrete,abstract,A,NULL
1737998324,d50233b7f52230f3cccf041f3085f436,PennController,5,0,test_conc,NULL,Selector,unnamed-Selector,Selection,abstract,1737997917302,undefined,626,regret,abstract-negative,concrete,abstract,A,concrete;abstract
1737998324,d50233b7f52230f3cccf041f3085f436,PennController,5,0,test_conc,NULL,PennController,16,_Trial_,End,1737997917302,undefined,626,regret,abstract-negative,concrete,abstract,A,NULL
1737998324,d50233b7f52230f3cccf041f3085f436,PennController,23,0,test_conc,NULL,PennController,34,_Trial_,Start,1737997917303,undefined,820,fireplace,concrete-positive,concrete,abstract,A,NULL
1737998324,d50233b7f52230f3cccf041f3085f436,PennController,23,0,test_conc,NULL,PennController,34,_Header_,Start,1737997917303,undefined,820,fireplace,concrete-positive,concrete,abstract,A,NULL
1737998324,d50233b7f52230f3cccf041f3085f436,PennController,23,0,test_conc,NULL,PennController,34,_Header_,End,1737997917555,undefined,820,fireplace,concrete-positive,concrete,abstract,A,NULL
1737998324,d50233b7f52230f3cccf041f3085f436,PennController,23,0,test_conc,NULL,Selector,unnamed-Selector,Selection,concrete,1737997918880,undefined,820,fireplace,concrete-positive,concrete,abstract,A,concrete;abstract
1737998324,d50233b7f52230f3cccf041f3085f436,PennController,23,0,test_conc,NULL,PennController,34,_Trial_,End,1737997918881,undefined,820,fireplace,concrete-positive,concrete,abstract,A,NULL
1737998324,d50233b7f52230f3cccf041f3085f436,PennController,40,0,test_conc,NULL,PennController,51,_Trial_,Start,1737997918881,undefined,939,mold,concrete-negative,concrete,abstract,A,NULL
1737998324,d50233b7f52230f3cccf041f3085f436,PennController,40,0,test_conc,NULL,PennController,51,_Header_,Start,1737997918881,undefined,939,mold,concrete-negative,concrete,abstract,A,NULL
1737998324,d50233b7f52230f3cccf041f3085f436,PennController,40,0,test_conc,NULL,PennController,51,_Header_,End,1737997919131,undefined,939,mold,concrete-negative,concrete,abstract,A,NULL
1737998324,d50233b7f52230f3cccf041f3085f436,PennController,40,0,test_conc,NULL,Selector,unnamed-Selector,Selection,concrete,1737997920575,undefined,939,mold,concrete-negative,concrete,abstract,A,concrete;abstract
1737998324,d50233b7f52230f3cccf041f3085f436,PennController,40,0,test_conc,NULL,PennController,51,_Trial_,End,1737997920575,undefined,939,mold,concrete-negative,concrete,abstract,A,NULL
1737998324,d50233b7f52230f3cccf041f3085f436,PennController,43,0,test_conc,NULL,PennController,54,_Trial_,Start,1737997920576,undefined,1021,filth,concrete-negative,concrete,abstract,A,NULL
1737998324,d50233b7f52230f3cccf041f3085f436,PennController,43,0,test_conc,NULL,PennController,54,_Header_,Start,1737997920576,undefined,1021,filth,concrete-negative,concrete,abstract,A,NULL
1737998324,d50233b7f52230f3cccf041f3085f436,PennController,43,0,test_conc,NULL,PennController,54,_Header_,End,1737997920826,undefined,1021,filth,concrete-negative,concrete,abstract,A,NULL
1737998324,d50233b7f52230f3cccf041f3085f436,PennController,43,0,test_conc,NULL,Selector,unnamed-Selector,Selection,concrete,1737997922351,undefined,1021,filth,concrete-negative,concrete,abstract,A,concrete;abstract
1737998324,d50233b7f52230f3cccf041f3085f436,PennController,43,0,test_conc,NULL,PennController,54,_Trial_,End,1737997922353,undefined,1021,filth,concrete-negative,concrete,abstract,A,NULL
1737998324,d50233b7f52230f3cccf041f3085f436,PennController,16,0,test_conc,NULL,PennController,27,_Trial_,Start,1737997922354,undefined,683,flowers,concrete-positive,concrete,abstract,A,NULL
1737998324,d50233b7f52230f3cccf041f3085f436,PennController,16,0,test_conc,NULL,PennController,27,_Header_,Start,1737997922354,undefined,683,flowers,concrete-positive,concrete,abstract,A,NULL
1737998324,d50233b7f52230f3cccf041f3085f436,PennController,16,0,test_conc,NULL,PennController,27,_Header_,End,1737997922608,undefined,683,flowers,concrete-positive,concrete,abstract,A,NULL
1737998324,d50233b7f52230f3cccf041f3085f436,PennController,16,0,test_conc,NULL,Selector,unnamed-Selector,Selection,concrete,1737997923795,undefined,683,flowers,concrete-positive,concrete,abstract,A,concrete;abstract
1737998324,d50233b7f52230f3cccf041f3085f436,PennController,16,0,test_conc,NULL,PennController,27,_Trial_,End,1737997923797,undefined,683,flowers,concrete-positive,concrete,abstract,A,NULL
1737998324,d50233b7f52230f3cccf041f3085f436,PennController,6,0,test_conc,NULL,PennController,17,_Trial_,Start,1737997923799,undefined,755,anxiety,abstract-negative,concrete,abstract,A,NULL
1737998324,d50233b7f52230f3cccf041f3085f436,PennController,6,0,test_conc,NULL,PennController,17,_Header_,Start,1737997923799,undefined,755,anxiety,abstract-negative,concrete,abstract,A,NULL
1737998324,d50233b7f52230f3cccf041f3085f436,PennController,6,0,test_conc,NULL,PennController,17,_Header_,End,1737997924049,undefined,755,anxiety,abstract-negative,concrete,abstract,A,NULL
1737998324,d50233b7f52230f3cccf041f3085f436,PennController,6,0,test_conc,NULL,Selector,unnamed-Selector,Selection,abstract,1737997925309,undefined,755,anxiety,abstract-negative,concrete,abstract,A,concrete;abstract
1737998324,d50233b7f52230f3cccf041f3085f436,PennController,6,0,test_conc,NULL,PennController,17,_Trial_,End,1737997925310,undefined,755,anxiety,abstract-negative,concrete,abstract,A,NULL
1737998324,d50233b7f52230f3cccf041f3085f436,PennController,7,0,test_conc,NULL,PennController,18,_Trial_,Start,1737997925313,undefined,596,despair,abstract-negative,concrete,abstract,A,NULL
1737998324,d50233b7f52230f3cccf041f3085f436,PennController,7,0,test_conc,NULL,PennController,18,_Header_,Start,1737997925313,undefined,596,despair,abstract-negative,concrete,abstract,A,NULL
1737998324,d50233b7f52230f3cccf041f3085f436,PennController,7,0,test_conc,NULL,PennController,18,_Header_,End,1737997925566,undefined,596,despair,abstract-negative,concrete,abstract,A,NULL
1737998324,d50233b7f52230f3cccf041f3085f436,PennController,7,0,test_conc,NULL,Selector,unnamed-Selector,Selection,abstract,1737997926666,undefined,596,despair,abstract-negative,concrete,abstract,A,concrete;abstract
1737998324,d50233b7f52230f3cccf041f3085f436,PennController,7,0,test_conc,NULL,PennController,18,_Trial_,End,1737997926666,undefined,596,despair,abstract-negative,concrete,abstract,A,NULL
1737998324,d50233b7f52230f3cccf041f3085f436,PennController,14,0,test_conc,NULL,PennController,25,_Trial_,Start,1737997926667,undefined,1460,sunshine,concrete-positive,concrete,abstract,A,NULL
1737998324,d50233b7f52230f3cccf041f3085f436,PennController,14,0,test_conc,NULL,PennController,25,_Header_,Start,1737997926667,undefined,1460,sunshine,concrete-positive,concrete,abstract,A,NULL
1737998324,d50233b7f52230f3cccf041f3085f436,PennController,14,0,test_conc,NULL,PennController,25,_Header_,End,1737997926921,undefined,1460,sunshine,concrete-positive,concrete,abstract,A,NULL
1737998324,d50233b7f52230f3cccf041f3085f436,PennController,14,0,test_conc,NULL,Selector,unnamed-Selector,Selection,abstract,1737997928885,undefined,1460,sunshine,concrete-positive,concrete,abstract,A,concrete;abstract
1737998324,d50233b7f52230f3cccf041f3085f436,PennController,14,0,test_conc,NULL,PennController,25,_Trial_,End,1737997928887,undefined,1460,sunshine,concrete-positive,concrete,abstract,A,NULL
1737998324,d50233b7f52230f3cccf041f3085f436,PennController,17,0,test_conc,NULL,PennController,28,_Trial_,Start,1737997928888,undefined,811,music,concrete-positive,concrete,abstract,A,NULL
1737998324,d50233b7f52230f3cccf041f3085f436,PennController,17,0,test_conc,NULL,PennController,28,_Header_,Start,1737997928888,undefined,811,music,concrete-positive,concrete,abstract,A,NULL
1737998324,d50233b7f52230f3cccf041f3085f436,PennController,17,0,test_conc,NULL,PennController,28,_Header_,End,1737997929142,undefined,811,music,concrete-positive,concrete,abstract,A,NULL
1737998324,d50233b7f52230f3cccf041f3085f436,PennController,17,0,test_conc,NULL,Selector,unnamed-Selector,Selection,abstract,1737997930455,undefined,811,music,concrete-positive,concrete,abstract,A,concrete;abstract
1737998324,d50233b7f52230f3cccf041f3085f436,PennController,17,0,test_conc,NULL,PennController,28,_Trial_,End,1737997930456,undefined,811,music,concrete-positive,concrete,abstract,A,NULL
1737998324,d50233b7f52230f3cccf041f3085f436,PennController,27,0,test_conc,NULL,PennController,38,_Trial_,Start,1737997930456,undefined,1334,peace,abstract-positive,concrete,abstract,A,NULL
1737998324,d50233b7f52230f3cccf041f3085f436,PennController,27,0,test_conc,NULL,PennController,38,_Header_,Start,1737997930456,undefined,1334,peace,abstract-positive,concrete,abstract,A,NULL
1737998324,d50233b7f52230f3cccf041f3085f436,PennController,27,0,test_conc,NULL,PennController,38,_Header_,End,1737997930710,undefined,1334,peace,abstract-positive,concrete,abstract,A,NULL
1737998324,d50233b7f52230f3cccf041f3085f436,PennController,27,0,test_conc,NULL,Selector,unnamed-Selector,Selection,abstract,1737997932551,undefined,1334,peace,abstract-positive,concrete,abstract,A,concrete;abstract
1737998324,d50233b7f52230f3cccf041f3085f436,PennController,27,0,test_conc,NULL,PennController,38,_Trial_,End,1737997932553,undefined,1334,peace,abstract-positive,concrete,abstract,A,NULL
1737998324,d50233b7f52230f3cccf041f3085f436,PennController,31,0,test_conc,NULL,PennController,42,_Trial_,Start,1737997932554,undefined,781,compassion,abstract-positive,concrete,abstract,A,NULL
1737998324,d50233b7f52230f3cccf041f3085f436,PennController,31,0,test_conc,NULL,PennController,42,_Header_,Start,1737997932554,undefined,781,compassion,abstract-positive,concrete,abstract,A,NULL
1737998324,d50233b7f52230f3cccf041f3085f436,PennController,31,0,test_conc,NULL,PennController,42,_Header_,End,1737997932807,undefined,781,compassion,abstract-positive,concrete,abstract,A,NULL
1737998324,d50233b7f52230f3cccf041f3085f436,PennController,31,0,test_conc,NULL,Selector,unnamed-Selector,Selection,abstract,1737997934093,undefined,781,compassion,abstract-positive,concrete,abstract,A,concrete;abstract
1737998324,d50233b7f52230f3cccf041f3085f436,PennController,31,0,test_conc,NULL,PennController,42,_Trial_,End,1737997934095,undefined,781,compassion,abstract-positive,concrete,abstract,A,NULL
1737998324,d50233b7f52230f3cccf041f3085f436,PennController,30,0,test_conc,NULL,PennController,41,_Trial_,Start,1737997934097,undefined,744,happiness,abstract-positive,concrete,abstract,A,NULL
1737998324,d50233b7f52230f3cccf041f3085f436,PennController,30,0,test_conc,NULL,PennController,41,_Header_,Start,1737997934097,undefined,744,happiness,abstract-positive,concrete,abstract,A,NULL
1737998324,d50233b7f52230f3cccf041f3085f436,PennController,30,0,test_conc,NULL,PennController,41,_Header_,End,1737997934347,undefined,744,happiness,abstract-positive,concrete,abstract,A,NULL
1737998324,d50233b7f52230f3cccf041f3085f436,PennController,30,0,test_conc,NULL,Selector,unnamed-Selector,Selection,abstract,1737997935595,undefined,744,happiness,abstract-positive,concrete,abstract,A,concrete;abstract
1737998324,d50233b7f52230f3cccf041f3085f436,PennController,30,0,test_conc,NULL,PennController,41,_Trial_,End,1737997935595,undefined,744,happiness,abstract-positive,concrete,abstract,A,NULL
1737998324,d50233b7f52230f3cccf041f3085f436,PennController,9,0,test_conc,NULL,PennController,20,_Trial_,Start,1737997935596,undefined,1197,grief,abstract-negative,concrete,abstract,A,NULL
1737998324,d50233b7f52230f3cccf041f3085f436,PennController,9,0,test_conc,NULL,PennController,20,_Header_,Start,1737997935596,undefined,1197,grief,abstract-negative,concrete,abstract,A,NULL
1737998324,d50233b7f52230f3cccf041f3085f436,PennController,9,0,test_conc,NULL,PennController,20,_Header_,End,1737997935846,undefined,1197,grief,abstract-negative,concrete,abstract,A,NULL
1737998324,d50233b7f52230f3cccf041f3085f436,PennController,9,0,test_conc,NULL,Selector,unnamed-Selector,Selection,abstract,1737997937549,undefined,1197,grief,abstract-negative,concrete,abstract,A,concrete;abstract
1737998324,d50233b7f52230f3cccf041f3085f436,PennController,9,0,test_conc,NULL,PennController,20,_Trial_,End,1737997937551,undefined,1197,grief,abstract-negative,concrete,abstract,A,NULL
1737998324,d50233b7f52230f3cccf041f3085f436,PennController,19,0,test_conc,NULL,PennController,30,_Trial_,Start,1737997937552,undefined,901,hug,concrete-positive,concrete,abstract,A,NULL
1737998324,d50233b7f52230f3cccf041f3085f436,PennController,19,0,test_conc,NULL,PennController,30,_Header_,Start,1737997937552,undefined,901,hug,concrete-positive,concrete,abstract,A,NULL
1737998324,d50233b7f52230f3cccf041f3085f436,PennController,19,0,test_conc,NULL,PennController,30,_Header_,End,1737997937805,undefined,901,hug,concrete-positive,concrete,abstract,A,NULL
1737998324,d50233b7f52230f3cccf041f3085f436,PennController,19,0,test_conc,NULL,Selector,unnamed-Selector,Selection,concrete,1737997939210,undefined,901,hug,concrete-positive,concrete,abstract,A,concrete;abstract
1737998324,d50233b7f52230f3cccf041f3085f436,PennController,19,0,test_conc,NULL,PennController,30,_Trial_,End,1737997939211,undefined,901,hug,concrete-positive,concrete,abstract,A,NULL
1737998324,d50233b7f52230f3cccf041f3085f436,PennController,22,0,test_conc,NULL,PennController,33,_Trial_,Start,1737997939212,undefined,626,chocolate,concrete-positive,concrete,abstract,A,NULL
1737998324,d50233b7f52230f3cccf041f3085f436,PennController,22,0,test_conc,NULL,PennController,33,_Header_,Start,1737997939212,undefined,626,chocolate,concrete-positive,concrete,abstract,A,NULL
1737998324,d50233b7f52230f3cccf041f3085f436,PennController,22,0,test_conc,NULL,PennController,33,_Header_,End,1737997939465,undefined,626,chocolate,concrete-positive,concrete,abstract,A,NULL
1737998324,d50233b7f52230f3cccf041f3085f436,PennController,22,0,test_conc,NULL,Selector,unnamed-Selector,Selection,concrete,1737997940594,undefined,626,chocolate,concrete-positive,concrete,abstract,A,concrete;abstract
1737998324,d50233b7f52230f3cccf041f3085f436,PennController,22,0,test_conc,NULL,PennController,33,_Trial_,End,1737997940594,undefined,626,chocolate,concrete-positive,concrete,abstract,A,NULL
1737998324,d50233b7f52230f3cccf041f3085f436,PennController,26,0,test_conc,NULL,PennController,37,_Trial_,Start,1737997940595,undefined,591,joy,abstract-positive,concrete,abstract,A,NULL
1737998324,d50233b7f52230f3cccf041f3085f436,PennController,26,0,test_conc,NULL,PennController,37,_Header_,Start,1737997940595,undefined,591,joy,abstract-positive,concrete,abstract,A,NULL
1737998324,d50233b7f52230f3cccf041f3085f436,PennController,26,0,test_conc,NULL,PennController,37,_Header_,End,1737997940846,undefined,591,joy,abstract-positive,concrete,abstract,A,NULL
1737998324,d50233b7f52230f3cccf041f3085f436,PennController,26,0,test_conc,NULL,Selector,unnamed-Selector,Selection,abstract,1737997941942,undefined,591,joy,abstract-positive,concrete,abstract,A,concrete;abstract
1737998324,d50233b7f52230f3cccf041f3085f436,PennController,26,0,test_conc,NULL,PennController,37,_Trial_,End,1737997941942,undefined,591,joy,abstract-positive,concrete,abstract,A,NULL
1737998324,d50233b7f52230f3cccf041f3085f436,PennController,35,0,test_conc,NULL,PennController,46,_Trial_,Start,1737997941943,undefined,963,rot,concrete-negative,concrete,abstract,A,NULL
1737998324,d50233b7f52230f3cccf041f3085f436,PennController,35,0,test_conc,NULL,PennController,46,_Header_,Start,1737997941943,undefined,963,rot,concrete-negative,concrete,abstract,A,NULL
1737998324,d50233b7f52230f3cccf041f3085f436,PennController,35,0,test_conc,NULL,PennController,46,_Header_,End,1737997942195,undefined,963,rot,concrete-negative,concrete,abstract,A,NULL
1737998324,d50233b7f52230f3cccf041f3085f436,PennController,35,0,test_conc,NULL,Selector,unnamed-Selector,Selection,abstract,1737997943665,undefined,963,rot,concrete-negative,concrete,abstract,A,concrete;abstract
1737998324,d50233b7f52230f3cccf041f3085f436,PennController,35,0,test_conc,NULL,PennController,46,_Trial_,End,1737997943667,undefined,963,rot,concrete-negative,concrete,abstract,A,NULL
1737998324,d50233b7f52230f3cccf041f3085f436,PennController,11,0,test_conc,NULL,PennController,22,_Trial_,Start,1737997943669,undefined,642,failure,abstract-negative,concrete,abstract,A,NULL
1737998324,d50233b7f52230f3cccf041f3085f436,PennController,11,0,test_conc,NULL,PennController,22,_Header_,Start,1737997943669,undefined,642,failure,abstract-negative,concrete,abstract,A,NULL
1737998324,d50233b7f52230f3cccf041f3085f436,PennController,11,0,test_conc,NULL,PennController,22,_Header_,End,1737997943920,undefined,642,failure,abstract-negative,concrete,abstract,A,NULL
1737998324,d50233b7f52230f3cccf041f3085f436,PennController,11,0,test_conc,NULL,Selector,unnamed-Selector,Selection,abstract,1737997945066,undefined,642,failure,abstract-negative,concrete,abstract,A,concrete;abstract
1737998324,d50233b7f52230f3cccf041f3085f436,PennController,11,0,test_conc,NULL,PennController,22,_Trial_,End,1737997945068,undefined,642,failure,abstract-negative,concrete,abstract,A,NULL
1737998324,d50233b7f52230f3cccf041f3085f436,PennController,37,0,test_conc,NULL,PennController,48,_Trial_,Start,1737997945069,undefined,851,vomit,concrete-negative,concrete,abstract,A,NULL
1737998324,d50233b7f52230f3cccf041f3085f436,PennController,37,0,test_conc,NULL,PennController,48,_Header_,Start,1737997945069,undefined,851,vomit,concrete-negative,concrete,abstract,A,NULL
1737998324,d50233b7f52230f3cccf041f3085f436,PennController,37,0,test_conc,NULL,PennController,48,_Header_,End,1737997945324,undefined,851,vomit,concrete-negative,concrete,abstract,A,NULL
1737998324,d50233b7f52230f3cccf041f3085f436,PennController,37,0,test_conc,NULL,Selector,unnamed-Selector,Selection,concrete,1737997946677,undefined,851,vomit,concrete-negative,concrete,abstract,A,concrete;abstract
1737998324,d50233b7f52230f3cccf041f3085f436,PennController,37,0,test_conc,NULL,PennController,48,_Trial_,End,1737997946679,undefined,851,vomit,concrete-negative,concrete,abstract,A,NULL
1737998324,d50233b7f52230f3cccf041f3085f436,PennController,36,0,test_conc,NULL,PennController,47,_Trial_,Start,1737997946681,undefined,597,mud,concrete-negative,concrete,abstract,A,NULL
1737998324,d50233b7f52230f3cccf041f3085f436,PennController,36,0,test_conc,NULL,PennController,47,_Header_,Start,1737997946681,undefined,597,mud,concrete-negative,concrete,abstract,A,NULL
1737998324,d50233b7f52230f3cccf041f3085f436,PennController,36,0,test_conc,NULL,PennController,47,_Header_,End,1737997946936,undefined,597,mud,concrete-negative,concrete,abstract,A,NULL
1737998324,d50233b7f52230f3cccf041f3085f436,PennController,36,0,test_conc,NULL,Selector,unnamed-Selector,Selection,concrete,1737997948036,undefined,597,mud,concrete-negative,concrete,abstract,A,concrete;abstract
1737998324,d50233b7f52230f3cccf041f3085f436,PennController,36,0,test_conc,NULL,PennController,47,_Trial_,End,1737997948038,undefined,597,mud,concrete-negative,concrete,abstract,A,NULL
1737998324,d50233b7f52230f3cccf041f3085f436,PennController,41,0,test_conc,NULL,PennController,52,_Trial_,Start,1737997948040,undefined,709,injury,concrete-negative,concrete,abstract,A,NULL
1737998324,d50233b7f52230f3cccf041f3085f436,PennController,41,0,test_conc,NULL,PennController,52,_Header_,Start,1737997948040,undefined,709,injury,concrete-negative,concrete,abstract,A,NULL
1737998324,d50233b7f52230f3cccf041f3085f436,PennController,41,0,test_conc,NULL,PennController,52,_Header_,End,1737997948293,undefined,709,injury,concrete-negative,concrete,abstract,A,NULL
1737998324,d50233b7f52230f3cccf041f3085f436,PennController,41,0,test_conc,NULL,Selector,unnamed-Selector,Selection,abstract,1737997949506,undefined,709,injury,concrete-negative,concrete,abstract,A,concrete;abstract
1737998324,d50233b7f52230f3cccf041f3085f436,PennController,41,0,test_conc,NULL,PennController,52,_Trial_,End,1737997949507,undefined,709,injury,concrete-negative,concrete,abstract,A,NULL
1737998324,d50233b7f52230f3cccf041f3085f436,PennController,42,0,test_conc,NULL,PennController,53,_Trial_,Start,1737997949509,undefined,1229,stench,concrete-negative,concrete,abstract,A,NULL
1737998324,d50233b7f52230f3cccf041f3085f436,PennController,42,0,test_conc,NULL,PennController,53,_Header_,Start,1737997949509,undefined,1229,stench,concrete-negative,concrete,abstract,A,NULL
1737998324,d50233b7f52230f3cccf041f3085f436,PennController,42,0,test_conc,NULL,PennController,53,_Header_,End,1737997949761,undefined,1229,stench,concrete-negative,concrete,abstract,A,NULL
1737998324,d50233b7f52230f3cccf041f3085f436,PennController,42,0,test_conc,NULL,Selector,unnamed-Selector,Selection,abstract,1737997951491,undefined,1229,stench,concrete-negative,concrete,abstract,A,concrete;abstract
1737998324,d50233b7f52230f3cccf041f3085f436,PennController,42,0,test_conc,NULL,PennController,53,_Trial_,End,1737997951493,undefined,1229,stench,concrete-negative,concrete,abstract,A,NULL
1737998324,d50233b7f52230f3cccf041f3085f436,PennController,38,0,test_conc,NULL,PennController,49,_Trial_,Start,1737997951494,undefined,932,garbage,concrete-negative,concrete,abstract,A,NULL
1737998324,d50233b7f52230f3cccf041f3085f436,PennController,38,0,test_conc,NULL,PennController,49,_Header_,Start,1737997951494,undefined,932,garbage,concrete-negative,concrete,abstract,A,NULL
1737998324,d50233b7f52230f3cccf041f3085f436,PennController,38,0,test_conc,NULL,PennController,49,_Header_,End,1737997951749,undefined,932,garbage,concrete-negative,concrete,abstract,A,NULL
1737998324,d50233b7f52230f3cccf041f3085f436,PennController,38,0,test_conc,NULL,Selector,unnamed-Selector,Selection,concrete,1737997953184,undefined,932,garbage,concrete-negative,concrete,abstract,A,concrete;abstract
1737998324,d50233b7f52230f3cccf041f3085f436,PennController,38,0,test_conc,NULL,PennController,49,_Trial_,End,1737997953186,undefined,932,garbage,concrete-negative,concrete,abstract,A,NULL
1737998324,d50233b7f52230f3cccf041f3085f436,PennController,39,0,test_conc,NULL,PennController,50,_Trial_,Start,1737997953187,undefined,736,rust,concrete-negative,concrete,abstract,A,NULL
1737998324,d50233b7f52230f3cccf041f3085f436,PennController,39,0,test_conc,NULL,PennController,50,_Header_,Start,1737997953187,undefined,736,rust,concrete-negative,concrete,abstract,A,NULL
1737998324,d50233b7f52230f3cccf041f3085f436,PennController,39,0,test_conc,NULL,PennController,50,_Header_,End,1737997953439,undefined,736,rust,concrete-negative,concrete,abstract,A,NULL
1737998324,d50233b7f52230f3cccf041f3085f436,PennController,39,0,test_conc,NULL,Selector,unnamed-Selector,Selection,concrete,1737997954678,undefined,736,rust,concrete-negative,concrete,abstract,A,concrete;abstract
1737998324,d50233b7f52230f3cccf041f3085f436,PennController,39,0,test_conc,NULL,PennController,50,_Trial_,End,1737997954680,undefined,736,rust,concrete-negative,concrete,abstract,A,NULL
1737998324,d50233b7f52230f3cccf041f3085f436,PennController,26,0,test_conc,NULL,PennController,37,_Trial_,Start,1737997954682,undefined,604,joy,abstract-positive,concrete,abstract,A,NULL
1737998324,d50233b7f52230f3cccf041f3085f436,PennController,26,0,test_conc,NULL,PennController,37,_Header_,Start,1737997954682,undefined,604,joy,abstract-positive,concrete,abstract,A,NULL
1737998324,d50233b7f52230f3cccf041f3085f436,PennController,26,0,test_conc,NULL,PennController,37,_Header_,End,1737997954932,undefined,604,joy,abstract-positive,concrete,abstract,A,NULL
1737998324,d50233b7f52230f3cccf041f3085f436,PennController,26,0,test_conc,NULL,Selector,unnamed-Selector,Selection,abstract,1737997956039,undefined,604,joy,abstract-positive,concrete,abstract,A,concrete;abstract
1737998324,d50233b7f52230f3cccf041f3085f436,PennController,26,0,test_conc,NULL,PennController,37,_Trial_,End,1737997956039,undefined,604,joy,abstract-positive,concrete,abstract,A,NULL
1737998324,d50233b7f52230f3cccf041f3085f436,PennController,14,0,test_conc,NULL,PennController,25,_Trial_,Start,1737997956040,undefined,947,sunshine,concrete-positive,concrete,abstract,A,NULL
1737998324,d50233b7f52230f3cccf041f3085f436,PennController,14,0,test_conc,NULL,PennController,25,_Header_,Start,1737997956040,undefined,947,sunshine,concrete-positive,concrete,abstract,A,NULL
1737998324,d50233b7f52230f3cccf041f3085f436,PennController,14,0,test_conc,NULL,PennController,25,_Header_,End,1737997956290,undefined,947,sunshine,concrete-positive,concrete,abstract,A,NULL
1737998324,d50233b7f52230f3cccf041f3085f436,PennController,14,0,test_conc,NULL,Selector,unnamed-Selector,Selection,abstract,1737997957741,undefined,947,sunshine,concrete-positive,concrete,abstract,A,concrete;abstract
1737998324,d50233b7f52230f3cccf041f3085f436,PennController,14,0,test_conc,NULL,PennController,25,_Trial_,End,1737997957743,undefined,947,sunshine,concrete-positive,concrete,abstract,A,NULL
1737998324,d50233b7f52230f3cccf041f3085f436,PennController,13,0,test_conc,NULL,PennController,24,_Trial_,Start,1737997957745,undefined,649,envy,abstract-negative,concrete,abstract,A,NULL
1737998324,d50233b7f52230f3cccf041f3085f436,PennController,13,0,test_conc,NULL,PennController,24,_Header_,Start,1737997957745,undefined,649,envy,abstract-negative,concrete,abstract,A,NULL
1737998324,d50233b7f52230f3cccf041f3085f436,PennController,13,0,test_conc,NULL,PennController,24,_Header_,End,1737997957998,undefined,649,envy,abstract-negative,concrete,abstract,A,NULL
1737998324,d50233b7f52230f3cccf041f3085f436,PennController,13,0,test_conc,NULL,Selector,unnamed-Selector,Selection,abstract,1737997959152,undefined,649,envy,abstract-negative,concrete,abstract,A,concrete;abstract
1737998324,d50233b7f52230f3cccf041f3085f436,PennController,13,0,test_conc,NULL,PennController,24,_Trial_,End,1737997959154,undefined,649,envy,abstract-negative,concrete,abstract,A,NULL
1737998324,d50233b7f52230f3cccf041f3085f436,PennController,39,0,test_conc,NULL,PennController,50,_Trial_,Start,1737997959156,undefined,1144,rust,concrete-negative,concrete,abstract,A,NULL
1737998324,d50233b7f52230f3cccf041f3085f436,PennController,39,0,test_conc,NULL,PennController,50,_Header_,Start,1737997959156,undefined,1144,rust,concrete-negative,concrete,abstract,A,NULL
1737998324,d50233b7f52230f3cccf041f3085f436,PennController,39,0,test_conc,NULL,PennController,50,_Header_,End,1737997959408,undefined,1144,rust,concrete-negative,concrete,abstract,A,NULL
1737998324,d50233b7f52230f3cccf041f3085f436,PennController,39,0,test_conc,NULL,Selector,unnamed-Selector,Selection,abstract,1737997961056,undefined,1144,rust,concrete-negative,concrete,abstract,A,concrete;abstract
1737998324,d50233b7f52230f3cccf041f3085f436,PennController,39,0,test_conc,NULL,PennController,50,_Trial_,End,1737997961058,undefined,1144,rust,concrete-negative,concrete,abstract,A,NULL
1737998324,d50233b7f52230f3cccf041f3085f436,PennController,12,0,test_conc,NULL,PennController,23,_Trial_,Start,1737997961059,undefined,684,shame,abstract-negative,concrete,abstract,A,NULL
1737998324,d50233b7f52230f3cccf041f3085f436,PennController,12,0,test_conc,NULL,PennController,23,_Header_,Start,1737997961059,undefined,684,shame,abstract-negative,concrete,abstract,A,NULL
1737998324,d50233b7f52230f3cccf041f3085f436,PennController,12,0,test_conc,NULL,PennController,23,_Header_,End,1737997961312,undefined,684,shame,abstract-negative,concrete,abstract,A,NULL
1737998324,d50233b7f52230f3cccf041f3085f436,PennController,12,0,test_conc,NULL,Selector,unnamed-Selector,Selection,abstract,1737997962498,undefined,684,shame,abstract-negative,concrete,abstract,A,concrete;abstract
1737998324,d50233b7f52230f3cccf041f3085f436,PennController,12,0,test_conc,NULL,PennController,23,_Trial_,End,1737997962498,undefined,684,shame,abstract-negative,concrete,abstract,A,NULL
1737998324,d50233b7f52230f3cccf041f3085f436,PennController,34,0,test_conc,NULL,PennController,45,_Trial_,Start,1737997962499,undefined,1342,smoke,concrete-negative,concrete,abstract,A,NULL
1737998324,d50233b7f52230f3cccf041f3085f436,PennController,34,0,test_conc,NULL,PennController,45,_Header_,Start,1737997962499,undefined,1342,smoke,concrete-negative,concrete,abstract,A,NULL
1737998324,d50233b7f52230f3cccf041f3085f436,PennController,34,0,test_conc,NULL,PennController,45,_Header_,End,1737997962751,undefined,1342,smoke,concrete-negative,concrete,abstract,A,NULL
1737998324,d50233b7f52230f3cccf041f3085f436,PennController,34,0,test_conc,NULL,Selector,unnamed-Selector,Selection,concrete,1737997964597,undefined,1342,smoke,concrete-negative,concrete,abstract,A,concrete;abstract
1737998324,d50233b7f52230f3cccf041f3085f436,PennController,34,0,test_conc,NULL,PennController,45,_Trial_,End,1737997964599,undefined,1342,smoke,concrete-negative,concrete,abstract,A,NULL
1737998324,d50233b7f52230f3cccf041f3085f436,PennController,4,0,test_conc,NULL,PennController,15,_Trial_,Start,1737997964601,undefined,636,lonliness,abstract-negative,concrete,abstract,A,NULL
1737998324,d50233b7f52230f3cccf041f3085f436,PennController,4,0,test_conc,NULL,PennController,15,_Header_,Start,1737997964601,undefined,636,lonliness,abstract-negative,concrete,abstract,A,NULL
1737998324,d50233b7f52230f3cccf041f3085f436,PennController,4,0,test_conc,NULL,PennController,15,_Header_,End,1737997964852,undefined,636,lonliness,abstract-negative,concrete,abstract,A,NULL
1737998324,d50233b7f52230f3cccf041f3085f436,PennController,4,0,test_conc,NULL,Selector,unnamed-Selector,Selection,abstract,1737997965989,undefined,636,lonliness,abstract-negative,concrete,abstract,A,concrete;abstract
1737998324,d50233b7f52230f3cccf041f3085f436,PennController,4,0,test_conc,NULL,PennController,15,_Trial_,End,1737997965991,undefined,636,lonliness,abstract-negative,concrete,abstract,A,NULL
1737998324,d50233b7f52230f3cccf041f3085f436,PennController,41,0,test_conc,NULL,PennController,52,_Trial_,Start,1737997965992,undefined,1898,injury,concrete-negative,concrete,abstract,A,NULL
1737998324,d50233b7f52230f3cccf041f3085f436,PennController,41,0,test_conc,NULL,PennController,52,_Header_,Start,1737997965992,undefined,1898,injury,concrete-negative,concrete,abstract,A,NULL
1737998324,d50233b7f52230f3cccf041f3085f436,PennController,41,0,test_conc,NULL,PennController,52,_Header_,End,1737997966246,undefined,1898,injury,concrete-negative,concrete,abstract,A,NULL
1737998324,d50233b7f52230f3cccf041f3085f436,PennController,41,0,test_conc,NULL,Selector,unnamed-Selector,Selection,abstract,1737997968646,undefined,1898,injury,concrete-negative,concrete,abstract,A,concrete;abstract
1737998324,d50233b7f52230f3cccf041f3085f436,PennController,41,0,test_conc,NULL,PennController,52,_Trial_,End,1737997968648,undefined,1898,injury,concrete-negative,concrete,abstract,A,NULL
1737998324,d50233b7f52230f3cccf041f3085f436,PennController,38,0,test_conc,NULL,PennController,49,_Trial_,Start,1737997968650,undefined,575,garbage,concrete-negative,concrete,abstract,A,NULL
1737998324,d50233b7f52230f3cccf041f3085f436,PennController,38,0,test_conc,NULL,PennController,49,_Header_,Start,1737997968650,undefined,575,garbage,concrete-negative,concrete,abstract,A,NULL
1737998324,d50233b7f52230f3cccf041f3085f436,PennController,38,0,test_conc,NULL,PennController,49,_Header_,End,1737997968900,undefined,575,garbage,concrete-negative,concrete,abstract,A,NULL
1737998324,d50233b7f52230f3cccf041f3085f436,PennController,38,0,test_conc,NULL,Selector,unnamed-Selector,Selection,concrete,1737997969977,undefined,575,garbage,concrete-negative,concrete,abstract,A,concrete;abstract
1737998324,d50233b7f52230f3cccf041f3085f436,PennController,38,0,test_conc,NULL,PennController,49,_Trial_,End,1737997969979,undefined,575,garbage,concrete-negative,concrete,abstract,A,NULL
1737998324,d50233b7f52230f3cccf041f3085f436,PennController,22,0,test_conc,NULL,PennController,33,_Trial_,Start,1737997969981,undefined,558,chocolate,concrete-positive,concrete,abstract,A,NULL
1737998324,d50233b7f52230f3cccf041f3085f436,PennController,22,0,test_conc,NULL,PennController,33,_Header_,Start,1737997969981,undefined,558,chocolate,concrete-positive,concrete,abstract,A,NULL
1737998324,d50233b7f52230f3cccf041f3085f436,PennController,22,0,test_conc,NULL,PennController,33,_Header_,End,1737997970233,undefined,558,chocolate,concrete-positive,concrete,abstract,A,NULL
1737998324,d50233b7f52230f3cccf041f3085f436,PennController,22,0,test_conc,NULL,Selector,unnamed-Selector,Selection,concrete,1737997971297,undefined,558,chocolate,concrete-positive,concrete,abstract,A,concrete;abstract
1737998324,d50233b7f52230f3cccf041f3085f436,PennController,22,0,test_conc,NULL,PennController,33,_Trial_,End,1737997971298,undefined,558,chocolate,concrete-positive,concrete,abstract,A,NULL
1737998324,d50233b7f52230f3cccf041f3085f436,PennController,18,0,test_conc,NULL,PennController,29,_Trial_,Start,1737997971298,undefined,556,beach,concrete-positive,concrete,abstract,A,NULL
1737998324,d50233b7f52230f3cccf041f3085f436,PennController,18,0,test_conc,NULL,PennController,29,_Header_,Start,1737997971298,undefined,556,beach,concrete-positive,concrete,abstract,A,NULL
1737998324,d50233b7f52230f3cccf041f3085f436,PennController,18,0,test_conc,NULL,PennController,29,_Header_,End,1737997971549,undefined,556,beach,concrete-positive,concrete,abstract,A,NULL
1737998324,d50233b7f52230f3cccf041f3085f436,PennController,18,0,test_conc,NULL,Selector,unnamed-Selector,Selection,concrete,1737997972609,undefined,556,beach,concrete-positive,concrete,abstract,A,concrete;abstract
1737998324,d50233b7f52230f3cccf041f3085f436,PennController,18,0,test_conc,NULL,PennController,29,_Trial_,End,1737997972610,undefined,556,beach,concrete-positive,concrete,abstract,A,NULL
1737998324,d50233b7f52230f3cccf041f3085f436,PennController,43,0,test_conc,NULL,PennController,54,_Trial_,Start,1737997972610,undefined,782,filth,concrete-negative,concrete,abstract,A,NULL
1737998324,d50233b7f52230f3cccf041f3085f436,PennController,43,0,test_conc,NULL,PennController,54,_Header_,Start,1737997972610,undefined,782,filth,concrete-negative,concrete,abstract,A,NULL
1737998324,d50233b7f52230f3cccf041f3085f436,PennController,43,0,test_conc,NULL,PennController,54,_Header_,End,1737997972862,undefined,782,filth,concrete-negative,concrete,abstract,A,NULL
1737998324,d50233b7f52230f3cccf041f3085f436,PennController,43,0,test_conc,NULL,Selector,unnamed-Selector,Selection,abstract,1737997974149,undefined,782,filth,concrete-negative,concrete,abstract,A,concrete;abstract
1737998324,d50233b7f52230f3cccf041f3085f436,PennController,43,0,test_conc,NULL,PennController,54,_Trial_,End,1737997974149,undefined,782,filth,concrete-negative,concrete,abstract,A,NULL
1737998324,d50233b7f52230f3cccf041f3085f436,PennController,15,0,test_conc,NULL,PennController,26,_Trial_,Start,1737997974150,undefined,1327,laughter,concrete-positive,concrete,abstract,A,NULL
1737998324,d50233b7f52230f3cccf041f3085f436,PennController,15,0,test_conc,NULL,PennController,26,_Header_,Start,1737997974150,undefined,1327,laughter,concrete-positive,concrete,abstract,A,NULL
1737998324,d50233b7f52230f3cccf041f3085f436,PennController,15,0,test_conc,NULL,PennController,26,_Header_,End,1737997974400,undefined,1327,laughter,concrete-positive,concrete,abstract,A,NULL
1737998324,d50233b7f52230f3cccf041f3085f436,PennController,15,0,test_conc,NULL,Selector,unnamed-Selector,Selection,abstract,1737997976232,undefined,1327,laughter,concrete-positive,concrete,abstract,A,concrete;abstract
1737998324,d50233b7f52230f3cccf041f3085f436,PennController,15,0,test_conc,NULL,PennController,26,_Trial_,End,1737997976232,undefined,1327,laughter,concrete-positive,concrete,abstract,A,NULL
1737998324,d50233b7f52230f3cccf041f3085f436,PennController,6,0,test_conc,NULL,PennController,17,_Trial_,Start,1737997976233,undefined,606,anxiety,abstract-negative,concrete,abstract,A,NULL
1737998324,d50233b7f52230f3cccf041f3085f436,PennController,6,0,test_conc,NULL,PennController,17,_Header_,Start,1737997976233,undefined,606,anxiety,abstract-negative,concrete,abstract,A,NULL
1737998324,d50233b7f52230f3cccf041f3085f436,PennController,6,0,test_conc,NULL,PennController,17,_Header_,End,1737997976487,undefined,606,anxiety,abstract-negative,concrete,abstract,A,NULL
1737998324,d50233b7f52230f3cccf041f3085f436,PennController,6,0,test_conc,NULL,Selector,unnamed-Selector,Selection,abstract,1737997977595,undefined,606,anxiety,abstract-negative,concrete,abstract,A,concrete;abstract
1737998324,d50233b7f52230f3cccf041f3085f436,PennController,6,0,test_conc,NULL,PennController,17,_Trial_,End,1737997977597,undefined,606,anxiety,abstract-negative,concrete,abstract,A,NULL
1737998324,d50233b7f52230f3cccf041f3085f436,PennController,35,0,test_conc,NULL,PennController,46,_Trial_,Start,1737997977599,undefined,2364,rot,concrete-negative,concrete,abstract,A,NULL
1737998324,d50233b7f52230f3cccf041f3085f436,PennController,35,0,test_conc,NULL,PennController,46,_Header_,Start,1737997977599,undefined,2364,rot,concrete-negative,concrete,abstract,A,NULL
1737998324,d50233b7f52230f3cccf041f3085f436,PennController,35,0,test_conc,NULL,PennController,46,_Header_,End,1737997977852,undefined,2364,rot,concrete-negative,concrete,abstract,A,NULL
1737998324,d50233b7f52230f3cccf041f3085f436,PennController,35,0,test_conc,NULL,Selector,unnamed-Selector,Selection,abstract,1737997980718,undefined,2364,rot,concrete-negative,concrete,abstract,A,concrete;abstract
1737998324,d50233b7f52230f3cccf041f3085f436,PennController,35,0,test_conc,NULL,PennController,46,_Trial_,End,1737997980719,undefined,2364,rot,concrete-negative,concrete,abstract,A,NULL
1737998324,d50233b7f52230f3cccf041f3085f436,PennController,7,0,test_conc,NULL,PennController,18,_Trial_,Start,1737997980719,undefined,630,despair,abstract-negative,concrete,abstract,A,NULL
1737998324,d50233b7f52230f3cccf041f3085f436,PennController,7,0,test_conc,NULL,PennController,18,_Header_,Start,1737997980719,undefined,630,despair,abstract-negative,concrete,abstract,A,NULL
1737998324,d50233b7f52230f3cccf041f3085f436,PennController,7,0,test_conc,NULL,PennController,18,_Header_,End,1737997980970,undefined,630,despair,abstract-negative,concrete,abstract,A,NULL
1737998324,d50233b7f52230f3cccf041f3085f436,PennController,7,0,test_conc,NULL,Selector,unnamed-Selector,Selection,abstract,1737997982101,undefined,630,despair,abstract-negative,concrete,abstract,A,concrete;abstract
1737998324,d50233b7f52230f3cccf041f3085f436,PennController,7,0,test_conc,NULL,PennController,18,_Trial_,End,1737997982103,undefined,630,despair,abstract-negative,concrete,abstract,A,NULL
1737998324,d50233b7f52230f3cccf041f3085f436,PennController,25,0,test_conc,NULL,PennController,36,_Trial_,Start,1737997982105,undefined,629,hope,abstract-positive,concrete,abstract,A,NULL
1737998324,d50233b7f52230f3cccf041f3085f436,PennController,25,0,test_conc,NULL,PennController,36,_Header_,Start,1737997982105,undefined,629,hope,abstract-positive,concrete,abstract,A,NULL
1737998324,d50233b7f52230f3cccf041f3085f436,PennController,25,0,test_conc,NULL,PennController,36,_Header_,End,1737997982356,undefined,629,hope,abstract-positive,concrete,abstract,A,NULL
1737998324,d50233b7f52230f3cccf041f3085f436,PennController,25,0,test_conc,NULL,Selector,unnamed-Selector,Selection,abstract,1737997983487,undefined,629,hope,abstract-positive,concrete,abstract,A,concrete;abstract
1737998324,d50233b7f52230f3cccf041f3085f436,PennController,25,0,test_conc,NULL,PennController,36,_Trial_,End,1737997983489,undefined,629,hope,abstract-positive,concrete,abstract,A,NULL
1737998324,d50233b7f52230f3cccf041f3085f436,PennController,31,0,test_conc,NULL,PennController,42,_Trial_,Start,1737997983490,undefined,554,compassion,abstract-positive,concrete,abstract,A,NULL
1737998324,d50233b7f52230f3cccf041f3085f436,PennController,31,0,test_conc,NULL,PennController,42,_Header_,Start,1737997983490,undefined,554,compassion,abstract-positive,concrete,abstract,A,NULL
1737998324,d50233b7f52230f3cccf041f3085f436,PennController,31,0,test_conc,NULL,PennController,42,_Header_,End,1737997983744,undefined,554,compassion,abstract-positive,concrete,abstract,A,NULL
1737998324,d50233b7f52230f3cccf041f3085f436,PennController,31,0,test_conc,NULL,Selector,unnamed-Selector,Selection,abstract,1737997984799,undefined,554,compassion,abstract-positive,concrete,abstract,A,concrete;abstract
1737998324,d50233b7f52230f3cccf041f3085f436,PennController,31,0,test_conc,NULL,PennController,42,_Trial_,End,1737997984801,undefined,554,compassion,abstract-positive,concrete,abstract,A,NULL
1737998324,d50233b7f52230f3cccf041f3085f436,PennController,37,0,test_conc,NULL,PennController,48,_Trial_,Start,1737997984803,undefined,661,vomit,concrete-negative,concrete,abstract,A,NULL
1737998324,d50233b7f52230f3cccf041f3085f436,PennController,37,0,test_conc,NULL,PennController,48,_Header_,Start,1737997984803,undefined,661,vomit,concrete-negative,concrete,abstract,A,NULL
1737998324,d50233b7f52230f3cccf041f3085f436,PennController,37,0,test_conc,NULL,PennController,48,_Header_,End,1737997985057,undefined,661,vomit,concrete-negative,concrete,abstract,A,NULL
1737998324,d50233b7f52230f3cccf041f3085f436,PennController,37,0,test_conc,NULL,Selector,unnamed-Selector,Selection,concrete,1737997986223,undefined,661,vomit,concrete-negative,concrete,abstract,A,concrete;abstract
1737998324,d50233b7f52230f3cccf041f3085f436,PennController,37,0,test_conc,NULL,PennController,48,_Trial_,End,1737997986225,undefined,661,vomit,concrete-negative,concrete,abstract,A,NULL
1737998324,d50233b7f52230f3cccf041f3085f436,PennController,32,0,test_conc,NULL,PennController,43,_Trial_,Start,1737997986226,undefined,650,gratitude,abstract-positive,concrete,abstract,A,NULL
1737998324,d50233b7f52230f3cccf041f3085f436,PennController,32,0,test_conc,NULL,PennController,43,_Header_,Start,1737997986226,undefined,650,gratitude,abstract-positive,concrete,abstract,A,NULL
1737998324,d50233b7f52230f3cccf041f3085f436,PennController,32,0,test_conc,NULL,PennController,43,_Header_,End,1737997986478,undefined,650,gratitude,abstract-positive,concrete,abstract,A,NULL
1737998324,d50233b7f52230f3cccf041f3085f436,PennController,32,0,test_conc,NULL,Selector,unnamed-Selector,Selection,abstract,1737997987629,undefined,650,gratitude,abstract-positive,concrete,abstract,A,concrete;abstract
1737998324,d50233b7f52230f3cccf041f3085f436,PennController,32,0,test_conc,NULL,PennController,43,_Trial_,End,1737997987631,undefined,650,gratitude,abstract-positive,concrete,abstract,A,NULL
1737998324,d50233b7f52230f3cccf041f3085f436,PennController,10,0,test_conc,NULL,PennController,21,_Trial_,Start,1737997987633,undefined,573,resentment,abstract-negative,concrete,abstract,A,NULL
1737998324,d50233b7f52230f3cccf041f3085f436,PennController,10,0,test_conc,NULL,PennController,21,_Header_,Start,1737997987633,undefined,573,resentment,abstract-negative,concrete,abstract,A,NULL
1737998324,d50233b7f52230f3cccf041f3085f436,PennController,10,0,test_conc,NULL,PennController,21,_Header_,End,1737997987884,undefined,573,resentment,abstract-negative,concrete,abstract,A,NULL
1737998324,d50233b7f52230f3cccf041f3085f436,PennController,10,0,test_conc,NULL,Selector,unnamed-Selector,Selection,abstract,1737997988958,undefined,573,resentment,abstract-negative,concrete,abstract,A,concrete;abstract
1737998324,d50233b7f52230f3cccf041f3085f436,PennController,10,0,test_conc,NULL,PennController,21,_Trial_,End,1737997988960,undefined,573,resentment,abstract-negative,concrete,abstract,A,NULL
1737998324,d50233b7f52230f3cccf041f3085f436,PennController,9,0,test_conc,NULL,PennController,20,_Trial_,Start,1737997988962,undefined,534,grief,abstract-negative,concrete,abstract,A,NULL
1737998324,d50233b7f52230f3cccf041f3085f436,PennController,9,0,test_conc,NULL,PennController,20,_Header_,Start,1737997988962,undefined,534,grief,abstract-negative,concrete,abstract,A,NULL
1737998324,d50233b7f52230f3cccf041f3085f436,PennController,9,0,test_conc,NULL,PennController,20,_Header_,End,1737997989213,undefined,534,grief,abstract-negative,concrete,abstract,A,NULL
1737998324,d50233b7f52230f3cccf041f3085f436,PennController,9,0,test_conc,NULL,Selector,unnamed-Selector,Selection,abstract,1737997990250,undefined,534,grief,abstract-negative,concrete,abstract,A,concrete;abstract
1737998324,d50233b7f52230f3cccf041f3085f436,PennController,9,0,test_conc,NULL,PennController,20,_Trial_,End,1737997990250,undefined,534,grief,abstract-negative,concrete,abstract,A,NULL
1737998324,d50233b7f52230f3cccf041f3085f436,PennController,8,0,test_conc,NULL,PennController,19,_Trial_,Start,1737997990251,undefined,511,guilt,abstract-negative,concrete,abstract,A,NULL
1737998324,d50233b7f52230f3cccf041f3085f436,PennController,8,0,test_conc,NULL,PennController,19,_Header_,Start,1737997990251,undefined,511,guilt,abstract-negative,concrete,abstract,A,NULL
1737998324,d50233b7f52230f3cccf041f3085f436,PennController,8,0,test_conc,NULL,PennController,19,_Header_,End,1737997990503,undefined,511,guilt,abstract-negative,concrete,abstract,A,NULL
1737998324,d50233b7f52230f3cccf041f3085f436,PennController,8,0,test_conc,NULL,Selector,unnamed-Selector,Selection,abstract,1737997991516,undefined,511,guilt,abstract-negative,concrete,abstract,A,concrete;abstract
1737998324,d50233b7f52230f3cccf041f3085f436,PennController,8,0,test_conc,NULL,PennController,19,_Trial_,End,1737997991518,undefined,511,guilt,abstract-negative,concrete,abstract,A,NULL
1737998324,d50233b7f52230f3cccf041f3085f436,PennController,27,0,test_conc,NULL,PennController,38,_Trial_,Start,1737997991520,undefined,677,peace,abstract-positive,concrete,abstract,A,NULL
1737998324,d50233b7f52230f3cccf041f3085f436,PennController,27,0,test_conc,NULL,PennController,38,_Header_,Start,1737997991520,undefined,677,peace,abstract-positive,concrete,abstract,A,NULL
1737998324,d50233b7f52230f3cccf041f3085f436,PennController,27,0,test_conc,NULL,PennController,38,_Header_,End,1737997991773,undefined,677,peace,abstract-positive,concrete,abstract,A,NULL
1737998324,d50233b7f52230f3cccf041f3085f436,PennController,27,0,test_conc,NULL,Selector,unnamed-Selector,Selection,abstract,1737997992956,undefined,677,peace,abstract-positive,concrete,abstract,A,concrete;abstract
1737998324,d50233b7f52230f3cccf041f3085f436,PennController,27,0,test_conc,NULL,PennController,38,_Trial_,End,1737997992958,undefined,677,peace,abstract-positive,concrete,abstract,A,NULL
1737998324,d50233b7f52230f3cccf041f3085f436,PennController,23,0,test_conc,NULL,PennController,34,_Trial_,Start,1737997992960,undefined,610,fireplace,concrete-positive,concrete,abstract,A,NULL
1737998324,d50233b7f52230f3cccf041f3085f436,PennController,23,0,test_conc,NULL,PennController,34,_Header_,Start,1737997992960,undefined,610,fireplace,concrete-positive,concrete,abstract,A,NULL
1737998324,d50233b7f52230f3cccf041f3085f436,PennController,23,0,test_conc,NULL,PennController,34,_Header_,End,1737997993213,undefined,610,fireplace,concrete-positive,concrete,abstract,A,NULL
1737998324,d50233b7f52230f3cccf041f3085f436,PennController,23,0,test_conc,NULL,Selector,unnamed-Selector,Selection,concrete,1737997994326,undefined,610,fireplace,concrete-positive,concrete,abstract,A,concrete;abstract
1737998324,d50233b7f52230f3cccf041f3085f436,PennController,23,0,test_conc,NULL,PennController,34,_Trial_,End,1737997994326,undefined,610,fireplace,concrete-positive,concrete,abstract,A,NULL
1737998324,d50233b7f52230f3cccf041f3085f436,PennController,30,0,test_conc,NULL,PennController,41,_Trial_,Start,1737997994327,undefined,593,happiness,abstract-positive,concrete,abstract,A,NULL
1737998324,d50233b7f52230f3cccf041f3085f436,PennController,30,0,test_conc,NULL,PennController,41,_Header_,Start,1737997994327,undefined,593,happiness,abstract-positive,concrete,abstract,A,NULL
1737998324,d50233b7f52230f3cccf041f3085f436,PennController,30,0,test_conc,NULL,PennController,41,_Header_,End,1737997994581,undefined,593,happiness,abstract-positive,concrete,abstract,A,NULL
1737998324,d50233b7f52230f3cccf041f3085f436,PennController,30,0,test_conc,NULL,Selector,unnamed-Selector,Selection,abstract,1737997995682,undefined,593,happiness,abstract-positive,concrete,abstract,A,concrete;abstract
1737998324,d50233b7f52230f3cccf041f3085f436,PennController,30,0,test_conc,NULL,PennController,41,_Trial_,End,1737997995682,undefined,593,happiness,abstract-positive,concrete,abstract,A,NULL
1737998324,d50233b7f52230f3cccf041f3085f436,PennController,24,0,test_conc,NULL,PennController,35,_Trial_,Start,1737997995683,undefined,522,love,abstract-positive,concrete,abstract,A,NULL
1737998324,d50233b7f52230f3cccf041f3085f436,PennController,24,0,test_conc,NULL,PennController,35,_Header_,Start,1737997995683,undefined,522,love,abstract-positive,concrete,abstract,A,NULL
1737998324,d50233b7f52230f3cccf041f3085f436,PennController,24,0,test_conc,NULL,PennController,35,_Header_,End,1737997995933,undefined,522,love,abstract-positive,concrete,abstract,A,NULL
1737998324,d50233b7f52230f3cccf041f3085f436,PennController,24,0,test_conc,NULL,Selector,unnamed-Selector,Selection,abstract,1737997996958,undefined,522,love,abstract-positive,concrete,abstract,A,concrete;abstract
1737998324,d50233b7f52230f3cccf041f3085f436,PennController,24,0,test_conc,NULL,PennController,35,_Trial_,End,1737997996960,undefined,522,love,abstract-positive,concrete,abstract,A,NULL
1737998324,d50233b7f52230f3cccf041f3085f436,PennController,36,0,test_conc,NULL,PennController,47,_Trial_,Start,1737997996962,undefined,869,mud,concrete-negative,concrete,abstract,A,NULL
1737998324,d50233b7f52230f3cccf041f3085f436,PennController,36,0,test_conc,NULL,PennController,47,_Header_,Start,1737997996962,undefined,869,mud,concrete-negative,concrete,abstract,A,NULL
1737998324,d50233b7f52230f3cccf041f3085f436,PennController,36,0,test_conc,NULL,PennController,47,_Header_,End,1737997997214,undefined,869,mud,concrete-negative,concrete,abstract,A,NULL
1737998324,d50233b7f52230f3cccf041f3085f436,PennController,36,0,test_conc,NULL,Selector,unnamed-Selector,Selection,concrete,1737997998589,undefined,869,mud,concrete-negative,concrete,abstract,A,concrete;abstract
1737998324,d50233b7f52230f3cccf041f3085f436,PennController,36,0,test_conc,NULL,PennController,47,_Trial_,End,1737997998591,undefined,869,mud,concrete-negative,concrete,abstract,A,NULL
1737998324,d50233b7f52230f3cccf041f3085f436,PennController,17,0,test_conc,NULL,PennController,28,_Trial_,Start,1737997998592,undefined,791,music,concrete-positive,concrete,abstract,A,NULL
1737998324,d50233b7f52230f3cccf041f3085f436,PennController,17,0,test_conc,NULL,PennController,28,_Header_,Start,1737997998592,undefined,791,music,concrete-positive,concrete,abstract,A,NULL
1737998324,d50233b7f52230f3cccf041f3085f436,PennController,17,0,test_conc,NULL,PennController,28,_Header_,End,1737997998844,undefined,791,music,concrete-positive,concrete,abstract,A,NULL
1737998324,d50233b7f52230f3cccf041f3085f436,PennController,17,0,test_conc,NULL,Selector,unnamed-Selector,Selection,abstract,1737998000139,undefined,791,music,concrete-positive,concrete,abstract,A,concrete;abstract
1737998324,d50233b7f52230f3cccf041f3085f436,PennController,17,0,test_conc,NULL,PennController,28,_Trial_,End,1737998000141,undefined,791,music,concrete-positive,concrete,abstract,A,NULL
1737998324,d50233b7f52230f3cccf041f3085f436,PennController,19,0,test_conc,NULL,PennController,30,_Trial_,Start,1737998000142,undefined,675,hug,concrete-positive,concrete,abstract,A,NULL
1737998324,d50233b7f52230f3cccf041f3085f436,PennController,19,0,test_conc,NULL,PennController,30,_Header_,Start,1737998000142,undefined,675,hug,concrete-positive,concrete,abstract,A,NULL
1737998324,d50233b7f52230f3cccf041f3085f436,PennController,19,0,test_conc,NULL,PennController,30,_Header_,End,1737998000396,undefined,675,hug,concrete-positive,concrete,abstract,A,NULL
1737998324,d50233b7f52230f3cccf041f3085f436,PennController,19,0,test_conc,NULL,Selector,unnamed-Selector,Selection,concrete,1737998001577,undefined,675,hug,concrete-positive,concrete,abstract,A,concrete;abstract
1737998324,d50233b7f52230f3cccf041f3085f436,PennController,19,0,test_conc,NULL,PennController,30,_Trial_,End,1737998001579,undefined,675,hug,concrete-positive,concrete,abstract,A,NULL
1737998324,d50233b7f52230f3cccf041f3085f436,PennController,29,0,test_conc,NULL,PennController,40,_Trial_,Start,1737998001580,undefined,607,kindness,abstract-positive,concrete,abstract,A,NULL
1737998324,d50233b7f52230f3cccf041f3085f436,PennController,29,0,test_conc,NULL,PennController,40,_Header_,Start,1737998001580,undefined,607,kindness,abstract-positive,concrete,abstract,A,NULL
1737998324,d50233b7f52230f3cccf041f3085f436,PennController,29,0,test_conc,NULL,PennController,40,_Header_,End,1737998001834,undefined,607,kindness,abstract-positive,concrete,abstract,A,NULL
1737998324,d50233b7f52230f3cccf041f3085f436,PennController,29,0,test_conc,NULL,Selector,unnamed-Selector,Selection,abstract,1737998002948,undefined,607,kindness,abstract-positive,concrete,abstract,A,concrete;abstract
1737998324,d50233b7f52230f3cccf041f3085f436,PennController,29,0,test_conc,NULL,PennController,40,_Trial_,End,1737998002948,undefined,607,kindness,abstract-positive,concrete,abstract,A,NULL
1737998324,d50233b7f52230f3cccf041f3085f436,PennController,16,0,test_conc,NULL,PennController,27,_Trial_,Start,1737998002949,undefined,558,flowers,concrete-positive,concrete,abstract,A,NULL
1737998324,d50233b7f52230f3cccf041f3085f436,PennController,16,0,test_conc,NULL,PennController,27,_Header_,Start,1737998002949,undefined,558,flowers,concrete-positive,concrete,abstract,A,NULL
1737998324,d50233b7f52230f3cccf041f3085f436,PennController,16,0,test_conc,NULL,PennController,27,_Header_,End,1737998003202,undefined,558,flowers,concrete-positive,concrete,abstract,A,NULL
1737998324,d50233b7f52230f3cccf041f3085f436,PennController,16,0,test_conc,NULL,Selector,unnamed-Selector,Selection,concrete,1737998004261,undefined,558,flowers,concrete-positive,concrete,abstract,A,concrete;abstract
1737998324,d50233b7f52230f3cccf041f3085f436,PennController,16,0,test_conc,NULL,PennController,27,_Trial_,End,1737998004261,undefined,558,flowers,concrete-positive,concrete,abstract,A,NULL
1737998324,d50233b7f52230f3cccf041f3085f436,PennController,40,0,test_conc,NULL,PennController,51,_Trial_,Start,1737998004262,undefined,1250,mold,concrete-negative,concrete,abstract,A,NULL
1737998324,d50233b7f52230f3cccf041f3085f436,PennController,40,0,test_conc,NULL,PennController,51,_Header_,Start,1737998004262,undefined,1250,mold,concrete-negative,concrete,abstract,A,NULL
1737998324,d50233b7f52230f3cccf041f3085f436,PennController,40,0,test_conc,NULL,PennController,51,_Header_,End,1737998004514,undefined,1250,mold,concrete-negative,concrete,abstract,A,NULL
1737998324,d50233b7f52230f3cccf041f3085f436,PennController,40,0,test_conc,NULL,Selector,unnamed-Selector,Selection,abstract,1737998006268,undefined,1250,mold,concrete-negative,concrete,abstract,A,concrete;abstract
1737998324,d50233b7f52230f3cccf041f3085f436,PennController,40,0,test_conc,NULL,PennController,51,_Trial_,End,1737998006268,undefined,1250,mold,concrete-negative,concrete,abstract,A,NULL
1737998324,d50233b7f52230f3cccf041f3085f436,PennController,42,0,test_conc,NULL,PennController,53,_Trial_,Start,1737998006269,undefined,967,stench,concrete-negative,concrete,abstract,A,NULL
1737998324,d50233b7f52230f3cccf041f3085f436,PennController,42,0,test_conc,NULL,PennController,53,_Header_,Start,1737998006269,undefined,967,stench,concrete-negative,concrete,abstract,A,NULL
1737998324,d50233b7f52230f3cccf041f3085f436,PennController,42,0,test_conc,NULL,PennController,53,_Header_,End,1737998006523,undefined,967,stench,concrete-negative,concrete,abstract,A,NULL
1737998324,d50233b7f52230f3cccf041f3085f436,PennController,42,0,test_conc,NULL,Selector,unnamed-Selector,Selection,abstract,1737998007993,undefined,967,stench,concrete-negative,concrete,abstract,A,concrete;abstract
1737998324,d50233b7f52230f3cccf041f3085f436,PennController,42,0,test_conc,NULL,PennController,53,_Trial_,End,1737998007995,undefined,967,stench,concrete-negative,concrete,abstract,A,NULL
1737998324,d50233b7f52230f3cccf041f3085f436,PennController,33,0,test_conc,NULL,PennController,44,_Trial_,Start,1737998007996,undefined,562,inspiration,abstract-positive,concrete,abstract,A,NULL
1737998324,d50233b7f52230f3cccf041f3085f436,PennController,33,0,test_conc,NULL,PennController,44,_Header_,Start,1737998007996,undefined,562,inspiration,abstract-positive,concrete,abstract,A,NULL
1737998324,d50233b7f52230f3cccf041f3085f436,PennController,33,0,test_conc,NULL,PennController,44,_Header_,End,1737998008248,undefined,562,inspiration,abstract-positive,concrete,abstract,A,NULL
1737998324,d50233b7f52230f3cccf041f3085f436,PennController,33,0,test_conc,NULL,Selector,unnamed-Selector,Selection,abstract,1737998009314,undefined,562,inspiration,abstract-positive,concrete,abstract,A,concrete;abstract
1737998324,d50233b7f52230f3cccf041f3085f436,PennController,33,0,test_conc,NULL,PennController,44,_Trial_,End,1737998009315,undefined,562,inspiration,abstract-positive,concrete,abstract,A,NULL
1737998324,d50233b7f52230f3cccf041f3085f436,PennController,5,0,test_conc,NULL,PennController,16,_Trial_,Start,1737998009315,undefined,574,regret,abstract-negative,concrete,abstract,A,NULL
1737998324,d50233b7f52230f3cccf041f3085f436,PennController,5,0,test_conc,NULL,PennController,16,_Header_,Start,1737998009315,undefined,574,regret,abstract-negative,concrete,abstract,A,NULL
1737998324,d50233b7f52230f3cccf041f3085f436,PennController,5,0,test_conc,NULL,PennController,16,_Header_,End,1737998009567,undefined,574,regret,abstract-negative,concrete,abstract,A,NULL
1737998324,d50233b7f52230f3cccf041f3085f436,PennController,5,0,test_conc,NULL,Selector,unnamed-Selector,Selection,abstract,1737998010644,undefined,574,regret,abstract-negative,concrete,abstract,A,concrete;abstract
1737998324,d50233b7f52230f3cccf041f3085f436,PennController,5,0,test_conc,NULL,PennController,16,_Trial_,End,1737998010646,undefined,574,regret,abstract-negative,concrete,abstract,A,NULL
1737998324,d50233b7f52230f3cccf041f3085f436,PennController,28,0,test_conc,NULL,PennController,39,_Trial_,Start,1737998010647,undefined,591,freedom,abstract-positive,concrete,abstract,A,NULL
1737998324,d50233b7f52230f3cccf041f3085f436,PennController,28,0,test_conc,NULL,PennController,39,_Header_,Start,1737998010647,undefined,591,freedom,abstract-positive,concrete,abstract,A,NULL
1737998324,d50233b7f52230f3cccf041f3085f436,PennController,28,0,test_conc,NULL,PennController,39,_Header_,End,1737998010901,undefined,591,freedom,abstract-positive,concrete,abstract,A,NULL
1737998324,d50233b7f52230f3cccf041f3085f436,PennController,28,0,test_conc,NULL,Selector,unnamed-Selector,Selection,abstract,1737998011992,undefined,591,freedom,abstract-positive,concrete,abstract,A,concrete;abstract
