#
# Results on Wed, 05 Feb 2025 13:51:56 GMT
# USER AGENT: Mozilla/5.0 (Windows NT 10.0; Win64; x64) AppleWebKit/537.36 (KHTML, like Gecko) Chrome/131.0.0.0 Safari/537.36
# Design number was non-random = 0
#
# Columns below this comment are as follows:
# 1. Results reception time.
# 2. MD5 hash of participant's IP address.
# 3. Controller name.
# 4. Order number of item.
# 5. Inner element number.
# 6. Label.
# 7. Latin Square Group.
# 8. PennElementType.
# 9. PennElementName.
# 10. Parameter.
# 11. Value.
# 12. EventTime.
# 13. Comments.
1738763516,7d781a844946c7d9c391022451656bb8,PennController,1,0,welcome,NULL,PennController,0,_Trial_,Start,1738762961793,NULL
1738763516,7d781a844946c7d9c391022451656bb8,PennController,1,0,welcome,NULL,PennController,0,_Header_,Start,1738762961793,NULL
1738763516,7d781a844946c7d9c391022451656bb8,PennController,1,0,welcome,NULL,PennController,0,_Header_,End,1738762962047,NULL
1738763516,7d781a844946c7d9c391022451656bb8,PennController,1,0,welcome,NULL,PennController,0,_Trial_,End,1738762963285,NULL
# 13. ID.
# 14. Comments.
1738763516,7d781a844946c7d9c391022451656bb8,PennController,124,0,consent,NULL,PennController,2,_Trial_,Start,1738762963287,558ab509fdf99b65685f024e,NULL
1738763516,7d781a844946c7d9c391022451656bb8,PennController,124,0,consent,NULL,PennController,2,_Header_,Start,1738762963287,558ab509fdf99b65685f024e,NULL
1738763516,7d781a844946c7d9c391022451656bb8,PennController,124,0,consent,NULL,PennController,2,_Header_,End,1738762963539,558ab509fdf99b65685f024e,NULL
1738763516,7d781a844946c7d9c391022451656bb8,PennController,124,0,consent,NULL,TextInput,ID,Final,558ab509fdf99b65685f024e,1738762967925,558ab509fdf99b65685f024e,NULL
1738763516,7d781a844946c7d9c391022451656bb8,PennController,124,0,consent,NULL,TextInput,ID,First,,1738762965333,558ab509fdf99b65685f024e,Control
1738763516,7d781a844946c7d9c391022451656bb8,PennController,124,0,consent,NULL,PennController,2,_Trial_,End,1738762967925,558ab509fdf99b65685f024e,NULL
# 13. Comments.
1738763516,7d781a844946c7d9c391022451656bb8,PennController,126,0,instructions1_val,NULL,PennController,4,_Trial_,Start,1738762967925,NULL
1738763516,7d781a844946c7d9c391022451656bb8,PennController,126,0,instructions1_val,NULL,PennController,4,_Header_,Start,1738762967925,NULL
1738763516,7d781a844946c7d9c391022451656bb8,PennController,126,0,instructions1_val,NULL,PennController,4,_Header_,End,1738762968176,NULL
1738763516,7d781a844946c7d9c391022451656bb8,PennController,126,0,instructions1_val,NULL,PennController,4,_Trial_,End,1738762969260,NULL
1738763516,7d781a844946c7d9c391022451656bb8,PennController,127,0,instructions2_val,NULL,PennController,5,_Trial_,Start,1738762969260,NULL
1738763516,7d781a844946c7d9c391022451656bb8,PennController,127,0,instructions2_val,NULL,PennController,5,_Header_,Start,1738762969260,NULL
1738763516,7d781a844946c7d9c391022451656bb8,PennController,127,0,instructions2_val,NULL,PennController,5,_Header_,End,1738762969512,NULL
1738763516,7d781a844946c7d9c391022451656bb8,PennController,127,0,instructions2_val,NULL,PennController,5,_Trial_,End,1738762970381,NULL
1738763516,7d781a844946c7d9c391022451656bb8,PennController,128,0,instructions3_hands,NULL,PennController,6,_Trial_,Start,1738762970381,NULL
1738763516,7d781a844946c7d9c391022451656bb8,PennController,128,0,instructions3_hands,NULL,PennController,6,_Header_,Start,1738762970381,NULL
1738763516,7d781a844946c7d9c391022451656bb8,PennController,128,0,instructions3_hands,NULL,PennController,6,_Header_,End,1738762970632,NULL
1738763516,7d781a844946c7d9c391022451656bb8,PennController,128,0,instructions3_hands,NULL,PennController,6,_Trial_,End,1738762973054,NULL
1738763516,7d781a844946c7d9c391022451656bb8,PennController,129,0,practice_intro_val,NULL,PennController,7,_Trial_,Start,1738762973055,NULL
1738763516,7d781a844946c7d9c391022451656bb8,PennController,129,0,practice_intro_val,NULL,PennController,7,_Header_,Start,1738762973055,NULL
1738763516,7d781a844946c7d9c391022451656bb8,PennController,129,0,practice_intro_val,NULL,PennController,7,_Header_,End,1738762973307,NULL
1738763516,7d781a844946c7d9c391022451656bb8,PennController,129,0,practice_intro_val,NULL,PennController,7,_Trial_,End,1738762974303,NULL
# 13. ID.
# 14. ReactionTime.
# 15. Word.
# 16. selectedKey.
# 17. selectedValue.
# 18. Key_value_F.
# 19. Key_value_J.
# 20. Group.
# 21. Comments.
1738763516,7d781a844946c7d9c391022451656bb8,PennController,112,0,calibrator_val_feedback,NULL,PennController,123,_Trial_,Start,1738762974304,undefined,1729,joke,undefined,negative,positive,negative,A,NULL
1738763516,7d781a844946c7d9c391022451656bb8,PennController,112,0,calibrator_val_feedback,NULL,PennController,123,_Header_,Start,1738762974304,undefined,1729,joke,undefined,negative,positive,negative,A,NULL
1738763516,7d781a844946c7d9c391022451656bb8,PennController,112,0,calibrator_val_feedback,NULL,PennController,123,_Header_,End,1738762974556,undefined,1729,joke,undefined,negative,positive,negative,A,NULL
1738763516,7d781a844946c7d9c391022451656bb8,PennController,112,0,calibrator_val_feedback,NULL,Selector,Selection,Selection,positive,1738762976787,undefined,1729,joke,undefined,negative,positive,negative,A,positive;negative
1738763516,7d781a844946c7d9c391022451656bb8,PennController,112,0,calibrator_val_feedback,NULL,PennController,123,_Trial_,End,1738762978791,undefined,1729,joke,undefined,negative,positive,negative,A,NULL
1738763516,7d781a844946c7d9c391022451656bb8,PennController,113,0,calibrator_val_feedback,NULL,PennController,124,_Trial_,Start,1738762978791,undefined,825,kitten,undefined,negative,positive,negative,A,NULL
1738763516,7d781a844946c7d9c391022451656bb8,PennController,113,0,calibrator_val_feedback,NULL,PennController,124,_Header_,Start,1738762978791,undefined,825,kitten,undefined,negative,positive,negative,A,NULL
1738763516,7d781a844946c7d9c391022451656bb8,PennController,113,0,calibrator_val_feedback,NULL,PennController,124,_Header_,End,1738762979047,undefined,825,kitten,undefined,negative,positive,negative,A,NULL
1738763516,7d781a844946c7d9c391022451656bb8,PennController,113,0,calibrator_val_feedback,NULL,Selector,Selection,Selection,positive,1738762980372,undefined,825,kitten,undefined,negative,positive,negative,A,positive;negative
1738763516,7d781a844946c7d9c391022451656bb8,PennController,113,0,calibrator_val_feedback,NULL,PennController,124,_Trial_,End,1738762982376,undefined,825,kitten,undefined,negative,positive,negative,A,NULL
1738763516,7d781a844946c7d9c391022451656bb8,PennController,105,0,calibrator_val_feedback,NULL,PennController,116,_Trial_,Start,1738762982377,undefined,958,grin,undefined,negative,positive,negative,A,NULL
1738763516,7d781a844946c7d9c391022451656bb8,PennController,105,0,calibrator_val_feedback,NULL,PennController,116,_Header_,Start,1738762982377,undefined,958,grin,undefined,negative,positive,negative,A,NULL
1738763516,7d781a844946c7d9c391022451656bb8,PennController,105,0,calibrator_val_feedback,NULL,PennController,116,_Header_,End,1738762982629,undefined,958,grin,undefined,negative,positive,negative,A,NULL
1738763516,7d781a844946c7d9c391022451656bb8,PennController,105,0,calibrator_val_feedback,NULL,Selector,Selection,Selection,positive,1738762984092,undefined,958,grin,undefined,negative,positive,negative,A,positive;negative
1738763516,7d781a844946c7d9c391022451656bb8,PennController,105,0,calibrator_val_feedback,NULL,PennController,116,_Trial_,End,1738762986096,undefined,958,grin,undefined,negative,positive,negative,A,NULL
1738763516,7d781a844946c7d9c391022451656bb8,PennController,104,0,calibrator_val_feedback,NULL,PennController,115,_Trial_,Start,1738762986098,undefined,952,free,undefined,negative,positive,negative,A,NULL
1738763516,7d781a844946c7d9c391022451656bb8,PennController,104,0,calibrator_val_feedback,NULL,PennController,115,_Header_,Start,1738762986098,undefined,952,free,undefined,negative,positive,negative,A,NULL
1738763516,7d781a844946c7d9c391022451656bb8,PennController,104,0,calibrator_val_feedback,NULL,PennController,115,_Header_,End,1738762986348,undefined,952,free,undefined,negative,positive,negative,A,NULL
1738763516,7d781a844946c7d9c391022451656bb8,PennController,104,0,calibrator_val_feedback,NULL,Selector,Selection,Selection,positive,1738762987805,undefined,952,free,undefined,negative,positive,negative,A,positive;negative
1738763516,7d781a844946c7d9c391022451656bb8,PennController,104,0,calibrator_val_feedback,NULL,PennController,115,_Trial_,End,1738762989812,undefined,952,free,undefined,negative,positive,negative,A,NULL
1738763516,7d781a844946c7d9c391022451656bb8,PennController,110,0,calibrator_val_feedback,NULL,PennController,121,_Trial_,Start,1738762989814,undefined,1043,invader,undefined,negative,positive,negative,A,NULL
1738763516,7d781a844946c7d9c391022451656bb8,PennController,110,0,calibrator_val_feedback,NULL,PennController,121,_Header_,Start,1738762989814,undefined,1043,invader,undefined,negative,positive,negative,A,NULL
1738763516,7d781a844946c7d9c391022451656bb8,PennController,110,0,calibrator_val_feedback,NULL,PennController,121,_Header_,End,1738762990065,undefined,1043,invader,undefined,negative,positive,negative,A,NULL
1738763516,7d781a844946c7d9c391022451656bb8,PennController,110,0,calibrator_val_feedback,NULL,Selector,Selection,Selection,negative,1738762991613,undefined,1043,invader,undefined,negative,positive,negative,A,positive;negative
1738763516,7d781a844946c7d9c391022451656bb8,PennController,110,0,calibrator_val_feedback,NULL,PennController,121,_Trial_,End,1738762993616,undefined,1043,invader,undefined,negative,positive,negative,A,NULL
1738763516,7d781a844946c7d9c391022451656bb8,PennController,109,0,calibrator_val_feedback,NULL,PennController,120,_Trial_,Start,1738762993618,undefined,672,insecure,undefined,negative,positive,negative,A,NULL
1738763516,7d781a844946c7d9c391022451656bb8,PennController,109,0,calibrator_val_feedback,NULL,PennController,120,_Header_,Start,1738762993618,undefined,672,insecure,undefined,negative,positive,negative,A,NULL
1738763516,7d781a844946c7d9c391022451656bb8,PennController,109,0,calibrator_val_feedback,NULL,PennController,120,_Header_,End,1738762993868,undefined,672,insecure,undefined,negative,positive,negative,A,NULL
1738763516,7d781a844946c7d9c391022451656bb8,PennController,109,0,calibrator_val_feedback,NULL,Selector,Selection,Selection,negative,1738762995044,undefined,672,insecure,undefined,negative,positive,negative,A,positive;negative
1738763516,7d781a844946c7d9c391022451656bb8,PennController,109,0,calibrator_val_feedback,NULL,PennController,120,_Trial_,End,1738762997050,undefined,672,insecure,undefined,negative,positive,negative,A,NULL
1738763516,7d781a844946c7d9c391022451656bb8,PennController,108,0,calibrator_val_feedback,NULL,PennController,119,_Trial_,Start,1738762997051,undefined,830,industry,undefined,negative,positive,negative,A,NULL
1738763516,7d781a844946c7d9c391022451656bb8,PennController,108,0,calibrator_val_feedback,NULL,PennController,119,_Header_,Start,1738762997051,undefined,830,industry,undefined,negative,positive,negative,A,NULL
1738763516,7d781a844946c7d9c391022451656bb8,PennController,108,0,calibrator_val_feedback,NULL,PennController,119,_Header_,End,1738762997302,undefined,830,industry,undefined,negative,positive,negative,A,NULL
1738763516,7d781a844946c7d9c391022451656bb8,PennController,108,0,calibrator_val_feedback,NULL,Selector,Selection,Selection,positive,1738762998636,undefined,830,industry,undefined,negative,positive,negative,A,positive;negative
1738763516,7d781a844946c7d9c391022451656bb8,PennController,108,0,calibrator_val_feedback,NULL,PennController,119,_Trial_,End,1738763000641,undefined,830,industry,undefined,negative,positive,negative,A,NULL
1738763516,7d781a844946c7d9c391022451656bb8,PennController,106,0,calibrator_val_feedback,NULL,PennController,117,_Trial_,Start,1738763000642,undefined,1264,hat,undefined,negative,positive,negative,A,NULL
1738763516,7d781a844946c7d9c391022451656bb8,PennController,106,0,calibrator_val_feedback,NULL,PennController,117,_Header_,Start,1738763000642,undefined,1264,hat,undefined,negative,positive,negative,A,NULL
1738763516,7d781a844946c7d9c391022451656bb8,PennController,106,0,calibrator_val_feedback,NULL,PennController,117,_Header_,End,1738763000896,undefined,1264,hat,undefined,negative,positive,negative,A,NULL
1738763516,7d781a844946c7d9c391022451656bb8,PennController,106,0,calibrator_val_feedback,NULL,Selector,Selection,Selection,positive,1738763002661,undefined,1264,hat,undefined,negative,positive,negative,A,positive;negative
1738763516,7d781a844946c7d9c391022451656bb8,PennController,106,0,calibrator_val_feedback,NULL,PennController,117,_Trial_,End,1738763004668,undefined,1264,hat,undefined,negative,positive,negative,A,NULL
1738763516,7d781a844946c7d9c391022451656bb8,PennController,111,0,calibrator_val_feedback,NULL,PennController,122,_Trial_,Start,1738763004669,undefined,764,jail,undefined,negative,positive,negative,A,NULL
1738763516,7d781a844946c7d9c391022451656bb8,PennController,111,0,calibrator_val_feedback,NULL,PennController,122,_Header_,Start,1738763004669,undefined,764,jail,undefined,negative,positive,negative,A,NULL
1738763516,7d781a844946c7d9c391022451656bb8,PennController,111,0,calibrator_val_feedback,NULL,PennController,122,_Header_,End,1738763004923,undefined,764,jail,undefined,negative,positive,negative,A,NULL
1738763516,7d781a844946c7d9c391022451656bb8,PennController,111,0,calibrator_val_feedback,NULL,Selector,Selection,Selection,negative,1738763006188,undefined,764,jail,undefined,negative,positive,negative,A,positive;negative
1738763516,7d781a844946c7d9c391022451656bb8,PennController,111,0,calibrator_val_feedback,NULL,PennController,122,_Trial_,End,1738763008195,undefined,764,jail,undefined,negative,positive,negative,A,NULL
1738763516,7d781a844946c7d9c391022451656bb8,PennController,107,0,calibrator_val_feedback,NULL,PennController,118,_Trial_,Start,1738763008196,undefined,889,icebox,undefined,negative,positive,negative,A,NULL
1738763516,7d781a844946c7d9c391022451656bb8,PennController,107,0,calibrator_val_feedback,NULL,PennController,118,_Header_,Start,1738763008196,undefined,889,icebox,undefined,negative,positive,negative,A,NULL
1738763516,7d781a844946c7d9c391022451656bb8,PennController,107,0,calibrator_val_feedback,NULL,PennController,118,_Header_,End,1738763008447,undefined,889,icebox,undefined,negative,positive,negative,A,NULL
1738763516,7d781a844946c7d9c391022451656bb8,PennController,107,0,calibrator_val_feedback,NULL,Selector,Selection,Selection,positive,1738763009838,undefined,889,icebox,undefined,negative,positive,negative,A,positive;negative
1738763516,7d781a844946c7d9c391022451656bb8,PennController,107,0,calibrator_val_feedback,NULL,PennController,118,_Trial_,End,1738763011841,undefined,889,icebox,undefined,negative,positive,negative,A,NULL
# 16. Key_value_F.
# 17. Key_value_J.
# 18. Group.
# 19. Comments.
1738763516,7d781a844946c7d9c391022451656bb8,PennController,115,0,calibrator_val_no_feedback,NULL,PennController,126,_Trial_,Start,1738763011842,undefined,949,grin,positive,negative,A,NULL
1738763516,7d781a844946c7d9c391022451656bb8,PennController,115,0,calibrator_val_no_feedback,NULL,PennController,126,_Header_,Start,1738763011842,undefined,949,grin,positive,negative,A,NULL
1738763516,7d781a844946c7d9c391022451656bb8,PennController,115,0,calibrator_val_no_feedback,NULL,PennController,126,_Header_,End,1738763012096,undefined,949,grin,positive,negative,A,NULL
1738763516,7d781a844946c7d9c391022451656bb8,PennController,115,0,calibrator_val_no_feedback,NULL,Selector,unnamed-Selector,Selection,positive,1738763013548,undefined,949,grin,positive,negative,A,positive;negative
1738763516,7d781a844946c7d9c391022451656bb8,PennController,115,0,calibrator_val_no_feedback,NULL,PennController,126,_Trial_,End,1738763013550,undefined,949,grin,positive,negative,A,NULL
1738763516,7d781a844946c7d9c391022451656bb8,PennController,123,0,calibrator_val_no_feedback,NULL,PennController,134,_Trial_,Start,1738763013551,undefined,867,kitten,positive,negative,A,NULL
1738763516,7d781a844946c7d9c391022451656bb8,PennController,123,0,calibrator_val_no_feedback,NULL,PennController,134,_Header_,Start,1738763013551,undefined,867,kitten,positive,negative,A,NULL
1738763516,7d781a844946c7d9c391022451656bb8,PennController,123,0,calibrator_val_no_feedback,NULL,PennController,134,_Header_,End,1738763013804,undefined,867,kitten,positive,negative,A,NULL
1738763516,7d781a844946c7d9c391022451656bb8,PennController,123,0,calibrator_val_no_feedback,NULL,Selector,unnamed-Selector,Selection,positive,1738763015172,undefined,867,kitten,positive,negative,A,positive;negative
1738763516,7d781a844946c7d9c391022451656bb8,PennController,123,0,calibrator_val_no_feedback,NULL,PennController,134,_Trial_,End,1738763015173,undefined,867,kitten,positive,negative,A,NULL
1738763516,7d781a844946c7d9c391022451656bb8,PennController,114,0,calibrator_val_no_feedback,NULL,PennController,125,_Trial_,Start,1738763015174,undefined,898,free,positive,negative,A,NULL
1738763516,7d781a844946c7d9c391022451656bb8,PennController,114,0,calibrator_val_no_feedback,NULL,PennController,125,_Header_,Start,1738763015174,undefined,898,free,positive,negative,A,NULL
1738763516,7d781a844946c7d9c391022451656bb8,PennController,114,0,calibrator_val_no_feedback,NULL,PennController,125,_Header_,End,1738763015427,undefined,898,free,positive,negative,A,NULL
1738763516,7d781a844946c7d9c391022451656bb8,PennController,114,0,calibrator_val_no_feedback,NULL,Selector,unnamed-Selector,Selection,positive,1738763016827,undefined,898,free,positive,negative,A,positive;negative
1738763516,7d781a844946c7d9c391022451656bb8,PennController,114,0,calibrator_val_no_feedback,NULL,PennController,125,_Trial_,End,1738763016828,undefined,898,free,positive,negative,A,NULL
1738763516,7d781a844946c7d9c391022451656bb8,PennController,120,0,calibrator_val_no_feedback,NULL,PennController,131,_Trial_,Start,1738763016829,undefined,1003,invader,positive,negative,A,NULL
1738763516,7d781a844946c7d9c391022451656bb8,PennController,120,0,calibrator_val_no_feedback,NULL,PennController,131,_Header_,Start,1738763016829,undefined,1003,invader,positive,negative,A,NULL
1738763516,7d781a844946c7d9c391022451656bb8,PennController,120,0,calibrator_val_no_feedback,NULL,PennController,131,_Header_,End,1738763017081,undefined,1003,invader,positive,negative,A,NULL
1738763516,7d781a844946c7d9c391022451656bb8,PennController,120,0,calibrator_val_no_feedback,NULL,Selector,unnamed-Selector,Selection,negative,1738763018589,undefined,1003,invader,positive,negative,A,positive;negative
1738763516,7d781a844946c7d9c391022451656bb8,PennController,120,0,calibrator_val_no_feedback,NULL,PennController,131,_Trial_,End,1738763018590,undefined,1003,invader,positive,negative,A,NULL
1738763516,7d781a844946c7d9c391022451656bb8,PennController,117,0,calibrator_val_no_feedback,NULL,PennController,128,_Trial_,Start,1738763018591,undefined,824,icebox,positive,negative,A,NULL
1738763516,7d781a844946c7d9c391022451656bb8,PennController,117,0,calibrator_val_no_feedback,NULL,PennController,128,_Header_,Start,1738763018591,undefined,824,icebox,positive,negative,A,NULL
1738763516,7d781a844946c7d9c391022451656bb8,PennController,117,0,calibrator_val_no_feedback,NULL,PennController,128,_Header_,End,1738763018843,undefined,824,icebox,positive,negative,A,NULL
1738763516,7d781a844946c7d9c391022451656bb8,PennController,117,0,calibrator_val_no_feedback,NULL,Selector,unnamed-Selector,Selection,positive,1738763020172,undefined,824,icebox,positive,negative,A,positive;negative
1738763516,7d781a844946c7d9c391022451656bb8,PennController,117,0,calibrator_val_no_feedback,NULL,PennController,128,_Trial_,End,1738763020174,undefined,824,icebox,positive,negative,A,NULL
1738763516,7d781a844946c7d9c391022451656bb8,PennController,119,0,calibrator_val_no_feedback,NULL,PennController,130,_Trial_,Start,1738763020175,undefined,768,insecure,positive,negative,A,NULL
1738763516,7d781a844946c7d9c391022451656bb8,PennController,119,0,calibrator_val_no_feedback,NULL,PennController,130,_Header_,Start,1738763020175,undefined,768,insecure,positive,negative,A,NULL
1738763516,7d781a844946c7d9c391022451656bb8,PennController,119,0,calibrator_val_no_feedback,NULL,PennController,130,_Header_,End,1738763020427,undefined,768,insecure,positive,negative,A,NULL
1738763516,7d781a844946c7d9c391022451656bb8,PennController,119,0,calibrator_val_no_feedback,NULL,Selector,unnamed-Selector,Selection,negative,1738763021700,undefined,768,insecure,positive,negative,A,positive;negative
1738763516,7d781a844946c7d9c391022451656bb8,PennController,119,0,calibrator_val_no_feedback,NULL,PennController,130,_Trial_,End,1738763021701,undefined,768,insecure,positive,negative,A,NULL
1738763516,7d781a844946c7d9c391022451656bb8,PennController,122,0,calibrator_val_no_feedback,NULL,PennController,133,_Trial_,Start,1738763021702,undefined,922,joke,positive,negative,A,NULL
1738763516,7d781a844946c7d9c391022451656bb8,PennController,122,0,calibrator_val_no_feedback,NULL,PennController,133,_Header_,Start,1738763021702,undefined,922,joke,positive,negative,A,NULL
1738763516,7d781a844946c7d9c391022451656bb8,PennController,122,0,calibrator_val_no_feedback,NULL,PennController,133,_Header_,End,1738763021954,undefined,922,joke,positive,negative,A,NULL
1738763516,7d781a844946c7d9c391022451656bb8,PennController,122,0,calibrator_val_no_feedback,NULL,Selector,unnamed-Selector,Selection,positive,1738763023381,undefined,922,joke,positive,negative,A,positive;negative
1738763516,7d781a844946c7d9c391022451656bb8,PennController,122,0,calibrator_val_no_feedback,NULL,PennController,133,_Trial_,End,1738763023382,undefined,922,joke,positive,negative,A,NULL
1738763516,7d781a844946c7d9c391022451656bb8,PennController,121,0,calibrator_val_no_feedback,NULL,PennController,132,_Trial_,Start,1738763023383,undefined,684,jail,positive,negative,A,NULL
1738763516,7d781a844946c7d9c391022451656bb8,PennController,121,0,calibrator_val_no_feedback,NULL,PennController,132,_Header_,Start,1738763023383,undefined,684,jail,positive,negative,A,NULL
1738763516,7d781a844946c7d9c391022451656bb8,PennController,121,0,calibrator_val_no_feedback,NULL,PennController,132,_Header_,End,1738763023637,undefined,684,jail,positive,negative,A,NULL
1738763516,7d781a844946c7d9c391022451656bb8,PennController,121,0,calibrator_val_no_feedback,NULL,Selector,unnamed-Selector,Selection,negative,1738763024827,undefined,684,jail,positive,negative,A,positive;negative
1738763516,7d781a844946c7d9c391022451656bb8,PennController,121,0,calibrator_val_no_feedback,NULL,PennController,132,_Trial_,End,1738763024827,undefined,684,jail,positive,negative,A,NULL
1738763516,7d781a844946c7d9c391022451656bb8,PennController,116,0,calibrator_val_no_feedback,NULL,PennController,127,_Trial_,Start,1738763024828,undefined,923,hat,positive,negative,A,NULL
1738763516,7d781a844946c7d9c391022451656bb8,PennController,116,0,calibrator_val_no_feedback,NULL,PennController,127,_Header_,Start,1738763024828,undefined,923,hat,positive,negative,A,NULL
1738763516,7d781a844946c7d9c391022451656bb8,PennController,116,0,calibrator_val_no_feedback,NULL,PennController,127,_Header_,End,1738763025082,undefined,923,hat,positive,negative,A,NULL
1738763516,7d781a844946c7d9c391022451656bb8,PennController,116,0,calibrator_val_no_feedback,NULL,Selector,unnamed-Selector,Selection,positive,1738763026508,undefined,923,hat,positive,negative,A,positive;negative
1738763516,7d781a844946c7d9c391022451656bb8,PennController,116,0,calibrator_val_no_feedback,NULL,PennController,127,_Trial_,End,1738763026509,undefined,923,hat,positive,negative,A,NULL
1738763516,7d781a844946c7d9c391022451656bb8,PennController,118,0,calibrator_val_no_feedback,NULL,PennController,129,_Trial_,Start,1738763026510,undefined,2418,industry,positive,negative,A,NULL
1738763516,7d781a844946c7d9c391022451656bb8,PennController,118,0,calibrator_val_no_feedback,NULL,PennController,129,_Header_,Start,1738763026510,undefined,2418,industry,positive,negative,A,NULL
1738763516,7d781a844946c7d9c391022451656bb8,PennController,118,0,calibrator_val_no_feedback,NULL,PennController,129,_Header_,End,1738763026760,undefined,2418,industry,positive,negative,A,NULL
1738763516,7d781a844946c7d9c391022451656bb8,PennController,118,0,calibrator_val_no_feedback,NULL,Selector,unnamed-Selector,Selection,negative,1738763029684,undefined,2418,industry,positive,negative,A,positive;negative
1738763516,7d781a844946c7d9c391022451656bb8,PennController,118,0,calibrator_val_no_feedback,NULL,PennController,129,_Trial_,End,1738763029685,undefined,2418,industry,positive,negative,A,NULL
# 13. Comments.
1738763516,7d781a844946c7d9c391022451656bb8,PennController,130,0,endinstructions_val,NULL,PennController,8,_Trial_,Start,1738763029686,NULL
1738763516,7d781a844946c7d9c391022451656bb8,PennController,130,0,endinstructions_val,NULL,PennController,8,_Header_,Start,1738763029686,NULL
1738763516,7d781a844946c7d9c391022451656bb8,PennController,130,0,endinstructions_val,NULL,PennController,8,_Header_,End,1738763029941,NULL
1738763516,7d781a844946c7d9c391022451656bb8,PennController,130,0,endinstructions_val,NULL,PennController,8,_Trial_,End,1738763033365,NULL
# 13. ID.
# 14. ReactionTime.
# 15. Word.
# 16. Key_value_F.
# 17. Key_value_J.
# 18. Group.
# 19. Comments.
1738763516,7d781a844946c7d9c391022451656bb8,PennController,81,0,test_val,NULL,PennController,92,_Trial_,Start,1738763033366,undefined,746,princess,positive,negative,A,NULL
1738763516,7d781a844946c7d9c391022451656bb8,PennController,81,0,test_val,NULL,PennController,92,_Header_,Start,1738763033366,undefined,746,princess,positive,negative,A,NULL
1738763516,7d781a844946c7d9c391022451656bb8,PennController,81,0,test_val,NULL,PennController,92,_Header_,End,1738763033617,undefined,746,princess,positive,negative,A,NULL
1738763516,7d781a844946c7d9c391022451656bb8,PennController,81,0,test_val,NULL,Selector,unnamed-Selector,Selection,positive,1738763034866,undefined,746,princess,positive,negative,A,positive;negative
1738763516,7d781a844946c7d9c391022451656bb8,PennController,81,0,test_val,NULL,PennController,92,_Trial_,End,1738763034867,undefined,746,princess,positive,negative,A,NULL
1738763516,7d781a844946c7d9c391022451656bb8,PennController,65,0,test_val,NULL,PennController,76,_Trial_,Start,1738763034867,undefined,644,asshole,positive,negative,A,NULL
1738763516,7d781a844946c7d9c391022451656bb8,PennController,65,0,test_val,NULL,PennController,76,_Header_,Start,1738763034867,undefined,644,asshole,positive,negative,A,NULL
1738763516,7d781a844946c7d9c391022451656bb8,PennController,65,0,test_val,NULL,PennController,76,_Header_,End,1738763035120,undefined,644,asshole,positive,negative,A,NULL
1738763516,7d781a844946c7d9c391022451656bb8,PennController,65,0,test_val,NULL,Selector,unnamed-Selector,Selection,negative,1738763036268,undefined,644,asshole,positive,negative,A,positive;negative
1738763516,7d781a844946c7d9c391022451656bb8,PennController,65,0,test_val,NULL,PennController,76,_Trial_,End,1738763036270,undefined,644,asshole,positive,negative,A,NULL
1738763516,7d781a844946c7d9c391022451656bb8,PennController,56,0,test_val,NULL,PennController,67,_Trial_,Start,1738763036271,undefined,873,award,positive,negative,A,NULL
1738763516,7d781a844946c7d9c391022451656bb8,PennController,56,0,test_val,NULL,PennController,67,_Header_,Start,1738763036271,undefined,873,award,positive,negative,A,NULL
1738763516,7d781a844946c7d9c391022451656bb8,PennController,56,0,test_val,NULL,PennController,67,_Header_,End,1738763036524,undefined,873,award,positive,negative,A,NULL
1738763516,7d781a844946c7d9c391022451656bb8,PennController,56,0,test_val,NULL,Selector,unnamed-Selector,Selection,positive,1738763037900,undefined,873,award,positive,negative,A,positive;negative
1738763516,7d781a844946c7d9c391022451656bb8,PennController,56,0,test_val,NULL,PennController,67,_Trial_,End,1738763037901,undefined,873,award,positive,negative,A,NULL
1738763516,7d781a844946c7d9c391022451656bb8,PennController,61,0,test_val,NULL,PennController,72,_Trial_,Start,1738763037903,undefined,784,dollar,positive,negative,A,NULL
1738763516,7d781a844946c7d9c391022451656bb8,PennController,61,0,test_val,NULL,PennController,72,_Header_,Start,1738763037903,undefined,784,dollar,positive,negative,A,NULL
1738763516,7d781a844946c7d9c391022451656bb8,PennController,61,0,test_val,NULL,PennController,72,_Header_,End,1738763038157,undefined,784,dollar,positive,negative,A,NULL
1738763516,7d781a844946c7d9c391022451656bb8,PennController,61,0,test_val,NULL,Selector,unnamed-Selector,Selection,positive,1738763039443,undefined,784,dollar,positive,negative,A,positive;negative
1738763516,7d781a844946c7d9c391022451656bb8,PennController,61,0,test_val,NULL,PennController,72,_Trial_,End,1738763039444,undefined,784,dollar,positive,negative,A,NULL
1738763516,7d781a844946c7d9c391022451656bb8,PennController,82,0,test_val,NULL,PennController,93,_Trial_,Start,1738763039444,undefined,798,chipmunk,positive,negative,A,NULL
1738763516,7d781a844946c7d9c391022451656bb8,PennController,82,0,test_val,NULL,PennController,93,_Header_,Start,1738763039444,undefined,798,chipmunk,positive,negative,A,NULL
1738763516,7d781a844946c7d9c391022451656bb8,PennController,82,0,test_val,NULL,PennController,93,_Header_,End,1738763039698,undefined,798,chipmunk,positive,negative,A,NULL
1738763516,7d781a844946c7d9c391022451656bb8,PennController,82,0,test_val,NULL,Selector,unnamed-Selector,Selection,positive,1738763040998,undefined,798,chipmunk,positive,negative,A,positive;negative
1738763516,7d781a844946c7d9c391022451656bb8,PennController,82,0,test_val,NULL,PennController,93,_Trial_,End,1738763040999,undefined,798,chipmunk,positive,negative,A,NULL
1738763516,7d781a844946c7d9c391022451656bb8,PennController,57,0,test_val,NULL,PennController,68,_Trial_,Start,1738763041000,undefined,682,pizza,positive,negative,A,NULL
1738763516,7d781a844946c7d9c391022451656bb8,PennController,57,0,test_val,NULL,PennController,68,_Header_,Start,1738763041000,undefined,682,pizza,positive,negative,A,NULL
1738763516,7d781a844946c7d9c391022451656bb8,PennController,57,0,test_val,NULL,PennController,68,_Header_,End,1738763041251,undefined,682,pizza,positive,negative,A,NULL
1738763516,7d781a844946c7d9c391022451656bb8,PennController,57,0,test_val,NULL,Selector,unnamed-Selector,Selection,positive,1738763042436,undefined,682,pizza,positive,negative,A,positive;negative
1738763516,7d781a844946c7d9c391022451656bb8,PennController,57,0,test_val,NULL,PennController,68,_Trial_,End,1738763042437,undefined,682,pizza,positive,negative,A,NULL
1738763516,7d781a844946c7d9c391022451656bb8,PennController,70,0,test_val,NULL,PennController,81,_Trial_,Start,1738763042439,undefined,749,leech,positive,negative,A,NULL
1738763516,7d781a844946c7d9c391022451656bb8,PennController,70,0,test_val,NULL,PennController,81,_Header_,Start,1738763042439,undefined,749,leech,positive,negative,A,NULL
1738763516,7d781a844946c7d9c391022451656bb8,PennController,70,0,test_val,NULL,PennController,81,_Header_,End,1738763042690,undefined,749,leech,positive,negative,A,NULL
1738763516,7d781a844946c7d9c391022451656bb8,PennController,70,0,test_val,NULL,Selector,unnamed-Selector,Selection,negative,1738763043940,undefined,749,leech,positive,negative,A,positive;negative
1738763516,7d781a844946c7d9c391022451656bb8,PennController,70,0,test_val,NULL,PennController,81,_Trial_,End,1738763043941,undefined,749,leech,positive,negative,A,NULL
1738763516,7d781a844946c7d9c391022451656bb8,PennController,52,0,test_val,NULL,PennController,63,_Trial_,Start,1738763043941,undefined,869,smallpox,positive,negative,A,NULL
1738763516,7d781a844946c7d9c391022451656bb8,PennController,52,0,test_val,NULL,PennController,63,_Header_,Start,1738763043941,undefined,869,smallpox,positive,negative,A,NULL
1738763516,7d781a844946c7d9c391022451656bb8,PennController,52,0,test_val,NULL,PennController,63,_Header_,End,1738763044192,undefined,869,smallpox,positive,negative,A,NULL
1738763516,7d781a844946c7d9c391022451656bb8,PennController,52,0,test_val,NULL,Selector,unnamed-Selector,Selection,negative,1738763045564,undefined,869,smallpox,positive,negative,A,positive;negative
1738763516,7d781a844946c7d9c391022451656bb8,PennController,52,0,test_val,NULL,PennController,63,_Trial_,End,1738763045565,undefined,869,smallpox,positive,negative,A,NULL
1738763516,7d781a844946c7d9c391022451656bb8,PennController,75,0,test_val,NULL,PennController,86,_Trial_,Start,1738763045566,undefined,742,puppy,positive,negative,A,NULL
1738763516,7d781a844946c7d9c391022451656bb8,PennController,75,0,test_val,NULL,PennController,86,_Header_,Start,1738763045566,undefined,742,puppy,positive,negative,A,NULL
1738763516,7d781a844946c7d9c391022451656bb8,PennController,75,0,test_val,NULL,PennController,86,_Header_,End,1738763045818,undefined,742,puppy,positive,negative,A,NULL
1738763516,7d781a844946c7d9c391022451656bb8,PennController,75,0,test_val,NULL,Selector,unnamed-Selector,Selection,positive,1738763047063,undefined,742,puppy,positive,negative,A,positive;negative
1738763516,7d781a844946c7d9c391022451656bb8,PennController,75,0,test_val,NULL,PennController,86,_Trial_,End,1738763047064,undefined,742,puppy,positive,negative,A,NULL
1738763516,7d781a844946c7d9c391022451656bb8,PennController,72,0,test_val,NULL,PennController,83,_Trial_,Start,1738763047065,undefined,1585,intruder,positive,negative,A,NULL
1738763516,7d781a844946c7d9c391022451656bb8,PennController,72,0,test_val,NULL,PennController,83,_Header_,Start,1738763047065,undefined,1585,intruder,positive,negative,A,NULL
1738763516,7d781a844946c7d9c391022451656bb8,PennController,72,0,test_val,NULL,PennController,83,_Header_,End,1738763047316,undefined,1585,intruder,positive,negative,A,NULL
1738763516,7d781a844946c7d9c391022451656bb8,PennController,72,0,test_val,NULL,Selector,unnamed-Selector,Selection,negative,1738763049404,undefined,1585,intruder,positive,negative,A,positive;negative
1738763516,7d781a844946c7d9c391022451656bb8,PennController,72,0,test_val,NULL,PennController,83,_Trial_,End,1738763049405,undefined,1585,intruder,positive,negative,A,NULL
1738763516,7d781a844946c7d9c391022451656bb8,PennController,49,0,test_val,NULL,PennController,60,_Trial_,Start,1738763049406,undefined,754,poison,positive,negative,A,NULL
1738763516,7d781a844946c7d9c391022451656bb8,PennController,49,0,test_val,NULL,PennController,60,_Header_,Start,1738763049406,undefined,754,poison,positive,negative,A,NULL
1738763516,7d781a844946c7d9c391022451656bb8,PennController,49,0,test_val,NULL,PennController,60,_Header_,End,1738763049659,undefined,754,poison,positive,negative,A,NULL
1738763516,7d781a844946c7d9c391022451656bb8,PennController,49,0,test_val,NULL,Selector,unnamed-Selector,Selection,negative,1738763050916,undefined,754,poison,positive,negative,A,positive;negative
1738763516,7d781a844946c7d9c391022451656bb8,PennController,49,0,test_val,NULL,PennController,60,_Trial_,End,1738763050917,undefined,754,poison,positive,negative,A,NULL
1738763516,7d781a844946c7d9c391022451656bb8,PennController,58,0,test_val,NULL,PennController,69,_Trial_,Start,1738763050918,undefined,666,laughter,positive,negative,A,NULL
1738763516,7d781a844946c7d9c391022451656bb8,PennController,58,0,test_val,NULL,PennController,69,_Header_,Start,1738763050918,undefined,666,laughter,positive,negative,A,NULL
1738763516,7d781a844946c7d9c391022451656bb8,PennController,58,0,test_val,NULL,PennController,69,_Header_,End,1738763051170,undefined,666,laughter,positive,negative,A,NULL
1738763516,7d781a844946c7d9c391022451656bb8,PennController,58,0,test_val,NULL,Selector,unnamed-Selector,Selection,positive,1738763052340,undefined,666,laughter,positive,negative,A,positive;negative
1738763516,7d781a844946c7d9c391022451656bb8,PennController,58,0,test_val,NULL,PennController,69,_Trial_,End,1738763052341,undefined,666,laughter,positive,negative,A,NULL
1738763516,7d781a844946c7d9c391022451656bb8,PennController,73,0,test_val,NULL,PennController,84,_Trial_,Start,1738763052342,undefined,714,mugger,positive,negative,A,NULL
1738763516,7d781a844946c7d9c391022451656bb8,PennController,73,0,test_val,NULL,PennController,84,_Header_,Start,1738763052342,undefined,714,mugger,positive,negative,A,NULL
1738763516,7d781a844946c7d9c391022451656bb8,PennController,73,0,test_val,NULL,PennController,84,_Header_,End,1738763052594,undefined,714,mugger,positive,negative,A,NULL
1738763516,7d781a844946c7d9c391022451656bb8,PennController,73,0,test_val,NULL,Selector,unnamed-Selector,Selection,negative,1738763053812,undefined,714,mugger,positive,negative,A,positive;negative
1738763516,7d781a844946c7d9c391022451656bb8,PennController,73,0,test_val,NULL,PennController,84,_Trial_,End,1738763053813,undefined,714,mugger,positive,negative,A,NULL
1738763516,7d781a844946c7d9c391022451656bb8,PennController,47,0,test_val,NULL,PennController,58,_Trial_,Start,1738763053814,undefined,785,cocaine,positive,negative,A,NULL
1738763516,7d781a844946c7d9c391022451656bb8,PennController,47,0,test_val,NULL,PennController,58,_Header_,Start,1738763053814,undefined,785,cocaine,positive,negative,A,NULL
1738763516,7d781a844946c7d9c391022451656bb8,PennController,47,0,test_val,NULL,PennController,58,_Header_,End,1738763054067,undefined,785,cocaine,positive,negative,A,NULL
1738763516,7d781a844946c7d9c391022451656bb8,PennController,47,0,test_val,NULL,Selector,unnamed-Selector,Selection,negative,1738763055356,undefined,785,cocaine,positive,negative,A,positive;negative
1738763516,7d781a844946c7d9c391022451656bb8,PennController,47,0,test_val,NULL,PennController,58,_Trial_,End,1738763055357,undefined,785,cocaine,positive,negative,A,NULL
1738763516,7d781a844946c7d9c391022451656bb8,PennController,54,0,test_val,NULL,PennController,65,_Trial_,Start,1738763055358,undefined,721,prize,positive,negative,A,NULL
1738763516,7d781a844946c7d9c391022451656bb8,PennController,54,0,test_val,NULL,PennController,65,_Header_,Start,1738763055358,undefined,721,prize,positive,negative,A,NULL
1738763516,7d781a844946c7d9c391022451656bb8,PennController,54,0,test_val,NULL,PennController,65,_Header_,End,1738763055610,undefined,721,prize,positive,negative,A,NULL
1738763516,7d781a844946c7d9c391022451656bb8,PennController,54,0,test_val,NULL,Selector,unnamed-Selector,Selection,positive,1738763056834,undefined,721,prize,positive,negative,A,positive;negative
1738763516,7d781a844946c7d9c391022451656bb8,PennController,54,0,test_val,NULL,PennController,65,_Trial_,End,1738763056835,undefined,721,prize,positive,negative,A,NULL
1738763516,7d781a844946c7d9c391022451656bb8,PennController,78,0,test_val,NULL,PennController,89,_Trial_,Start,1738763056835,undefined,635,kitten,positive,negative,A,NULL
1738763516,7d781a844946c7d9c391022451656bb8,PennController,78,0,test_val,NULL,PennController,89,_Header_,Start,1738763056835,undefined,635,kitten,positive,negative,A,NULL
1738763516,7d781a844946c7d9c391022451656bb8,PennController,78,0,test_val,NULL,PennController,89,_Header_,End,1738763057088,undefined,635,kitten,positive,negative,A,NULL
1738763516,7d781a844946c7d9c391022451656bb8,PennController,78,0,test_val,NULL,Selector,unnamed-Selector,Selection,positive,1738763058228,undefined,635,kitten,positive,negative,A,positive;negative
1738763516,7d781a844946c7d9c391022451656bb8,PennController,78,0,test_val,NULL,PennController,89,_Trial_,End,1738763058229,undefined,635,kitten,positive,negative,A,NULL
1738763516,7d781a844946c7d9c391022451656bb8,PennController,46,0,test_val,NULL,PennController,57,_Trial_,Start,1738763058230,undefined,886,wiretap,positive,negative,A,NULL
1738763516,7d781a844946c7d9c391022451656bb8,PennController,46,0,test_val,NULL,PennController,57,_Header_,Start,1738763058230,undefined,886,wiretap,positive,negative,A,NULL
1738763516,7d781a844946c7d9c391022451656bb8,PennController,46,0,test_val,NULL,PennController,57,_Header_,End,1738763058480,undefined,886,wiretap,positive,negative,A,NULL
1738763516,7d781a844946c7d9c391022451656bb8,PennController,46,0,test_val,NULL,Selector,unnamed-Selector,Selection,negative,1738763059868,undefined,886,wiretap,positive,negative,A,positive;negative
1738763516,7d781a844946c7d9c391022451656bb8,PennController,46,0,test_val,NULL,PennController,57,_Trial_,End,1738763059869,undefined,886,wiretap,positive,negative,A,NULL
1738763516,7d781a844946c7d9c391022451656bb8,PennController,63,0,test_val,NULL,PennController,74,_Trial_,Start,1738763059870,undefined,818,meadow,positive,negative,A,NULL
1738763516,7d781a844946c7d9c391022451656bb8,PennController,63,0,test_val,NULL,PennController,74,_Header_,Start,1738763059870,undefined,818,meadow,positive,negative,A,NULL
1738763516,7d781a844946c7d9c391022451656bb8,PennController,63,0,test_val,NULL,PennController,74,_Header_,End,1738763060124,undefined,818,meadow,positive,negative,A,NULL
1738763516,7d781a844946c7d9c391022451656bb8,PennController,63,0,test_val,NULL,Selector,unnamed-Selector,Selection,positive,1738763061444,undefined,818,meadow,positive,negative,A,positive;negative
1738763516,7d781a844946c7d9c391022451656bb8,PennController,63,0,test_val,NULL,PennController,74,_Trial_,End,1738763061446,undefined,818,meadow,positive,negative,A,NULL
1738763516,7d781a844946c7d9c391022451656bb8,PennController,83,0,test_val,NULL,PennController,94,_Trial_,Start,1738763061447,undefined,1114,husband,positive,negative,A,NULL
1738763516,7d781a844946c7d9c391022451656bb8,PennController,83,0,test_val,NULL,PennController,94,_Header_,Start,1738763061447,undefined,1114,husband,positive,negative,A,NULL
1738763516,7d781a844946c7d9c391022451656bb8,PennController,83,0,test_val,NULL,PennController,94,_Header_,End,1738763061698,undefined,1114,husband,positive,negative,A,NULL
1738763516,7d781a844946c7d9c391022451656bb8,PennController,83,0,test_val,NULL,Selector,unnamed-Selector,Selection,positive,1738763063316,undefined,1114,husband,positive,negative,A,positive;negative
1738763516,7d781a844946c7d9c391022451656bb8,PennController,83,0,test_val,NULL,PennController,94,_Trial_,End,1738763063317,undefined,1114,husband,positive,negative,A,NULL
1738763516,7d781a844946c7d9c391022451656bb8,PennController,51,0,test_val,NULL,PennController,62,_Trial_,Start,1738763063318,undefined,849,flood,positive,negative,A,NULL
1738763516,7d781a844946c7d9c391022451656bb8,PennController,51,0,test_val,NULL,PennController,62,_Header_,Start,1738763063318,undefined,849,flood,positive,negative,A,NULL
1738763516,7d781a844946c7d9c391022451656bb8,PennController,51,0,test_val,NULL,PennController,62,_Header_,End,1738763063570,undefined,849,flood,positive,negative,A,NULL
1738763516,7d781a844946c7d9c391022451656bb8,PennController,51,0,test_val,NULL,Selector,unnamed-Selector,Selection,negative,1738763064922,undefined,849,flood,positive,negative,A,positive;negative
1738763516,7d781a844946c7d9c391022451656bb8,PennController,51,0,test_val,NULL,PennController,62,_Trial_,End,1738763064923,undefined,849,flood,positive,negative,A,NULL
1738763516,7d781a844946c7d9c391022451656bb8,PennController,66,0,test_val,NULL,PennController,77,_Trial_,Start,1738763064923,undefined,876,maggot,positive,negative,A,NULL
1738763516,7d781a844946c7d9c391022451656bb8,PennController,66,0,test_val,NULL,PennController,77,_Header_,Start,1738763064923,undefined,876,maggot,positive,negative,A,NULL
1738763516,7d781a844946c7d9c391022451656bb8,PennController,66,0,test_val,NULL,PennController,77,_Header_,End,1738763065176,undefined,876,maggot,positive,negative,A,NULL
1738763516,7d781a844946c7d9c391022451656bb8,PennController,66,0,test_val,NULL,Selector,unnamed-Selector,Selection,negative,1738763066556,undefined,876,maggot,positive,negative,A,positive;negative
1738763516,7d781a844946c7d9c391022451656bb8,PennController,66,0,test_val,NULL,PennController,77,_Trial_,End,1738763066557,undefined,876,maggot,positive,negative,A,NULL
1738763516,7d781a844946c7d9c391022451656bb8,PennController,68,0,test_val,NULL,PennController,79,_Trial_,Start,1738763066558,undefined,984,inmate,positive,negative,A,NULL
1738763516,7d781a844946c7d9c391022451656bb8,PennController,68,0,test_val,NULL,PennController,79,_Header_,Start,1738763066558,undefined,984,inmate,positive,negative,A,NULL
1738763516,7d781a844946c7d9c391022451656bb8,PennController,68,0,test_val,NULL,PennController,79,_Header_,End,1738763066811,undefined,984,inmate,positive,negative,A,NULL
1738763516,7d781a844946c7d9c391022451656bb8,PennController,68,0,test_val,NULL,Selector,unnamed-Selector,Selection,negative,1738763068299,undefined,984,inmate,positive,negative,A,positive;negative
1738763516,7d781a844946c7d9c391022451656bb8,PennController,68,0,test_val,NULL,PennController,79,_Trial_,End,1738763068300,undefined,984,inmate,positive,negative,A,NULL
1738763516,7d781a844946c7d9c391022451656bb8,PennController,62,0,test_val,NULL,PennController,73,_Trial_,Start,1738763068301,undefined,683,sandwich,positive,negative,A,NULL
1738763516,7d781a844946c7d9c391022451656bb8,PennController,62,0,test_val,NULL,PennController,73,_Header_,Start,1738763068301,undefined,683,sandwich,positive,negative,A,NULL
1738763516,7d781a844946c7d9c391022451656bb8,PennController,62,0,test_val,NULL,PennController,73,_Header_,End,1738763068554,undefined,683,sandwich,positive,negative,A,NULL
1738763516,7d781a844946c7d9c391022451656bb8,PennController,62,0,test_val,NULL,Selector,unnamed-Selector,Selection,positive,1738763069739,undefined,683,sandwich,positive,negative,A,positive;negative
1738763516,7d781a844946c7d9c391022451656bb8,PennController,62,0,test_val,NULL,PennController,73,_Trial_,End,1738763069740,undefined,683,sandwich,positive,negative,A,NULL
1738763516,7d781a844946c7d9c391022451656bb8,PennController,76,0,test_val,NULL,PennController,87,_Trial_,Start,1738763069741,undefined,1091,sibling,positive,negative,A,NULL
1738763516,7d781a844946c7d9c391022451656bb8,PennController,76,0,test_val,NULL,PennController,87,_Header_,Start,1738763069741,undefined,1091,sibling,positive,negative,A,NULL
1738763516,7d781a844946c7d9c391022451656bb8,PennController,76,0,test_val,NULL,PennController,87,_Header_,End,1738763069991,undefined,1091,sibling,positive,negative,A,NULL
1738763516,7d781a844946c7d9c391022451656bb8,PennController,76,0,test_val,NULL,Selector,unnamed-Selector,Selection,positive,1738763071587,undefined,1091,sibling,positive,negative,A,positive;negative
1738763516,7d781a844946c7d9c391022451656bb8,PennController,76,0,test_val,NULL,PennController,87,_Trial_,End,1738763071589,undefined,1091,sibling,positive,negative,A,NULL
1738763516,7d781a844946c7d9c391022451656bb8,PennController,77,0,test_val,NULL,PennController,88,_Trial_,Start,1738763071590,undefined,1753,duckling,positive,negative,A,NULL
1738763516,7d781a844946c7d9c391022451656bb8,PennController,77,0,test_val,NULL,PennController,88,_Header_,Start,1738763071590,undefined,1753,duckling,positive,negative,A,NULL
1738763516,7d781a844946c7d9c391022451656bb8,PennController,77,0,test_val,NULL,PennController,88,_Header_,End,1738763071843,undefined,1753,duckling,positive,negative,A,NULL
1738763516,7d781a844946c7d9c391022451656bb8,PennController,77,0,test_val,NULL,Selector,unnamed-Selector,Selection,positive,1738763074100,undefined,1753,duckling,positive,negative,A,positive;negative
1738763516,7d781a844946c7d9c391022451656bb8,PennController,77,0,test_val,NULL,PennController,88,_Trial_,End,1738763074100,undefined,1753,duckling,positive,negative,A,NULL
1738763516,7d781a844946c7d9c391022451656bb8,PennController,50,0,test_val,NULL,PennController,61,_Trial_,Start,1738763074101,undefined,1023,gunshot,positive,negative,A,NULL
1738763516,7d781a844946c7d9c391022451656bb8,PennController,50,0,test_val,NULL,PennController,61,_Header_,Start,1738763074101,undefined,1023,gunshot,positive,negative,A,NULL
1738763516,7d781a844946c7d9c391022451656bb8,PennController,50,0,test_val,NULL,PennController,61,_Header_,End,1738763074352,undefined,1023,gunshot,positive,negative,A,NULL
1738763516,7d781a844946c7d9c391022451656bb8,PennController,50,0,test_val,NULL,Selector,unnamed-Selector,Selection,negative,1738763075877,undefined,1023,gunshot,positive,negative,A,positive;negative
1738763516,7d781a844946c7d9c391022451656bb8,PennController,50,0,test_val,NULL,PennController,61,_Trial_,End,1738763075878,undefined,1023,gunshot,positive,negative,A,NULL
1738763516,7d781a844946c7d9c391022451656bb8,PennController,80,0,test_val,NULL,PennController,91,_Trial_,Start,1738763075879,undefined,1036,child,positive,negative,A,NULL
1738763516,7d781a844946c7d9c391022451656bb8,PennController,80,0,test_val,NULL,PennController,91,_Header_,Start,1738763075879,undefined,1036,child,positive,negative,A,NULL
1738763516,7d781a844946c7d9c391022451656bb8,PennController,80,0,test_val,NULL,PennController,91,_Header_,End,1738763076131,undefined,1036,child,positive,negative,A,NULL
1738763516,7d781a844946c7d9c391022451656bb8,PennController,80,0,test_val,NULL,Selector,unnamed-Selector,Selection,positive,1738763077667,undefined,1036,child,positive,negative,A,positive;negative
1738763516,7d781a844946c7d9c391022451656bb8,PennController,80,0,test_val,NULL,PennController,91,_Trial_,End,1738763077669,undefined,1036,child,positive,negative,A,NULL
1738763516,7d781a844946c7d9c391022451656bb8,PennController,60,0,test_val,NULL,PennController,71,_Trial_,Start,1738763077670,undefined,1026,doughnut,positive,negative,A,NULL
1738763516,7d781a844946c7d9c391022451656bb8,PennController,60,0,test_val,NULL,PennController,71,_Header_,Start,1738763077670,undefined,1026,doughnut,positive,negative,A,NULL
1738763516,7d781a844946c7d9c391022451656bb8,PennController,60,0,test_val,NULL,PennController,71,_Header_,End,1738763077922,undefined,1026,doughnut,positive,negative,A,NULL
1738763516,7d781a844946c7d9c391022451656bb8,PennController,60,0,test_val,NULL,Selector,unnamed-Selector,Selection,positive,1738763079451,undefined,1026,doughnut,positive,negative,A,positive;negative
1738763516,7d781a844946c7d9c391022451656bb8,PennController,60,0,test_val,NULL,PennController,71,_Trial_,End,1738763079453,undefined,1026,doughnut,positive,negative,A,NULL
1738763516,7d781a844946c7d9c391022451656bb8,PennController,44,0,test_val,NULL,PennController,55,_Trial_,Start,1738763079454,undefined,787,heroin,positive,negative,A,NULL
1738763516,7d781a844946c7d9c391022451656bb8,PennController,44,0,test_val,NULL,PennController,55,_Header_,Start,1738763079454,undefined,787,heroin,positive,negative,A,NULL
1738763516,7d781a844946c7d9c391022451656bb8,PennController,44,0,test_val,NULL,PennController,55,_Header_,End,1738763079704,undefined,787,heroin,positive,negative,A,NULL
1738763516,7d781a844946c7d9c391022451656bb8,PennController,44,0,test_val,NULL,Selector,unnamed-Selector,Selection,negative,1738763080995,undefined,787,heroin,positive,negative,A,positive;negative
1738763516,7d781a844946c7d9c391022451656bb8,PennController,44,0,test_val,NULL,PennController,55,_Trial_,End,1738763080996,undefined,787,heroin,positive,negative,A,NULL
1738763516,7d781a844946c7d9c391022451656bb8,PennController,53,0,test_val,NULL,PennController,64,_Trial_,Start,1738763080996,undefined,838,corpse,positive,negative,A,NULL
1738763516,7d781a844946c7d9c391022451656bb8,PennController,53,0,test_val,NULL,PennController,64,_Header_,Start,1738763080996,undefined,838,corpse,positive,negative,A,NULL
1738763516,7d781a844946c7d9c391022451656bb8,PennController,53,0,test_val,NULL,PennController,64,_Header_,End,1738763081247,undefined,838,corpse,positive,negative,A,NULL
1738763516,7d781a844946c7d9c391022451656bb8,PennController,53,0,test_val,NULL,Selector,unnamed-Selector,Selection,negative,1738763082587,undefined,838,corpse,positive,negative,A,positive;negative
1738763516,7d781a844946c7d9c391022451656bb8,PennController,53,0,test_val,NULL,PennController,64,_Trial_,End,1738763082588,undefined,838,corpse,positive,negative,A,NULL
1738763516,7d781a844946c7d9c391022451656bb8,PennController,48,0,test_val,NULL,PennController,59,_Trial_,Start,1738763082589,undefined,854,excrement,positive,negative,A,NULL
1738763516,7d781a844946c7d9c391022451656bb8,PennController,48,0,test_val,NULL,PennController,59,_Header_,Start,1738763082589,undefined,854,excrement,positive,negative,A,NULL
1738763516,7d781a844946c7d9c391022451656bb8,PennController,48,0,test_val,NULL,PennController,59,_Header_,End,1738763082841,undefined,854,excrement,positive,negative,A,NULL
1738763516,7d781a844946c7d9c391022451656bb8,PennController,48,0,test_val,NULL,Selector,unnamed-Selector,Selection,negative,1738763084197,undefined,854,excrement,positive,negative,A,positive;negative
1738763516,7d781a844946c7d9c391022451656bb8,PennController,48,0,test_val,NULL,PennController,59,_Trial_,End,1738763084198,undefined,854,excrement,positive,negative,A,NULL
1738763516,7d781a844946c7d9c391022451656bb8,PennController,67,0,test_val,NULL,PennController,78,_Trial_,Start,1738763084199,undefined,2523,widow,positive,negative,A,NULL
1738763516,7d781a844946c7d9c391022451656bb8,PennController,67,0,test_val,NULL,PennController,78,_Header_,Start,1738763084199,undefined,2523,widow,positive,negative,A,NULL
1738763516,7d781a844946c7d9c391022451656bb8,PennController,67,0,test_val,NULL,PennController,78,_Header_,End,1738763084449,undefined,2523,widow,positive,negative,A,NULL
1738763516,7d781a844946c7d9c391022451656bb8,PennController,67,0,test_val,NULL,Selector,unnamed-Selector,Selection,positive,1738763087475,undefined,2523,widow,positive,negative,A,positive;negative
1738763516,7d781a844946c7d9c391022451656bb8,PennController,67,0,test_val,NULL,PennController,78,_Trial_,End,1738763087476,undefined,2523,widow,positive,negative,A,NULL
1738763516,7d781a844946c7d9c391022451656bb8,PennController,79,0,test_val,NULL,PennController,90,_Trial_,Start,1738763087477,undefined,764,bunny,positive,negative,A,NULL
1738763516,7d781a844946c7d9c391022451656bb8,PennController,79,0,test_val,NULL,PennController,90,_Header_,Start,1738763087477,undefined,764,bunny,positive,negative,A,NULL
1738763516,7d781a844946c7d9c391022451656bb8,PennController,79,0,test_val,NULL,PennController,90,_Header_,End,1738763087729,undefined,764,bunny,positive,negative,A,NULL
1738763516,7d781a844946c7d9c391022451656bb8,PennController,79,0,test_val,NULL,Selector,unnamed-Selector,Selection,positive,1738763088995,undefined,764,bunny,positive,negative,A,positive;negative
1738763516,7d781a844946c7d9c391022451656bb8,PennController,79,0,test_val,NULL,PennController,90,_Trial_,End,1738763088996,undefined,764,bunny,positive,negative,A,NULL
1738763516,7d781a844946c7d9c391022451656bb8,PennController,45,0,test_val,NULL,PennController,56,_Trial_,Start,1738763088996,undefined,1043,swastika,positive,negative,A,NULL
1738763516,7d781a844946c7d9c391022451656bb8,PennController,45,0,test_val,NULL,PennController,56,_Header_,Start,1738763088996,undefined,1043,swastika,positive,negative,A,NULL
1738763516,7d781a844946c7d9c391022451656bb8,PennController,45,0,test_val,NULL,PennController,56,_Header_,End,1738763089249,undefined,1043,swastika,positive,negative,A,NULL
1738763516,7d781a844946c7d9c391022451656bb8,PennController,45,0,test_val,NULL,Selector,unnamed-Selector,Selection,negative,1738763090794,undefined,1043,swastika,positive,negative,A,positive;negative
1738763516,7d781a844946c7d9c391022451656bb8,PennController,45,0,test_val,NULL,PennController,56,_Trial_,End,1738763090795,undefined,1043,swastika,positive,negative,A,NULL
1738763516,7d781a844946c7d9c391022451656bb8,PennController,55,0,test_val,NULL,PennController,66,_Trial_,Start,1738763090795,undefined,697,sunshine,positive,negative,A,NULL
1738763516,7d781a844946c7d9c391022451656bb8,PennController,55,0,test_val,NULL,PennController,66,_Header_,Start,1738763090795,undefined,697,sunshine,positive,negative,A,NULL
1738763516,7d781a844946c7d9c391022451656bb8,PennController,55,0,test_val,NULL,PennController,66,_Header_,End,1738763091047,undefined,697,sunshine,positive,negative,A,NULL
1738763516,7d781a844946c7d9c391022451656bb8,PennController,55,0,test_val,NULL,Selector,unnamed-Selector,Selection,positive,1738763092244,undefined,697,sunshine,positive,negative,A,positive;negative
1738763516,7d781a844946c7d9c391022451656bb8,PennController,55,0,test_val,NULL,PennController,66,_Trial_,End,1738763092245,undefined,697,sunshine,positive,negative,A,NULL
1738763516,7d781a844946c7d9c391022451656bb8,PennController,69,0,test_val,NULL,PennController,80,_Trial_,Start,1738763092246,undefined,825,dictator,positive,negative,A,NULL
1738763516,7d781a844946c7d9c391022451656bb8,PennController,69,0,test_val,NULL,PennController,80,_Header_,Start,1738763092246,undefined,825,dictator,positive,negative,A,NULL
1738763516,7d781a844946c7d9c391022451656bb8,PennController,69,0,test_val,NULL,PennController,80,_Header_,End,1738763092500,undefined,825,dictator,positive,negative,A,NULL
1738763516,7d781a844946c7d9c391022451656bb8,PennController,69,0,test_val,NULL,Selector,unnamed-Selector,Selection,negative,1738763093827,undefined,825,dictator,positive,negative,A,positive;negative
1738763516,7d781a844946c7d9c391022451656bb8,PennController,69,0,test_val,NULL,PennController,80,_Trial_,End,1738763093828,undefined,825,dictator,positive,negative,A,NULL
1738763516,7d781a844946c7d9c391022451656bb8,PennController,64,0,test_val,NULL,PennController,75,_Trial_,Start,1738763093829,undefined,685,slave,positive,negative,A,NULL
1738763516,7d781a844946c7d9c391022451656bb8,PennController,64,0,test_val,NULL,PennController,75,_Header_,Start,1738763093829,undefined,685,slave,positive,negative,A,NULL
1738763516,7d781a844946c7d9c391022451656bb8,PennController,64,0,test_val,NULL,PennController,75,_Header_,End,1738763094081,undefined,685,slave,positive,negative,A,NULL
1738763516,7d781a844946c7d9c391022451656bb8,PennController,64,0,test_val,NULL,Selector,unnamed-Selector,Selection,negative,1738763095267,undefined,685,slave,positive,negative,A,positive;negative
1738763516,7d781a844946c7d9c391022451656bb8,PennController,64,0,test_val,NULL,PennController,75,_Trial_,End,1738763095269,undefined,685,slave,positive,negative,A,NULL
1738763516,7d781a844946c7d9c391022451656bb8,PennController,59,0,test_val,NULL,PennController,70,_Trial_,Start,1738763095270,undefined,3997,feast,positive,negative,A,NULL
1738763516,7d781a844946c7d9c391022451656bb8,PennController,59,0,test_val,NULL,PennController,70,_Header_,Start,1738763095270,undefined,3997,feast,positive,negative,A,NULL
1738763516,7d781a844946c7d9c391022451656bb8,PennController,59,0,test_val,NULL,PennController,70,_Header_,End,1738763095520,undefined,3997,feast,positive,negative,A,NULL
1738763516,7d781a844946c7d9c391022451656bb8,PennController,59,0,test_val,NULL,Selector,unnamed-Selector,Selection,positive,1738763100019,undefined,3997,feast,positive,negative,A,positive;negative
1738763516,7d781a844946c7d9c391022451656bb8,PennController,59,0,test_val,NULL,PennController,70,_Trial_,End,1738763100020,undefined,3997,feast,positive,negative,A,NULL
1738763516,7d781a844946c7d9c391022451656bb8,PennController,74,0,test_val,NULL,PennController,85,_Trial_,Start,1738763100021,undefined,716,comedian,positive,negative,A,NULL
1738763516,7d781a844946c7d9c391022451656bb8,PennController,74,0,test_val,NULL,PennController,85,_Header_,Start,1738763100021,undefined,716,comedian,positive,negative,A,NULL
1738763516,7d781a844946c7d9c391022451656bb8,PennController,74,0,test_val,NULL,PennController,85,_Header_,End,1738763100272,undefined,716,comedian,positive,negative,A,NULL
1738763516,7d781a844946c7d9c391022451656bb8,PennController,74,0,test_val,NULL,Selector,unnamed-Selector,Selection,positive,1738763101490,undefined,716,comedian,positive,negative,A,positive;negative
1738763516,7d781a844946c7d9c391022451656bb8,PennController,74,0,test_val,NULL,PennController,85,_Trial_,End,1738763101491,undefined,716,comedian,positive,negative,A,NULL
1738763516,7d781a844946c7d9c391022451656bb8,PennController,71,0,test_val,NULL,PennController,82,_Trial_,Start,1738763101492,undefined,1092,tapeworm,positive,negative,A,NULL
1738763516,7d781a844946c7d9c391022451656bb8,PennController,71,0,test_val,NULL,PennController,82,_Header_,Start,1738763101492,undefined,1092,tapeworm,positive,negative,A,NULL
1738763516,7d781a844946c7d9c391022451656bb8,PennController,71,0,test_val,NULL,PennController,82,_Header_,End,1738763101746,undefined,1092,tapeworm,positive,negative,A,NULL
1738763516,7d781a844946c7d9c391022451656bb8,PennController,71,0,test_val,NULL,Selector,unnamed-Selector,Selection,negative,1738763103341,undefined,1092,tapeworm,positive,negative,A,positive;negative
1738763516,7d781a844946c7d9c391022451656bb8,PennController,71,0,test_val,NULL,PennController,82,_Trial_,End,1738763103342,undefined,1092,tapeworm,positive,negative,A,NULL
1738763516,7d781a844946c7d9c391022451656bb8,PennController,60,0,test_val,NULL,PennController,71,_Trial_,Start,1738763103344,undefined,1145,doughnut,positive,negative,A,NULL
1738763516,7d781a844946c7d9c391022451656bb8,PennController,60,0,test_val,NULL,PennController,71,_Header_,Start,1738763103344,undefined,1145,doughnut,positive,negative,A,NULL
1738763516,7d781a844946c7d9c391022451656bb8,PennController,60,0,test_val,NULL,PennController,71,_Header_,End,1738763103595,undefined,1145,doughnut,positive,negative,A,NULL
1738763516,7d781a844946c7d9c391022451656bb8,PennController,60,0,test_val,NULL,Selector,unnamed-Selector,Selection,positive,1738763105242,undefined,1145,doughnut,positive,negative,A,positive;negative
1738763516,7d781a844946c7d9c391022451656bb8,PennController,60,0,test_val,NULL,PennController,71,_Trial_,End,1738763105242,undefined,1145,doughnut,positive,negative,A,NULL
1738763516,7d781a844946c7d9c391022451656bb8,PennController,56,0,test_val,NULL,PennController,67,_Trial_,Start,1738763105243,undefined,747,award,positive,negative,A,NULL
1738763516,7d781a844946c7d9c391022451656bb8,PennController,56,0,test_val,NULL,PennController,67,_Header_,Start,1738763105243,undefined,747,award,positive,negative,A,NULL
1738763516,7d781a844946c7d9c391022451656bb8,PennController,56,0,test_val,NULL,PennController,67,_Header_,End,1738763105496,undefined,747,award,positive,negative,A,NULL
1738763516,7d781a844946c7d9c391022451656bb8,PennController,56,0,test_val,NULL,Selector,unnamed-Selector,Selection,positive,1738763106746,undefined,747,award,positive,negative,A,positive;negative
1738763516,7d781a844946c7d9c391022451656bb8,PennController,56,0,test_val,NULL,PennController,67,_Trial_,End,1738763106746,undefined,747,award,positive,negative,A,NULL
1738763516,7d781a844946c7d9c391022451656bb8,PennController,59,0,test_val,NULL,PennController,70,_Trial_,Start,1738763106747,undefined,1659,feast,positive,negative,A,NULL
1738763516,7d781a844946c7d9c391022451656bb8,PennController,59,0,test_val,NULL,PennController,70,_Header_,Start,1738763106747,undefined,1659,feast,positive,negative,A,NULL
1738763516,7d781a844946c7d9c391022451656bb8,PennController,59,0,test_val,NULL,PennController,70,_Header_,End,1738763107000,undefined,1659,feast,positive,negative,A,NULL
1738763516,7d781a844946c7d9c391022451656bb8,PennController,59,0,test_val,NULL,Selector,unnamed-Selector,Selection,positive,1738763109162,undefined,1659,feast,positive,negative,A,positive;negative
1738763516,7d781a844946c7d9c391022451656bb8,PennController,59,0,test_val,NULL,PennController,70,_Trial_,End,1738763109163,undefined,1659,feast,positive,negative,A,NULL
1738763516,7d781a844946c7d9c391022451656bb8,PennController,82,0,test_val,NULL,PennController,93,_Trial_,Start,1738763109163,undefined,819,chipmunk,positive,negative,A,NULL
1738763516,7d781a844946c7d9c391022451656bb8,PennController,82,0,test_val,NULL,PennController,93,_Header_,Start,1738763109163,undefined,819,chipmunk,positive,negative,A,NULL
1738763516,7d781a844946c7d9c391022451656bb8,PennController,82,0,test_val,NULL,PennController,93,_Header_,End,1738763109414,undefined,819,chipmunk,positive,negative,A,NULL
1738763516,7d781a844946c7d9c391022451656bb8,PennController,82,0,test_val,NULL,Selector,unnamed-Selector,Selection,positive,1738763110738,undefined,819,chipmunk,positive,negative,A,positive;negative
1738763516,7d781a844946c7d9c391022451656bb8,PennController,82,0,test_val,NULL,PennController,93,_Trial_,End,1738763110738,undefined,819,chipmunk,positive,negative,A,NULL
1738763516,7d781a844946c7d9c391022451656bb8,PennController,77,0,test_val,NULL,PennController,88,_Trial_,Start,1738763110738,undefined,1088,duckling,positive,negative,A,NULL
1738763516,7d781a844946c7d9c391022451656bb8,PennController,77,0,test_val,NULL,PennController,88,_Header_,Start,1738763110738,undefined,1088,duckling,positive,negative,A,NULL
1738763516,7d781a844946c7d9c391022451656bb8,PennController,77,0,test_val,NULL,PennController,88,_Header_,End,1738763110988,undefined,1088,duckling,positive,negative,A,NULL
1738763516,7d781a844946c7d9c391022451656bb8,PennController,77,0,test_val,NULL,Selector,unnamed-Selector,Selection,positive,1738763112579,undefined,1088,duckling,positive,negative,A,positive;negative
1738763516,7d781a844946c7d9c391022451656bb8,PennController,77,0,test_val,NULL,PennController,88,_Trial_,End,1738763112580,undefined,1088,duckling,positive,negative,A,NULL
1738763516,7d781a844946c7d9c391022451656bb8,PennController,79,0,test_val,NULL,PennController,90,_Trial_,Start,1738763112582,undefined,570,bunny,positive,negative,A,NULL
1738763516,7d781a844946c7d9c391022451656bb8,PennController,79,0,test_val,NULL,PennController,90,_Header_,Start,1738763112582,undefined,570,bunny,positive,negative,A,NULL
1738763516,7d781a844946c7d9c391022451656bb8,PennController,79,0,test_val,NULL,PennController,90,_Header_,End,1738763112836,undefined,570,bunny,positive,negative,A,NULL
1738763516,7d781a844946c7d9c391022451656bb8,PennController,79,0,test_val,NULL,Selector,unnamed-Selector,Selection,positive,1738763113907,undefined,570,bunny,positive,negative,A,positive;negative
1738763516,7d781a844946c7d9c391022451656bb8,PennController,79,0,test_val,NULL,PennController,90,_Trial_,End,1738763113908,undefined,570,bunny,positive,negative,A,NULL
1738763516,7d781a844946c7d9c391022451656bb8,PennController,71,0,test_val,NULL,PennController,82,_Trial_,Start,1738763113909,undefined,786,tapeworm,positive,negative,A,NULL
1738763516,7d781a844946c7d9c391022451656bb8,PennController,71,0,test_val,NULL,PennController,82,_Header_,Start,1738763113909,undefined,786,tapeworm,positive,negative,A,NULL
1738763516,7d781a844946c7d9c391022451656bb8,PennController,71,0,test_val,NULL,PennController,82,_Header_,End,1738763114160,undefined,786,tapeworm,positive,negative,A,NULL
1738763516,7d781a844946c7d9c391022451656bb8,PennController,71,0,test_val,NULL,Selector,unnamed-Selector,Selection,negative,1738763115451,undefined,786,tapeworm,positive,negative,A,positive;negative
1738763516,7d781a844946c7d9c391022451656bb8,PennController,71,0,test_val,NULL,PennController,82,_Trial_,End,1738763115452,undefined,786,tapeworm,positive,negative,A,NULL
1738763516,7d781a844946c7d9c391022451656bb8,PennController,80,0,test_val,NULL,PennController,91,_Trial_,Start,1738763115453,undefined,668,child,positive,negative,A,NULL
1738763516,7d781a844946c7d9c391022451656bb8,PennController,80,0,test_val,NULL,PennController,91,_Header_,Start,1738763115453,undefined,668,child,positive,negative,A,NULL
1738763516,7d781a844946c7d9c391022451656bb8,PennController,80,0,test_val,NULL,PennController,91,_Header_,End,1738763115705,undefined,668,child,positive,negative,A,NULL
1738763516,7d781a844946c7d9c391022451656bb8,PennController,80,0,test_val,NULL,Selector,unnamed-Selector,Selection,positive,1738763116874,undefined,668,child,positive,negative,A,positive;negative
1738763516,7d781a844946c7d9c391022451656bb8,PennController,80,0,test_val,NULL,PennController,91,_Trial_,End,1738763116874,undefined,668,child,positive,negative,A,NULL
1738763516,7d781a844946c7d9c391022451656bb8,PennController,62,0,test_val,NULL,PennController,73,_Trial_,Start,1738763116875,undefined,638,sandwich,positive,negative,A,NULL
1738763516,7d781a844946c7d9c391022451656bb8,PennController,62,0,test_val,NULL,PennController,73,_Header_,Start,1738763116875,undefined,638,sandwich,positive,negative,A,NULL
1738763516,7d781a844946c7d9c391022451656bb8,PennController,62,0,test_val,NULL,PennController,73,_Header_,End,1738763117126,undefined,638,sandwich,positive,negative,A,NULL
1738763516,7d781a844946c7d9c391022451656bb8,PennController,62,0,test_val,NULL,Selector,unnamed-Selector,Selection,positive,1738763118265,undefined,638,sandwich,positive,negative,A,positive;negative
1738763516,7d781a844946c7d9c391022451656bb8,PennController,62,0,test_val,NULL,PennController,73,_Trial_,End,1738763118266,undefined,638,sandwich,positive,negative,A,NULL
1738763516,7d781a844946c7d9c391022451656bb8,PennController,70,0,test_val,NULL,PennController,81,_Trial_,Start,1738763118266,undefined,1025,leech,positive,negative,A,NULL
1738763516,7d781a844946c7d9c391022451656bb8,PennController,70,0,test_val,NULL,PennController,81,_Header_,Start,1738763118266,undefined,1025,leech,positive,negative,A,NULL
1738763516,7d781a844946c7d9c391022451656bb8,PennController,70,0,test_val,NULL,PennController,81,_Header_,End,1738763118519,undefined,1025,leech,positive,negative,A,NULL
1738763516,7d781a844946c7d9c391022451656bb8,PennController,70,0,test_val,NULL,Selector,unnamed-Selector,Selection,negative,1738763120044,undefined,1025,leech,positive,negative,A,positive;negative
1738763516,7d781a844946c7d9c391022451656bb8,PennController,70,0,test_val,NULL,PennController,81,_Trial_,End,1738763120045,undefined,1025,leech,positive,negative,A,NULL
1738763516,7d781a844946c7d9c391022451656bb8,PennController,57,0,test_val,NULL,PennController,68,_Trial_,Start,1738763120047,undefined,825,pizza,positive,negative,A,NULL
1738763516,7d781a844946c7d9c391022451656bb8,PennController,57,0,test_val,NULL,PennController,68,_Header_,Start,1738763120047,undefined,825,pizza,positive,negative,A,NULL
1738763516,7d781a844946c7d9c391022451656bb8,PennController,57,0,test_val,NULL,PennController,68,_Header_,End,1738763120300,undefined,825,pizza,positive,negative,A,NULL
1738763516,7d781a844946c7d9c391022451656bb8,PennController,57,0,test_val,NULL,Selector,unnamed-Selector,Selection,positive,1738763121627,undefined,825,pizza,positive,negative,A,positive;negative
1738763516,7d781a844946c7d9c391022451656bb8,PennController,57,0,test_val,NULL,PennController,68,_Trial_,End,1738763121628,undefined,825,pizza,positive,negative,A,NULL
1738763516,7d781a844946c7d9c391022451656bb8,PennController,65,0,test_val,NULL,PennController,76,_Trial_,Start,1738763121629,undefined,630,asshole,positive,negative,A,NULL
1738763516,7d781a844946c7d9c391022451656bb8,PennController,65,0,test_val,NULL,PennController,76,_Header_,Start,1738763121629,undefined,630,asshole,positive,negative,A,NULL
1738763516,7d781a844946c7d9c391022451656bb8,PennController,65,0,test_val,NULL,PennController,76,_Header_,End,1738763121883,undefined,630,asshole,positive,negative,A,NULL
1738763516,7d781a844946c7d9c391022451656bb8,PennController,65,0,test_val,NULL,Selector,unnamed-Selector,Selection,negative,1738763123018,undefined,630,asshole,positive,negative,A,positive;negative
1738763516,7d781a844946c7d9c391022451656bb8,PennController,65,0,test_val,NULL,PennController,76,_Trial_,End,1738763123019,undefined,630,asshole,positive,negative,A,NULL
1738763516,7d781a844946c7d9c391022451656bb8,PennController,58,0,test_val,NULL,PennController,69,_Trial_,Start,1738763123019,undefined,718,laughter,positive,negative,A,NULL
1738763516,7d781a844946c7d9c391022451656bb8,PennController,58,0,test_val,NULL,PennController,69,_Header_,Start,1738763123019,undefined,718,laughter,positive,negative,A,NULL
1738763516,7d781a844946c7d9c391022451656bb8,PennController,58,0,test_val,NULL,PennController,69,_Header_,End,1738763123269,undefined,718,laughter,positive,negative,A,NULL
1738763516,7d781a844946c7d9c391022451656bb8,PennController,58,0,test_val,NULL,Selector,unnamed-Selector,Selection,positive,1738763124491,undefined,718,laughter,positive,negative,A,positive;negative
1738763516,7d781a844946c7d9c391022451656bb8,PennController,58,0,test_val,NULL,PennController,69,_Trial_,End,1738763124492,undefined,718,laughter,positive,negative,A,NULL
1738763516,7d781a844946c7d9c391022451656bb8,PennController,55,0,test_val,NULL,PennController,66,_Trial_,Start,1738763124494,undefined,656,sunshine,positive,negative,A,NULL
1738763516,7d781a844946c7d9c391022451656bb8,PennController,55,0,test_val,NULL,PennController,66,_Header_,Start,1738763124494,undefined,656,sunshine,positive,negative,A,NULL
1738763516,7d781a844946c7d9c391022451656bb8,PennController,55,0,test_val,NULL,PennController,66,_Header_,End,1738763124747,undefined,656,sunshine,positive,negative,A,NULL
1738763516,7d781a844946c7d9c391022451656bb8,PennController,55,0,test_val,NULL,Selector,unnamed-Selector,Selection,positive,1738763125907,undefined,656,sunshine,positive,negative,A,positive;negative
1738763516,7d781a844946c7d9c391022451656bb8,PennController,55,0,test_val,NULL,PennController,66,_Trial_,End,1738763125908,undefined,656,sunshine,positive,negative,A,NULL
1738763516,7d781a844946c7d9c391022451656bb8,PennController,64,0,test_val,NULL,PennController,75,_Trial_,Start,1738763125909,undefined,890,slave,positive,negative,A,NULL
1738763516,7d781a844946c7d9c391022451656bb8,PennController,64,0,test_val,NULL,PennController,75,_Header_,Start,1738763125909,undefined,890,slave,positive,negative,A,NULL
1738763516,7d781a844946c7d9c391022451656bb8,PennController,64,0,test_val,NULL,PennController,75,_Header_,End,1738763126161,undefined,890,slave,positive,negative,A,NULL
1738763516,7d781a844946c7d9c391022451656bb8,PennController,64,0,test_val,NULL,Selector,unnamed-Selector,Selection,negative,1738763127555,undefined,890,slave,positive,negative,A,positive;negative
1738763516,7d781a844946c7d9c391022451656bb8,PennController,64,0,test_val,NULL,PennController,75,_Trial_,End,1738763127556,undefined,890,slave,positive,negative,A,NULL
1738763516,7d781a844946c7d9c391022451656bb8,PennController,49,0,test_val,NULL,PennController,60,_Trial_,Start,1738763127558,undefined,1726,poison,positive,negative,A,NULL
1738763516,7d781a844946c7d9c391022451656bb8,PennController,49,0,test_val,NULL,PennController,60,_Header_,Start,1738763127558,undefined,1726,poison,positive,negative,A,NULL
1738763516,7d781a844946c7d9c391022451656bb8,PennController,49,0,test_val,NULL,PennController,60,_Header_,End,1738763127809,undefined,1726,poison,positive,negative,A,NULL
1738763516,7d781a844946c7d9c391022451656bb8,PennController,49,0,test_val,NULL,Selector,unnamed-Selector,Selection,negative,1738763130035,undefined,1726,poison,positive,negative,A,positive;negative
1738763516,7d781a844946c7d9c391022451656bb8,PennController,49,0,test_val,NULL,PennController,60,_Trial_,End,1738763130037,undefined,1726,poison,positive,negative,A,NULL
1738763516,7d781a844946c7d9c391022451656bb8,PennController,45,0,test_val,NULL,PennController,56,_Trial_,Start,1738763130038,undefined,1650,swastika,positive,negative,A,NULL
1738763516,7d781a844946c7d9c391022451656bb8,PennController,45,0,test_val,NULL,PennController,56,_Header_,Start,1738763130038,undefined,1650,swastika,positive,negative,A,NULL
1738763516,7d781a844946c7d9c391022451656bb8,PennController,45,0,test_val,NULL,PennController,56,_Header_,End,1738763130290,undefined,1650,swastika,positive,negative,A,NULL
1738763516,7d781a844946c7d9c391022451656bb8,PennController,45,0,test_val,NULL,Selector,unnamed-Selector,Selection,negative,1738763132443,undefined,1650,swastika,positive,negative,A,positive;negative
1738763516,7d781a844946c7d9c391022451656bb8,PennController,45,0,test_val,NULL,PennController,56,_Trial_,End,1738763132445,undefined,1650,swastika,positive,negative,A,NULL
1738763516,7d781a844946c7d9c391022451656bb8,PennController,50,0,test_val,NULL,PennController,61,_Trial_,Start,1738763132446,undefined,1195,gunshot,positive,negative,A,NULL
1738763516,7d781a844946c7d9c391022451656bb8,PennController,50,0,test_val,NULL,PennController,61,_Header_,Start,1738763132446,undefined,1195,gunshot,positive,negative,A,NULL
1738763516,7d781a844946c7d9c391022451656bb8,PennController,50,0,test_val,NULL,PennController,61,_Header_,End,1738763132696,undefined,1195,gunshot,positive,negative,A,NULL
1738763516,7d781a844946c7d9c391022451656bb8,PennController,50,0,test_val,NULL,Selector,unnamed-Selector,Selection,negative,1738763134395,undefined,1195,gunshot,positive,negative,A,positive;negative
1738763516,7d781a844946c7d9c391022451656bb8,PennController,50,0,test_val,NULL,PennController,61,_Trial_,End,1738763134396,undefined,1195,gunshot,positive,negative,A,NULL
1738763516,7d781a844946c7d9c391022451656bb8,PennController,73,0,test_val,NULL,PennController,84,_Trial_,Start,1738763134397,undefined,597,mugger,positive,negative,A,NULL
1738763516,7d781a844946c7d9c391022451656bb8,PennController,73,0,test_val,NULL,PennController,84,_Header_,Start,1738763134397,undefined,597,mugger,positive,negative,A,NULL
1738763516,7d781a844946c7d9c391022451656bb8,PennController,73,0,test_val,NULL,PennController,84,_Header_,End,1738763134648,undefined,597,mugger,positive,negative,A,NULL
1738763516,7d781a844946c7d9c391022451656bb8,PennController,73,0,test_val,NULL,Selector,unnamed-Selector,Selection,negative,1738763135747,undefined,597,mugger,positive,negative,A,positive;negative
1738763516,7d781a844946c7d9c391022451656bb8,PennController,73,0,test_val,NULL,PennController,84,_Trial_,End,1738763135748,undefined,597,mugger,positive,negative,A,NULL
1738763516,7d781a844946c7d9c391022451656bb8,PennController,63,0,test_val,NULL,PennController,74,_Trial_,Start,1738763135749,undefined,868,meadow,positive,negative,A,NULL
1738763516,7d781a844946c7d9c391022451656bb8,PennController,63,0,test_val,NULL,PennController,74,_Header_,Start,1738763135749,undefined,868,meadow,positive,negative,A,NULL
1738763516,7d781a844946c7d9c391022451656bb8,PennController,63,0,test_val,NULL,PennController,74,_Header_,End,1738763136001,undefined,868,meadow,positive,negative,A,NULL
1738763516,7d781a844946c7d9c391022451656bb8,PennController,63,0,test_val,NULL,Selector,unnamed-Selector,Selection,positive,1738763137372,undefined,868,meadow,positive,negative,A,positive;negative
1738763516,7d781a844946c7d9c391022451656bb8,PennController,63,0,test_val,NULL,PennController,74,_Trial_,End,1738763137373,undefined,868,meadow,positive,negative,A,NULL
1738763516,7d781a844946c7d9c391022451656bb8,PennController,51,0,test_val,NULL,PennController,62,_Trial_,Start,1738763137373,undefined,1164,flood,positive,negative,A,NULL
1738763516,7d781a844946c7d9c391022451656bb8,PennController,51,0,test_val,NULL,PennController,62,_Header_,Start,1738763137373,undefined,1164,flood,positive,negative,A,NULL
1738763516,7d781a844946c7d9c391022451656bb8,PennController,51,0,test_val,NULL,PennController,62,_Header_,End,1738763137626,undefined,1164,flood,positive,negative,A,NULL
1738763516,7d781a844946c7d9c391022451656bb8,PennController,51,0,test_val,NULL,Selector,unnamed-Selector,Selection,positive,1738763139291,undefined,1164,flood,positive,negative,A,positive;negative
1738763516,7d781a844946c7d9c391022451656bb8,PennController,51,0,test_val,NULL,PennController,62,_Trial_,End,1738763139293,undefined,1164,flood,positive,negative,A,NULL
1738763516,7d781a844946c7d9c391022451656bb8,PennController,48,0,test_val,NULL,PennController,59,_Trial_,Start,1738763139294,undefined,1024,excrement,positive,negative,A,NULL
1738763516,7d781a844946c7d9c391022451656bb8,PennController,48,0,test_val,NULL,PennController,59,_Header_,Start,1738763139294,undefined,1024,excrement,positive,negative,A,NULL
1738763516,7d781a844946c7d9c391022451656bb8,PennController,48,0,test_val,NULL,PennController,59,_Header_,End,1738763139546,undefined,1024,excrement,positive,negative,A,NULL
1738763516,7d781a844946c7d9c391022451656bb8,PennController,48,0,test_val,NULL,Selector,unnamed-Selector,Selection,negative,1738763141076,undefined,1024,excrement,positive,negative,A,positive;negative
1738763516,7d781a844946c7d9c391022451656bb8,PennController,48,0,test_val,NULL,PennController,59,_Trial_,End,1738763141077,undefined,1024,excrement,positive,negative,A,NULL
1738763516,7d781a844946c7d9c391022451656bb8,PennController,69,0,test_val,NULL,PennController,80,_Trial_,Start,1738763141078,undefined,3063,dictator,positive,negative,A,NULL
1738763516,7d781a844946c7d9c391022451656bb8,PennController,69,0,test_val,NULL,PennController,80,_Header_,Start,1738763141078,undefined,3063,dictator,positive,negative,A,NULL
1738763516,7d781a844946c7d9c391022451656bb8,PennController,69,0,test_val,NULL,PennController,80,_Header_,End,1738763141330,undefined,3063,dictator,positive,negative,A,NULL
1738763516,7d781a844946c7d9c391022451656bb8,PennController,69,0,test_val,NULL,Selector,unnamed-Selector,Selection,negative,1738763144899,undefined,3063,dictator,positive,negative,A,positive;negative
1738763516,7d781a844946c7d9c391022451656bb8,PennController,69,0,test_val,NULL,PennController,80,_Trial_,End,1738763144899,undefined,3063,dictator,positive,negative,A,NULL
1738763516,7d781a844946c7d9c391022451656bb8,PennController,61,0,test_val,NULL,PennController,72,_Trial_,Start,1738763144900,undefined,613,dollar,positive,negative,A,NULL
1738763516,7d781a844946c7d9c391022451656bb8,PennController,61,0,test_val,NULL,PennController,72,_Header_,Start,1738763144900,undefined,613,dollar,positive,negative,A,NULL
1738763516,7d781a844946c7d9c391022451656bb8,PennController,61,0,test_val,NULL,PennController,72,_Header_,End,1738763145153,undefined,613,dollar,positive,negative,A,NULL
1738763516,7d781a844946c7d9c391022451656bb8,PennController,61,0,test_val,NULL,Selector,unnamed-Selector,Selection,positive,1738763146268,undefined,613,dollar,positive,negative,A,positive;negative
1738763516,7d781a844946c7d9c391022451656bb8,PennController,61,0,test_val,NULL,PennController,72,_Trial_,End,1738763146269,undefined,613,dollar,positive,negative,A,NULL
1738763516,7d781a844946c7d9c391022451656bb8,PennController,54,0,test_val,NULL,PennController,65,_Trial_,Start,1738763146270,undefined,881,prize,positive,negative,A,NULL
1738763516,7d781a844946c7d9c391022451656bb8,PennController,54,0,test_val,NULL,PennController,65,_Header_,Start,1738763146270,undefined,881,prize,positive,negative,A,NULL
1738763516,7d781a844946c7d9c391022451656bb8,PennController,54,0,test_val,NULL,PennController,65,_Header_,End,1738763146522,undefined,881,prize,positive,negative,A,NULL
1738763516,7d781a844946c7d9c391022451656bb8,PennController,54,0,test_val,NULL,Selector,unnamed-Selector,Selection,positive,1738763147909,undefined,881,prize,positive,negative,A,positive;negative
1738763516,7d781a844946c7d9c391022451656bb8,PennController,54,0,test_val,NULL,PennController,65,_Trial_,End,1738763147910,undefined,881,prize,positive,negative,A,NULL
1738763516,7d781a844946c7d9c391022451656bb8,PennController,75,0,test_val,NULL,PennController,86,_Trial_,Start,1738763147910,undefined,632,puppy,positive,negative,A,NULL
1738763516,7d781a844946c7d9c391022451656bb8,PennController,75,0,test_val,NULL,PennController,86,_Header_,Start,1738763147910,undefined,632,puppy,positive,negative,A,NULL
1738763516,7d781a844946c7d9c391022451656bb8,PennController,75,0,test_val,NULL,PennController,86,_Header_,End,1738763148164,undefined,632,puppy,positive,negative,A,NULL
1738763516,7d781a844946c7d9c391022451656bb8,PennController,75,0,test_val,NULL,Selector,unnamed-Selector,Selection,positive,1738763149299,undefined,632,puppy,positive,negative,A,positive;negative
1738763516,7d781a844946c7d9c391022451656bb8,PennController,75,0,test_val,NULL,PennController,86,_Trial_,End,1738763149300,undefined,632,puppy,positive,negative,A,NULL
1738763516,7d781a844946c7d9c391022451656bb8,PennController,53,0,test_val,NULL,PennController,64,_Trial_,Start,1738763149301,undefined,1275,corpse,positive,negative,A,NULL
1738763516,7d781a844946c7d9c391022451656bb8,PennController,53,0,test_val,NULL,PennController,64,_Header_,Start,1738763149301,undefined,1275,corpse,positive,negative,A,NULL
1738763516,7d781a844946c7d9c391022451656bb8,PennController,53,0,test_val,NULL,PennController,64,_Header_,End,1738763149554,undefined,1275,corpse,positive,negative,A,NULL
1738763516,7d781a844946c7d9c391022451656bb8,PennController,53,0,test_val,NULL,Selector,unnamed-Selector,Selection,negative,1738763151331,undefined,1275,corpse,positive,negative,A,positive;negative
1738763516,7d781a844946c7d9c391022451656bb8,PennController,53,0,test_val,NULL,PennController,64,_Trial_,End,1738763151332,undefined,1275,corpse,positive,negative,A,NULL
1738763516,7d781a844946c7d9c391022451656bb8,PennController,72,0,test_val,NULL,PennController,83,_Trial_,Start,1738763151334,undefined,697,intruder,positive,negative,A,NULL
1738763516,7d781a844946c7d9c391022451656bb8,PennController,72,0,test_val,NULL,PennController,83,_Header_,Start,1738763151334,undefined,697,intruder,positive,negative,A,NULL
1738763516,7d781a844946c7d9c391022451656bb8,PennController,72,0,test_val,NULL,PennController,83,_Header_,End,1738763151586,undefined,697,intruder,positive,negative,A,NULL
1738763516,7d781a844946c7d9c391022451656bb8,PennController,72,0,test_val,NULL,Selector,unnamed-Selector,Selection,negative,1738763152786,undefined,697,intruder,positive,negative,A,positive;negative
1738763516,7d781a844946c7d9c391022451656bb8,PennController,72,0,test_val,NULL,PennController,83,_Trial_,End,1738763152786,undefined,697,intruder,positive,negative,A,NULL
1738763516,7d781a844946c7d9c391022451656bb8,PennController,78,0,test_val,NULL,PennController,89,_Trial_,Start,1738763152786,undefined,751,kitten,positive,negative,A,NULL
1738763516,7d781a844946c7d9c391022451656bb8,PennController,78,0,test_val,NULL,PennController,89,_Header_,Start,1738763152786,undefined,751,kitten,positive,negative,A,NULL
1738763516,7d781a844946c7d9c391022451656bb8,PennController,78,0,test_val,NULL,PennController,89,_Header_,End,1738763153039,undefined,751,kitten,positive,negative,A,NULL
1738763516,7d781a844946c7d9c391022451656bb8,PennController,78,0,test_val,NULL,Selector,unnamed-Selector,Selection,positive,1738763154290,undefined,751,kitten,positive,negative,A,positive;negative
1738763516,7d781a844946c7d9c391022451656bb8,PennController,78,0,test_val,NULL,PennController,89,_Trial_,End,1738763154292,undefined,751,kitten,positive,negative,A,NULL
1738763516,7d781a844946c7d9c391022451656bb8,PennController,67,0,test_val,NULL,PennController,78,_Trial_,Start,1738763154293,undefined,1315,widow,positive,negative,A,NULL
1738763516,7d781a844946c7d9c391022451656bb8,PennController,67,0,test_val,NULL,PennController,78,_Header_,Start,1738763154293,undefined,1315,widow,positive,negative,A,NULL
1738763516,7d781a844946c7d9c391022451656bb8,PennController,67,0,test_val,NULL,PennController,78,_Header_,End,1738763154544,undefined,1315,widow,positive,negative,A,NULL
1738763516,7d781a844946c7d9c391022451656bb8,PennController,67,0,test_val,NULL,Selector,unnamed-Selector,Selection,negative,1738763156363,undefined,1315,widow,positive,negative,A,positive;negative
1738763516,7d781a844946c7d9c391022451656bb8,PennController,67,0,test_val,NULL,PennController,78,_Trial_,End,1738763156365,undefined,1315,widow,positive,negative,A,NULL
1738763516,7d781a844946c7d9c391022451656bb8,PennController,81,0,test_val,NULL,PennController,92,_Trial_,Start,1738763156366,undefined,624,princess,positive,negative,A,NULL
1738763516,7d781a844946c7d9c391022451656bb8,PennController,81,0,test_val,NULL,PennController,92,_Header_,Start,1738763156366,undefined,624,princess,positive,negative,A,NULL
1738763516,7d781a844946c7d9c391022451656bb8,PennController,81,0,test_val,NULL,PennController,92,_Header_,End,1738763156617,undefined,624,princess,positive,negative,A,NULL
1738763516,7d781a844946c7d9c391022451656bb8,PennController,81,0,test_val,NULL,Selector,unnamed-Selector,Selection,positive,1738763157746,undefined,624,princess,positive,negative,A,positive;negative
1738763516,7d781a844946c7d9c391022451656bb8,PennController,81,0,test_val,NULL,PennController,92,_Trial_,End,1738763157747,undefined,624,princess,positive,negative,A,NULL
1738763516,7d781a844946c7d9c391022451656bb8,PennController,76,0,test_val,NULL,PennController,87,_Trial_,Start,1738763157748,undefined,995,sibling,positive,negative,A,NULL
1738763516,7d781a844946c7d9c391022451656bb8,PennController,76,0,test_val,NULL,PennController,87,_Header_,Start,1738763157748,undefined,995,sibling,positive,negative,A,NULL
1738763516,7d781a844946c7d9c391022451656bb8,PennController,76,0,test_val,NULL,PennController,87,_Header_,End,1738763157999,undefined,995,sibling,positive,negative,A,NULL
1738763516,7d781a844946c7d9c391022451656bb8,PennController,76,0,test_val,NULL,Selector,unnamed-Selector,Selection,positive,1738763159498,undefined,995,sibling,positive,negative,A,positive;negative
1738763516,7d781a844946c7d9c391022451656bb8,PennController,76,0,test_val,NULL,PennController,87,_Trial_,End,1738763159499,undefined,995,sibling,positive,negative,A,NULL
1738763516,7d781a844946c7d9c391022451656bb8,PennController,47,0,test_val,NULL,PennController,58,_Trial_,Start,1738763159499,undefined,837,cocaine,positive,negative,A,NULL
1738763516,7d781a844946c7d9c391022451656bb8,PennController,47,0,test_val,NULL,PennController,58,_Header_,Start,1738763159499,undefined,837,cocaine,positive,negative,A,NULL
1738763516,7d781a844946c7d9c391022451656bb8,PennController,47,0,test_val,NULL,PennController,58,_Header_,End,1738763159750,undefined,837,cocaine,positive,negative,A,NULL
1738763516,7d781a844946c7d9c391022451656bb8,PennController,47,0,test_val,NULL,Selector,unnamed-Selector,Selection,negative,1738763161089,undefined,837,cocaine,positive,negative,A,positive;negative
1738763516,7d781a844946c7d9c391022451656bb8,PennController,47,0,test_val,NULL,PennController,58,_Trial_,End,1738763161090,undefined,837,cocaine,positive,negative,A,NULL
1738763516,7d781a844946c7d9c391022451656bb8,PennController,44,0,test_val,NULL,PennController,55,_Trial_,Start,1738763161091,undefined,739,heroin,positive,negative,A,NULL
1738763516,7d781a844946c7d9c391022451656bb8,PennController,44,0,test_val,NULL,PennController,55,_Header_,Start,1738763161091,undefined,739,heroin,positive,negative,A,NULL
1738763516,7d781a844946c7d9c391022451656bb8,PennController,44,0,test_val,NULL,PennController,55,_Header_,End,1738763161344,undefined,739,heroin,positive,negative,A,NULL
1738763516,7d781a844946c7d9c391022451656bb8,PennController,44,0,test_val,NULL,Selector,unnamed-Selector,Selection,negative,1738763162586,undefined,739,heroin,positive,negative,A,positive;negative
1738763516,7d781a844946c7d9c391022451656bb8,PennController,44,0,test_val,NULL,PennController,55,_Trial_,End,1738763162586,undefined,739,heroin,positive,negative,A,NULL
1738763516,7d781a844946c7d9c391022451656bb8,PennController,83,0,test_val,NULL,PennController,94,_Trial_,Start,1738763162586,undefined,2885,husband,positive,negative,A,NULL
1738763516,7d781a844946c7d9c391022451656bb8,PennController,83,0,test_val,NULL,PennController,94,_Header_,Start,1738763162586,undefined,2885,husband,positive,negative,A,NULL
1738763516,7d781a844946c7d9c391022451656bb8,PennController,83,0,test_val,NULL,PennController,94,_Header_,End,1738763162841,undefined,2885,husband,positive,negative,A,NULL
1738763516,7d781a844946c7d9c391022451656bb8,PennController,83,0,test_val,NULL,Selector,unnamed-Selector,Selection,positive,1738763166227,undefined,2885,husband,positive,negative,A,positive;negative
1738763516,7d781a844946c7d9c391022451656bb8,PennController,83,0,test_val,NULL,PennController,94,_Trial_,End,1738763166229,undefined,2885,husband,positive,negative,A,NULL
1738763516,7d781a844946c7d9c391022451656bb8,PennController,46,0,test_val,NULL,PennController,57,_Trial_,Start,1738763166230,undefined,4669,wiretap,positive,negative,A,NULL
1738763516,7d781a844946c7d9c391022451656bb8,PennController,46,0,test_val,NULL,PennController,57,_Header_,Start,1738763166230,undefined,4669,wiretap,positive,negative,A,NULL
1738763516,7d781a844946c7d9c391022451656bb8,PennController,46,0,test_val,NULL,PennController,57,_Header_,End,1738763166480,undefined,4669,wiretap,positive,negative,A,NULL
1738763516,7d781a844946c7d9c391022451656bb8,PennController,46,0,test_val,NULL,Selector,unnamed-Selector,Selection,negative,1738763171651,undefined,4669,wiretap,positive,negative,A,positive;negative
1738763516,7d781a844946c7d9c391022451656bb8,PennController,46,0,test_val,NULL,PennController,57,_Trial_,End,1738763171652,undefined,4669,wiretap,positive,negative,A,NULL
1738763516,7d781a844946c7d9c391022451656bb8,PennController,74,0,test_val,NULL,PennController,85,_Trial_,Start,1738763171653,undefined,692,comedian,positive,negative,A,NULL
1738763516,7d781a844946c7d9c391022451656bb8,PennController,74,0,test_val,NULL,PennController,85,_Header_,Start,1738763171653,undefined,692,comedian,positive,negative,A,NULL
1738763516,7d781a844946c7d9c391022451656bb8,PennController,74,0,test_val,NULL,PennController,85,_Header_,End,1738763171903,undefined,692,comedian,positive,negative,A,NULL
1738763516,7d781a844946c7d9c391022451656bb8,PennController,74,0,test_val,NULL,Selector,unnamed-Selector,Selection,positive,1738763173098,undefined,692,comedian,positive,negative,A,positive;negative
1738763516,7d781a844946c7d9c391022451656bb8,PennController,74,0,test_val,NULL,PennController,85,_Trial_,End,1738763173099,undefined,692,comedian,positive,negative,A,NULL
1738763516,7d781a844946c7d9c391022451656bb8,PennController,68,0,test_val,NULL,PennController,79,_Trial_,Start,1738763173100,undefined,1527,inmate,positive,negative,A,NULL
1738763516,7d781a844946c7d9c391022451656bb8,PennController,68,0,test_val,NULL,PennController,79,_Header_,Start,1738763173100,undefined,1527,inmate,positive,negative,A,NULL
1738763516,7d781a844946c7d9c391022451656bb8,PennController,68,0,test_val,NULL,PennController,79,_Header_,End,1738763173352,undefined,1527,inmate,positive,negative,A,NULL
1738763516,7d781a844946c7d9c391022451656bb8,PennController,68,0,test_val,NULL,Selector,unnamed-Selector,Selection,negative,1738763175381,undefined,1527,inmate,positive,negative,A,positive;negative
1738763516,7d781a844946c7d9c391022451656bb8,PennController,68,0,test_val,NULL,PennController,79,_Trial_,End,1738763175382,undefined,1527,inmate,positive,negative,A,NULL
1738763516,7d781a844946c7d9c391022451656bb8,PennController,52,0,test_val,NULL,PennController,63,_Trial_,Start,1738763175383,undefined,565,smallpox,positive,negative,A,NULL
1738763516,7d781a844946c7d9c391022451656bb8,PennController,52,0,test_val,NULL,PennController,63,_Header_,Start,1738763175383,undefined,565,smallpox,positive,negative,A,NULL
1738763516,7d781a844946c7d9c391022451656bb8,PennController,52,0,test_val,NULL,PennController,63,_Header_,End,1738763175636,undefined,565,smallpox,positive,negative,A,NULL
1738763516,7d781a844946c7d9c391022451656bb8,PennController,52,0,test_val,NULL,Selector,unnamed-Selector,Selection,negative,1738763176706,undefined,565,smallpox,positive,negative,A,positive;negative
1738763516,7d781a844946c7d9c391022451656bb8,PennController,52,0,test_val,NULL,PennController,63,_Trial_,End,1738763176708,undefined,565,smallpox,positive,negative,A,NULL
1738763516,7d781a844946c7d9c391022451656bb8,PennController,66,0,test_val,NULL,PennController,77,_Trial_,Start,1738763176709,undefined,570,maggot,positive,negative,A,NULL
1738763516,7d781a844946c7d9c391022451656bb8,PennController,66,0,test_val,NULL,PennController,77,_Header_,Start,1738763176709,undefined,570,maggot,positive,negative,A,NULL
1738763516,7d781a844946c7d9c391022451656bb8,PennController,66,0,test_val,NULL,PennController,77,_Header_,End,1738763176962,undefined,570,maggot,positive,negative,A,NULL
1738763516,7d781a844946c7d9c391022451656bb8,PennController,66,0,test_val,NULL,Selector,unnamed-Selector,Selection,negative,1738763178035,undefined,570,maggot,positive,negative,A,positive;negative
1738763516,7d781a844946c7d9c391022451656bb8,PennController,66,0,test_val,NULL,PennController,77,_Trial_,End,1738763178036,undefined,570,maggot,positive,negative,A,NULL
1738763516,7d781a844946c7d9c391022451656bb8,PennController,76,0,test_val,NULL,PennController,87,_Trial_,Start,1738763178038,undefined,643,sibling,positive,negative,A,NULL
1738763516,7d781a844946c7d9c391022451656bb8,PennController,76,0,test_val,NULL,PennController,87,_Header_,Start,1738763178038,undefined,643,sibling,positive,negative,A,NULL
1738763516,7d781a844946c7d9c391022451656bb8,PennController,76,0,test_val,NULL,PennController,87,_Header_,End,1738763178289,undefined,643,sibling,positive,negative,A,NULL
1738763516,7d781a844946c7d9c391022451656bb8,PennController,76,0,test_val,NULL,Selector,unnamed-Selector,Selection,positive,1738763179435,undefined,643,sibling,positive,negative,A,positive;negative
1738763516,7d781a844946c7d9c391022451656bb8,PennController,76,0,test_val,NULL,PennController,87,_Trial_,End,1738763179436,undefined,643,sibling,positive,negative,A,NULL
1738763516,7d781a844946c7d9c391022451656bb8,PennController,63,0,test_val,NULL,PennController,74,_Trial_,Start,1738763179437,undefined,929,meadow,positive,negative,A,NULL
1738763516,7d781a844946c7d9c391022451656bb8,PennController,63,0,test_val,NULL,PennController,74,_Header_,Start,1738763179437,undefined,929,meadow,positive,negative,A,NULL
1738763516,7d781a844946c7d9c391022451656bb8,PennController,63,0,test_val,NULL,PennController,74,_Header_,End,1738763179691,undefined,929,meadow,positive,negative,A,NULL
1738763516,7d781a844946c7d9c391022451656bb8,PennController,63,0,test_val,NULL,Selector,unnamed-Selector,Selection,positive,1738763181123,undefined,929,meadow,positive,negative,A,positive;negative
1738763516,7d781a844946c7d9c391022451656bb8,PennController,63,0,test_val,NULL,PennController,74,_Trial_,End,1738763181124,undefined,929,meadow,positive,negative,A,NULL
1738763516,7d781a844946c7d9c391022451656bb8,PennController,75,0,test_val,NULL,PennController,86,_Trial_,Start,1738763181125,undefined,524,puppy,positive,negative,A,NULL
1738763516,7d781a844946c7d9c391022451656bb8,PennController,75,0,test_val,NULL,PennController,86,_Header_,Start,1738763181125,undefined,524,puppy,positive,negative,A,NULL
1738763516,7d781a844946c7d9c391022451656bb8,PennController,75,0,test_val,NULL,PennController,86,_Header_,End,1738763181375,undefined,524,puppy,positive,negative,A,NULL
1738763516,7d781a844946c7d9c391022451656bb8,PennController,75,0,test_val,NULL,Selector,unnamed-Selector,Selection,positive,1738763182402,undefined,524,puppy,positive,negative,A,positive;negative
1738763516,7d781a844946c7d9c391022451656bb8,PennController,75,0,test_val,NULL,PennController,86,_Trial_,End,1738763182403,undefined,524,puppy,positive,negative,A,NULL
1738763516,7d781a844946c7d9c391022451656bb8,PennController,51,0,test_val,NULL,PennController,62,_Trial_,Start,1738763182405,undefined,1131,flood,positive,negative,A,NULL
1738763516,7d781a844946c7d9c391022451656bb8,PennController,51,0,test_val,NULL,PennController,62,_Header_,Start,1738763182405,undefined,1131,flood,positive,negative,A,NULL
1738763516,7d781a844946c7d9c391022451656bb8,PennController,51,0,test_val,NULL,PennController,62,_Header_,End,1738763182656,undefined,1131,flood,positive,negative,A,NULL
1738763516,7d781a844946c7d9c391022451656bb8,PennController,51,0,test_val,NULL,Selector,unnamed-Selector,Selection,negative,1738763184290,undefined,1131,flood,positive,negative,A,positive;negative
1738763516,7d781a844946c7d9c391022451656bb8,PennController,51,0,test_val,NULL,PennController,62,_Trial_,End,1738763184291,undefined,1131,flood,positive,negative,A,NULL
1738763516,7d781a844946c7d9c391022451656bb8,PennController,81,0,test_val,NULL,PennController,92,_Trial_,Start,1738763184293,undefined,852,princess,positive,negative,A,NULL
1738763516,7d781a844946c7d9c391022451656bb8,PennController,81,0,test_val,NULL,PennController,92,_Header_,Start,1738763184293,undefined,852,princess,positive,negative,A,NULL
1738763516,7d781a844946c7d9c391022451656bb8,PennController,81,0,test_val,NULL,PennController,92,_Header_,End,1738763184544,undefined,852,princess,positive,negative,A,NULL
1738763516,7d781a844946c7d9c391022451656bb8,PennController,81,0,test_val,NULL,Selector,unnamed-Selector,Selection,positive,1738763185899,undefined,852,princess,positive,negative,A,positive;negative
1738763516,7d781a844946c7d9c391022451656bb8,PennController,81,0,test_val,NULL,PennController,92,_Trial_,End,1738763185900,undefined,852,princess,positive,negative,A,NULL
