#
# Results on Wed, 05 Feb 2025 16:49:43 GMT
# USER AGENT: Mozilla/5.0 (Windows NT 10.0; Win64; x64) AppleWebKit/537.36 (KHTML, like Gecko) Chrome/132.0.0.0 Safari/537.36
# Design number was non-random = 0
#
# Columns below this comment are as follows:
# 1. Results reception time.
# 2. MD5 hash of participant's IP address.
# 3. Controller name.
# 4. Order number of item.
# 5. Inner element number.
# 6. Label.
# 7. Latin Square Group.
# 8. PennElementType.
# 9. PennElementName.
# 10. Parameter.
# 11. Value.
# 12. EventTime.
# 13. Comments.
1738774183,dbbad0eb544a76cc7d40d0ce79acb34d,PennController,1,0,welcome,NULL,PennController,0,_Trial_,Start,1738773534670,NULL
1738774183,dbbad0eb544a76cc7d40d0ce79acb34d,PennController,1,0,welcome,NULL,PennController,0,_Header_,Start,1738773534670,NULL
1738774183,dbbad0eb544a76cc7d40d0ce79acb34d,PennController,1,0,welcome,NULL,PennController,0,_Header_,End,1738773534920,NULL
1738774183,dbbad0eb544a76cc7d40d0ce79acb34d,PennController,1,0,welcome,NULL,PennController,0,_Trial_,End,1738773537712,NULL
# 13. ID.
# 14. Comments.
1738774183,dbbad0eb544a76cc7d40d0ce79acb34d,PennController,124,0,consent,NULL,PennController,2,_Trial_,Start,1738773537714,5d4bed118cbe900016c1f6d0,NULL
1738774183,dbbad0eb544a76cc7d40d0ce79acb34d,PennController,124,0,consent,NULL,PennController,2,_Header_,Start,1738773537714,5d4bed118cbe900016c1f6d0,NULL
1738774183,dbbad0eb544a76cc7d40d0ce79acb34d,PennController,124,0,consent,NULL,PennController,2,_Header_,End,1738773537964,5d4bed118cbe900016c1f6d0,NULL
1738774183,dbbad0eb544a76cc7d40d0ce79acb34d,PennController,124,0,consent,NULL,TextInput,ID,Final,5d4bed118cbe900016c1f6d0,1738773544983,5d4bed118cbe900016c1f6d0,NULL
1738774183,dbbad0eb544a76cc7d40d0ce79acb34d,PennController,124,0,consent,NULL,PennController,2,_Trial_,End,1738773544983,5d4bed118cbe900016c1f6d0,NULL
# 13. Comments.
1738774183,dbbad0eb544a76cc7d40d0ce79acb34d,PennController,126,0,instructions1_ani,NULL,PennController,4,_Trial_,Start,1738773544984,NULL
1738774183,dbbad0eb544a76cc7d40d0ce79acb34d,PennController,126,0,instructions1_ani,NULL,PennController,4,_Header_,Start,1738773544984,NULL
1738774183,dbbad0eb544a76cc7d40d0ce79acb34d,PennController,126,0,instructions1_ani,NULL,PennController,4,_Header_,End,1738773545234,NULL
1738774183,dbbad0eb544a76cc7d40d0ce79acb34d,PennController,126,0,instructions1_ani,NULL,PennController,4,_Trial_,End,1738773565710,NULL
1738774183,dbbad0eb544a76cc7d40d0ce79acb34d,PennController,127,0,instructions2_ani,NULL,PennController,5,_Trial_,Start,1738773565711,NULL
1738774183,dbbad0eb544a76cc7d40d0ce79acb34d,PennController,127,0,instructions2_ani,NULL,PennController,5,_Header_,Start,1738773565711,NULL
1738774183,dbbad0eb544a76cc7d40d0ce79acb34d,PennController,127,0,instructions2_ani,NULL,PennController,5,_Header_,End,1738773565961,NULL
1738774183,dbbad0eb544a76cc7d40d0ce79acb34d,PennController,127,0,instructions2_ani,NULL,PennController,5,_Trial_,End,1738773569903,NULL
1738774183,dbbad0eb544a76cc7d40d0ce79acb34d,PennController,134,0,instructions3_hands,NULL,PennController,12,_Trial_,Start,1738773569904,NULL
1738774183,dbbad0eb544a76cc7d40d0ce79acb34d,PennController,134,0,instructions3_hands,NULL,PennController,12,_Header_,Start,1738773569904,NULL
1738774183,dbbad0eb544a76cc7d40d0ce79acb34d,PennController,134,0,instructions3_hands,NULL,PennController,12,_Header_,End,1738773570155,NULL
1738774183,dbbad0eb544a76cc7d40d0ce79acb34d,PennController,134,0,instructions3_hands,NULL,PennController,12,_Trial_,End,1738773573832,NULL
1738774183,dbbad0eb544a76cc7d40d0ce79acb34d,PennController,129,0,practice_intro_ani,NULL,PennController,7,_Trial_,Start,1738773573835,NULL
1738774183,dbbad0eb544a76cc7d40d0ce79acb34d,PennController,129,0,practice_intro_ani,NULL,PennController,7,_Header_,Start,1738773573835,NULL
1738774183,dbbad0eb544a76cc7d40d0ce79acb34d,PennController,129,0,practice_intro_ani,NULL,PennController,7,_Header_,End,1738773574089,NULL
1738774183,dbbad0eb544a76cc7d40d0ce79acb34d,PennController,129,0,practice_intro_ani,NULL,PennController,7,_Trial_,End,1738773575462,NULL
# 13. ID.
# 14. ReactionTime.
# 15. Word.
# 16. selectedKey.
# 17. selectedValue.
# 18. Key_value_F.
# 19. Key_value_J.
# 20. Group.
# 21. Comments.
1738774183,dbbad0eb544a76cc7d40d0ce79acb34d,PennController,88,0,calibrator_ani_feedback,NULL,PennController,99,_Trial_,Start,1738773575464,undefined,1626,monkey,undefined,animate,inanimate,animate,B,NULL
1738774183,dbbad0eb544a76cc7d40d0ce79acb34d,PennController,88,0,calibrator_ani_feedback,NULL,PennController,99,_Header_,Start,1738773575464,undefined,1626,monkey,undefined,animate,inanimate,animate,B,NULL
1738774183,dbbad0eb544a76cc7d40d0ce79acb34d,PennController,88,0,calibrator_ani_feedback,NULL,PennController,99,_Header_,End,1738773575718,undefined,1626,monkey,undefined,animate,inanimate,animate,B,NULL
1738774183,dbbad0eb544a76cc7d40d0ce79acb34d,PennController,88,0,calibrator_ani_feedback,NULL,Selector,Selection,Selection,Option_J,1738773577846,undefined,1626,monkey,undefined,animate,inanimate,animate,B,Option_F;Option_J
1738774183,dbbad0eb544a76cc7d40d0ce79acb34d,PennController,88,0,calibrator_ani_feedback,NULL,PennController,99,_Trial_,End,1738773579854,undefined,1626,monkey,undefined,animate,inanimate,animate,B,NULL
1738774183,dbbad0eb544a76cc7d40d0ce79acb34d,PennController,87,0,calibrator_ani_feedback,NULL,PennController,98,_Trial_,Start,1738773579857,undefined,1101,horse,undefined,animate,inanimate,animate,B,NULL
1738774183,dbbad0eb544a76cc7d40d0ce79acb34d,PennController,87,0,calibrator_ani_feedback,NULL,PennController,98,_Header_,Start,1738773579857,undefined,1101,horse,undefined,animate,inanimate,animate,B,NULL
1738774183,dbbad0eb544a76cc7d40d0ce79acb34d,PennController,87,0,calibrator_ani_feedback,NULL,PennController,98,_Header_,End,1738773580111,undefined,1101,horse,undefined,animate,inanimate,animate,B,NULL
1738774183,dbbad0eb544a76cc7d40d0ce79acb34d,PennController,87,0,calibrator_ani_feedback,NULL,Selector,Selection,Selection,Option_J,1738773581716,undefined,1101,horse,undefined,animate,inanimate,animate,B,Option_F;Option_J
1738774183,dbbad0eb544a76cc7d40d0ce79acb34d,PennController,87,0,calibrator_ani_feedback,NULL,PennController,98,_Trial_,End,1738773583723,undefined,1101,horse,undefined,animate,inanimate,animate,B,NULL
1738774183,dbbad0eb544a76cc7d40d0ce79acb34d,PennController,93,0,calibrator_ani_feedback,NULL,PennController,104,_Trial_,Start,1738773583724,undefined,1089,clock,undefined,animate,inanimate,animate,B,NULL
1738774183,dbbad0eb544a76cc7d40d0ce79acb34d,PennController,93,0,calibrator_ani_feedback,NULL,PennController,104,_Header_,Start,1738773583724,undefined,1089,clock,undefined,animate,inanimate,animate,B,NULL
1738774183,dbbad0eb544a76cc7d40d0ce79acb34d,PennController,93,0,calibrator_ani_feedback,NULL,PennController,104,_Header_,End,1738773583975,undefined,1089,clock,undefined,animate,inanimate,animate,B,NULL
1738774183,dbbad0eb544a76cc7d40d0ce79acb34d,PennController,93,0,calibrator_ani_feedback,NULL,Selector,Selection,Selection,Option_F,1738773585565,undefined,1089,clock,undefined,animate,inanimate,animate,B,Option_F;Option_J
1738774183,dbbad0eb544a76cc7d40d0ce79acb34d,PennController,93,0,calibrator_ani_feedback,NULL,PennController,104,_Trial_,End,1738773587568,undefined,1089,clock,undefined,animate,inanimate,animate,B,NULL
1738774183,dbbad0eb544a76cc7d40d0ce79acb34d,PennController,85,0,calibrator_ani_feedback,NULL,PennController,96,_Trial_,Start,1738773587570,undefined,1058,human,undefined,animate,inanimate,animate,B,NULL
1738774183,dbbad0eb544a76cc7d40d0ce79acb34d,PennController,85,0,calibrator_ani_feedback,NULL,PennController,96,_Header_,Start,1738773587570,undefined,1058,human,undefined,animate,inanimate,animate,B,NULL
1738774183,dbbad0eb544a76cc7d40d0ce79acb34d,PennController,85,0,calibrator_ani_feedback,NULL,PennController,96,_Header_,End,1738773587822,undefined,1058,human,undefined,animate,inanimate,animate,B,NULL
1738774183,dbbad0eb544a76cc7d40d0ce79acb34d,PennController,85,0,calibrator_ani_feedback,NULL,Selector,Selection,Selection,Option_J,1738773589382,undefined,1058,human,undefined,animate,inanimate,animate,B,Option_F;Option_J
1738774183,dbbad0eb544a76cc7d40d0ce79acb34d,PennController,85,0,calibrator_ani_feedback,NULL,PennController,96,_Trial_,End,1738773591390,undefined,1058,human,undefined,animate,inanimate,animate,B,NULL
1738774183,dbbad0eb544a76cc7d40d0ce79acb34d,PennController,84,0,calibrator_ani_feedback,NULL,PennController,95,_Trial_,Start,1738773591392,undefined,945,elephant,undefined,animate,inanimate,animate,B,NULL
1738774183,dbbad0eb544a76cc7d40d0ce79acb34d,PennController,84,0,calibrator_ani_feedback,NULL,PennController,95,_Header_,Start,1738773591392,undefined,945,elephant,undefined,animate,inanimate,animate,B,NULL
1738774183,dbbad0eb544a76cc7d40d0ce79acb34d,PennController,84,0,calibrator_ani_feedback,NULL,PennController,95,_Header_,End,1738773591642,undefined,945,elephant,undefined,animate,inanimate,animate,B,NULL
1738774183,dbbad0eb544a76cc7d40d0ce79acb34d,PennController,84,0,calibrator_ani_feedback,NULL,Selector,Selection,Selection,Option_J,1738773593092,undefined,945,elephant,undefined,animate,inanimate,animate,B,Option_F;Option_J
1738774183,dbbad0eb544a76cc7d40d0ce79acb34d,PennController,84,0,calibrator_ani_feedback,NULL,PennController,95,_Trial_,End,1738773595096,undefined,945,elephant,undefined,animate,inanimate,animate,B,NULL
1738774183,dbbad0eb544a76cc7d40d0ce79acb34d,PennController,89,0,calibrator_ani_feedback,NULL,PennController,100,_Trial_,Start,1738773595096,undefined,942,chair,undefined,animate,inanimate,animate,B,NULL
1738774183,dbbad0eb544a76cc7d40d0ce79acb34d,PennController,89,0,calibrator_ani_feedback,NULL,PennController,100,_Header_,Start,1738773595096,undefined,942,chair,undefined,animate,inanimate,animate,B,NULL
1738774183,dbbad0eb544a76cc7d40d0ce79acb34d,PennController,89,0,calibrator_ani_feedback,NULL,PennController,100,_Header_,End,1738773595350,undefined,942,chair,undefined,animate,inanimate,animate,B,NULL
1738774183,dbbad0eb544a76cc7d40d0ce79acb34d,PennController,89,0,calibrator_ani_feedback,NULL,Selector,Selection,Selection,Option_F,1738773596797,undefined,942,chair,undefined,animate,inanimate,animate,B,Option_F;Option_J
1738774183,dbbad0eb544a76cc7d40d0ce79acb34d,PennController,89,0,calibrator_ani_feedback,NULL,PennController,100,_Trial_,End,1738773598801,undefined,942,chair,undefined,animate,inanimate,animate,B,NULL
1738774183,dbbad0eb544a76cc7d40d0ce79acb34d,PennController,86,0,calibrator_ani_feedback,NULL,PennController,97,_Trial_,Start,1738773598803,undefined,1241,teenager,undefined,animate,inanimate,animate,B,NULL
1738774183,dbbad0eb544a76cc7d40d0ce79acb34d,PennController,86,0,calibrator_ani_feedback,NULL,PennController,97,_Header_,Start,1738773598803,undefined,1241,teenager,undefined,animate,inanimate,animate,B,NULL
1738774183,dbbad0eb544a76cc7d40d0ce79acb34d,PennController,86,0,calibrator_ani_feedback,NULL,PennController,97,_Header_,End,1738773599054,undefined,1241,teenager,undefined,animate,inanimate,animate,B,NULL
1738774183,dbbad0eb544a76cc7d40d0ce79acb34d,PennController,86,0,calibrator_ani_feedback,NULL,Selector,Selection,Selection,Option_J,1738773600798,undefined,1241,teenager,undefined,animate,inanimate,animate,B,Option_F;Option_J
1738774183,dbbad0eb544a76cc7d40d0ce79acb34d,PennController,86,0,calibrator_ani_feedback,NULL,PennController,97,_Trial_,End,1738773602804,undefined,1241,teenager,undefined,animate,inanimate,animate,B,NULL
1738774183,dbbad0eb544a76cc7d40d0ce79acb34d,PennController,91,0,calibrator_ani_feedback,NULL,PennController,102,_Trial_,Start,1738773602805,undefined,947,computer,undefined,animate,inanimate,animate,B,NULL
1738774183,dbbad0eb544a76cc7d40d0ce79acb34d,PennController,91,0,calibrator_ani_feedback,NULL,PennController,102,_Header_,Start,1738773602805,undefined,947,computer,undefined,animate,inanimate,animate,B,NULL
1738774183,dbbad0eb544a76cc7d40d0ce79acb34d,PennController,91,0,calibrator_ani_feedback,NULL,PennController,102,_Header_,End,1738773603060,undefined,947,computer,undefined,animate,inanimate,animate,B,NULL
1738774183,dbbad0eb544a76cc7d40d0ce79acb34d,PennController,91,0,calibrator_ani_feedback,NULL,Selector,Selection,Selection,Option_F,1738773604510,undefined,947,computer,undefined,animate,inanimate,animate,B,Option_F;Option_J
1738774183,dbbad0eb544a76cc7d40d0ce79acb34d,PennController,91,0,calibrator_ani_feedback,NULL,PennController,102,_Trial_,End,1738773606516,undefined,947,computer,undefined,animate,inanimate,animate,B,NULL
1738774183,dbbad0eb544a76cc7d40d0ce79acb34d,PennController,90,0,calibrator_ani_feedback,NULL,PennController,101,_Trial_,Start,1738773606519,undefined,911,table,undefined,animate,inanimate,animate,B,NULL
1738774183,dbbad0eb544a76cc7d40d0ce79acb34d,PennController,90,0,calibrator_ani_feedback,NULL,PennController,101,_Header_,Start,1738773606519,undefined,911,table,undefined,animate,inanimate,animate,B,NULL
1738774183,dbbad0eb544a76cc7d40d0ce79acb34d,PennController,90,0,calibrator_ani_feedback,NULL,PennController,101,_Header_,End,1738773606774,undefined,911,table,undefined,animate,inanimate,animate,B,NULL
1738774183,dbbad0eb544a76cc7d40d0ce79acb34d,PennController,90,0,calibrator_ani_feedback,NULL,Selector,Selection,Selection,Option_F,1738773608188,undefined,911,table,undefined,animate,inanimate,animate,B,Option_F;Option_J
1738774183,dbbad0eb544a76cc7d40d0ce79acb34d,PennController,90,0,calibrator_ani_feedback,NULL,PennController,101,_Trial_,End,1738773610192,undefined,911,table,undefined,animate,inanimate,animate,B,NULL
1738774183,dbbad0eb544a76cc7d40d0ce79acb34d,PennController,92,0,calibrator_ani_feedback,NULL,PennController,103,_Trial_,Start,1738773610193,undefined,979,bottle,undefined,animate,inanimate,animate,B,NULL
1738774183,dbbad0eb544a76cc7d40d0ce79acb34d,PennController,92,0,calibrator_ani_feedback,NULL,PennController,103,_Header_,Start,1738773610193,undefined,979,bottle,undefined,animate,inanimate,animate,B,NULL
1738774183,dbbad0eb544a76cc7d40d0ce79acb34d,PennController,92,0,calibrator_ani_feedback,NULL,PennController,103,_Header_,End,1738773610444,undefined,979,bottle,undefined,animate,inanimate,animate,B,NULL
1738774183,dbbad0eb544a76cc7d40d0ce79acb34d,PennController,92,0,calibrator_ani_feedback,NULL,Selector,Selection,Selection,Option_F,1738773611926,undefined,979,bottle,undefined,animate,inanimate,animate,B,Option_F;Option_J
1738774183,dbbad0eb544a76cc7d40d0ce79acb34d,PennController,92,0,calibrator_ani_feedback,NULL,PennController,103,_Trial_,End,1738773613931,undefined,979,bottle,undefined,animate,inanimate,animate,B,NULL
# 16. Key_value_F.
# 17. Key_value_J.
# 18. Group.
# 19. Comments.
1738774183,dbbad0eb544a76cc7d40d0ce79acb34d,PennController,94,0,calibrator_ani_no_feedback,NULL,PennController,105,_Trial_,Start,1738773613934,undefined,842,elephant,inanimate,animate,B,NULL
1738774183,dbbad0eb544a76cc7d40d0ce79acb34d,PennController,94,0,calibrator_ani_no_feedback,NULL,PennController,105,_Header_,Start,1738773613934,undefined,842,elephant,inanimate,animate,B,NULL
1738774183,dbbad0eb544a76cc7d40d0ce79acb34d,PennController,94,0,calibrator_ani_no_feedback,NULL,PennController,105,_Header_,End,1738773614188,undefined,842,elephant,inanimate,animate,B,NULL
1738774183,dbbad0eb544a76cc7d40d0ce79acb34d,PennController,94,0,calibrator_ani_no_feedback,NULL,Selector,unnamed-Selector,Selection,animate,1738773615533,undefined,842,elephant,inanimate,animate,B,inanimate;animate
1738774183,dbbad0eb544a76cc7d40d0ce79acb34d,PennController,94,0,calibrator_ani_no_feedback,NULL,PennController,105,_Trial_,End,1738773615535,undefined,842,elephant,inanimate,animate,B,NULL
1738774183,dbbad0eb544a76cc7d40d0ce79acb34d,PennController,102,0,calibrator_ani_no_feedback,NULL,PennController,113,_Trial_,Start,1738773615537,undefined,1176,bottle,inanimate,animate,B,NULL
1738774183,dbbad0eb544a76cc7d40d0ce79acb34d,PennController,102,0,calibrator_ani_no_feedback,NULL,PennController,113,_Header_,Start,1738773615537,undefined,1176,bottle,inanimate,animate,B,NULL
1738774183,dbbad0eb544a76cc7d40d0ce79acb34d,PennController,102,0,calibrator_ani_no_feedback,NULL,PennController,113,_Header_,End,1738773615788,undefined,1176,bottle,inanimate,animate,B,NULL
1738774183,dbbad0eb544a76cc7d40d0ce79acb34d,PennController,102,0,calibrator_ani_no_feedback,NULL,Selector,unnamed-Selector,Selection,inanimate,1738773617469,undefined,1176,bottle,inanimate,animate,B,inanimate;animate
1738774183,dbbad0eb544a76cc7d40d0ce79acb34d,PennController,102,0,calibrator_ani_no_feedback,NULL,PennController,113,_Trial_,End,1738773617471,undefined,1176,bottle,inanimate,animate,B,NULL
1738774183,dbbad0eb544a76cc7d40d0ce79acb34d,PennController,95,0,calibrator_ani_no_feedback,NULL,PennController,106,_Trial_,Start,1738773617474,undefined,834,human,inanimate,animate,B,NULL
1738774183,dbbad0eb544a76cc7d40d0ce79acb34d,PennController,95,0,calibrator_ani_no_feedback,NULL,PennController,106,_Header_,Start,1738773617474,undefined,834,human,inanimate,animate,B,NULL
1738774183,dbbad0eb544a76cc7d40d0ce79acb34d,PennController,95,0,calibrator_ani_no_feedback,NULL,PennController,106,_Header_,End,1738773617725,undefined,834,human,inanimate,animate,B,NULL
1738774183,dbbad0eb544a76cc7d40d0ce79acb34d,PennController,95,0,calibrator_ani_no_feedback,NULL,Selector,unnamed-Selector,Selection,animate,1738773619061,undefined,834,human,inanimate,animate,B,inanimate;animate
1738774183,dbbad0eb544a76cc7d40d0ce79acb34d,PennController,95,0,calibrator_ani_no_feedback,NULL,PennController,106,_Trial_,End,1738773619062,undefined,834,human,inanimate,animate,B,NULL
1738774183,dbbad0eb544a76cc7d40d0ce79acb34d,PennController,103,0,calibrator_ani_no_feedback,NULL,PennController,114,_Trial_,Start,1738773619063,undefined,762,clock,inanimate,animate,B,NULL
1738774183,dbbad0eb544a76cc7d40d0ce79acb34d,PennController,103,0,calibrator_ani_no_feedback,NULL,PennController,114,_Header_,Start,1738773619063,undefined,762,clock,inanimate,animate,B,NULL
1738774183,dbbad0eb544a76cc7d40d0ce79acb34d,PennController,103,0,calibrator_ani_no_feedback,NULL,PennController,114,_Header_,End,1738773619314,undefined,762,clock,inanimate,animate,B,NULL
1738774183,dbbad0eb544a76cc7d40d0ce79acb34d,PennController,103,0,calibrator_ani_no_feedback,NULL,Selector,unnamed-Selector,Selection,inanimate,1738773620581,undefined,762,clock,inanimate,animate,B,inanimate;animate
1738774183,dbbad0eb544a76cc7d40d0ce79acb34d,PennController,103,0,calibrator_ani_no_feedback,NULL,PennController,114,_Trial_,End,1738773620582,undefined,762,clock,inanimate,animate,B,NULL
1738774183,dbbad0eb544a76cc7d40d0ce79acb34d,PennController,99,0,calibrator_ani_no_feedback,NULL,PennController,110,_Trial_,Start,1738773620583,undefined,818,chair,inanimate,animate,B,NULL
1738774183,dbbad0eb544a76cc7d40d0ce79acb34d,PennController,99,0,calibrator_ani_no_feedback,NULL,PennController,110,_Header_,Start,1738773620583,undefined,818,chair,inanimate,animate,B,NULL
1738774183,dbbad0eb544a76cc7d40d0ce79acb34d,PennController,99,0,calibrator_ani_no_feedback,NULL,PennController,110,_Header_,End,1738773620837,undefined,818,chair,inanimate,animate,B,NULL
1738774183,dbbad0eb544a76cc7d40d0ce79acb34d,PennController,99,0,calibrator_ani_no_feedback,NULL,Selector,unnamed-Selector,Selection,inanimate,1738773622156,undefined,818,chair,inanimate,animate,B,inanimate;animate
1738774183,dbbad0eb544a76cc7d40d0ce79acb34d,PennController,99,0,calibrator_ani_no_feedback,NULL,PennController,110,_Trial_,End,1738773622157,undefined,818,chair,inanimate,animate,B,NULL
1738774183,dbbad0eb544a76cc7d40d0ce79acb34d,PennController,101,0,calibrator_ani_no_feedback,NULL,PennController,112,_Trial_,Start,1738773622158,undefined,935,computer,inanimate,animate,B,NULL
1738774183,dbbad0eb544a76cc7d40d0ce79acb34d,PennController,101,0,calibrator_ani_no_feedback,NULL,PennController,112,_Header_,Start,1738773622158,undefined,935,computer,inanimate,animate,B,NULL
1738774183,dbbad0eb544a76cc7d40d0ce79acb34d,PennController,101,0,calibrator_ani_no_feedback,NULL,PennController,112,_Header_,End,1738773622408,undefined,935,computer,inanimate,animate,B,NULL
1738774183,dbbad0eb544a76cc7d40d0ce79acb34d,PennController,101,0,calibrator_ani_no_feedback,NULL,Selector,unnamed-Selector,Selection,inanimate,1738773623844,undefined,935,computer,inanimate,animate,B,inanimate;animate
1738774183,dbbad0eb544a76cc7d40d0ce79acb34d,PennController,101,0,calibrator_ani_no_feedback,NULL,PennController,112,_Trial_,End,1738773623845,undefined,935,computer,inanimate,animate,B,NULL
1738774183,dbbad0eb544a76cc7d40d0ce79acb34d,PennController,97,0,calibrator_ani_no_feedback,NULL,PennController,108,_Trial_,Start,1738773623846,undefined,827,horse,inanimate,animate,B,NULL
1738774183,dbbad0eb544a76cc7d40d0ce79acb34d,PennController,97,0,calibrator_ani_no_feedback,NULL,PennController,108,_Header_,Start,1738773623846,undefined,827,horse,inanimate,animate,B,NULL
1738774183,dbbad0eb544a76cc7d40d0ce79acb34d,PennController,97,0,calibrator_ani_no_feedback,NULL,PennController,108,_Header_,End,1738773624100,undefined,827,horse,inanimate,animate,B,NULL
1738774183,dbbad0eb544a76cc7d40d0ce79acb34d,PennController,97,0,calibrator_ani_no_feedback,NULL,Selector,unnamed-Selector,Selection,animate,1738773625430,undefined,827,horse,inanimate,animate,B,inanimate;animate
1738774183,dbbad0eb544a76cc7d40d0ce79acb34d,PennController,97,0,calibrator_ani_no_feedback,NULL,PennController,108,_Trial_,End,1738773625432,undefined,827,horse,inanimate,animate,B,NULL
1738774183,dbbad0eb544a76cc7d40d0ce79acb34d,PennController,100,0,calibrator_ani_no_feedback,NULL,PennController,111,_Trial_,Start,1738773625435,undefined,838,table,inanimate,animate,B,NULL
1738774183,dbbad0eb544a76cc7d40d0ce79acb34d,PennController,100,0,calibrator_ani_no_feedback,NULL,PennController,111,_Header_,Start,1738773625435,undefined,838,table,inanimate,animate,B,NULL
1738774183,dbbad0eb544a76cc7d40d0ce79acb34d,PennController,100,0,calibrator_ani_no_feedback,NULL,PennController,111,_Header_,End,1738773625686,undefined,838,table,inanimate,animate,B,NULL
1738774183,dbbad0eb544a76cc7d40d0ce79acb34d,PennController,100,0,calibrator_ani_no_feedback,NULL,Selector,unnamed-Selector,Selection,inanimate,1738773627028,undefined,838,table,inanimate,animate,B,inanimate;animate
1738774183,dbbad0eb544a76cc7d40d0ce79acb34d,PennController,100,0,calibrator_ani_no_feedback,NULL,PennController,111,_Trial_,End,1738773627029,undefined,838,table,inanimate,animate,B,NULL
1738774183,dbbad0eb544a76cc7d40d0ce79acb34d,PennController,96,0,calibrator_ani_no_feedback,NULL,PennController,107,_Trial_,Start,1738773627029,undefined,846,teenager,inanimate,animate,B,NULL
1738774183,dbbad0eb544a76cc7d40d0ce79acb34d,PennController,96,0,calibrator_ani_no_feedback,NULL,PennController,107,_Header_,Start,1738773627029,undefined,846,teenager,inanimate,animate,B,NULL
1738774183,dbbad0eb544a76cc7d40d0ce79acb34d,PennController,96,0,calibrator_ani_no_feedback,NULL,PennController,107,_Header_,End,1738773627283,undefined,846,teenager,inanimate,animate,B,NULL
1738774183,dbbad0eb544a76cc7d40d0ce79acb34d,PennController,96,0,calibrator_ani_no_feedback,NULL,Selector,unnamed-Selector,Selection,animate,1738773628637,undefined,846,teenager,inanimate,animate,B,inanimate;animate
1738774183,dbbad0eb544a76cc7d40d0ce79acb34d,PennController,96,0,calibrator_ani_no_feedback,NULL,PennController,107,_Trial_,End,1738773628638,undefined,846,teenager,inanimate,animate,B,NULL
1738774183,dbbad0eb544a76cc7d40d0ce79acb34d,PennController,98,0,calibrator_ani_no_feedback,NULL,PennController,109,_Trial_,Start,1738773628639,undefined,1080,monkey,inanimate,animate,B,NULL
1738774183,dbbad0eb544a76cc7d40d0ce79acb34d,PennController,98,0,calibrator_ani_no_feedback,NULL,PennController,109,_Header_,Start,1738773628639,undefined,1080,monkey,inanimate,animate,B,NULL
1738774183,dbbad0eb544a76cc7d40d0ce79acb34d,PennController,98,0,calibrator_ani_no_feedback,NULL,PennController,109,_Header_,End,1738773628892,undefined,1080,monkey,inanimate,animate,B,NULL
1738774183,dbbad0eb544a76cc7d40d0ce79acb34d,PennController,98,0,calibrator_ani_no_feedback,NULL,Selector,unnamed-Selector,Selection,animate,1738773630477,undefined,1080,monkey,inanimate,animate,B,inanimate;animate
1738774183,dbbad0eb544a76cc7d40d0ce79acb34d,PennController,98,0,calibrator_ani_no_feedback,NULL,PennController,109,_Trial_,End,1738773630479,undefined,1080,monkey,inanimate,animate,B,NULL
# 13. Comments.
1738774183,dbbad0eb544a76cc7d40d0ce79acb34d,PennController,130,0,endinstructions_ani,NULL,PennController,8,_Trial_,Start,1738773630482,NULL
1738774183,dbbad0eb544a76cc7d40d0ce79acb34d,PennController,130,0,endinstructions_ani,NULL,PennController,8,_Header_,Start,1738773630482,NULL
1738774183,dbbad0eb544a76cc7d40d0ce79acb34d,PennController,130,0,endinstructions_ani,NULL,PennController,8,_Header_,End,1738773630734,NULL
1738774183,dbbad0eb544a76cc7d40d0ce79acb34d,PennController,130,0,endinstructions_ani,NULL,PennController,8,_Trial_,End,1738773636805,NULL
# 13. ID.
# 14. ReactionTime.
# 15. Word.
# 16. Key_value_F.
# 17. Key_value_J.
# 18. Group.
# 19. Comments.
1738774183,dbbad0eb544a76cc7d40d0ce79acb34d,PennController,17,0,test_ani,NULL,PennController,28,_Trial_,Start,1738773636806,undefined,1205,pizza,inanimate,animate,B,NULL
1738774183,dbbad0eb544a76cc7d40d0ce79acb34d,PennController,17,0,test_ani,NULL,PennController,28,_Header_,Start,1738773636806,undefined,1205,pizza,inanimate,animate,B,NULL
1738774183,dbbad0eb544a76cc7d40d0ce79acb34d,PennController,17,0,test_ani,NULL,PennController,28,_Header_,End,1738773637056,undefined,1205,pizza,inanimate,animate,B,NULL
1738774183,dbbad0eb544a76cc7d40d0ce79acb34d,PennController,17,0,test_ani,NULL,Selector,unnamed-Selector,Selection,inanimate,1738773638764,undefined,1205,pizza,inanimate,animate,B,inanimate;animate
1738774183,dbbad0eb544a76cc7d40d0ce79acb34d,PennController,17,0,test_ani,NULL,PennController,28,_Trial_,End,1738773638765,undefined,1205,pizza,inanimate,animate,B,NULL
1738774183,dbbad0eb544a76cc7d40d0ce79acb34d,PennController,43,0,test_ani,NULL,PennController,54,_Trial_,Start,1738773638766,undefined,764,husband,inanimate,animate,B,NULL
1738774183,dbbad0eb544a76cc7d40d0ce79acb34d,PennController,43,0,test_ani,NULL,PennController,54,_Header_,Start,1738773638766,undefined,764,husband,inanimate,animate,B,NULL
1738774183,dbbad0eb544a76cc7d40d0ce79acb34d,PennController,43,0,test_ani,NULL,PennController,54,_Header_,End,1738773639020,undefined,764,husband,inanimate,animate,B,NULL
1738774183,dbbad0eb544a76cc7d40d0ce79acb34d,PennController,43,0,test_ani,NULL,Selector,unnamed-Selector,Selection,animate,1738773640285,undefined,764,husband,inanimate,animate,B,inanimate;animate
1738774183,dbbad0eb544a76cc7d40d0ce79acb34d,PennController,43,0,test_ani,NULL,PennController,54,_Trial_,End,1738773640286,undefined,764,husband,inanimate,animate,B,NULL
1738774183,dbbad0eb544a76cc7d40d0ce79acb34d,PennController,41,0,test_ani,NULL,PennController,52,_Trial_,Start,1738773640287,undefined,884,princess,inanimate,animate,B,NULL
1738774183,dbbad0eb544a76cc7d40d0ce79acb34d,PennController,41,0,test_ani,NULL,PennController,52,_Header_,Start,1738773640287,undefined,884,princess,inanimate,animate,B,NULL
1738774183,dbbad0eb544a76cc7d40d0ce79acb34d,PennController,41,0,test_ani,NULL,PennController,52,_Header_,End,1738773640538,undefined,884,princess,inanimate,animate,B,NULL
1738774183,dbbad0eb544a76cc7d40d0ce79acb34d,PennController,41,0,test_ani,NULL,Selector,unnamed-Selector,Selection,animate,1738773641925,undefined,884,princess,inanimate,animate,B,inanimate;animate
1738774183,dbbad0eb544a76cc7d40d0ce79acb34d,PennController,41,0,test_ani,NULL,PennController,52,_Trial_,End,1738773641927,undefined,884,princess,inanimate,animate,B,NULL
1738774183,dbbad0eb544a76cc7d40d0ce79acb34d,PennController,14,0,test_ani,NULL,PennController,25,_Trial_,Start,1738773641930,undefined,1161,prize,inanimate,animate,B,NULL
1738774183,dbbad0eb544a76cc7d40d0ce79acb34d,PennController,14,0,test_ani,NULL,PennController,25,_Header_,Start,1738773641930,undefined,1161,prize,inanimate,animate,B,NULL
1738774183,dbbad0eb544a76cc7d40d0ce79acb34d,PennController,14,0,test_ani,NULL,PennController,25,_Header_,End,1738773642183,undefined,1161,prize,inanimate,animate,B,NULL
1738774183,dbbad0eb544a76cc7d40d0ce79acb34d,PennController,14,0,test_ani,NULL,Selector,unnamed-Selector,Selection,inanimate,1738773643845,undefined,1161,prize,inanimate,animate,B,inanimate;animate
1738774183,dbbad0eb544a76cc7d40d0ce79acb34d,PennController,14,0,test_ani,NULL,PennController,25,_Trial_,End,1738773643846,undefined,1161,prize,inanimate,animate,B,NULL
1738774183,dbbad0eb544a76cc7d40d0ce79acb34d,PennController,9,0,test_ani,NULL,PennController,20,_Trial_,Start,1738773643847,undefined,846,poison,inanimate,animate,B,NULL
1738774183,dbbad0eb544a76cc7d40d0ce79acb34d,PennController,9,0,test_ani,NULL,PennController,20,_Header_,Start,1738773643847,undefined,846,poison,inanimate,animate,B,NULL
1738774183,dbbad0eb544a76cc7d40d0ce79acb34d,PennController,9,0,test_ani,NULL,PennController,20,_Header_,End,1738773644101,undefined,846,poison,inanimate,animate,B,NULL
1738774183,dbbad0eb544a76cc7d40d0ce79acb34d,PennController,9,0,test_ani,NULL,Selector,unnamed-Selector,Selection,inanimate,1738773645453,undefined,846,poison,inanimate,animate,B,inanimate;animate
1738774183,dbbad0eb544a76cc7d40d0ce79acb34d,PennController,9,0,test_ani,NULL,PennController,20,_Trial_,End,1738773645454,undefined,846,poison,inanimate,animate,B,NULL
1738774183,dbbad0eb544a76cc7d40d0ce79acb34d,PennController,5,0,test_ani,NULL,PennController,16,_Trial_,Start,1738773645456,undefined,810,swastika,inanimate,animate,B,NULL
1738774183,dbbad0eb544a76cc7d40d0ce79acb34d,PennController,5,0,test_ani,NULL,PennController,16,_Header_,Start,1738773645456,undefined,810,swastika,inanimate,animate,B,NULL
1738774183,dbbad0eb544a76cc7d40d0ce79acb34d,PennController,5,0,test_ani,NULL,PennController,16,_Header_,End,1738773645708,undefined,810,swastika,inanimate,animate,B,NULL
1738774183,dbbad0eb544a76cc7d40d0ce79acb34d,PennController,5,0,test_ani,NULL,Selector,unnamed-Selector,Selection,inanimate,1738773647020,undefined,810,swastika,inanimate,animate,B,inanimate;animate
1738774183,dbbad0eb544a76cc7d40d0ce79acb34d,PennController,5,0,test_ani,NULL,PennController,16,_Trial_,End,1738773647021,undefined,810,swastika,inanimate,animate,B,NULL
1738774183,dbbad0eb544a76cc7d40d0ce79acb34d,PennController,4,0,test_ani,NULL,PennController,15,_Trial_,Start,1738773647022,undefined,2099,heroin,inanimate,animate,B,NULL
1738774183,dbbad0eb544a76cc7d40d0ce79acb34d,PennController,4,0,test_ani,NULL,PennController,15,_Header_,Start,1738773647022,undefined,2099,heroin,inanimate,animate,B,NULL
1738774183,dbbad0eb544a76cc7d40d0ce79acb34d,PennController,4,0,test_ani,NULL,PennController,15,_Header_,End,1738773647273,undefined,2099,heroin,inanimate,animate,B,NULL
1738774183,dbbad0eb544a76cc7d40d0ce79acb34d,PennController,4,0,test_ani,NULL,Selector,unnamed-Selector,Selection,inanimate,1738773649877,undefined,2099,heroin,inanimate,animate,B,inanimate;animate
1738774183,dbbad0eb544a76cc7d40d0ce79acb34d,PennController,4,0,test_ani,NULL,PennController,15,_Trial_,End,1738773649880,undefined,2099,heroin,inanimate,animate,B,NULL
1738774183,dbbad0eb544a76cc7d40d0ce79acb34d,PennController,28,0,test_ani,NULL,PennController,39,_Trial_,Start,1738773649882,undefined,1548,inmate,inanimate,animate,B,NULL
1738774183,dbbad0eb544a76cc7d40d0ce79acb34d,PennController,28,0,test_ani,NULL,PennController,39,_Header_,Start,1738773649882,undefined,1548,inmate,inanimate,animate,B,NULL
1738774183,dbbad0eb544a76cc7d40d0ce79acb34d,PennController,28,0,test_ani,NULL,PennController,39,_Header_,End,1738773650134,undefined,1548,inmate,inanimate,animate,B,NULL
1738774183,dbbad0eb544a76cc7d40d0ce79acb34d,PennController,28,0,test_ani,NULL,Selector,unnamed-Selector,Selection,animate,1738773652188,undefined,1548,inmate,inanimate,animate,B,inanimate;animate
1738774183,dbbad0eb544a76cc7d40d0ce79acb34d,PennController,28,0,test_ani,NULL,PennController,39,_Trial_,End,1738773652190,undefined,1548,inmate,inanimate,animate,B,NULL
1738774183,dbbad0eb544a76cc7d40d0ce79acb34d,PennController,19,0,test_ani,NULL,PennController,30,_Trial_,Start,1738773652191,undefined,885,feast,inanimate,animate,B,NULL
1738774183,dbbad0eb544a76cc7d40d0ce79acb34d,PennController,19,0,test_ani,NULL,PennController,30,_Header_,Start,1738773652191,undefined,885,feast,inanimate,animate,B,NULL
1738774183,dbbad0eb544a76cc7d40d0ce79acb34d,PennController,19,0,test_ani,NULL,PennController,30,_Header_,End,1738773652442,undefined,885,feast,inanimate,animate,B,NULL
1738774183,dbbad0eb544a76cc7d40d0ce79acb34d,PennController,19,0,test_ani,NULL,Selector,unnamed-Selector,Selection,inanimate,1738773653829,undefined,885,feast,inanimate,animate,B,inanimate;animate
1738774183,dbbad0eb544a76cc7d40d0ce79acb34d,PennController,19,0,test_ani,NULL,PennController,30,_Trial_,End,1738773653830,undefined,885,feast,inanimate,animate,B,NULL
1738774183,dbbad0eb544a76cc7d40d0ce79acb34d,PennController,40,0,test_ani,NULL,PennController,51,_Trial_,Start,1738773653832,undefined,1014,child,inanimate,animate,B,NULL
1738774183,dbbad0eb544a76cc7d40d0ce79acb34d,PennController,40,0,test_ani,NULL,PennController,51,_Header_,Start,1738773653832,undefined,1014,child,inanimate,animate,B,NULL
1738774183,dbbad0eb544a76cc7d40d0ce79acb34d,PennController,40,0,test_ani,NULL,PennController,51,_Header_,End,1738773654082,undefined,1014,child,inanimate,animate,B,NULL
1738774183,dbbad0eb544a76cc7d40d0ce79acb34d,PennController,40,0,test_ani,NULL,Selector,unnamed-Selector,Selection,animate,1738773655596,undefined,1014,child,inanimate,animate,B,inanimate;animate
1738774183,dbbad0eb544a76cc7d40d0ce79acb34d,PennController,40,0,test_ani,NULL,PennController,51,_Trial_,End,1738773655597,undefined,1014,child,inanimate,animate,B,NULL
1738774183,dbbad0eb544a76cc7d40d0ce79acb34d,PennController,35,0,test_ani,NULL,PennController,46,_Trial_,Start,1738773655598,undefined,843,puppy,inanimate,animate,B,NULL
1738774183,dbbad0eb544a76cc7d40d0ce79acb34d,PennController,35,0,test_ani,NULL,PennController,46,_Header_,Start,1738773655598,undefined,843,puppy,inanimate,animate,B,NULL
1738774183,dbbad0eb544a76cc7d40d0ce79acb34d,PennController,35,0,test_ani,NULL,PennController,46,_Header_,End,1738773655852,undefined,843,puppy,inanimate,animate,B,NULL
1738774183,dbbad0eb544a76cc7d40d0ce79acb34d,PennController,35,0,test_ani,NULL,Selector,unnamed-Selector,Selection,animate,1738773657198,undefined,843,puppy,inanimate,animate,B,inanimate;animate
1738774183,dbbad0eb544a76cc7d40d0ce79acb34d,PennController,35,0,test_ani,NULL,PennController,46,_Trial_,End,1738773657201,undefined,843,puppy,inanimate,animate,B,NULL
1738774183,dbbad0eb544a76cc7d40d0ce79acb34d,PennController,23,0,test_ani,NULL,PennController,34,_Trial_,Start,1738773657203,undefined,893,meadow,inanimate,animate,B,NULL
1738774183,dbbad0eb544a76cc7d40d0ce79acb34d,PennController,23,0,test_ani,NULL,PennController,34,_Header_,Start,1738773657203,undefined,893,meadow,inanimate,animate,B,NULL
1738774183,dbbad0eb544a76cc7d40d0ce79acb34d,PennController,23,0,test_ani,NULL,PennController,34,_Header_,End,1738773657457,undefined,893,meadow,inanimate,animate,B,NULL
1738774183,dbbad0eb544a76cc7d40d0ce79acb34d,PennController,23,0,test_ani,NULL,Selector,unnamed-Selector,Selection,inanimate,1738773658853,undefined,893,meadow,inanimate,animate,B,inanimate;animate
1738774183,dbbad0eb544a76cc7d40d0ce79acb34d,PennController,23,0,test_ani,NULL,PennController,34,_Trial_,End,1738773658855,undefined,893,meadow,inanimate,animate,B,NULL
1738774183,dbbad0eb544a76cc7d40d0ce79acb34d,PennController,33,0,test_ani,NULL,PennController,44,_Trial_,Start,1738773658857,undefined,1263,mugger,inanimate,animate,B,NULL
1738774183,dbbad0eb544a76cc7d40d0ce79acb34d,PennController,33,0,test_ani,NULL,PennController,44,_Header_,Start,1738773658857,undefined,1263,mugger,inanimate,animate,B,NULL
1738774183,dbbad0eb544a76cc7d40d0ce79acb34d,PennController,33,0,test_ani,NULL,PennController,44,_Header_,End,1738773659109,undefined,1263,mugger,inanimate,animate,B,NULL
1738774183,dbbad0eb544a76cc7d40d0ce79acb34d,PennController,33,0,test_ani,NULL,Selector,unnamed-Selector,Selection,animate,1738773660877,undefined,1263,mugger,inanimate,animate,B,inanimate;animate
1738774183,dbbad0eb544a76cc7d40d0ce79acb34d,PennController,33,0,test_ani,NULL,PennController,44,_Trial_,End,1738773660879,undefined,1263,mugger,inanimate,animate,B,NULL
1738774183,dbbad0eb544a76cc7d40d0ce79acb34d,PennController,15,0,test_ani,NULL,PennController,26,_Trial_,Start,1738773660882,undefined,2565,sunshine,inanimate,animate,B,NULL
1738774183,dbbad0eb544a76cc7d40d0ce79acb34d,PennController,15,0,test_ani,NULL,PennController,26,_Header_,Start,1738773660882,undefined,2565,sunshine,inanimate,animate,B,NULL
1738774183,dbbad0eb544a76cc7d40d0ce79acb34d,PennController,15,0,test_ani,NULL,PennController,26,_Header_,End,1738773661135,undefined,2565,sunshine,inanimate,animate,B,NULL
1738774183,dbbad0eb544a76cc7d40d0ce79acb34d,PennController,15,0,test_ani,NULL,Selector,unnamed-Selector,Selection,animate,1738773664205,undefined,2565,sunshine,inanimate,animate,B,inanimate;animate
1738774183,dbbad0eb544a76cc7d40d0ce79acb34d,PennController,15,0,test_ani,NULL,PennController,26,_Trial_,End,1738773664206,undefined,2565,sunshine,inanimate,animate,B,NULL
1738774183,dbbad0eb544a76cc7d40d0ce79acb34d,PennController,6,0,test_ani,NULL,PennController,17,_Trial_,Start,1738773664207,undefined,862,wiretap,inanimate,animate,B,NULL
1738774183,dbbad0eb544a76cc7d40d0ce79acb34d,PennController,6,0,test_ani,NULL,PennController,17,_Header_,Start,1738773664207,undefined,862,wiretap,inanimate,animate,B,NULL
1738774183,dbbad0eb544a76cc7d40d0ce79acb34d,PennController,6,0,test_ani,NULL,PennController,17,_Header_,End,1738773664458,undefined,862,wiretap,inanimate,animate,B,NULL
1738774183,dbbad0eb544a76cc7d40d0ce79acb34d,PennController,6,0,test_ani,NULL,Selector,unnamed-Selector,Selection,inanimate,1738773665823,undefined,862,wiretap,inanimate,animate,B,inanimate;animate
1738774183,dbbad0eb544a76cc7d40d0ce79acb34d,PennController,6,0,test_ani,NULL,PennController,17,_Trial_,End,1738773665825,undefined,862,wiretap,inanimate,animate,B,NULL
1738774183,dbbad0eb544a76cc7d40d0ce79acb34d,PennController,39,0,test_ani,NULL,PennController,50,_Trial_,Start,1738773665827,undefined,790,bunny,inanimate,animate,B,NULL
1738774183,dbbad0eb544a76cc7d40d0ce79acb34d,PennController,39,0,test_ani,NULL,PennController,50,_Header_,Start,1738773665827,undefined,790,bunny,inanimate,animate,B,NULL
1738774183,dbbad0eb544a76cc7d40d0ce79acb34d,PennController,39,0,test_ani,NULL,PennController,50,_Header_,End,1738773666081,undefined,790,bunny,inanimate,animate,B,NULL
1738774183,dbbad0eb544a76cc7d40d0ce79acb34d,PennController,39,0,test_ani,NULL,Selector,unnamed-Selector,Selection,animate,1738773667373,undefined,790,bunny,inanimate,animate,B,inanimate;animate
1738774183,dbbad0eb544a76cc7d40d0ce79acb34d,PennController,39,0,test_ani,NULL,PennController,50,_Trial_,End,1738773667374,undefined,790,bunny,inanimate,animate,B,NULL
1738774183,dbbad0eb544a76cc7d40d0ce79acb34d,PennController,34,0,test_ani,NULL,PennController,45,_Trial_,Start,1738773667375,undefined,911,comedian,inanimate,animate,B,NULL
1738774183,dbbad0eb544a76cc7d40d0ce79acb34d,PennController,34,0,test_ani,NULL,PennController,45,_Header_,Start,1738773667375,undefined,911,comedian,inanimate,animate,B,NULL
1738774183,dbbad0eb544a76cc7d40d0ce79acb34d,PennController,34,0,test_ani,NULL,PennController,45,_Header_,End,1738773667627,undefined,911,comedian,inanimate,animate,B,NULL
1738774183,dbbad0eb544a76cc7d40d0ce79acb34d,PennController,34,0,test_ani,NULL,Selector,unnamed-Selector,Selection,animate,1738773669044,undefined,911,comedian,inanimate,animate,B,inanimate;animate
1738774183,dbbad0eb544a76cc7d40d0ce79acb34d,PennController,34,0,test_ani,NULL,PennController,45,_Trial_,End,1738773669045,undefined,911,comedian,inanimate,animate,B,NULL
1738774183,dbbad0eb544a76cc7d40d0ce79acb34d,PennController,13,0,test_ani,NULL,PennController,24,_Trial_,Start,1738773669045,undefined,1279,corpse,inanimate,animate,B,NULL
1738774183,dbbad0eb544a76cc7d40d0ce79acb34d,PennController,13,0,test_ani,NULL,PennController,24,_Header_,Start,1738773669045,undefined,1279,corpse,inanimate,animate,B,NULL
1738774183,dbbad0eb544a76cc7d40d0ce79acb34d,PennController,13,0,test_ani,NULL,PennController,24,_Header_,End,1738773669296,undefined,1279,corpse,inanimate,animate,B,NULL
1738774183,dbbad0eb544a76cc7d40d0ce79acb34d,PennController,13,0,test_ani,NULL,Selector,unnamed-Selector,Selection,animate,1738773671077,undefined,1279,corpse,inanimate,animate,B,inanimate;animate
1738774183,dbbad0eb544a76cc7d40d0ce79acb34d,PennController,13,0,test_ani,NULL,PennController,24,_Trial_,End,1738773671079,undefined,1279,corpse,inanimate,animate,B,NULL
1738774183,dbbad0eb544a76cc7d40d0ce79acb34d,PennController,25,0,test_ani,NULL,PennController,36,_Trial_,Start,1738773671080,undefined,1870,asshole,inanimate,animate,B,NULL
1738774183,dbbad0eb544a76cc7d40d0ce79acb34d,PennController,25,0,test_ani,NULL,PennController,36,_Header_,Start,1738773671080,undefined,1870,asshole,inanimate,animate,B,NULL
1738774183,dbbad0eb544a76cc7d40d0ce79acb34d,PennController,25,0,test_ani,NULL,PennController,36,_Header_,End,1738773671333,undefined,1870,asshole,inanimate,animate,B,NULL
1738774183,dbbad0eb544a76cc7d40d0ce79acb34d,PennController,25,0,test_ani,NULL,Selector,unnamed-Selector,Selection,inanimate,1738773673709,undefined,1870,asshole,inanimate,animate,B,inanimate;animate
1738774183,dbbad0eb544a76cc7d40d0ce79acb34d,PennController,25,0,test_ani,NULL,PennController,36,_Trial_,End,1738773673710,undefined,1870,asshole,inanimate,animate,B,NULL
1738774183,dbbad0eb544a76cc7d40d0ce79acb34d,PennController,30,0,test_ani,NULL,PennController,41,_Trial_,Start,1738773673712,undefined,2536,leech,inanimate,animate,B,NULL
1738774183,dbbad0eb544a76cc7d40d0ce79acb34d,PennController,30,0,test_ani,NULL,PennController,41,_Header_,Start,1738773673712,undefined,2536,leech,inanimate,animate,B,NULL
1738774183,dbbad0eb544a76cc7d40d0ce79acb34d,PennController,30,0,test_ani,NULL,PennController,41,_Header_,End,1738773673965,undefined,2536,leech,inanimate,animate,B,NULL
1738774183,dbbad0eb544a76cc7d40d0ce79acb34d,PennController,30,0,test_ani,NULL,Selector,unnamed-Selector,Selection,animate,1738773677004,undefined,2536,leech,inanimate,animate,B,inanimate;animate
1738774183,dbbad0eb544a76cc7d40d0ce79acb34d,PennController,30,0,test_ani,NULL,PennController,41,_Trial_,End,1738773677005,undefined,2536,leech,inanimate,animate,B,NULL
1738774183,dbbad0eb544a76cc7d40d0ce79acb34d,PennController,37,0,test_ani,NULL,PennController,48,_Trial_,Start,1738773677006,undefined,1172,duckling,inanimate,animate,B,NULL
1738774183,dbbad0eb544a76cc7d40d0ce79acb34d,PennController,37,0,test_ani,NULL,PennController,48,_Header_,Start,1738773677006,undefined,1172,duckling,inanimate,animate,B,NULL
1738774183,dbbad0eb544a76cc7d40d0ce79acb34d,PennController,37,0,test_ani,NULL,PennController,48,_Header_,End,1738773677258,undefined,1172,duckling,inanimate,animate,B,NULL
1738774183,dbbad0eb544a76cc7d40d0ce79acb34d,PennController,37,0,test_ani,NULL,Selector,unnamed-Selector,Selection,animate,1738773678933,undefined,1172,duckling,inanimate,animate,B,inanimate;animate
1738774183,dbbad0eb544a76cc7d40d0ce79acb34d,PennController,37,0,test_ani,NULL,PennController,48,_Trial_,End,1738773678934,undefined,1172,duckling,inanimate,animate,B,NULL
1738774183,dbbad0eb544a76cc7d40d0ce79acb34d,PennController,21,0,test_ani,NULL,PennController,32,_Trial_,Start,1738773678936,undefined,1516,dollar,inanimate,animate,B,NULL
1738774183,dbbad0eb544a76cc7d40d0ce79acb34d,PennController,21,0,test_ani,NULL,PennController,32,_Header_,Start,1738773678936,undefined,1516,dollar,inanimate,animate,B,NULL
1738774183,dbbad0eb544a76cc7d40d0ce79acb34d,PennController,21,0,test_ani,NULL,PennController,32,_Header_,End,1738773679186,undefined,1516,dollar,inanimate,animate,B,NULL
1738774183,dbbad0eb544a76cc7d40d0ce79acb34d,PennController,21,0,test_ani,NULL,Selector,unnamed-Selector,Selection,inanimate,1738773681205,undefined,1516,dollar,inanimate,animate,B,inanimate;animate
1738774183,dbbad0eb544a76cc7d40d0ce79acb34d,PennController,21,0,test_ani,NULL,PennController,32,_Trial_,End,1738773681206,undefined,1516,dollar,inanimate,animate,B,NULL
1738774183,dbbad0eb544a76cc7d40d0ce79acb34d,PennController,26,0,test_ani,NULL,PennController,37,_Trial_,Start,1738773681208,undefined,915,maggot,inanimate,animate,B,NULL
1738774183,dbbad0eb544a76cc7d40d0ce79acb34d,PennController,26,0,test_ani,NULL,PennController,37,_Header_,Start,1738773681208,undefined,915,maggot,inanimate,animate,B,NULL
1738774183,dbbad0eb544a76cc7d40d0ce79acb34d,PennController,26,0,test_ani,NULL,PennController,37,_Header_,End,1738773681461,undefined,915,maggot,inanimate,animate,B,NULL
1738774183,dbbad0eb544a76cc7d40d0ce79acb34d,PennController,26,0,test_ani,NULL,Selector,unnamed-Selector,Selection,animate,1738773682877,undefined,915,maggot,inanimate,animate,B,inanimate;animate
1738774183,dbbad0eb544a76cc7d40d0ce79acb34d,PennController,26,0,test_ani,NULL,PennController,37,_Trial_,End,1738773682878,undefined,915,maggot,inanimate,animate,B,NULL
1738774183,dbbad0eb544a76cc7d40d0ce79acb34d,PennController,11,0,test_ani,NULL,PennController,22,_Trial_,Start,1738773682880,undefined,3328,flood,inanimate,animate,B,NULL
1738774183,dbbad0eb544a76cc7d40d0ce79acb34d,PennController,11,0,test_ani,NULL,PennController,22,_Header_,Start,1738773682880,undefined,3328,flood,inanimate,animate,B,NULL
1738774183,dbbad0eb544a76cc7d40d0ce79acb34d,PennController,11,0,test_ani,NULL,PennController,22,_Header_,End,1738773683130,undefined,3328,flood,inanimate,animate,B,NULL
1738774183,dbbad0eb544a76cc7d40d0ce79acb34d,PennController,11,0,test_ani,NULL,Selector,unnamed-Selector,Selection,inanimate,1738773686959,undefined,3328,flood,inanimate,animate,B,inanimate;animate
1738774183,dbbad0eb544a76cc7d40d0ce79acb34d,PennController,11,0,test_ani,NULL,PennController,22,_Trial_,End,1738773686961,undefined,3328,flood,inanimate,animate,B,NULL
1738774183,dbbad0eb544a76cc7d40d0ce79acb34d,PennController,38,0,test_ani,NULL,PennController,49,_Trial_,Start,1738773686964,undefined,157,kitten,inanimate,animate,B,NULL
1738774183,dbbad0eb544a76cc7d40d0ce79acb34d,PennController,38,0,test_ani,NULL,PennController,49,_Header_,Start,1738773686964,undefined,157,kitten,inanimate,animate,B,NULL
1738774183,dbbad0eb544a76cc7d40d0ce79acb34d,PennController,38,0,test_ani,NULL,PennController,49,_Header_,End,1738773687217,undefined,157,kitten,inanimate,animate,B,NULL
1738774183,dbbad0eb544a76cc7d40d0ce79acb34d,PennController,38,0,test_ani,NULL,Selector,unnamed-Selector,Selection,inanimate,1738773687877,undefined,157,kitten,inanimate,animate,B,inanimate;animate
1738774183,dbbad0eb544a76cc7d40d0ce79acb34d,PennController,38,0,test_ani,NULL,PennController,49,_Trial_,End,1738773687878,undefined,157,kitten,inanimate,animate,B,NULL
1738774183,dbbad0eb544a76cc7d40d0ce79acb34d,PennController,7,0,test_ani,NULL,PennController,18,_Trial_,Start,1738773687879,undefined,858,cocaine,inanimate,animate,B,NULL
1738774183,dbbad0eb544a76cc7d40d0ce79acb34d,PennController,7,0,test_ani,NULL,PennController,18,_Header_,Start,1738773687879,undefined,858,cocaine,inanimate,animate,B,NULL
1738774183,dbbad0eb544a76cc7d40d0ce79acb34d,PennController,7,0,test_ani,NULL,PennController,18,_Header_,End,1738773688129,undefined,858,cocaine,inanimate,animate,B,NULL
1738774183,dbbad0eb544a76cc7d40d0ce79acb34d,PennController,7,0,test_ani,NULL,Selector,unnamed-Selector,Selection,inanimate,1738773689492,undefined,858,cocaine,inanimate,animate,B,inanimate;animate
1738774183,dbbad0eb544a76cc7d40d0ce79acb34d,PennController,7,0,test_ani,NULL,PennController,18,_Trial_,End,1738773689493,undefined,858,cocaine,inanimate,animate,B,NULL
1738774183,dbbad0eb544a76cc7d40d0ce79acb34d,PennController,18,0,test_ani,NULL,PennController,29,_Trial_,Start,1738773689494,undefined,2222,laughter,inanimate,animate,B,NULL
1738774183,dbbad0eb544a76cc7d40d0ce79acb34d,PennController,18,0,test_ani,NULL,PennController,29,_Header_,Start,1738773689494,undefined,2222,laughter,inanimate,animate,B,NULL
1738774183,dbbad0eb544a76cc7d40d0ce79acb34d,PennController,18,0,test_ani,NULL,PennController,29,_Header_,End,1738773689745,undefined,2222,laughter,inanimate,animate,B,NULL
1738774183,dbbad0eb544a76cc7d40d0ce79acb34d,PennController,18,0,test_ani,NULL,Selector,unnamed-Selector,Selection,inanimate,1738773692469,undefined,2222,laughter,inanimate,animate,B,inanimate;animate
1738774183,dbbad0eb544a76cc7d40d0ce79acb34d,PennController,18,0,test_ani,NULL,PennController,29,_Trial_,End,1738773692470,undefined,2222,laughter,inanimate,animate,B,NULL
1738774183,dbbad0eb544a76cc7d40d0ce79acb34d,PennController,8,0,test_ani,NULL,PennController,19,_Trial_,Start,1738773692472,undefined,852,excrement,inanimate,animate,B,NULL
1738774183,dbbad0eb544a76cc7d40d0ce79acb34d,PennController,8,0,test_ani,NULL,PennController,19,_Header_,Start,1738773692472,undefined,852,excrement,inanimate,animate,B,NULL
1738774183,dbbad0eb544a76cc7d40d0ce79acb34d,PennController,8,0,test_ani,NULL,PennController,19,_Header_,End,1738773692724,undefined,852,excrement,inanimate,animate,B,NULL
1738774183,dbbad0eb544a76cc7d40d0ce79acb34d,PennController,8,0,test_ani,NULL,Selector,unnamed-Selector,Selection,inanimate,1738773694077,undefined,852,excrement,inanimate,animate,B,inanimate;animate
1738774183,dbbad0eb544a76cc7d40d0ce79acb34d,PennController,8,0,test_ani,NULL,PennController,19,_Trial_,End,1738773694079,undefined,852,excrement,inanimate,animate,B,NULL
1738774183,dbbad0eb544a76cc7d40d0ce79acb34d,PennController,31,0,test_ani,NULL,PennController,42,_Trial_,Start,1738773694082,undefined,818,tapeworm,inanimate,animate,B,NULL
1738774183,dbbad0eb544a76cc7d40d0ce79acb34d,PennController,31,0,test_ani,NULL,PennController,42,_Header_,Start,1738773694082,undefined,818,tapeworm,inanimate,animate,B,NULL
1738774183,dbbad0eb544a76cc7d40d0ce79acb34d,PennController,31,0,test_ani,NULL,PennController,42,_Header_,End,1738773694332,undefined,818,tapeworm,inanimate,animate,B,NULL
1738774183,dbbad0eb544a76cc7d40d0ce79acb34d,PennController,31,0,test_ani,NULL,Selector,unnamed-Selector,Selection,animate,1738773695652,undefined,818,tapeworm,inanimate,animate,B,inanimate;animate
1738774183,dbbad0eb544a76cc7d40d0ce79acb34d,PennController,31,0,test_ani,NULL,PennController,42,_Trial_,End,1738773695654,undefined,818,tapeworm,inanimate,animate,B,NULL
1738774183,dbbad0eb544a76cc7d40d0ce79acb34d,PennController,12,0,test_ani,NULL,PennController,23,_Trial_,Start,1738773695655,undefined,1060,smallpox,inanimate,animate,B,NULL
1738774183,dbbad0eb544a76cc7d40d0ce79acb34d,PennController,12,0,test_ani,NULL,PennController,23,_Header_,Start,1738773695655,undefined,1060,smallpox,inanimate,animate,B,NULL
1738774183,dbbad0eb544a76cc7d40d0ce79acb34d,PennController,12,0,test_ani,NULL,PennController,23,_Header_,End,1738773695908,undefined,1060,smallpox,inanimate,animate,B,NULL
1738774183,dbbad0eb544a76cc7d40d0ce79acb34d,PennController,12,0,test_ani,NULL,Selector,unnamed-Selector,Selection,inanimate,1738773697469,undefined,1060,smallpox,inanimate,animate,B,inanimate;animate
1738774183,dbbad0eb544a76cc7d40d0ce79acb34d,PennController,12,0,test_ani,NULL,PennController,23,_Trial_,End,1738773697471,undefined,1060,smallpox,inanimate,animate,B,NULL
1738774183,dbbad0eb544a76cc7d40d0ce79acb34d,PennController,27,0,test_ani,NULL,PennController,38,_Trial_,Start,1738773697474,undefined,1824,widow,inanimate,animate,B,NULL
1738774183,dbbad0eb544a76cc7d40d0ce79acb34d,PennController,27,0,test_ani,NULL,PennController,38,_Header_,Start,1738773697474,undefined,1824,widow,inanimate,animate,B,NULL
1738774183,dbbad0eb544a76cc7d40d0ce79acb34d,PennController,27,0,test_ani,NULL,PennController,38,_Header_,End,1738773697724,undefined,1824,widow,inanimate,animate,B,NULL
1738774183,dbbad0eb544a76cc7d40d0ce79acb34d,PennController,27,0,test_ani,NULL,Selector,unnamed-Selector,Selection,animate,1738773700052,undefined,1824,widow,inanimate,animate,B,inanimate;animate
1738774183,dbbad0eb544a76cc7d40d0ce79acb34d,PennController,27,0,test_ani,NULL,PennController,38,_Trial_,End,1738773700053,undefined,1824,widow,inanimate,animate,B,NULL
1738774183,dbbad0eb544a76cc7d40d0ce79acb34d,PennController,42,0,test_ani,NULL,PennController,53,_Trial_,Start,1738773700054,undefined,884,chipmunk,inanimate,animate,B,NULL
1738774183,dbbad0eb544a76cc7d40d0ce79acb34d,PennController,42,0,test_ani,NULL,PennController,53,_Header_,Start,1738773700054,undefined,884,chipmunk,inanimate,animate,B,NULL
1738774183,dbbad0eb544a76cc7d40d0ce79acb34d,PennController,42,0,test_ani,NULL,PennController,53,_Header_,End,1738773700304,undefined,884,chipmunk,inanimate,animate,B,NULL
1738774183,dbbad0eb544a76cc7d40d0ce79acb34d,PennController,42,0,test_ani,NULL,Selector,unnamed-Selector,Selection,animate,1738773701694,undefined,884,chipmunk,inanimate,animate,B,inanimate;animate
1738774183,dbbad0eb544a76cc7d40d0ce79acb34d,PennController,42,0,test_ani,NULL,PennController,53,_Trial_,End,1738773701696,undefined,884,chipmunk,inanimate,animate,B,NULL
1738774183,dbbad0eb544a76cc7d40d0ce79acb34d,PennController,22,0,test_ani,NULL,PennController,33,_Trial_,Start,1738773701697,undefined,815,sandwich,inanimate,animate,B,NULL
1738774183,dbbad0eb544a76cc7d40d0ce79acb34d,PennController,22,0,test_ani,NULL,PennController,33,_Header_,Start,1738773701697,undefined,815,sandwich,inanimate,animate,B,NULL
1738774183,dbbad0eb544a76cc7d40d0ce79acb34d,PennController,22,0,test_ani,NULL,PennController,33,_Header_,End,1738773701949,undefined,815,sandwich,inanimate,animate,B,NULL
1738774183,dbbad0eb544a76cc7d40d0ce79acb34d,PennController,22,0,test_ani,NULL,Selector,unnamed-Selector,Selection,inanimate,1738773703269,undefined,815,sandwich,inanimate,animate,B,inanimate;animate
1738774183,dbbad0eb544a76cc7d40d0ce79acb34d,PennController,22,0,test_ani,NULL,PennController,33,_Trial_,End,1738773703270,undefined,815,sandwich,inanimate,animate,B,NULL
1738774183,dbbad0eb544a76cc7d40d0ce79acb34d,PennController,24,0,test_ani,NULL,PennController,35,_Trial_,Start,1738773703271,undefined,880,slave,inanimate,animate,B,NULL
1738774183,dbbad0eb544a76cc7d40d0ce79acb34d,PennController,24,0,test_ani,NULL,PennController,35,_Header_,Start,1738773703271,undefined,880,slave,inanimate,animate,B,NULL
1738774183,dbbad0eb544a76cc7d40d0ce79acb34d,PennController,24,0,test_ani,NULL,PennController,35,_Header_,End,1738773703521,undefined,880,slave,inanimate,animate,B,NULL
1738774183,dbbad0eb544a76cc7d40d0ce79acb34d,PennController,24,0,test_ani,NULL,Selector,unnamed-Selector,Selection,animate,1738773704901,undefined,880,slave,inanimate,animate,B,inanimate;animate
1738774183,dbbad0eb544a76cc7d40d0ce79acb34d,PennController,24,0,test_ani,NULL,PennController,35,_Trial_,End,1738773704902,undefined,880,slave,inanimate,animate,B,NULL
1738774183,dbbad0eb544a76cc7d40d0ce79acb34d,PennController,16,0,test_ani,NULL,PennController,27,_Trial_,Start,1738773704903,undefined,928,award,inanimate,animate,B,NULL
1738774183,dbbad0eb544a76cc7d40d0ce79acb34d,PennController,16,0,test_ani,NULL,PennController,27,_Header_,Start,1738773704903,undefined,928,award,inanimate,animate,B,NULL
1738774183,dbbad0eb544a76cc7d40d0ce79acb34d,PennController,16,0,test_ani,NULL,PennController,27,_Header_,End,1738773705154,undefined,928,award,inanimate,animate,B,NULL
1738774183,dbbad0eb544a76cc7d40d0ce79acb34d,PennController,16,0,test_ani,NULL,Selector,unnamed-Selector,Selection,inanimate,1738773706588,undefined,928,award,inanimate,animate,B,inanimate;animate
1738774183,dbbad0eb544a76cc7d40d0ce79acb34d,PennController,16,0,test_ani,NULL,PennController,27,_Trial_,End,1738773706590,undefined,928,award,inanimate,animate,B,NULL
1738774183,dbbad0eb544a76cc7d40d0ce79acb34d,PennController,20,0,test_ani,NULL,PennController,31,_Trial_,Start,1738773706591,undefined,986,doughnut,inanimate,animate,B,NULL
1738774183,dbbad0eb544a76cc7d40d0ce79acb34d,PennController,20,0,test_ani,NULL,PennController,31,_Header_,Start,1738773706591,undefined,986,doughnut,inanimate,animate,B,NULL
1738774183,dbbad0eb544a76cc7d40d0ce79acb34d,PennController,20,0,test_ani,NULL,PennController,31,_Header_,End,1738773706844,undefined,986,doughnut,inanimate,animate,B,NULL
1738774183,dbbad0eb544a76cc7d40d0ce79acb34d,PennController,20,0,test_ani,NULL,Selector,unnamed-Selector,Selection,inanimate,1738773708333,undefined,986,doughnut,inanimate,animate,B,inanimate;animate
1738774183,dbbad0eb544a76cc7d40d0ce79acb34d,PennController,20,0,test_ani,NULL,PennController,31,_Trial_,End,1738773708335,undefined,986,doughnut,inanimate,animate,B,NULL
1738774183,dbbad0eb544a76cc7d40d0ce79acb34d,PennController,29,0,test_ani,NULL,PennController,40,_Trial_,Start,1738773708338,undefined,1411,dictator,inanimate,animate,B,NULL
1738774183,dbbad0eb544a76cc7d40d0ce79acb34d,PennController,29,0,test_ani,NULL,PennController,40,_Header_,Start,1738773708338,undefined,1411,dictator,inanimate,animate,B,NULL
1738774183,dbbad0eb544a76cc7d40d0ce79acb34d,PennController,29,0,test_ani,NULL,PennController,40,_Header_,End,1738773708592,undefined,1411,dictator,inanimate,animate,B,NULL
1738774183,dbbad0eb544a76cc7d40d0ce79acb34d,PennController,29,0,test_ani,NULL,Selector,unnamed-Selector,Selection,animate,1738773710509,undefined,1411,dictator,inanimate,animate,B,inanimate;animate
1738774183,dbbad0eb544a76cc7d40d0ce79acb34d,PennController,29,0,test_ani,NULL,PennController,40,_Trial_,End,1738773710510,undefined,1411,dictator,inanimate,animate,B,NULL
1738774183,dbbad0eb544a76cc7d40d0ce79acb34d,PennController,10,0,test_ani,NULL,PennController,21,_Trial_,Start,1738773710512,undefined,1951,gunshot,inanimate,animate,B,NULL
1738774183,dbbad0eb544a76cc7d40d0ce79acb34d,PennController,10,0,test_ani,NULL,PennController,21,_Header_,Start,1738773710512,undefined,1951,gunshot,inanimate,animate,B,NULL
1738774183,dbbad0eb544a76cc7d40d0ce79acb34d,PennController,10,0,test_ani,NULL,PennController,21,_Header_,End,1738773710764,undefined,1951,gunshot,inanimate,animate,B,NULL
1738774183,dbbad0eb544a76cc7d40d0ce79acb34d,PennController,10,0,test_ani,NULL,Selector,unnamed-Selector,Selection,inanimate,1738773713221,undefined,1951,gunshot,inanimate,animate,B,inanimate;animate
1738774183,dbbad0eb544a76cc7d40d0ce79acb34d,PennController,10,0,test_ani,NULL,PennController,21,_Trial_,End,1738773713222,undefined,1951,gunshot,inanimate,animate,B,NULL
1738774183,dbbad0eb544a76cc7d40d0ce79acb34d,PennController,36,0,test_ani,NULL,PennController,47,_Trial_,Start,1738773713224,undefined,869,sibling,inanimate,animate,B,NULL
1738774183,dbbad0eb544a76cc7d40d0ce79acb34d,PennController,36,0,test_ani,NULL,PennController,47,_Header_,Start,1738773713224,undefined,869,sibling,inanimate,animate,B,NULL
1738774183,dbbad0eb544a76cc7d40d0ce79acb34d,PennController,36,0,test_ani,NULL,PennController,47,_Header_,End,1738773713476,undefined,869,sibling,inanimate,animate,B,NULL
1738774183,dbbad0eb544a76cc7d40d0ce79acb34d,PennController,36,0,test_ani,NULL,Selector,unnamed-Selector,Selection,animate,1738773714845,undefined,869,sibling,inanimate,animate,B,inanimate;animate
1738774183,dbbad0eb544a76cc7d40d0ce79acb34d,PennController,36,0,test_ani,NULL,PennController,47,_Trial_,End,1738773714847,undefined,869,sibling,inanimate,animate,B,NULL
1738774183,dbbad0eb544a76cc7d40d0ce79acb34d,PennController,32,0,test_ani,NULL,PennController,43,_Trial_,Start,1738773714849,undefined,814,intruder,inanimate,animate,B,NULL
1738774183,dbbad0eb544a76cc7d40d0ce79acb34d,PennController,32,0,test_ani,NULL,PennController,43,_Header_,Start,1738773714849,undefined,814,intruder,inanimate,animate,B,NULL
1738774183,dbbad0eb544a76cc7d40d0ce79acb34d,PennController,32,0,test_ani,NULL,PennController,43,_Header_,End,1738773715102,undefined,814,intruder,inanimate,animate,B,NULL
1738774183,dbbad0eb544a76cc7d40d0ce79acb34d,PennController,32,0,test_ani,NULL,Selector,unnamed-Selector,Selection,animate,1738773716420,undefined,814,intruder,inanimate,animate,B,inanimate;animate
1738774183,dbbad0eb544a76cc7d40d0ce79acb34d,PennController,32,0,test_ani,NULL,PennController,43,_Trial_,End,1738773716421,undefined,814,intruder,inanimate,animate,B,NULL
1738774183,dbbad0eb544a76cc7d40d0ce79acb34d,PennController,41,0,test_ani,NULL,PennController,52,_Trial_,Start,1738773716422,undefined,673,princess,inanimate,animate,B,NULL
1738774183,dbbad0eb544a76cc7d40d0ce79acb34d,PennController,41,0,test_ani,NULL,PennController,52,_Header_,Start,1738773716422,undefined,673,princess,inanimate,animate,B,NULL
1738774183,dbbad0eb544a76cc7d40d0ce79acb34d,PennController,41,0,test_ani,NULL,PennController,52,_Header_,End,1738773716673,undefined,673,princess,inanimate,animate,B,NULL
1738774183,dbbad0eb544a76cc7d40d0ce79acb34d,PennController,41,0,test_ani,NULL,Selector,unnamed-Selector,Selection,animate,1738773717853,undefined,673,princess,inanimate,animate,B,inanimate;animate
1738774183,dbbad0eb544a76cc7d40d0ce79acb34d,PennController,41,0,test_ani,NULL,PennController,52,_Trial_,End,1738773717854,undefined,673,princess,inanimate,animate,B,NULL
1738774183,dbbad0eb544a76cc7d40d0ce79acb34d,PennController,12,0,test_ani,NULL,PennController,23,_Trial_,Start,1738773717855,undefined,705,smallpox,inanimate,animate,B,NULL
1738774183,dbbad0eb544a76cc7d40d0ce79acb34d,PennController,12,0,test_ani,NULL,PennController,23,_Header_,Start,1738773717855,undefined,705,smallpox,inanimate,animate,B,NULL
1738774183,dbbad0eb544a76cc7d40d0ce79acb34d,PennController,12,0,test_ani,NULL,PennController,23,_Header_,End,1738773718106,undefined,705,smallpox,inanimate,animate,B,NULL
1738774183,dbbad0eb544a76cc7d40d0ce79acb34d,PennController,12,0,test_ani,NULL,Selector,unnamed-Selector,Selection,inanimate,1738773719317,undefined,705,smallpox,inanimate,animate,B,inanimate;animate
1738774183,dbbad0eb544a76cc7d40d0ce79acb34d,PennController,12,0,test_ani,NULL,PennController,23,_Trial_,End,1738773719318,undefined,705,smallpox,inanimate,animate,B,NULL
1738774183,dbbad0eb544a76cc7d40d0ce79acb34d,PennController,35,0,test_ani,NULL,PennController,46,_Trial_,Start,1738773719319,undefined,645,puppy,inanimate,animate,B,NULL
1738774183,dbbad0eb544a76cc7d40d0ce79acb34d,PennController,35,0,test_ani,NULL,PennController,46,_Header_,Start,1738773719319,undefined,645,puppy,inanimate,animate,B,NULL
1738774183,dbbad0eb544a76cc7d40d0ce79acb34d,PennController,35,0,test_ani,NULL,PennController,46,_Header_,End,1738773719574,undefined,645,puppy,inanimate,animate,B,NULL
1738774183,dbbad0eb544a76cc7d40d0ce79acb34d,PennController,35,0,test_ani,NULL,Selector,unnamed-Selector,Selection,animate,1738773720725,undefined,645,puppy,inanimate,animate,B,inanimate;animate
1738774183,dbbad0eb544a76cc7d40d0ce79acb34d,PennController,35,0,test_ani,NULL,PennController,46,_Trial_,End,1738773720726,undefined,645,puppy,inanimate,animate,B,NULL
1738774183,dbbad0eb544a76cc7d40d0ce79acb34d,PennController,19,0,test_ani,NULL,PennController,30,_Trial_,Start,1738773720727,undefined,720,feast,inanimate,animate,B,NULL
1738774183,dbbad0eb544a76cc7d40d0ce79acb34d,PennController,19,0,test_ani,NULL,PennController,30,_Header_,Start,1738773720727,undefined,720,feast,inanimate,animate,B,NULL
1738774183,dbbad0eb544a76cc7d40d0ce79acb34d,PennController,19,0,test_ani,NULL,PennController,30,_Header_,End,1738773720980,undefined,720,feast,inanimate,animate,B,NULL
1738774183,dbbad0eb544a76cc7d40d0ce79acb34d,PennController,19,0,test_ani,NULL,Selector,unnamed-Selector,Selection,inanimate,1738773722205,undefined,720,feast,inanimate,animate,B,inanimate;animate
1738774183,dbbad0eb544a76cc7d40d0ce79acb34d,PennController,19,0,test_ani,NULL,PennController,30,_Trial_,End,1738773722206,undefined,720,feast,inanimate,animate,B,NULL
1738774183,dbbad0eb544a76cc7d40d0ce79acb34d,PennController,30,0,test_ani,NULL,PennController,41,_Trial_,Start,1738773722207,undefined,831,leech,inanimate,animate,B,NULL
1738774183,dbbad0eb544a76cc7d40d0ce79acb34d,PennController,30,0,test_ani,NULL,PennController,41,_Header_,Start,1738773722207,undefined,831,leech,inanimate,animate,B,NULL
1738774183,dbbad0eb544a76cc7d40d0ce79acb34d,PennController,30,0,test_ani,NULL,PennController,41,_Header_,End,1738773722460,undefined,831,leech,inanimate,animate,B,NULL
1738774183,dbbad0eb544a76cc7d40d0ce79acb34d,PennController,30,0,test_ani,NULL,Selector,unnamed-Selector,Selection,animate,1738773723796,undefined,831,leech,inanimate,animate,B,inanimate;animate
1738774183,dbbad0eb544a76cc7d40d0ce79acb34d,PennController,30,0,test_ani,NULL,PennController,41,_Trial_,End,1738773723797,undefined,831,leech,inanimate,animate,B,NULL
1738774183,dbbad0eb544a76cc7d40d0ce79acb34d,PennController,13,0,test_ani,NULL,PennController,24,_Trial_,Start,1738773723798,undefined,888,corpse,inanimate,animate,B,NULL
1738774183,dbbad0eb544a76cc7d40d0ce79acb34d,PennController,13,0,test_ani,NULL,PennController,24,_Header_,Start,1738773723798,undefined,888,corpse,inanimate,animate,B,NULL
1738774183,dbbad0eb544a76cc7d40d0ce79acb34d,PennController,13,0,test_ani,NULL,PennController,24,_Header_,End,1738773724048,undefined,888,corpse,inanimate,animate,B,NULL
1738774183,dbbad0eb544a76cc7d40d0ce79acb34d,PennController,13,0,test_ani,NULL,Selector,unnamed-Selector,Selection,animate,1738773725437,undefined,888,corpse,inanimate,animate,B,inanimate;animate
1738774183,dbbad0eb544a76cc7d40d0ce79acb34d,PennController,13,0,test_ani,NULL,PennController,24,_Trial_,End,1738773725438,undefined,888,corpse,inanimate,animate,B,NULL
1738774183,dbbad0eb544a76cc7d40d0ce79acb34d,PennController,7,0,test_ani,NULL,PennController,18,_Trial_,Start,1738773725439,undefined,810,cocaine,inanimate,animate,B,NULL
1738774183,dbbad0eb544a76cc7d40d0ce79acb34d,PennController,7,0,test_ani,NULL,PennController,18,_Header_,Start,1738773725439,undefined,810,cocaine,inanimate,animate,B,NULL
1738774183,dbbad0eb544a76cc7d40d0ce79acb34d,PennController,7,0,test_ani,NULL,PennController,18,_Header_,End,1738773725689,undefined,810,cocaine,inanimate,animate,B,NULL
1738774183,dbbad0eb544a76cc7d40d0ce79acb34d,PennController,7,0,test_ani,NULL,Selector,unnamed-Selector,Selection,inanimate,1738773727004,undefined,810,cocaine,inanimate,animate,B,inanimate;animate
1738774183,dbbad0eb544a76cc7d40d0ce79acb34d,PennController,7,0,test_ani,NULL,PennController,18,_Trial_,End,1738773727005,undefined,810,cocaine,inanimate,animate,B,NULL
1738774183,dbbad0eb544a76cc7d40d0ce79acb34d,PennController,16,0,test_ani,NULL,PennController,27,_Trial_,Start,1738773727005,undefined,701,award,inanimate,animate,B,NULL
1738774183,dbbad0eb544a76cc7d40d0ce79acb34d,PennController,16,0,test_ani,NULL,PennController,27,_Header_,Start,1738773727005,undefined,701,award,inanimate,animate,B,NULL
1738774183,dbbad0eb544a76cc7d40d0ce79acb34d,PennController,16,0,test_ani,NULL,PennController,27,_Header_,End,1738773727257,undefined,701,award,inanimate,animate,B,NULL
1738774183,dbbad0eb544a76cc7d40d0ce79acb34d,PennController,16,0,test_ani,NULL,Selector,unnamed-Selector,Selection,inanimate,1738773728461,undefined,701,award,inanimate,animate,B,inanimate;animate
1738774183,dbbad0eb544a76cc7d40d0ce79acb34d,PennController,16,0,test_ani,NULL,PennController,27,_Trial_,End,1738773728463,undefined,701,award,inanimate,animate,B,NULL
1738774183,dbbad0eb544a76cc7d40d0ce79acb34d,PennController,4,0,test_ani,NULL,PennController,15,_Trial_,Start,1738773728465,undefined,1015,heroin,inanimate,animate,B,NULL
1738774183,dbbad0eb544a76cc7d40d0ce79acb34d,PennController,4,0,test_ani,NULL,PennController,15,_Header_,Start,1738773728465,undefined,1015,heroin,inanimate,animate,B,NULL
1738774183,dbbad0eb544a76cc7d40d0ce79acb34d,PennController,4,0,test_ani,NULL,PennController,15,_Header_,End,1738773728718,undefined,1015,heroin,inanimate,animate,B,NULL
1738774183,dbbad0eb544a76cc7d40d0ce79acb34d,PennController,4,0,test_ani,NULL,Selector,unnamed-Selector,Selection,inanimate,1738773730237,undefined,1015,heroin,inanimate,animate,B,inanimate;animate
1738774183,dbbad0eb544a76cc7d40d0ce79acb34d,PennController,4,0,test_ani,NULL,PennController,15,_Trial_,End,1738773730238,undefined,1015,heroin,inanimate,animate,B,NULL
1738774183,dbbad0eb544a76cc7d40d0ce79acb34d,PennController,38,0,test_ani,NULL,PennController,49,_Trial_,Start,1738773730239,undefined,706,kitten,inanimate,animate,B,NULL
1738774183,dbbad0eb544a76cc7d40d0ce79acb34d,PennController,38,0,test_ani,NULL,PennController,49,_Header_,Start,1738773730239,undefined,706,kitten,inanimate,animate,B,NULL
1738774183,dbbad0eb544a76cc7d40d0ce79acb34d,PennController,38,0,test_ani,NULL,PennController,49,_Header_,End,1738773730491,undefined,706,kitten,inanimate,animate,B,NULL
1738774183,dbbad0eb544a76cc7d40d0ce79acb34d,PennController,38,0,test_ani,NULL,Selector,unnamed-Selector,Selection,animate,1738773731701,undefined,706,kitten,inanimate,animate,B,inanimate;animate
1738774183,dbbad0eb544a76cc7d40d0ce79acb34d,PennController,38,0,test_ani,NULL,PennController,49,_Trial_,End,1738773731702,undefined,706,kitten,inanimate,animate,B,NULL
1738774183,dbbad0eb544a76cc7d40d0ce79acb34d,PennController,39,0,test_ani,NULL,PennController,50,_Trial_,Start,1738773731703,undefined,704,bunny,inanimate,animate,B,NULL
1738774183,dbbad0eb544a76cc7d40d0ce79acb34d,PennController,39,0,test_ani,NULL,PennController,50,_Header_,Start,1738773731703,undefined,704,bunny,inanimate,animate,B,NULL
1738774183,dbbad0eb544a76cc7d40d0ce79acb34d,PennController,39,0,test_ani,NULL,PennController,50,_Header_,End,1738773731957,undefined,704,bunny,inanimate,animate,B,NULL
1738774183,dbbad0eb544a76cc7d40d0ce79acb34d,PennController,39,0,test_ani,NULL,Selector,unnamed-Selector,Selection,animate,1738773733164,undefined,704,bunny,inanimate,animate,B,inanimate;animate
1738774183,dbbad0eb544a76cc7d40d0ce79acb34d,PennController,39,0,test_ani,NULL,PennController,50,_Trial_,End,1738773733165,undefined,704,bunny,inanimate,animate,B,NULL
1738774183,dbbad0eb544a76cc7d40d0ce79acb34d,PennController,22,0,test_ani,NULL,PennController,33,_Trial_,Start,1738773733165,undefined,660,sandwich,inanimate,animate,B,NULL
1738774183,dbbad0eb544a76cc7d40d0ce79acb34d,PennController,22,0,test_ani,NULL,PennController,33,_Header_,Start,1738773733165,undefined,660,sandwich,inanimate,animate,B,NULL
1738774183,dbbad0eb544a76cc7d40d0ce79acb34d,PennController,22,0,test_ani,NULL,PennController,33,_Header_,End,1738773733419,undefined,660,sandwich,inanimate,animate,B,NULL
1738774183,dbbad0eb544a76cc7d40d0ce79acb34d,PennController,22,0,test_ani,NULL,Selector,unnamed-Selector,Selection,inanimate,1738773734581,undefined,660,sandwich,inanimate,animate,B,inanimate;animate
1738774183,dbbad0eb544a76cc7d40d0ce79acb34d,PennController,22,0,test_ani,NULL,PennController,33,_Trial_,End,1738773734583,undefined,660,sandwich,inanimate,animate,B,NULL
1738774183,dbbad0eb544a76cc7d40d0ce79acb34d,PennController,40,0,test_ani,NULL,PennController,51,_Trial_,Start,1738773734586,undefined,654,child,inanimate,animate,B,NULL
1738774183,dbbad0eb544a76cc7d40d0ce79acb34d,PennController,40,0,test_ani,NULL,PennController,51,_Header_,Start,1738773734586,undefined,654,child,inanimate,animate,B,NULL
1738774183,dbbad0eb544a76cc7d40d0ce79acb34d,PennController,40,0,test_ani,NULL,PennController,51,_Header_,End,1738773734838,undefined,654,child,inanimate,animate,B,NULL
1738774183,dbbad0eb544a76cc7d40d0ce79acb34d,PennController,40,0,test_ani,NULL,Selector,unnamed-Selector,Selection,animate,1738773735996,undefined,654,child,inanimate,animate,B,inanimate;animate
1738774183,dbbad0eb544a76cc7d40d0ce79acb34d,PennController,40,0,test_ani,NULL,PennController,51,_Trial_,End,1738773735997,undefined,654,child,inanimate,animate,B,NULL
1738774183,dbbad0eb544a76cc7d40d0ce79acb34d,PennController,17,0,test_ani,NULL,PennController,28,_Trial_,Start,1738773735997,undefined,720,pizza,inanimate,animate,B,NULL
1738774183,dbbad0eb544a76cc7d40d0ce79acb34d,PennController,17,0,test_ani,NULL,PennController,28,_Header_,Start,1738773735997,undefined,720,pizza,inanimate,animate,B,NULL
1738774183,dbbad0eb544a76cc7d40d0ce79acb34d,PennController,17,0,test_ani,NULL,PennController,28,_Header_,End,1738773736252,undefined,720,pizza,inanimate,animate,B,NULL
1738774183,dbbad0eb544a76cc7d40d0ce79acb34d,PennController,17,0,test_ani,NULL,Selector,unnamed-Selector,Selection,inanimate,1738773737477,undefined,720,pizza,inanimate,animate,B,inanimate;animate
1738774183,dbbad0eb544a76cc7d40d0ce79acb34d,PennController,17,0,test_ani,NULL,PennController,28,_Trial_,End,1738773737479,undefined,720,pizza,inanimate,animate,B,NULL
1738774183,dbbad0eb544a76cc7d40d0ce79acb34d,PennController,8,0,test_ani,NULL,PennController,19,_Trial_,Start,1738773737482,undefined,2380,excrement,inanimate,animate,B,NULL
1738774183,dbbad0eb544a76cc7d40d0ce79acb34d,PennController,8,0,test_ani,NULL,PennController,19,_Header_,Start,1738773737482,undefined,2380,excrement,inanimate,animate,B,NULL
1738774183,dbbad0eb544a76cc7d40d0ce79acb34d,PennController,8,0,test_ani,NULL,PennController,19,_Header_,End,1738773737735,undefined,2380,excrement,inanimate,animate,B,NULL
1738774183,dbbad0eb544a76cc7d40d0ce79acb34d,PennController,8,0,test_ani,NULL,Selector,unnamed-Selector,Selection,animate,1738773740621,undefined,2380,excrement,inanimate,animate,B,inanimate;animate
1738774183,dbbad0eb544a76cc7d40d0ce79acb34d,PennController,8,0,test_ani,NULL,PennController,19,_Trial_,End,1738773740622,undefined,2380,excrement,inanimate,animate,B,NULL
1738774183,dbbad0eb544a76cc7d40d0ce79acb34d,PennController,29,0,test_ani,NULL,PennController,40,_Trial_,Start,1738773740624,undefined,851,dictator,inanimate,animate,B,NULL
1738774183,dbbad0eb544a76cc7d40d0ce79acb34d,PennController,29,0,test_ani,NULL,PennController,40,_Header_,Start,1738773740624,undefined,851,dictator,inanimate,animate,B,NULL
1738774183,dbbad0eb544a76cc7d40d0ce79acb34d,PennController,29,0,test_ani,NULL,PennController,40,_Header_,End,1738773740876,undefined,851,dictator,inanimate,animate,B,NULL
1738774183,dbbad0eb544a76cc7d40d0ce79acb34d,PennController,29,0,test_ani,NULL,Selector,unnamed-Selector,Selection,animate,1738773742231,undefined,851,dictator,inanimate,animate,B,inanimate;animate
1738774183,dbbad0eb544a76cc7d40d0ce79acb34d,PennController,29,0,test_ani,NULL,PennController,40,_Trial_,End,1738773742233,undefined,851,dictator,inanimate,animate,B,NULL
1738774183,dbbad0eb544a76cc7d40d0ce79acb34d,PennController,33,0,test_ani,NULL,PennController,44,_Trial_,Start,1738773742235,undefined,1326,mugger,inanimate,animate,B,NULL
1738774183,dbbad0eb544a76cc7d40d0ce79acb34d,PennController,33,0,test_ani,NULL,PennController,44,_Header_,Start,1738773742235,undefined,1326,mugger,inanimate,animate,B,NULL
1738774183,dbbad0eb544a76cc7d40d0ce79acb34d,PennController,33,0,test_ani,NULL,PennController,44,_Header_,End,1738773742487,undefined,1326,mugger,inanimate,animate,B,NULL
1738774183,dbbad0eb544a76cc7d40d0ce79acb34d,PennController,33,0,test_ani,NULL,Selector,unnamed-Selector,Selection,animate,1738773744316,undefined,1326,mugger,inanimate,animate,B,inanimate;animate
1738774183,dbbad0eb544a76cc7d40d0ce79acb34d,PennController,33,0,test_ani,NULL,PennController,44,_Trial_,End,1738773744317,undefined,1326,mugger,inanimate,animate,B,NULL
1738774183,dbbad0eb544a76cc7d40d0ce79acb34d,PennController,20,0,test_ani,NULL,PennController,31,_Trial_,Start,1738773744318,undefined,718,doughnut,inanimate,animate,B,NULL
1738774183,dbbad0eb544a76cc7d40d0ce79acb34d,PennController,20,0,test_ani,NULL,PennController,31,_Header_,Start,1738773744318,undefined,718,doughnut,inanimate,animate,B,NULL
1738774183,dbbad0eb544a76cc7d40d0ce79acb34d,PennController,20,0,test_ani,NULL,PennController,31,_Header_,End,1738773744569,undefined,718,doughnut,inanimate,animate,B,NULL
1738774183,dbbad0eb544a76cc7d40d0ce79acb34d,PennController,20,0,test_ani,NULL,Selector,unnamed-Selector,Selection,inanimate,1738773745788,undefined,718,doughnut,inanimate,animate,B,inanimate;animate
1738774183,dbbad0eb544a76cc7d40d0ce79acb34d,PennController,20,0,test_ani,NULL,PennController,31,_Trial_,End,1738773745790,undefined,718,doughnut,inanimate,animate,B,NULL
1738774183,dbbad0eb544a76cc7d40d0ce79acb34d,PennController,31,0,test_ani,NULL,PennController,42,_Trial_,Start,1738773745791,undefined,912,tapeworm,inanimate,animate,B,NULL
1738774183,dbbad0eb544a76cc7d40d0ce79acb34d,PennController,31,0,test_ani,NULL,PennController,42,_Header_,Start,1738773745791,undefined,912,tapeworm,inanimate,animate,B,NULL
1738774183,dbbad0eb544a76cc7d40d0ce79acb34d,PennController,31,0,test_ani,NULL,PennController,42,_Header_,End,1738773746044,undefined,912,tapeworm,inanimate,animate,B,NULL
1738774183,dbbad0eb544a76cc7d40d0ce79acb34d,PennController,31,0,test_ani,NULL,Selector,unnamed-Selector,Selection,animate,1738773747461,undefined,912,tapeworm,inanimate,animate,B,inanimate;animate
1738774183,dbbad0eb544a76cc7d40d0ce79acb34d,PennController,31,0,test_ani,NULL,PennController,42,_Trial_,End,1738773747463,undefined,912,tapeworm,inanimate,animate,B,NULL
1738774183,dbbad0eb544a76cc7d40d0ce79acb34d,PennController,21,0,test_ani,NULL,PennController,32,_Trial_,Start,1738773747465,undefined,944,dollar,inanimate,animate,B,NULL
1738774183,dbbad0eb544a76cc7d40d0ce79acb34d,PennController,21,0,test_ani,NULL,PennController,32,_Header_,Start,1738773747465,undefined,944,dollar,inanimate,animate,B,NULL
1738774183,dbbad0eb544a76cc7d40d0ce79acb34d,PennController,21,0,test_ani,NULL,PennController,32,_Header_,End,1738773747719,undefined,944,dollar,inanimate,animate,B,NULL
1738774183,dbbad0eb544a76cc7d40d0ce79acb34d,PennController,21,0,test_ani,NULL,Selector,unnamed-Selector,Selection,inanimate,1738773749164,undefined,944,dollar,inanimate,animate,B,inanimate;animate
1738774183,dbbad0eb544a76cc7d40d0ce79acb34d,PennController,21,0,test_ani,NULL,PennController,32,_Trial_,End,1738773749165,undefined,944,dollar,inanimate,animate,B,NULL
1738774183,dbbad0eb544a76cc7d40d0ce79acb34d,PennController,32,0,test_ani,NULL,PennController,43,_Trial_,Start,1738773749166,undefined,1981,intruder,inanimate,animate,B,NULL
1738774183,dbbad0eb544a76cc7d40d0ce79acb34d,PennController,32,0,test_ani,NULL,PennController,43,_Header_,Start,1738773749166,undefined,1981,intruder,inanimate,animate,B,NULL
1738774183,dbbad0eb544a76cc7d40d0ce79acb34d,PennController,32,0,test_ani,NULL,PennController,43,_Header_,End,1738773749418,undefined,1981,intruder,inanimate,animate,B,NULL
1738774183,dbbad0eb544a76cc7d40d0ce79acb34d,PennController,32,0,test_ani,NULL,Selector,unnamed-Selector,Selection,animate,1738773751900,undefined,1981,intruder,inanimate,animate,B,inanimate;animate
1738774183,dbbad0eb544a76cc7d40d0ce79acb34d,PennController,32,0,test_ani,NULL,PennController,43,_Trial_,End,1738773751902,undefined,1981,intruder,inanimate,animate,B,NULL
1738774183,dbbad0eb544a76cc7d40d0ce79acb34d,PennController,5,0,test_ani,NULL,PennController,16,_Trial_,Start,1738773751903,undefined,1070,swastika,inanimate,animate,B,NULL
1738774183,dbbad0eb544a76cc7d40d0ce79acb34d,PennController,5,0,test_ani,NULL,PennController,16,_Header_,Start,1738773751903,undefined,1070,swastika,inanimate,animate,B,NULL
1738774183,dbbad0eb544a76cc7d40d0ce79acb34d,PennController,5,0,test_ani,NULL,PennController,16,_Header_,End,1738773752153,undefined,1070,swastika,inanimate,animate,B,NULL
1738774183,dbbad0eb544a76cc7d40d0ce79acb34d,PennController,5,0,test_ani,NULL,Selector,unnamed-Selector,Selection,inanimate,1738773753725,undefined,1070,swastika,inanimate,animate,B,inanimate;animate
1738774183,dbbad0eb544a76cc7d40d0ce79acb34d,PennController,5,0,test_ani,NULL,PennController,16,_Trial_,End,1738773753726,undefined,1070,swastika,inanimate,animate,B,NULL
1738774183,dbbad0eb544a76cc7d40d0ce79acb34d,PennController,6,0,test_ani,NULL,PennController,17,_Trial_,Start,1738773753728,undefined,1497,wiretap,inanimate,animate,B,NULL
1738774183,dbbad0eb544a76cc7d40d0ce79acb34d,PennController,6,0,test_ani,NULL,PennController,17,_Header_,Start,1738773753728,undefined,1497,wiretap,inanimate,animate,B,NULL
1738774183,dbbad0eb544a76cc7d40d0ce79acb34d,PennController,6,0,test_ani,NULL,PennController,17,_Header_,End,1738773753979,undefined,1497,wiretap,inanimate,animate,B,NULL
1738774183,dbbad0eb544a76cc7d40d0ce79acb34d,PennController,6,0,test_ani,NULL,Selector,unnamed-Selector,Selection,inanimate,1738773755980,undefined,1497,wiretap,inanimate,animate,B,inanimate;animate
1738774183,dbbad0eb544a76cc7d40d0ce79acb34d,PennController,6,0,test_ani,NULL,PennController,17,_Trial_,End,1738773755982,undefined,1497,wiretap,inanimate,animate,B,NULL
1738774183,dbbad0eb544a76cc7d40d0ce79acb34d,PennController,11,0,test_ani,NULL,PennController,22,_Trial_,Start,1738773755983,undefined,1259,flood,inanimate,animate,B,NULL
1738774183,dbbad0eb544a76cc7d40d0ce79acb34d,PennController,11,0,test_ani,NULL,PennController,22,_Header_,Start,1738773755983,undefined,1259,flood,inanimate,animate,B,NULL
1738774183,dbbad0eb544a76cc7d40d0ce79acb34d,PennController,11,0,test_ani,NULL,PennController,22,_Header_,End,1738773756234,undefined,1259,flood,inanimate,animate,B,NULL
1738774183,dbbad0eb544a76cc7d40d0ce79acb34d,PennController,11,0,test_ani,NULL,Selector,unnamed-Selector,Selection,inanimate,1738773757996,undefined,1259,flood,inanimate,animate,B,inanimate;animate
1738774183,dbbad0eb544a76cc7d40d0ce79acb34d,PennController,11,0,test_ani,NULL,PennController,22,_Trial_,End,1738773757997,undefined,1259,flood,inanimate,animate,B,NULL
1738774183,dbbad0eb544a76cc7d40d0ce79acb34d,PennController,37,0,test_ani,NULL,PennController,48,_Trial_,Start,1738773757997,undefined,673,duckling,inanimate,animate,B,NULL
1738774183,dbbad0eb544a76cc7d40d0ce79acb34d,PennController,37,0,test_ani,NULL,PennController,48,_Header_,Start,1738773757997,undefined,673,duckling,inanimate,animate,B,NULL
1738774183,dbbad0eb544a76cc7d40d0ce79acb34d,PennController,37,0,test_ani,NULL,PennController,48,_Header_,End,1738773758252,undefined,673,duckling,inanimate,animate,B,NULL
1738774183,dbbad0eb544a76cc7d40d0ce79acb34d,PennController,37,0,test_ani,NULL,Selector,unnamed-Selector,Selection,animate,1738773759429,undefined,673,duckling,inanimate,animate,B,inanimate;animate
1738774183,dbbad0eb544a76cc7d40d0ce79acb34d,PennController,37,0,test_ani,NULL,PennController,48,_Trial_,End,1738773759430,undefined,673,duckling,inanimate,animate,B,NULL
1738774183,dbbad0eb544a76cc7d40d0ce79acb34d,PennController,27,0,test_ani,NULL,PennController,38,_Trial_,Start,1738773759432,undefined,1258,widow,inanimate,animate,B,NULL
1738774183,dbbad0eb544a76cc7d40d0ce79acb34d,PennController,27,0,test_ani,NULL,PennController,38,_Header_,Start,1738773759432,undefined,1258,widow,inanimate,animate,B,NULL
1738774183,dbbad0eb544a76cc7d40d0ce79acb34d,PennController,27,0,test_ani,NULL,PennController,38,_Header_,End,1738773759683,undefined,1258,widow,inanimate,animate,B,NULL
1738774183,dbbad0eb544a76cc7d40d0ce79acb34d,PennController,27,0,test_ani,NULL,Selector,unnamed-Selector,Selection,animate,1738773761444,undefined,1258,widow,inanimate,animate,B,inanimate;animate
1738774183,dbbad0eb544a76cc7d40d0ce79acb34d,PennController,27,0,test_ani,NULL,PennController,38,_Trial_,End,1738773761446,undefined,1258,widow,inanimate,animate,B,NULL
1738774183,dbbad0eb544a76cc7d40d0ce79acb34d,PennController,42,0,test_ani,NULL,PennController,53,_Trial_,Start,1738773761447,undefined,710,chipmunk,inanimate,animate,B,NULL
1738774183,dbbad0eb544a76cc7d40d0ce79acb34d,PennController,42,0,test_ani,NULL,PennController,53,_Header_,Start,1738773761447,undefined,710,chipmunk,inanimate,animate,B,NULL
1738774183,dbbad0eb544a76cc7d40d0ce79acb34d,PennController,42,0,test_ani,NULL,PennController,53,_Header_,End,1738773761701,undefined,710,chipmunk,inanimate,animate,B,NULL
1738774183,dbbad0eb544a76cc7d40d0ce79acb34d,PennController,42,0,test_ani,NULL,Selector,unnamed-Selector,Selection,animate,1738773762917,undefined,710,chipmunk,inanimate,animate,B,inanimate;animate
1738774183,dbbad0eb544a76cc7d40d0ce79acb34d,PennController,42,0,test_ani,NULL,PennController,53,_Trial_,End,1738773762918,undefined,710,chipmunk,inanimate,animate,B,NULL
1738774183,dbbad0eb544a76cc7d40d0ce79acb34d,PennController,14,0,test_ani,NULL,PennController,25,_Trial_,Start,1738773762920,undefined,827,prize,inanimate,animate,B,NULL
1738774183,dbbad0eb544a76cc7d40d0ce79acb34d,PennController,14,0,test_ani,NULL,PennController,25,_Header_,Start,1738773762920,undefined,827,prize,inanimate,animate,B,NULL
1738774183,dbbad0eb544a76cc7d40d0ce79acb34d,PennController,14,0,test_ani,NULL,PennController,25,_Header_,End,1738773763170,undefined,827,prize,inanimate,animate,B,NULL
1738774183,dbbad0eb544a76cc7d40d0ce79acb34d,PennController,14,0,test_ani,NULL,Selector,unnamed-Selector,Selection,inanimate,1738773764501,undefined,827,prize,inanimate,animate,B,inanimate;animate
1738774183,dbbad0eb544a76cc7d40d0ce79acb34d,PennController,14,0,test_ani,NULL,PennController,25,_Trial_,End,1738773764503,undefined,827,prize,inanimate,animate,B,NULL
1738774183,dbbad0eb544a76cc7d40d0ce79acb34d,PennController,15,0,test_ani,NULL,PennController,26,_Trial_,Start,1738773764505,undefined,2686,sunshine,inanimate,animate,B,NULL
1738774183,dbbad0eb544a76cc7d40d0ce79acb34d,PennController,15,0,test_ani,NULL,PennController,26,_Header_,Start,1738773764505,undefined,2686,sunshine,inanimate,animate,B,NULL
1738774183,dbbad0eb544a76cc7d40d0ce79acb34d,PennController,15,0,test_ani,NULL,PennController,26,_Header_,End,1738773764755,undefined,2686,sunshine,inanimate,animate,B,NULL
1738774183,dbbad0eb544a76cc7d40d0ce79acb34d,PennController,15,0,test_ani,NULL,Selector,unnamed-Selector,Selection,animate,1738773767942,undefined,2686,sunshine,inanimate,animate,B,inanimate;animate
1738774183,dbbad0eb544a76cc7d40d0ce79acb34d,PennController,15,0,test_ani,NULL,PennController,26,_Trial_,End,1738773767944,undefined,2686,sunshine,inanimate,animate,B,NULL
1738774183,dbbad0eb544a76cc7d40d0ce79acb34d,PennController,9,0,test_ani,NULL,PennController,20,_Trial_,Start,1738773767946,undefined,729,poison,inanimate,animate,B,NULL
1738774183,dbbad0eb544a76cc7d40d0ce79acb34d,PennController,9,0,test_ani,NULL,PennController,20,_Header_,Start,1738773767946,undefined,729,poison,inanimate,animate,B,NULL
1738774183,dbbad0eb544a76cc7d40d0ce79acb34d,PennController,9,0,test_ani,NULL,PennController,20,_Header_,End,1738773768197,undefined,729,poison,inanimate,animate,B,NULL
1738774183,dbbad0eb544a76cc7d40d0ce79acb34d,PennController,9,0,test_ani,NULL,Selector,unnamed-Selector,Selection,inanimate,1738773769428,undefined,729,poison,inanimate,animate,B,inanimate;animate
1738774183,dbbad0eb544a76cc7d40d0ce79acb34d,PennController,9,0,test_ani,NULL,PennController,20,_Trial_,End,1738773769429,undefined,729,poison,inanimate,animate,B,NULL
1738774183,dbbad0eb544a76cc7d40d0ce79acb34d,PennController,18,0,test_ani,NULL,PennController,29,_Trial_,Start,1738773769429,undefined,2226,laughter,inanimate,animate,B,NULL
1738774183,dbbad0eb544a76cc7d40d0ce79acb34d,PennController,18,0,test_ani,NULL,PennController,29,_Header_,Start,1738773769429,undefined,2226,laughter,inanimate,animate,B,NULL
1738774183,dbbad0eb544a76cc7d40d0ce79acb34d,PennController,18,0,test_ani,NULL,PennController,29,_Header_,End,1738773769683,undefined,2226,laughter,inanimate,animate,B,NULL
1738774183,dbbad0eb544a76cc7d40d0ce79acb34d,PennController,18,0,test_ani,NULL,Selector,unnamed-Selector,Selection,inanimate,1738773772413,undefined,2226,laughter,inanimate,animate,B,inanimate;animate
1738774183,dbbad0eb544a76cc7d40d0ce79acb34d,PennController,18,0,test_ani,NULL,PennController,29,_Trial_,End,1738773772414,undefined,2226,laughter,inanimate,animate,B,NULL
1738774183,dbbad0eb544a76cc7d40d0ce79acb34d,PennController,43,0,test_ani,NULL,PennController,54,_Trial_,Start,1738773772415,undefined,633,husband,inanimate,animate,B,NULL
1738774183,dbbad0eb544a76cc7d40d0ce79acb34d,PennController,43,0,test_ani,NULL,PennController,54,_Header_,Start,1738773772415,undefined,633,husband,inanimate,animate,B,NULL
1738774183,dbbad0eb544a76cc7d40d0ce79acb34d,PennController,43,0,test_ani,NULL,PennController,54,_Header_,End,1738773772669,undefined,633,husband,inanimate,animate,B,NULL
1738774183,dbbad0eb544a76cc7d40d0ce79acb34d,PennController,43,0,test_ani,NULL,Selector,unnamed-Selector,Selection,animate,1738773773805,undefined,633,husband,inanimate,animate,B,inanimate;animate
1738774183,dbbad0eb544a76cc7d40d0ce79acb34d,PennController,43,0,test_ani,NULL,PennController,54,_Trial_,End,1738773773807,undefined,633,husband,inanimate,animate,B,NULL
1738774183,dbbad0eb544a76cc7d40d0ce79acb34d,PennController,26,0,test_ani,NULL,PennController,37,_Trial_,Start,1738773773809,undefined,735,maggot,inanimate,animate,B,NULL
1738774183,dbbad0eb544a76cc7d40d0ce79acb34d,PennController,26,0,test_ani,NULL,PennController,37,_Header_,Start,1738773773809,undefined,735,maggot,inanimate,animate,B,NULL
1738774183,dbbad0eb544a76cc7d40d0ce79acb34d,PennController,26,0,test_ani,NULL,PennController,37,_Header_,End,1738773774062,undefined,735,maggot,inanimate,animate,B,NULL
1738774183,dbbad0eb544a76cc7d40d0ce79acb34d,PennController,26,0,test_ani,NULL,Selector,unnamed-Selector,Selection,animate,1738773775301,undefined,735,maggot,inanimate,animate,B,inanimate;animate
1738774183,dbbad0eb544a76cc7d40d0ce79acb34d,PennController,26,0,test_ani,NULL,PennController,37,_Trial_,End,1738773775302,undefined,735,maggot,inanimate,animate,B,NULL
1738774183,dbbad0eb544a76cc7d40d0ce79acb34d,PennController,24,0,test_ani,NULL,PennController,35,_Trial_,Start,1738773775304,undefined,746,slave,inanimate,animate,B,NULL
1738774183,dbbad0eb544a76cc7d40d0ce79acb34d,PennController,24,0,test_ani,NULL,PennController,35,_Header_,Start,1738773775304,undefined,746,slave,inanimate,animate,B,NULL
1738774183,dbbad0eb544a76cc7d40d0ce79acb34d,PennController,24,0,test_ani,NULL,PennController,35,_Header_,End,1738773775556,undefined,746,slave,inanimate,animate,B,NULL
1738774183,dbbad0eb544a76cc7d40d0ce79acb34d,PennController,24,0,test_ani,NULL,Selector,unnamed-Selector,Selection,animate,1738773776805,undefined,746,slave,inanimate,animate,B,inanimate;animate
1738774183,dbbad0eb544a76cc7d40d0ce79acb34d,PennController,24,0,test_ani,NULL,PennController,35,_Trial_,End,1738773776806,undefined,746,slave,inanimate,animate,B,NULL
1738774183,dbbad0eb544a76cc7d40d0ce79acb34d,PennController,10,0,test_ani,NULL,PennController,21,_Trial_,Start,1738773776807,undefined,658,gunshot,inanimate,animate,B,NULL
1738774183,dbbad0eb544a76cc7d40d0ce79acb34d,PennController,10,0,test_ani,NULL,PennController,21,_Header_,Start,1738773776807,undefined,658,gunshot,inanimate,animate,B,NULL
1738774183,dbbad0eb544a76cc7d40d0ce79acb34d,PennController,10,0,test_ani,NULL,PennController,21,_Header_,End,1738773777058,undefined,658,gunshot,inanimate,animate,B,NULL
1738774183,dbbad0eb544a76cc7d40d0ce79acb34d,PennController,10,0,test_ani,NULL,Selector,unnamed-Selector,Selection,inanimate,1738773778220,undefined,658,gunshot,inanimate,animate,B,inanimate;animate
1738774183,dbbad0eb544a76cc7d40d0ce79acb34d,PennController,10,0,test_ani,NULL,PennController,21,_Trial_,End,1738773778221,undefined,658,gunshot,inanimate,animate,B,NULL
1738774183,dbbad0eb544a76cc7d40d0ce79acb34d,PennController,23,0,test_ani,NULL,PennController,34,_Trial_,Start,1738773778223,undefined,2682,meadow,inanimate,animate,B,NULL
1738774183,dbbad0eb544a76cc7d40d0ce79acb34d,PennController,23,0,test_ani,NULL,PennController,34,_Header_,Start,1738773778223,undefined,2682,meadow,inanimate,animate,B,NULL
1738774183,dbbad0eb544a76cc7d40d0ce79acb34d,PennController,23,0,test_ani,NULL,PennController,34,_Header_,End,1738773778475,undefined,2682,meadow,inanimate,animate,B,NULL
1738774183,dbbad0eb544a76cc7d40d0ce79acb34d,PennController,23,0,test_ani,NULL,Selector,unnamed-Selector,Selection,animate,1738773781660,undefined,2682,meadow,inanimate,animate,B,inanimate;animate
1738774183,dbbad0eb544a76cc7d40d0ce79acb34d,PennController,23,0,test_ani,NULL,PennController,34,_Trial_,End,1738773781661,undefined,2682,meadow,inanimate,animate,B,NULL
1738774183,dbbad0eb544a76cc7d40d0ce79acb34d,PennController,25,0,test_ani,NULL,PennController,36,_Trial_,Start,1738773781662,undefined,1419,asshole,inanimate,animate,B,NULL
1738774183,dbbad0eb544a76cc7d40d0ce79acb34d,PennController,25,0,test_ani,NULL,PennController,36,_Header_,Start,1738773781662,undefined,1419,asshole,inanimate,animate,B,NULL
1738774183,dbbad0eb544a76cc7d40d0ce79acb34d,PennController,25,0,test_ani,NULL,PennController,36,_Header_,End,1738773781913,undefined,1419,asshole,inanimate,animate,B,NULL
1738774183,dbbad0eb544a76cc7d40d0ce79acb34d,PennController,25,0,test_ani,NULL,Selector,unnamed-Selector,Selection,inanimate,1738773783836,undefined,1419,asshole,inanimate,animate,B,inanimate;animate
1738774183,dbbad0eb544a76cc7d40d0ce79acb34d,PennController,25,0,test_ani,NULL,PennController,36,_Trial_,End,1738773783837,undefined,1419,asshole,inanimate,animate,B,NULL
1738774183,dbbad0eb544a76cc7d40d0ce79acb34d,PennController,28,0,test_ani,NULL,PennController,39,_Trial_,Start,1738773783837,undefined,926,inmate,inanimate,animate,B,NULL
1738774183,dbbad0eb544a76cc7d40d0ce79acb34d,PennController,28,0,test_ani,NULL,PennController,39,_Header_,Start,1738773783837,undefined,926,inmate,inanimate,animate,B,NULL
1738774183,dbbad0eb544a76cc7d40d0ce79acb34d,PennController,28,0,test_ani,NULL,PennController,39,_Header_,End,1738773784089,undefined,926,inmate,inanimate,animate,B,NULL
1738774183,dbbad0eb544a76cc7d40d0ce79acb34d,PennController,28,0,test_ani,NULL,Selector,unnamed-Selector,Selection,animate,1738773785516,undefined,926,inmate,inanimate,animate,B,inanimate;animate
1738774183,dbbad0eb544a76cc7d40d0ce79acb34d,PennController,28,0,test_ani,NULL,PennController,39,_Trial_,End,1738773785517,undefined,926,inmate,inanimate,animate,B,NULL
1738774183,dbbad0eb544a76cc7d40d0ce79acb34d,PennController,36,0,test_ani,NULL,PennController,47,_Trial_,Start,1738773785517,undefined,729,sibling,inanimate,animate,B,NULL
1738774183,dbbad0eb544a76cc7d40d0ce79acb34d,PennController,36,0,test_ani,NULL,PennController,47,_Header_,Start,1738773785517,undefined,729,sibling,inanimate,animate,B,NULL
1738774183,dbbad0eb544a76cc7d40d0ce79acb34d,PennController,36,0,test_ani,NULL,PennController,47,_Header_,End,1738773785771,undefined,729,sibling,inanimate,animate,B,NULL
1738774183,dbbad0eb544a76cc7d40d0ce79acb34d,PennController,36,0,test_ani,NULL,Selector,unnamed-Selector,Selection,animate,1738773787004,undefined,729,sibling,inanimate,animate,B,inanimate;animate
1738774183,dbbad0eb544a76cc7d40d0ce79acb34d,PennController,36,0,test_ani,NULL,PennController,47,_Trial_,End,1738773787005,undefined,729,sibling,inanimate,animate,B,NULL
1738774183,dbbad0eb544a76cc7d40d0ce79acb34d,PennController,34,0,test_ani,NULL,PennController,45,_Trial_,Start,1738773787006,undefined,728,comedian,inanimate,animate,B,NULL
1738774183,dbbad0eb544a76cc7d40d0ce79acb34d,PennController,34,0,test_ani,NULL,PennController,45,_Header_,Start,1738773787006,undefined,728,comedian,inanimate,animate,B,NULL
1738774183,dbbad0eb544a76cc7d40d0ce79acb34d,PennController,34,0,test_ani,NULL,PennController,45,_Header_,End,1738773787260,undefined,728,comedian,inanimate,animate,B,NULL
1738774183,dbbad0eb544a76cc7d40d0ce79acb34d,PennController,34,0,test_ani,NULL,Selector,unnamed-Selector,Selection,animate,1738773788493,undefined,728,comedian,inanimate,animate,B,inanimate;animate
1738774183,dbbad0eb544a76cc7d40d0ce79acb34d,PennController,34,0,test_ani,NULL,PennController,45,_Trial_,End,1738773788494,undefined,728,comedian,inanimate,animate,B,NULL
1738774183,dbbad0eb544a76cc7d40d0ce79acb34d,PennController,34,0,test_ani,NULL,PennController,45,_Trial_,Start,1738773788495,undefined,667,comedian,inanimate,animate,B,NULL
1738774183,dbbad0eb544a76cc7d40d0ce79acb34d,PennController,34,0,test_ani,NULL,PennController,45,_Header_,Start,1738773788495,undefined,667,comedian,inanimate,animate,B,NULL
1738774183,dbbad0eb544a76cc7d40d0ce79acb34d,PennController,34,0,test_ani,NULL,PennController,45,_Header_,End,1738773788747,undefined,667,comedian,inanimate,animate,B,NULL
1738774183,dbbad0eb544a76cc7d40d0ce79acb34d,PennController,34,0,test_ani,NULL,Selector,unnamed-Selector,Selection,animate,1738773789916,undefined,667,comedian,inanimate,animate,B,inanimate;animate
1738774183,dbbad0eb544a76cc7d40d0ce79acb34d,PennController,34,0,test_ani,NULL,PennController,45,_Trial_,End,1738773789917,undefined,667,comedian,inanimate,animate,B,NULL
1738774183,dbbad0eb544a76cc7d40d0ce79acb34d,PennController,27,0,test_ani,NULL,PennController,38,_Trial_,Start,1738773789918,undefined,791,widow,inanimate,animate,B,NULL
1738774183,dbbad0eb544a76cc7d40d0ce79acb34d,PennController,27,0,test_ani,NULL,PennController,38,_Header_,Start,1738773789918,undefined,791,widow,inanimate,animate,B,NULL
1738774183,dbbad0eb544a76cc7d40d0ce79acb34d,PennController,27,0,test_ani,NULL,PennController,38,_Header_,End,1738773790168,undefined,791,widow,inanimate,animate,B,NULL
1738774183,dbbad0eb544a76cc7d40d0ce79acb34d,PennController,27,0,test_ani,NULL,Selector,unnamed-Selector,Selection,animate,1738773791460,undefined,791,widow,inanimate,animate,B,inanimate;animate
1738774183,dbbad0eb544a76cc7d40d0ce79acb34d,PennController,27,0,test_ani,NULL,PennController,38,_Trial_,End,1738773791462,undefined,791,widow,inanimate,animate,B,NULL
1738774183,dbbad0eb544a76cc7d40d0ce79acb34d,PennController,31,0,test_ani,NULL,PennController,42,_Trial_,Start,1738773791464,undefined,684,tapeworm,inanimate,animate,B,NULL
1738774183,dbbad0eb544a76cc7d40d0ce79acb34d,PennController,31,0,test_ani,NULL,PennController,42,_Header_,Start,1738773791464,undefined,684,tapeworm,inanimate,animate,B,NULL
1738774183,dbbad0eb544a76cc7d40d0ce79acb34d,PennController,31,0,test_ani,NULL,PennController,42,_Header_,End,1738773791714,undefined,684,tapeworm,inanimate,animate,B,NULL
1738774183,dbbad0eb544a76cc7d40d0ce79acb34d,PennController,31,0,test_ani,NULL,Selector,unnamed-Selector,Selection,animate,1738773792900,undefined,684,tapeworm,inanimate,animate,B,inanimate;animate
1738774183,dbbad0eb544a76cc7d40d0ce79acb34d,PennController,31,0,test_ani,NULL,PennController,42,_Trial_,End,1738773792901,undefined,684,tapeworm,inanimate,animate,B,NULL
1738774183,dbbad0eb544a76cc7d40d0ce79acb34d,PennController,37,0,test_ani,NULL,PennController,48,_Trial_,Start,1738773792902,undefined,648,duckling,inanimate,animate,B,NULL
1738774183,dbbad0eb544a76cc7d40d0ce79acb34d,PennController,37,0,test_ani,NULL,PennController,48,_Header_,Start,1738773792902,undefined,648,duckling,inanimate,animate,B,NULL
1738774183,dbbad0eb544a76cc7d40d0ce79acb34d,PennController,37,0,test_ani,NULL,PennController,48,_Header_,End,1738773793156,undefined,648,duckling,inanimate,animate,B,NULL
1738774183,dbbad0eb544a76cc7d40d0ce79acb34d,PennController,37,0,test_ani,NULL,Selector,unnamed-Selector,Selection,animate,1738773794308,undefined,648,duckling,inanimate,animate,B,inanimate;animate
1738774183,dbbad0eb544a76cc7d40d0ce79acb34d,PennController,37,0,test_ani,NULL,PennController,48,_Trial_,End,1738773794309,undefined,648,duckling,inanimate,animate,B,NULL
1738774183,dbbad0eb544a76cc7d40d0ce79acb34d,PennController,25,0,test_ani,NULL,PennController,36,_Trial_,Start,1738773794309,undefined,946,asshole,inanimate,animate,B,NULL
1738774183,dbbad0eb544a76cc7d40d0ce79acb34d,PennController,25,0,test_ani,NULL,PennController,36,_Header_,Start,1738773794309,undefined,946,asshole,inanimate,animate,B,NULL
1738774183,dbbad0eb544a76cc7d40d0ce79acb34d,PennController,25,0,test_ani,NULL,PennController,36,_Header_,End,1738773794562,undefined,946,asshole,inanimate,animate,B,NULL
1738774183,dbbad0eb544a76cc7d40d0ce79acb34d,PennController,25,0,test_ani,NULL,Selector,unnamed-Selector,Selection,inanimate,1738773796012,undefined,946,asshole,inanimate,animate,B,inanimate;animate
1738774183,dbbad0eb544a76cc7d40d0ce79acb34d,PennController,25,0,test_ani,NULL,PennController,36,_Trial_,End,1738773796013,undefined,946,asshole,inanimate,animate,B,NULL
1738774183,dbbad0eb544a76cc7d40d0ce79acb34d,PennController,43,0,test_ani,NULL,PennController,54,_Trial_,Start,1738773796013,undefined,621,husband,inanimate,animate,B,NULL
