"","ID.true","Word","Label","Task","BlockOrder","EventTime","Value","ReactionTime","Key_value_F","Key_value_J","Comments","Group","LogReactionTime","TrialNumber"
"1","63fcf7251ace1792db0941b0","invader","calibrator_val_feedback","Valence","VC",1738770080386,"negative",1633,"positive","negative","positive;negative","A",7.39817409297047,1
"2","63fcf7251ace1792db0941b0","insecure","calibrator_val_feedback","Valence","VC",1738770084458,"negative",2320,"positive","negative","positive;negative","A",7.74932246466036,2
"3","63fcf7251ace1792db0941b0","industry","calibrator_val_feedback","Valence","VC",1738770089898,"negative",2679,"positive","negative","positive;negative","A",7.89319886954461,3
"4","63fcf7251ace1792db0941b0","jail","calibrator_val_feedback","Valence","VC",1738770093714,"negative",1049,"positive","negative","positive;negative","A",6.9555926083963,4
"5","63fcf7251ace1792db0941b0","free","calibrator_val_feedback","Valence","VC",1738770097474,"positive",998,"positive","negative","positive;negative","A",6.90575327631146,5
"6","63fcf7251ace1792db0941b0","icebox","calibrator_val_feedback","Valence","VC",1738770101882,"positive",1645,"positive","negative","positive;negative","A",7.40549566319947,6
"7","63fcf7251ace1792db0941b0","kitten","calibrator_val_feedback","Valence","VC",1738770105450,"positive",803,"positive","negative","positive;negative","A",6.68835471394676,7
"8","63fcf7251ace1792db0941b0","hat","calibrator_val_feedback","Valence","VC",1738770109466,"positive",1254,"positive","negative","positive;negative","A",7.13409372119287,8
"9","63fcf7251ace1792db0941b0","joke","calibrator_val_feedback","Valence","VC",1738770113011,"positive",780,"positive","negative","positive;negative","A",6.65929391968364,9
"10","63fcf7251ace1792db0941b0","grin","calibrator_val_feedback","Valence","VC",1738770116482,"positive",709,"positive","negative","positive;negative","A",6.56385552653213,10
"11","63fcf7251ace1792db0941b0","hat","calibrator_val_no_feedback","Valence","VC",1738770120058,"positive",813,"A","positive;negative","","",6.70073110954781,11
"12","63fcf7251ace1792db0941b0","joke","calibrator_val_no_feedback","Valence","VC",1738770121355,"positive",534,"A","positive;negative","","",6.2803958389602,12
"13","63fcf7251ace1792db0941b0","free","calibrator_val_no_feedback","Valence","VC",1738770122658,"positive",545,"A","positive;negative","","",6.30078579466324,13
"14","63fcf7251ace1792db0941b0","invader","calibrator_val_no_feedback","Valence","VC",1738770124050,"negative",633,"A","positive;negative","","",6.45047042214418,14
"15","63fcf7251ace1792db0941b0","icebox","calibrator_val_no_feedback","Valence","VC",1738770125482,"positive",672,"A","positive;negative","","",6.51025834052315,15
"16","63fcf7251ace1792db0941b0","industry","calibrator_val_no_feedback","Valence","VC",1738770127865,"positive",1623,"A","positive;negative","","",7.39203156751459,16
"17","63fcf7251ace1792db0941b0","grin","calibrator_val_no_feedback","Valence","VC",1738770129530,"positive",901,"A","positive;negative","","",6.80350525760834,17
"18","63fcf7251ace1792db0941b0","jail","calibrator_val_no_feedback","Valence","VC",1738770131129,"negative",841,"A","positive;negative","","",6.73459165997295,18
"19","63fcf7251ace1792db0941b0","kitten","calibrator_val_no_feedback","Valence","VC",1738770132858,"positive",967,"A","positive;negative","","",6.87419849545329,19
"20","63fcf7251ace1792db0941b0","insecure","calibrator_val_no_feedback","Valence","VC",1738770134538,"negative",923,"A","positive;negative","","",6.82762923450285,20
"21","63fcf7251ace1792db0941b0","human","calibrator_ani_feedback","Animacy","VC",1738770393258,"Option_J",1859,"inanimate","animate","Option_F;Option_J","B",7.52779398772144,21
"22","63fcf7251ace1792db0941b0","horse","calibrator_ani_feedback","Animacy","VC",1738770396986,"Option_J",964,"inanimate","animate","Option_F;Option_J","B",6.87109129461055,22
"23","63fcf7251ace1792db0941b0","monkey","calibrator_ani_feedback","Animacy","VC",1738770400514,"Option_J",761,"inanimate","animate","Option_F;Option_J","B",6.63463335786169,23
"24","63fcf7251ace1792db0941b0","elephant","calibrator_ani_feedback","Animacy","VC",1738770403955,"Option_J",681,"inanimate","animate","Option_F;Option_J","B",6.52356230614951,24
"25","63fcf7251ace1792db0941b0","chair","calibrator_ani_feedback","Animacy","VC",1738770407618,"Option_F",904,"inanimate","animate","Option_F;Option_J","B",6.80682936039218,25
"26","63fcf7251ace1792db0941b0","bottle","calibrator_ani_feedback","Animacy","VC",1738770411090,"Option_F",705,"inanimate","animate","Option_F;Option_J","B",6.55819780281227,26
"27","63fcf7251ace1792db0941b0","computer","calibrator_ani_feedback","Animacy","VC",1738770414610,"Option_F",760,"inanimate","animate","Option_F;Option_J","B",6.63331843328038,27
"28","63fcf7251ace1792db0941b0","teenager","calibrator_ani_feedback","Animacy","VC",1738770418306,"Option_J",931,"inanimate","animate","Option_F;Option_J","B",6.83625927727707,28
"29","63fcf7251ace1792db0941b0","clock","calibrator_ani_feedback","Animacy","VC",1738770421874,"Option_F",806,"inanimate","animate","Option_F;Option_J","B",6.69208374250663,29
"30","63fcf7251ace1792db0941b0","table","calibrator_ani_feedback","Animacy","VC",1738770425404,"Option_F",769,"inanimate","animate","Option_F;Option_J","B",6.64509096950564,30
"31","63fcf7251ace1792db0941b0","bottle","calibrator_ani_no_feedback","Animacy","VC",1738770428842,"inanimate",676,"B","inanimate;animate","","",6.51619307604296,31
"32","63fcf7251ace1792db0941b0","monkey","calibrator_ani_no_feedback","Animacy","VC",1738770430507,"animate",902,"B","inanimate;animate","","",6.80461452006262,32
"33","63fcf7251ace1792db0941b0","computer","calibrator_ani_no_feedback","Animacy","VC",1738770431906,"inanimate",643,"B","inanimate;animate","","",6.46614472423762,33
"34","63fcf7251ace1792db0941b0","table","calibrator_ani_no_feedback","Animacy","VC",1738770433530,"inanimate",863,"B","inanimate;animate","","",6.76041469108343,34
"35","63fcf7251ace1792db0941b0","clock","calibrator_ani_no_feedback","Animacy","VC",1738770434914,"inanimate",623,"B","inanimate;animate","","",6.43454651878745,35
"36","63fcf7251ace1792db0941b0","human","calibrator_ani_no_feedback","Animacy","VC",1738770436307,"animate",632,"B","inanimate;animate","","",6.44888939414686,36
"37","63fcf7251ace1792db0941b0","horse","calibrator_ani_no_feedback","Animacy","VC",1738770437642,"animate",576,"B","inanimate;animate","","",6.35610766069589,37
"38","63fcf7251ace1792db0941b0","teenager","calibrator_ani_no_feedback","Animacy","VC",1738770439154,"animate",756,"B","inanimate;animate","","",6.62804137617953,38
"39","63fcf7251ace1792db0941b0","chair","calibrator_ani_no_feedback","Animacy","VC",1738770440562,"inanimate",648,"B","inanimate;animate","","",6.47389069635227,39
"40","63fcf7251ace1792db0941b0","elephant","calibrator_ani_no_feedback","Animacy","VC",1738770441986,"animate",661,"B","inanimate;animate","","",6.49375383985169,40
"41","60fe22beeb612ead4d261590","monkey","calibrator_ani_feedback","Animacy","CV",1738785972066,"Option_F",806,"animate","inanimate","Option_F;Option_J","A",6.69208374250663,1
"42","60fe22beeb612ead4d261590","clock","calibrator_ani_feedback","Animacy","CV",1738785975573,"Option_J",744,"animate","inanimate","Option_F;Option_J","A",6.61204103483309,2
"43","60fe22beeb612ead4d261590","computer","calibrator_ani_feedback","Animacy","CV",1738785979122,"Option_J",785,"animate","inanimate","Option_F;Option_J","A",6.66568371778241,3
"44","60fe22beeb612ead4d261590","bottle","calibrator_ani_feedback","Animacy","CV",1738785982539,"Option_J",652,"animate","inanimate","Option_F;Option_J","A",6.48004456192665,4
"45","60fe22beeb612ead4d261590","human","calibrator_ani_feedback","Animacy","CV",1738785985876,"Option_F",570,"animate","inanimate","Option_F;Option_J","A",6.3456363608286,5
"46","60fe22beeb612ead4d261590","elephant","calibrator_ani_feedback","Animacy","CV",1738785989371,"Option_F",728,"animate","inanimate","Option_F;Option_J","A",6.59030104819669,6
"47","60fe22beeb612ead4d261590","chair","calibrator_ani_feedback","Animacy","CV",1738785992707,"Option_J",573,"animate","inanimate","Option_F;Option_J","A",6.35088571671474,7
"48","60fe22beeb612ead4d261590","teenager","calibrator_ani_feedback","Animacy","CV",1738785996181,"Option_F",714,"animate","inanimate","Option_F;Option_J","A",6.57088296233958,8
"49","60fe22beeb612ead4d261590","horse","calibrator_ani_feedback","Animacy","CV",1738785999657,"Option_F",708,"animate","inanimate","Option_F;Option_J","A",6.56244409369372,9
"50","60fe22beeb612ead4d261590","table","calibrator_ani_feedback","Animacy","CV",1738786002947,"Option_J",532,"animate","inanimate","Option_F;Option_J","A",6.27664348934164,10
"51","60fe22beeb612ead4d261590","elephant","calibrator_ani_no_feedback","Animacy","CV",1738786006281,"animate",572,"A","animate;inanimate","","",6.3491389913798,11
"52","60fe22beeb612ead4d261590","monkey","calibrator_ani_no_feedback","Animacy","CV",1738786007653,"animate",611,"A","animate;inanimate","","",6.4150969591716,12
"53","60fe22beeb612ead4d261590","teenager","calibrator_ani_no_feedback","Animacy","CV",1738786008917,"animate",508,"A","animate;inanimate","","",6.23048144757848,13
"54","60fe22beeb612ead4d261590","clock","calibrator_ani_no_feedback","Animacy","CV",1738786010188,"inanimate",511,"A","animate;inanimate","","",6.2363695902037,14
"55","60fe22beeb612ead4d261590","human","calibrator_ani_no_feedback","Animacy","CV",1738786011406,"animate",464,"A","animate;inanimate","","",6.13988455222626,15
"56","60fe22beeb612ead4d261590","bottle","calibrator_ani_no_feedback","Animacy","CV",1738786012635,"inanimate",470,"A","animate;inanimate","","",6.1527326947041,16
"57","60fe22beeb612ead4d261590","computer","calibrator_ani_no_feedback","Animacy","CV",1738786013866,"inanimate",475,"A","animate;inanimate","","",6.16331480403464,17
"58","60fe22beeb612ead4d261590","horse","calibrator_ani_no_feedback","Animacy","CV",1738786015091,"animate",469,"A","animate;inanimate","","",6.15060276844628,18
"59","60fe22beeb612ead4d261590","table","calibrator_ani_no_feedback","Animacy","CV",1738786016401,"inanimate",550,"A","animate;inanimate","","",6.30991827822652,19
"60","60fe22beeb612ead4d261590","chair","calibrator_ani_no_feedback","Animacy","CV",1738786017684,"inanimate",523,"A","animate;inanimate","","",6.25958146406492,20
"61","60fe22beeb612ead4d261590","insecure","calibrator_val_feedback","Valence","CV",1738786232724,"negative",752,"positive","negative","positive;negative","A",6.62273632394984,21
"62","60fe22beeb612ead4d261590","joke","calibrator_val_feedback","Valence","CV",1738786234736,"positive",933,"positive","negative","positive;negative","A",6.83840520084734,22
"63","60fe22beeb612ead4d261590","invader","calibrator_val_feedback","Valence","CV",1738786238507,"negative",1009,"positive","negative","positive;negative","A",6.91671502035361,23
"64","60fe22beeb612ead4d261590","kitten","calibrator_val_feedback","Valence","CV",1738786241988,"positive",720,"positive","negative","positive;negative","A",6.5792512120101,24
"65","60fe22beeb612ead4d261590","hat","calibrator_val_feedback","Valence","CV",1738786246029,"positive",1274,"positive","negative","positive;negative","A",7.14991683613211,25
"66","60fe22beeb612ead4d261590","grin","calibrator_val_feedback","Valence","CV",1738786249630,"positive",840,"positive","negative","positive;negative","A",6.73340189183736,26
"67","60fe22beeb612ead4d261590","industry","calibrator_val_feedback","Valence","CV",1738786253469,"negative",1077,"positive","negative","positive;negative","A",6.98193467715639,27
"68","60fe22beeb612ead4d261590","icebox","calibrator_val_feedback","Valence","CV",1738786257421,"positive",1194,"positive","negative","positive;negative","A",7.08506429395255,28
"69","60fe22beeb612ead4d261590","jail","calibrator_val_feedback","Valence","CV",1738786260984,"negative",801,"positive","negative","positive;negative","A",6.68586094706836,29
"70","60fe22beeb612ead4d261590","free","calibrator_val_feedback","Valence","CV",1738786264709,"positive",964,"positive","negative","positive;negative","A",6.87109129461055,30
"71","60fe22beeb612ead4d261590","hat","calibrator_val_no_feedback","Valence","CV",1738786268393,"positive",927,"A","positive;negative","","",6.83195356556585,31
"72","60fe22beeb612ead4d261590","invader","calibrator_val_no_feedback","Valence","CV",1738786269932,"negative",780,"A","positive;negative","","",6.65929391968364,32
"73","60fe22beeb612ead4d261590","grin","calibrator_val_no_feedback","Valence","CV",1738786271323,"positive",633,"A","positive;negative","","",6.45047042214418,33
"74","60fe22beeb612ead4d261590","kitten","calibrator_val_no_feedback","Valence","CV",1738786272647,"positive",568,"A","positive;negative","","",6.34212141872115,34
"75","60fe22beeb612ead4d261590","jail","calibrator_val_no_feedback","Valence","CV",1738786273914,"negative",508,"A","positive;negative","","",6.23048144757848,35
"76","60fe22beeb612ead4d261590","joke","calibrator_val_no_feedback","Valence","CV",1738786275200,"positive",525,"A","positive;negative","","",6.26339826259162,36
"77","60fe22beeb612ead4d261590","icebox","calibrator_val_no_feedback","Valence","CV",1738786277193,"positive",1239,"A","positive;negative","","",7.12205988162914,37
"78","60fe22beeb612ead4d261590","industry","calibrator_val_no_feedback","Valence","CV",1738786278806,"negative",853,"A","positive;negative","","",6.74875954749168,38
"79","60fe22beeb612ead4d261590","insecure","calibrator_val_no_feedback","Valence","CV",1738786280217,"negative",652,"A","positive;negative","","",6.48004456192665,39
"80","60fe22beeb612ead4d261590","free","calibrator_val_no_feedback","Valence","CV",1738786281706,"positive",735,"A","positive;negative","","",6.59987049921284,40
"81","6535d3f1b4ff80adff474548","hat","calibrator_val_feedback","Valence","VC",1738776598015,"positive",1386,"positive","negative","positive;negative","A",7.23417717974985,1
"82","6535d3f1b4ff80adff474548","grin","calibrator_val_feedback","Valence","VC",1738776600182,"positive",960,"positive","negative","positive;negative","A",6.86693328446188,2
"83","6535d3f1b4ff80adff474548","kitten","calibrator_val_feedback","Valence","VC",1738776603633,"positive",684,"positive","negative","positive;negative","A",6.52795791762255,3
"84","6535d3f1b4ff80adff474548","industry","calibrator_val_feedback","Valence","VC",1738776607537,"negative",1136,"positive","negative","positive;negative","A",7.0352685992811,4
"85","6535d3f1b4ff80adff474548","joke","calibrator_val_feedback","Valence","VC",1738776611088,"positive",785,"positive","negative","positive;negative","A",6.66568371778241,5
"86","6535d3f1b4ff80adff474548","free","calibrator_val_feedback","Valence","VC",1738776615173,"positive",1321,"positive","negative","positive;negative","A",7.18614430452233,6
"87","6535d3f1b4ff80adff474548","insecure","calibrator_val_feedback","Valence","VC",1738776618607,"negative",669,"positive","negative","positive;negative","A",6.50578406012823,7
"88","6535d3f1b4ff80adff474548","invader","calibrator_val_feedback","Valence","VC",1738776623642,"negative",767,"positive","negative","positive;negative","A",6.64248680136726,8
"89","6535d3f1b4ff80adff474548","icebox","calibrator_val_feedback","Valence","VC",1738776625876,"positive",970,"positive","negative","positive;negative","A",6.87729607149743,9
"90","6535d3f1b4ff80adff474548","jail","calibrator_val_feedback","Valence","VC",1738776629328,"negative",683,"positive","negative","positive;negative","A",6.52649485957079,10
"91","6535d3f1b4ff80adff474548","hat","calibrator_val_no_feedback","Valence","VC",1738776632778,"positive",687,"A","positive;negative","","",6.53233429222235,11
"92","6535d3f1b4ff80adff474548","invader","calibrator_val_no_feedback","Valence","VC",1738776634246,"negative",710,"A","positive;negative","","",6.56526497003536,12
"93","6535d3f1b4ff80adff474548","kitten","calibrator_val_no_feedback","Valence","VC",1738776635613,"positive",604,"A","positive;negative","","",6.40357419793482,13
"94","6535d3f1b4ff80adff474548","free","calibrator_val_no_feedback","Valence","VC",1738776637031,"positive",658,"A","positive;negative","","",6.48920493132532,14
"95","6535d3f1b4ff80adff474548","icebox","calibrator_val_no_feedback","Valence","VC",1738776638747,"positive",956,"A","positive;negative","","",6.8627579130514,15
"96","6535d3f1b4ff80adff474548","jail","calibrator_val_no_feedback","Valence","VC",1738776640148,"negative",644,"A","positive;negative","","",6.46769872610435,16
"97","6535d3f1b4ff80adff474548","grin","calibrator_val_no_feedback","Valence","VC",1738776641565,"positive",658,"A","positive;negative","","",6.48920493132532,17
"98","6535d3f1b4ff80adff474548","joke","calibrator_val_no_feedback","Valence","VC",1738776643233,"positive",909,"A","positive;negative","","",6.81234509417748,18
"99","6535d3f1b4ff80adff474548","industry","calibrator_val_no_feedback","Valence","VC",1738776644651,"negative",659,"A","positive;negative","","",6.49072353450251,19
"100","6535d3f1b4ff80adff474548","insecure","calibrator_val_no_feedback","Valence","VC",1738776646101,"negative",694,"A","positive;negative","","",6.5424719605068,20
"101","6535d3f1b4ff80adff474548","horse","calibrator_ani_feedback","Animacy","VC",1738776861496,"Option_J",1196,"inanimate","animate","Option_F;Option_J","B",7.08673793451058,21
"102","6535d3f1b4ff80adff474548","clock","calibrator_ani_feedback","Animacy","VC",1738776864330,"Option_F",819,"inanimate","animate","Option_F;Option_J","B",6.70808408385307,22
"103","6535d3f1b4ff80adff474548","elephant","calibrator_ani_feedback","Animacy","VC",1738776867983,"Option_J",839,"inanimate","animate","Option_F;Option_J","B",6.73221070646721,23
"104","6535d3f1b4ff80adff474548","computer","calibrator_ani_feedback","Animacy","VC",1738776870467,"Option_F",839,"inanimate","animate","Option_F;Option_J","B",6.73221070646721,24
"105","6535d3f1b4ff80adff474548","table","calibrator_ani_feedback","Animacy","VC",1738776873968,"Option_F",739,"inanimate","animate","Option_F;Option_J","B",6.6052979209482,25
"106","6535d3f1b4ff80adff474548","chair","calibrator_ani_feedback","Animacy","VC",1738776877352,"Option_F",619,"inanimate","animate","Option_F;Option_J","B",6.4281052726846,26
"107","6535d3f1b4ff80adff474548","monkey","calibrator_ani_feedback","Animacy","VC",1738776880839,"Option_J",726,"inanimate","animate","Option_F;Option_J","B",6.5875500148248,27
"108","6535d3f1b4ff80adff474548","bottle","calibrator_ani_feedback","Animacy","VC",1738776884355,"Option_F",755,"inanimate","animate","Option_F;Option_J","B",6.62671774924902,28
"109","6535d3f1b4ff80adff474548","teenager","calibrator_ani_feedback","Animacy","VC",1738776887877,"Option_J",758,"inanimate","animate","Option_F;Option_J","B",6.63068338564237,29
"110","6535d3f1b4ff80adff474548","human","calibrator_ani_feedback","Animacy","VC",1738776891159,"Option_J",519,"inanimate","animate","Option_F;Option_J","B",6.25190388316589,30
"111","6535d3f1b4ff80adff474548","chair","calibrator_ani_no_feedback","Animacy","VC",1738776894476,"inanimate",549,"B","inanimate;animate","","",6.30809844150953,31
"112","6535d3f1b4ff80adff474548","teenager","calibrator_ani_no_feedback","Animacy","VC",1738776896013,"animate",781,"B","inanimate;animate","","",6.66057514983969,32
"113","6535d3f1b4ff80adff474548","human","calibrator_ani_no_feedback","Animacy","VC",1738776897544,"animate",771,"B","inanimate;animate","","",6.64768837356333,33
"114","6535d3f1b4ff80adff474548","elephant","calibrator_ani_no_feedback","Animacy","VC",1738776899094,"animate",790,"B","inanimate;animate","","",6.67203294546107,34
"115","6535d3f1b4ff80adff474548","horse","calibrator_ani_no_feedback","Animacy","VC",1738776900449,"animate",593,"B","inanimate;animate","","",6.38519439899773,35
"116","6535d3f1b4ff80adff474548","computer","calibrator_ani_no_feedback","Animacy","VC",1738776901912,"inanimate",701,"B","inanimate;animate","","",6.55250788703459,36
"117","6535d3f1b4ff80adff474548","bottle","calibrator_ani_no_feedback","Animacy","VC",1738776903430,"inanimate",755,"B","inanimate;animate","","",6.62671774924902,37
"118","6535d3f1b4ff80adff474548","monkey","calibrator_ani_no_feedback","Animacy","VC",1738776904847,"animate",660,"B","inanimate;animate","","",6.49223983502047,38
"119","6535d3f1b4ff80adff474548","table","calibrator_ani_no_feedback","Animacy","VC",1738776906197,"inanimate",590,"B","inanimate;animate","","",6.38012253689976,39
"120","6535d3f1b4ff80adff474548","clock","calibrator_ani_no_feedback","Animacy","VC",1738776907597,"inanimate",643,"B","inanimate;animate","","",6.46614472423762,40
"121","6665b26a49d9b1071a67babe","hat","calibrator_val_feedback","Valence","VC",1738770551236,"positive",1311,"positive","negative","positive;negative","A",7.1785454837637,1
"122","6665b26a49d9b1071a67babe","kitten","calibrator_val_feedback","Valence","VC",1738770555017,"positive",998,"positive","negative","positive;negative","A",6.90575327631146,2
"123","6665b26a49d9b1071a67babe","invader","calibrator_val_feedback","Valence","VC",1738770558849,"negative",1057,"positive","negative","positive;negative","A",6.96318998587024,3
"124","6665b26a49d9b1071a67babe","jail","calibrator_val_feedback","Valence","VC",1738770562702,"negative",1073,"positive","negative","positive;negative","A",6.9782137426307,4
"125","6665b26a49d9b1071a67babe","industry","calibrator_val_feedback","Valence","VC",1738770566875,"positive",1400,"positive","negative","positive;negative","A",7.24422751560335,5
"126","6665b26a49d9b1071a67babe","joke","calibrator_val_feedback","Valence","VC",1738770570396,"positive",747,"positive","negative","positive;negative","A",6.61606518513282,6
"127","6665b26a49d9b1071a67babe","free","calibrator_val_feedback","Valence","VC",1738770573968,"positive",796,"positive","negative","positive;negative","A",6.67959918584438,7
"128","6665b26a49d9b1071a67babe","grin","calibrator_val_feedback","Valence","VC",1738770577398,"positive",660,"positive","negative","positive;negative","A",6.49223983502047,8
"129","6665b26a49d9b1071a67babe","icebox","calibrator_val_feedback","Valence","VC",1738770581388,"positive",1218,"positive","negative","positive;negative","A",7.10496544826984,9
"130","6665b26a49d9b1071a67babe","insecure","calibrator_val_feedback","Valence","VC",1738770585105,"negative",947,"positive","negative","positive;negative","A",6.85329909318608,10
"131","6665b26a49d9b1071a67babe","invader","calibrator_val_no_feedback","Valence","VC",1738770588697,"negative",820,"A","positive;negative","","",6.7093043402583,11
"132","6665b26a49d9b1071a67babe","hat","calibrator_val_no_feedback","Valence","VC",1738770590199,"positive",738,"A","positive;negative","","",6.60394382460047,12
"133","6665b26a49d9b1071a67babe","icebox","calibrator_val_no_feedback","Valence","VC",1738770591855,"negative",886,"A","positive;negative","","",6.78671695060508,13
"134","6665b26a49d9b1071a67babe","insecure","calibrator_val_no_feedback","Valence","VC",1738770593852,"negative",1232,"A","positive;negative","","",7.11639414409346,14
"135","6665b26a49d9b1071a67babe","free","calibrator_val_no_feedback","Valence","VC",1738770595370,"positive",751,"A","positive;negative","","",6.62140565176413,15
"136","6665b26a49d9b1071a67babe","kitten","calibrator_val_no_feedback","Valence","VC",1738770596777,"positive",636,"A","positive;negative","","",6.45519856334012,16
"137","6665b26a49d9b1071a67babe","jail","calibrator_val_no_feedback","Valence","VC",1738770598251,"negative",701,"A","positive;negative","","",6.55250788703459,17
"138","6665b26a49d9b1071a67babe","industry","calibrator_val_no_feedback","Valence","VC",1738770599772,"positive",758,"A","positive;negative","","",6.63068338564237,18
"139","6665b26a49d9b1071a67babe","joke","calibrator_val_no_feedback","Valence","VC",1738770601058,"positive",518,"A","positive;negative","","",6.24997524225948,19
"140","6665b26a49d9b1071a67babe","grin","calibrator_val_no_feedback","Valence","VC",1738770602477,"positive",657,"A","positive;negative","","",6.48768401848461,20
"141","6665b26a49d9b1071a67babe","clock","calibrator_ani_feedback","Animacy","VC",1738770819958,"Option_J",3109,"inanimate","animate","Option_F;Option_J","B",8.04205641005875,21
"142","6665b26a49d9b1071a67babe","teenager","calibrator_ani_feedback","Animacy","VC",1738770825083,"Option_J",2358,"inanimate","animate","Option_F;Option_J","B",7.76556908109732,22
"143","6665b26a49d9b1071a67babe","horse","calibrator_ani_feedback","Animacy","VC",1738770830025,"Option_J",2174,"inanimate","animate","Option_F;Option_J","B",7.68432406768116,23
"144","6665b26a49d9b1071a67babe","computer","calibrator_ani_feedback","Animacy","VC",1738770835187,"Option_F",2392,"inanimate","animate","Option_F;Option_J","B",7.77988511507052,24
"145","6665b26a49d9b1071a67babe","bottle","calibrator_ani_feedback","Animacy","VC",1738770840080,"Option_F",2122,"inanimate","animate","Option_F;Option_J","B",7.66011431917393,25
"146","6665b26a49d9b1071a67babe","table","calibrator_ani_feedback","Animacy","VC",1738770843813,"Option_F",968,"inanimate","animate","Option_F;Option_J","B",6.87523208727658,26
"147","6665b26a49d9b1071a67babe","chair","calibrator_ani_feedback","Animacy","VC",1738770847794,"Option_F",1205,"inanimate","animate","Option_F;Option_J","B",7.09423484592476,27
"148","6665b26a49d9b1071a67babe","elephant","calibrator_ani_feedback","Animacy","VC",1738770851507,"Option_J",950,"inanimate","animate","Option_F;Option_J","B",6.85646198459459,28
"149","6665b26a49d9b1071a67babe","human","calibrator_ani_feedback","Animacy","VC",1738770854921,"Option_J",634,"inanimate","animate","Option_F;Option_J","B",6.45204895443723,29
"150","6665b26a49d9b1071a67babe","monkey","calibrator_ani_feedback","Animacy","VC",1738770859239,"Option_J",1552,"inanimate","animate","Option_F;Option_J","B",7.34729970074316,30
"151","6665b26a49d9b1071a67babe","elephant","calibrator_ani_no_feedback","Animacy","VC",1738770862579,"animate",570,"B","inanimate;animate","","",6.3456363608286,31
"152","6665b26a49d9b1071a67babe","teenager","calibrator_ani_no_feedback","Animacy","VC",1738770864555,"animate",1204,"B","inanimate;animate","","",7.09340462586877,32
"153","6665b26a49d9b1071a67babe","horse","calibrator_ani_no_feedback","Animacy","VC",1738770865909,"animate",589,"B","inanimate;animate","","",6.37842618365159,33
"154","6665b26a49d9b1071a67babe","chair","calibrator_ani_no_feedback","Animacy","VC",1738770867290,"inanimate",618,"B","inanimate;animate","","",6.42648845745769,34
"155","6665b26a49d9b1071a67babe","clock","calibrator_ani_no_feedback","Animacy","VC",1738770868789,"inanimate",731,"B","inanimate;animate","","",6.59441345974978,35
"156","6665b26a49d9b1071a67babe","monkey","calibrator_ani_no_feedback","Animacy","VC",1738770870239,"animate",679,"B","inanimate;animate","","",6.5206211275587,36
"157","6665b26a49d9b1071a67babe","table","calibrator_ani_no_feedback","Animacy","VC",1738770871589,"inanimate",578,"B","inanimate;animate","","",6.35957386867238,37
"158","6665b26a49d9b1071a67babe","human","calibrator_ani_no_feedback","Animacy","VC",1738770873082,"animate",726,"B","inanimate;animate","","",6.5875500148248,38
"159","6665b26a49d9b1071a67babe","computer","calibrator_ani_no_feedback","Animacy","VC",1738770874537,"inanimate",694,"B","inanimate;animate","","",6.5424719605068,39
"160","6665b26a49d9b1071a67babe","bottle","calibrator_ani_no_feedback","Animacy","VC",1738770876054,"inanimate",749,"B","inanimate;animate","","",6.61873898351722,40
"161","5632410fca59f6000b795a70","clock","calibrator_ani_feedback","Animacy","CV",1738787625488,"Option_J",1724,"animate","inanimate","Option_F;Option_J","A",7.45240245122364,1
"162","5632410fca59f6000b795a70","teenager","calibrator_ani_feedback","Animacy","CV",1738787629237,"Option_F",985,"animate","inanimate","Option_F;Option_J","A",6.89264164117209,2
"163","5632410fca59f6000b795a70","horse","calibrator_ani_feedback","Animacy","CV",1738787632748,"Option_F",736,"animate","inanimate","Option_F;Option_J","A",6.60123011872888,3
"164","5632410fca59f6000b795a70","bottle","calibrator_ani_feedback","Animacy","CV",1738787636777,"Option_J",912,"animate","inanimate","Option_F;Option_J","A",6.81563999007433,4
"165","5632410fca59f6000b795a70","elephant","calibrator_ani_feedback","Animacy","CV",1738787639997,"Option_F",793,"animate","inanimate","Option_F;Option_J","A",6.67582322163485,5
"166","5632410fca59f6000b795a70","monkey","calibrator_ani_feedback","Animacy","CV",1738787643418,"Option_F",647,"animate","inanimate","Option_F;Option_J","A",6.4723462945009,6
"167","5632410fca59f6000b795a70","table","calibrator_ani_feedback","Animacy","CV",1738787646837,"Option_J",643,"animate","inanimate","Option_F;Option_J","A",6.46614472423762,7
"168","5632410fca59f6000b795a70","computer","calibrator_ani_feedback","Animacy","CV",1738787650307,"Option_J",706,"animate","inanimate","Option_F;Option_J","A",6.55961523749324,8
"169","5632410fca59f6000b795a70","human","calibrator_ani_feedback","Animacy","CV",1738787653918,"Option_F",839,"animate","inanimate","Option_F;Option_J","A",6.73221070646721,9
"170","5632410fca59f6000b795a70","chair","calibrator_ani_feedback","Animacy","CV",1738787657338,"Option_J",652,"animate","inanimate","Option_F;Option_J","A",6.48004456192665,10
"171","5632410fca59f6000b795a70","chair","calibrator_ani_no_feedback","Animacy","CV",1738787660696,"inanimate",581,"A","animate;inanimate","","",6.36475075685191,11
"172","5632410fca59f6000b795a70","clock","calibrator_ani_no_feedback","Animacy","CV",1738787662347,"inanimate",881,"A","animate;inanimate","","",6.78105762593618,12
"173","5632410fca59f6000b795a70","bottle","calibrator_ani_no_feedback","Animacy","CV",1738787663777,"inanimate",674,"A","animate;inanimate","","",6.51323011091231,13
"174","5632410fca59f6000b795a70","elephant","calibrator_ani_no_feedback","Animacy","CV",1738787665146,"animate",594,"A","animate;inanimate","","",6.38687931936265,14
"175","5632410fca59f6000b795a70","horse","calibrator_ani_no_feedback","Animacy","CV",1738787666436,"animate",517,"A","animate;inanimate","","",6.24804287450843,15
"176","5632410fca59f6000b795a70","teenager","calibrator_ani_no_feedback","Animacy","CV",1738787667807,"animate",603,"A","animate;inanimate","","",6.40191719672719,16
"177","5632410fca59f6000b795a70","human","calibrator_ani_no_feedback","Animacy","CV",1738787669066,"animate",497,"A","animate;inanimate","","",6.20859002609663,17
"178","5632410fca59f6000b795a70","monkey","calibrator_ani_no_feedback","Animacy","CV",1738787670326,"animate",487,"A","animate;inanimate","","",6.18826412308259,18
"179","5632410fca59f6000b795a70","computer","calibrator_ani_no_feedback","Animacy","CV",1738787671616,"inanimate",523,"A","animate;inanimate","","",6.25958146406492,19
"180","5632410fca59f6000b795a70","table","calibrator_ani_no_feedback","Animacy","CV",1738787673046,"inanimate",665,"A","animate;inanimate","","",6.49978704065585,20
"181","5632410fca59f6000b795a70","insecure","calibrator_val_feedback","Valence","CV",1738788007205,"negative",818,"positive","negative","positive;negative","A",6.70686233660275,21
"182","5632410fca59f6000b795a70","grin","calibrator_val_feedback","Valence","CV",1738788010746,"positive",763,"positive","negative","positive;negative","A",6.63725803128446,22
"183","5632410fca59f6000b795a70","hat","calibrator_val_feedback","Valence","CV",1738788014985,"positive",1474,"positive","negative","positive;negative","A",7.29573507274928,23
"184","5632410fca59f6000b795a70","free","calibrator_val_feedback","Valence","CV",1738788018555,"positive",798,"positive","negative","positive;negative","A",6.68210859744981,24
"185","5632410fca59f6000b795a70","industry","calibrator_val_feedback","Valence","CV",1738788022596,"negative",1261,"positive","negative","positive;negative","A",7.13966033596492,25
"186","5632410fca59f6000b795a70","joke","calibrator_val_feedback","Valence","CV",1738788026174,"positive",804,"positive","negative","positive;negative","A",6.68959926917897,26
"187","5632410fca59f6000b795a70","icebox","calibrator_val_feedback","Valence","CV",1738788030404,"positive",1459,"positive","negative","positive;negative","A",7.28550654852279,27
"188","5632410fca59f6000b795a70","invader","calibrator_val_feedback","Valence","CV",1738788034205,"negative",1034,"positive","negative","positive;negative","A",6.94119005506837,28
"189","5632410fca59f6000b795a70","kitten","calibrator_val_feedback","Valence","CV",1738788037665,"positive",695,"positive","negative","positive;negative","A",6.54391184556479,29
"190","5632410fca59f6000b795a70","jail","calibrator_val_feedback","Valence","CV",1738788041184,"negative",746,"positive","negative","positive;negative","A",6.61472560020376,30
"191","5632410fca59f6000b795a70","joke","calibrator_val_no_feedback","Valence","CV",1738788044744,"positive",792,"A","positive;negative","","",6.67456139181443,31
"192","5632410fca59f6000b795a70","industry","calibrator_val_no_feedback","Valence","CV",1738788046824,"negative",1314,"A","positive;negative","","",7.18083119904456,32
"193","5632410fca59f6000b795a70","icebox","calibrator_val_no_feedback","Valence","CV",1738788048635,"positive",1041,"A","positive;negative","","",6.94793706861497,33
"194","5632410fca59f6000b795a70","jail","calibrator_val_no_feedback","Valence","CV",1738788050124,"negative",721,"A","positive;negative","","",6.58063913728495,34
"195","5632410fca59f6000b795a70","insecure","calibrator_val_no_feedback","Valence","CV",1738788051785,"negative",888,"A","positive;negative","","",6.78897174299217,35
"196","5632410fca59f6000b795a70","hat","calibrator_val_no_feedback","Valence","CV",1738788053214,"positive",665,"A","positive;negative","","",6.49978704065585,36
"197","5632410fca59f6000b795a70","grin","calibrator_val_no_feedback","Valence","CV",1738788054623,"positive",646,"A","positive;negative","","",6.4707995037826,37
"198","5632410fca59f6000b795a70","free","calibrator_val_no_feedback","Valence","CV",1738788056003,"positive",609,"A","positive;negative","","",6.4118182677099,38
"199","5632410fca59f6000b795a70","kitten","calibrator_val_no_feedback","Valence","CV",1738788057413,"positive",634,"A","positive;negative","","",6.45204895443723,39
"200","5632410fca59f6000b795a70","invader","calibrator_val_no_feedback","Valence","CV",1738788058843,"negative",665,"A","positive;negative","","",6.49978704065585,40
"201","64000dda0fce93bc6b161ad5","kitten","calibrator_val_feedback","Valence","VC",1738770372464,"positive",1327,"positive","negative","positive;negative","A",7.19067603433221,1
"202","64000dda0fce93bc6b161ad5","insecure","calibrator_val_feedback","Valence","VC",1738770376983,"negative",1754,"positive","negative","positive;negative","A",7.46965417293213,2
"203","64000dda0fce93bc6b161ad5","jail","calibrator_val_feedback","Valence","VC",1738770381167,"negative",1264,"positive","negative","positive;negative","A",7.1420365747068,3
"204","64000dda0fce93bc6b161ad5","invader","calibrator_val_feedback","Valence","VC",1738770384907,"negative",1097,"positive","negative","positive;negative","A",7.00033446027523,4
"205","64000dda0fce93bc6b161ad5","hat","calibrator_val_feedback","Valence","VC",1738770388653,"positive",1021,"positive","negative","positive;negative","A",6.92853781816467,5
"206","64000dda0fce93bc6b161ad5","industry","calibrator_val_feedback","Valence","VC",1738770392933,"positive",1518,"positive","negative","positive;negative","A",7.32514895795557,6
"207","64000dda0fce93bc6b161ad5","joke","calibrator_val_feedback","Valence","VC",1738770396903,"positive",1209,"positive","negative","positive;negative","A",7.09754885061479,7
"208","64000dda0fce93bc6b161ad5","grin","calibrator_val_feedback","Valence","VC",1738770400608,"positive",947,"positive","negative","positive;negative","A",6.85329909318608,8
"209","64000dda0fce93bc6b161ad5","icebox","calibrator_val_feedback","Valence","VC",1738770404269,"positive",902,"positive","negative","positive;negative","A",6.80461452006262,9
"210","64000dda0fce93bc6b161ad5","free","calibrator_val_feedback","Valence","VC",1738770407871,"positive",843,"positive","negative","positive;negative","A",6.73696695800186,10
"211","64000dda0fce93bc6b161ad5","free","calibrator_val_no_feedback","Valence","VC",1738770412229,"positive",1596,"A","positive;negative","","",7.37525577800975,11
"212","64000dda0fce93bc6b161ad5","jail","calibrator_val_no_feedback","Valence","VC",1738770413701,"negative",715,"A","positive;negative","","",6.57228254269401,12
"213","64000dda0fce93bc6b161ad5","grin","calibrator_val_no_feedback","Valence","VC",1738770415272,"positive",814,"A","positive;negative","","",6.70196036600254,13
"214","64000dda0fce93bc6b161ad5","insecure","calibrator_val_no_feedback","Valence","VC",1738770416773,"negative",741,"A","positive;negative","","",6.60800062529609,14
"215","64000dda0fce93bc6b161ad5","industry","calibrator_val_no_feedback","Valence","VC",1738770418229,"positive",696,"A","positive;negative","","",6.54534966033442,15
"216","64000dda0fce93bc6b161ad5","kitten","calibrator_val_no_feedback","Valence","VC",1738770419505,"positive",519,"A","positive;negative","","",6.25190388316589,16
"217","64000dda0fce93bc6b161ad5","icebox","calibrator_val_no_feedback","Valence","VC",1738770421001,"positive",741,"A","positive;negative","","",6.60800062529609,17
"218","64000dda0fce93bc6b161ad5","hat","calibrator_val_no_feedback","Valence","VC",1738770422453,"positive",694,"A","positive;negative","","",6.5424719605068,18
"219","64000dda0fce93bc6b161ad5","invader","calibrator_val_no_feedback","Valence","VC",1738770423741,"negative",527,"A","positive;negative","","",6.26720054854136,19
"220","64000dda0fce93bc6b161ad5","joke","calibrator_val_no_feedback","Valence","VC",1738770425122,"negative",620,"A","positive;negative","","",6.42971947803914,20
"221","64000dda0fce93bc6b161ad5","monkey","calibrator_ani_feedback","Animacy","VC",1738770689311,"Option_F",956,"inanimate","animate","Option_F;Option_J","B",6.8627579130514,21
"222","64000dda0fce93bc6b161ad5","chair","calibrator_ani_feedback","Animacy","VC",1738770693216,"Option_F",1272,"inanimate","animate","Option_F;Option_J","B",7.14834574390007,22
"223","64000dda0fce93bc6b161ad5","table","calibrator_ani_feedback","Animacy","VC",1738770697395,"Option_F",1420,"inanimate","animate","Option_F;Option_J","B",7.25841215059531,23
"224","64000dda0fce93bc6b161ad5","horse","calibrator_ani_feedback","Animacy","VC",1738770700911,"Option_J",757,"inanimate","animate","Option_F;Option_J","B",6.62936325343745,24
"225","64000dda0fce93bc6b161ad5","human","calibrator_ani_feedback","Animacy","VC",1738770705270,"Option_J",1601,"inanimate","animate","Option_F;Option_J","B",7.37838371299671,25
"226","64000dda0fce93bc6b161ad5","bottle","calibrator_ani_feedback","Animacy","VC",1738770708776,"Option_F",716,"inanimate","animate","Option_F;Option_J","B",6.57368016696065,26
"227","64000dda0fce93bc6b161ad5","teenager","calibrator_ani_feedback","Animacy","VC",1738770712577,"Option_J",1071,"inanimate","animate","Option_F;Option_J","B",6.97634807044775,27
"228","64000dda0fce93bc6b161ad5","clock","calibrator_ani_feedback","Animacy","VC",1738770716102,"Option_F",763,"inanimate","animate","Option_F;Option_J","B",6.63725803128446,28
"229","64000dda0fce93bc6b161ad5","elephant","calibrator_ani_feedback","Animacy","VC",1738770719534,"Option_J",670,"inanimate","animate","Option_F;Option_J","B",6.50727771238501,29
"230","64000dda0fce93bc6b161ad5","computer","calibrator_ani_feedback","Animacy","VC",1738770723199,"Option_F",901,"inanimate","animate","Option_F;Option_J","B",6.80350525760834,30
"231","64000dda0fce93bc6b161ad5","monkey","calibrator_ani_no_feedback","Animacy","VC",1738770726536,"animate",576,"B","inanimate;animate","","",6.35610766069589,31
"232","64000dda0fce93bc6b161ad5","human","calibrator_ani_no_feedback","Animacy","VC",1738770727973,"animate",679,"B","inanimate;animate","","",6.5206211275587,32
"233","64000dda0fce93bc6b161ad5","chair","calibrator_ani_no_feedback","Animacy","VC",1738770729558,"inanimate",824,"B","inanimate;animate","","",6.71417052990947,33
"234","64000dda0fce93bc6b161ad5","computer","calibrator_ani_no_feedback","Animacy","VC",1738770731004,"inanimate",684,"B","inanimate;animate","","",6.52795791762255,34
"235","64000dda0fce93bc6b161ad5","horse","calibrator_ani_no_feedback","Animacy","VC",1738770732201,"animate",439,"B","inanimate;animate","","",6.08449941307517,35
"236","64000dda0fce93bc6b161ad5","table","calibrator_ani_no_feedback","Animacy","VC",1738770733563,"inanimate",603,"B","inanimate;animate","","",6.40191719672719,36
"237","64000dda0fce93bc6b161ad5","elephant","calibrator_ani_no_feedback","Animacy","VC",1738770734910,"animate",590,"B","inanimate;animate","","",6.38012253689976,37
"238","64000dda0fce93bc6b161ad5","bottle","calibrator_ani_no_feedback","Animacy","VC",1738770736355,"inanimate",686,"B","inanimate;animate","","",6.53087762772588,38
"239","64000dda0fce93bc6b161ad5","clock","calibrator_ani_no_feedback","Animacy","VC",1738770737727,"inanimate",616,"B","inanimate;animate","","",6.42324696353352,39
"240","64000dda0fce93bc6b161ad5","teenager","calibrator_ani_no_feedback","Animacy","VC",1738770739083,"animate",598,"B","inanimate;animate","","",6.39359075395063,40
"241","558ab509fdf99b65685f024e","joke","calibrator_val_feedback","Valence","VC",1738762976787,"positive",1729,"positive","negative","positive;negative","A",7.45529848568329,1
"242","558ab509fdf99b65685f024e","kitten","calibrator_val_feedback","Valence","VC",1738762980372,"positive",825,"positive","negative","positive;negative","A",6.71538338633468,2
"243","558ab509fdf99b65685f024e","grin","calibrator_val_feedback","Valence","VC",1738762984092,"positive",958,"positive","negative","positive;negative","A",6.86484777797086,3
"244","558ab509fdf99b65685f024e","free","calibrator_val_feedback","Valence","VC",1738762987805,"positive",952,"positive","negative","positive;negative","A",6.85856503479136,4
"245","558ab509fdf99b65685f024e","invader","calibrator_val_feedback","Valence","VC",1738762991613,"negative",1043,"positive","negative","positive;negative","A",6.94985645500077,5
"246","558ab509fdf99b65685f024e","insecure","calibrator_val_feedback","Valence","VC",1738762995044,"negative",672,"positive","negative","positive;negative","A",6.51025834052315,6
"247","558ab509fdf99b65685f024e","industry","calibrator_val_feedback","Valence","VC",1738762998636,"positive",830,"positive","negative","positive;negative","A",6.72142570079064,7
"248","558ab509fdf99b65685f024e","hat","calibrator_val_feedback","Valence","VC",1738763002661,"positive",1264,"positive","negative","positive;negative","A",7.1420365747068,8
"249","558ab509fdf99b65685f024e","jail","calibrator_val_feedback","Valence","VC",1738763006188,"negative",764,"positive","negative","positive;negative","A",6.63856778916652,9
"250","558ab509fdf99b65685f024e","icebox","calibrator_val_feedback","Valence","VC",1738763009838,"positive",889,"positive","negative","positive;negative","A",6.7900972355139,10
"251","558ab509fdf99b65685f024e","grin","calibrator_val_no_feedback","Valence","VC",1738763013548,"positive",949,"A","positive;negative","","",6.85540879860993,11
"252","558ab509fdf99b65685f024e","kitten","calibrator_val_no_feedback","Valence","VC",1738763015172,"positive",867,"A","positive;negative","","",6.76503897678054,12
"253","558ab509fdf99b65685f024e","free","calibrator_val_no_feedback","Valence","VC",1738763016827,"positive",898,"A","positive;negative","","",6.8001700683022,13
"254","558ab509fdf99b65685f024e","invader","calibrator_val_no_feedback","Valence","VC",1738763018589,"negative",1003,"A","positive;negative","","",6.91075078796194,14
"255","558ab509fdf99b65685f024e","icebox","calibrator_val_no_feedback","Valence","VC",1738763020172,"positive",824,"A","positive;negative","","",6.71417052990947,15
"256","558ab509fdf99b65685f024e","insecure","calibrator_val_no_feedback","Valence","VC",1738763021700,"negative",768,"A","positive;negative","","",6.64378973314767,16
"257","558ab509fdf99b65685f024e","joke","calibrator_val_no_feedback","Valence","VC",1738763023381,"positive",922,"A","positive;negative","","",6.82654522355659,17
"258","558ab509fdf99b65685f024e","jail","calibrator_val_no_feedback","Valence","VC",1738763024827,"negative",684,"A","positive;negative","","",6.52795791762255,18
"259","558ab509fdf99b65685f024e","hat","calibrator_val_no_feedback","Valence","VC",1738763026508,"positive",923,"A","positive;negative","","",6.82762923450285,19
"260","558ab509fdf99b65685f024e","industry","calibrator_val_no_feedback","Valence","VC",1738763029684,"negative",2418,"A","positive;negative","","",7.79069603117474,20
"261","558ab509fdf99b65685f024e","horse","calibrator_ani_feedback","Animacy","VC",1738763256209,"Option_F",835,"animate","inanimate","Option_F;Option_J","A",6.72743172485086,21
"262","558ab509fdf99b65685f024e","teenager","calibrator_ani_feedback","Animacy","VC",1738763259644,"Option_F",675,"animate","inanimate","Option_F;Option_J","A",6.51471269087253,22
"263","558ab509fdf99b65685f024e","elephant","calibrator_ani_feedback","Animacy","VC",1738763263001,"Option_F",594,"animate","inanimate","Option_F;Option_J","A",6.38687931936265,23
"264","558ab509fdf99b65685f024e","table","calibrator_ani_feedback","Animacy","VC",1738763266434,"Option_J",672,"animate","inanimate","Option_F;Option_J","A",6.51025834052315,24
"265","558ab509fdf99b65685f024e","chair","calibrator_ani_feedback","Animacy","VC",1738763270106,"Option_J",905,"animate","inanimate","Option_F;Option_J","A",6.80793494369993,25
"266","558ab509fdf99b65685f024e","computer","calibrator_ani_feedback","Animacy","VC",1738763273737,"Option_J",872,"animate","inanimate","Option_F;Option_J","A",6.77078942390898,26
"267","558ab509fdf99b65685f024e","human","calibrator_ani_feedback","Animacy","VC",1738763277193,"Option_F",694,"animate","inanimate","Option_F;Option_J","A",6.5424719605068,27
"268","558ab509fdf99b65685f024e","clock","calibrator_ani_feedback","Animacy","VC",1738763280752,"Option_J",793,"animate","inanimate","Option_F;Option_J","A",6.67582322163485,28
"269","558ab509fdf99b65685f024e","monkey","calibrator_ani_feedback","Animacy","VC",1738763284225,"Option_F",711,"animate","inanimate","Option_F;Option_J","A",6.56667242980324,29
"270","558ab509fdf99b65685f024e","bottle","calibrator_ani_feedback","Animacy","VC",1738763287753,"Option_J",771,"animate","inanimate","Option_F;Option_J","A",6.64768837356333,30
"271","558ab509fdf99b65685f024e","teenager","calibrator_ani_no_feedback","Animacy","VC",1738763291345,"animate",834,"A","animate;inanimate","","",6.72623340235875,31
"272","558ab509fdf99b65685f024e","bottle","calibrator_ani_no_feedback","Animacy","VC",1738763292744,"inanimate",642,"A","animate;inanimate","","",6.46458830368996,32
"273","558ab509fdf99b65685f024e","table","calibrator_ani_no_feedback","Animacy","VC",1738763294289,"inanimate",787,"A","animate;inanimate","","",6.6682282484174,33
"274","558ab509fdf99b65685f024e","monkey","calibrator_ani_no_feedback","Animacy","VC",1738763295681,"animate",635,"A","animate;inanimate","","",6.45362499889269,34
"275","558ab509fdf99b65685f024e","clock","calibrator_ani_no_feedback","Animacy","VC",1738763297017,"inanimate",584,"A","animate;inanimate","","",6.36990098282823,35
"276","558ab509fdf99b65685f024e","computer","calibrator_ani_no_feedback","Animacy","VC",1738763298435,"inanimate",664,"A","animate;inanimate","","",6.49828214947643,36
"277","558ab509fdf99b65685f024e","human","calibrator_ani_no_feedback","Animacy","VC",1738763299841,"animate",648,"A","animate;inanimate","","",6.47389069635227,37
"278","558ab509fdf99b65685f024e","chair","calibrator_ani_no_feedback","Animacy","VC",1738763301233,"inanimate",638,"A","animate;inanimate","","",6.45833828334479,38
"279","558ab509fdf99b65685f024e","horse","calibrator_ani_no_feedback","Animacy","VC",1738763302665,"animate",673,"A","animate;inanimate","","",6.51174532964473,39
"280","558ab509fdf99b65685f024e","elephant","calibrator_ani_no_feedback","Animacy","VC",1738763304113,"animate",693,"A","animate;inanimate","","",6.5410299991899,40
"281","5bb0c112a1c73d0001b9ce9e","hat","calibrator_val_feedback","Valence","VC",1738763193398,"positive",785,"positive","negative","positive;negative","A",6.66568371778241,1
"282","5bb0c112a1c73d0001b9ce9e","kitten","calibrator_val_feedback","Valence","VC",1738763196920,"positive",763,"positive","negative","positive;negative","A",6.63725803128446,2
"283","5bb0c112a1c73d0001b9ce9e","free","calibrator_val_feedback","Valence","VC",1738763201080,"positive",739,"positive","negative","positive;negative","A",6.6052979209482,3
"284","5bb0c112a1c73d0001b9ce9e","insecure","calibrator_val_feedback","Valence","VC",1738763204305,"negative",645,"positive","negative","positive;negative","A",6.46925031679577,4
"285","5bb0c112a1c73d0001b9ce9e","invader","calibrator_val_feedback","Valence","VC",1738763207941,"negative",825,"positive","negative","positive;negative","A",6.71538338633468,5
"286","5bb0c112a1c73d0001b9ce9e","jail","calibrator_val_feedback","Valence","VC",1738763211334,"negative",868,"positive","negative","positive;negative","A",6.76619171466035,6
"287","5bb0c112a1c73d0001b9ce9e","industry","calibrator_val_feedback","Valence","VC",1738763216287,"negative",2507,"positive","negative","positive;negative","A",7.82684209815829,7
"288","5bb0c112a1c73d0001b9ce9e","joke","calibrator_val_feedback","Valence","VC",1738763219780,"positive",740,"positive","negative","positive;negative","A",6.60665018619822,8
"289","5bb0c112a1c73d0001b9ce9e","icebox","calibrator_val_feedback","Valence","VC",1738763223047,"negative",509,"positive","negative","positive;negative","A",6.23244801655052,9
"290","5bb0c112a1c73d0001b9ce9e","grin","calibrator_val_feedback","Valence","VC",1738763226408,"positive",607,"positive","negative","positive;negative","A",6.4085287910595,10
"291","5bb0c112a1c73d0001b9ce9e","industry","calibrator_val_no_feedback","Valence","VC",1738763230130,"positive",960,"A","positive;negative","","",6.86693328446188,11
"292","5bb0c112a1c73d0001b9ce9e","grin","calibrator_val_no_feedback","Valence","VC",1738763231421,"positive",538,"A","positive;negative","","",6.28785856016178,12
"293","5bb0c112a1c73d0001b9ce9e","jail","calibrator_val_no_feedback","Valence","VC",1738763232696,"negative",522,"A","positive;negative","","",6.25766758788264,13
"294","5bb0c112a1c73d0001b9ce9e","free","calibrator_val_no_feedback","Valence","VC",1738763234021,"positive",573,"A","positive;negative","","",6.35088571671474,14
"295","5bb0c112a1c73d0001b9ce9e","invader","calibrator_val_no_feedback","Valence","VC",1738763235366,"negative",592,"A","positive;negative","","",6.38350663488401,15
"296","5bb0c112a1c73d0001b9ce9e","insecure","calibrator_val_no_feedback","Valence","VC",1738763236706,"negative",586,"A","positive;negative","","",6.37331978957701,16
"297","5bb0c112a1c73d0001b9ce9e","icebox","calibrator_val_no_feedback","Valence","VC",1738763238589,"positive",1125,"A","positive;negative","","",7.02553831463852,17
"298","5bb0c112a1c73d0001b9ce9e","kitten","calibrator_val_no_feedback","Valence","VC",1738763239816,"positive",469,"A","positive;negative","","",6.15060276844628,18
"299","5bb0c112a1c73d0001b9ce9e","hat","calibrator_val_no_feedback","Valence","VC",1738763241069,"positive",497,"A","positive;negative","","",6.20859002609663,19
"300","5bb0c112a1c73d0001b9ce9e","joke","calibrator_val_no_feedback","Valence","VC",1738763242290,"negative",464,"A","positive;negative","","",6.13988455222626,20
"301","5bb0c112a1c73d0001b9ce9e","computer","calibrator_ani_feedback","Animacy","VC",1738763441809,"Option_J",859,"animate","inanimate","Option_F;Option_J","A",6.75576892198425,21
"302","5bb0c112a1c73d0001b9ce9e","human","calibrator_ani_feedback","Animacy","VC",1738763445019,"Option_F",453,"animate","inanimate","Option_F;Option_J","A",6.11589212548303,22
"303","5bb0c112a1c73d0001b9ce9e","teenager","calibrator_ani_feedback","Animacy","VC",1738763448365,"Option_F",586,"animate","inanimate","Option_F;Option_J","A",6.37331978957701,23
"304","5bb0c112a1c73d0001b9ce9e","clock","calibrator_ani_feedback","Animacy","VC",1738763451577,"Option_J",454,"animate","inanimate","Option_F;Option_J","A",6.11809719804135,24
"305","5bb0c112a1c73d0001b9ce9e","horse","calibrator_ani_feedback","Animacy","VC",1738763454835,"Option_F",502,"animate","inanimate","Option_F;Option_J","A",6.21860011969173,25
"306","5bb0c112a1c73d0001b9ce9e","elephant","calibrator_ani_feedback","Animacy","VC",1738763458182,"Option_F",592,"animate","inanimate","Option_F;Option_J","A",6.38350663488401,26
"307","5bb0c112a1c73d0001b9ce9e","table","calibrator_ani_feedback","Animacy","VC",1738763461405,"Option_J",464,"animate","inanimate","Option_F;Option_J","A",6.13988455222626,27
"308","5bb0c112a1c73d0001b9ce9e","monkey","calibrator_ani_feedback","Animacy","VC",1738763464623,"Option_F",460,"animate","inanimate","Option_F;Option_J","A",6.13122648948314,28
"309","5bb0c112a1c73d0001b9ce9e","chair","calibrator_ani_feedback","Animacy","VC",1738763467880,"Option_J",498,"animate","inanimate","Option_F;Option_J","A",6.21060007702465,29
"310","5bb0c112a1c73d0001b9ce9e","bottle","calibrator_ani_feedback","Animacy","VC",1738763471112,"Option_J",475,"animate","inanimate","Option_F;Option_J","A",6.16331480403464,30
"311","5bb0c112a1c73d0001b9ce9e","clock","calibrator_ani_no_feedback","Animacy","VC",1738763474389,"inanimate",523,"A","animate;inanimate","","",6.25958146406492,31
"312","5bb0c112a1c73d0001b9ce9e","human","calibrator_ani_no_feedback","Animacy","VC",1738763475584,"animate",437,"A","animate;inanimate","","",6.07993319509559,32
"313","5bb0c112a1c73d0001b9ce9e","elephant","calibrator_ani_no_feedback","Animacy","VC",1738763476827,"animate",488,"A","animate;inanimate","","",6.19031540585315,33
"314","5bb0c112a1c73d0001b9ce9e","bottle","calibrator_ani_no_feedback","Animacy","VC",1738763478044,"inanimate",460,"A","animate;inanimate","","",6.13122648948314,34
"315","5bb0c112a1c73d0001b9ce9e","monkey","calibrator_ani_no_feedback","Animacy","VC",1738763479246,"animate",446,"A","animate;inanimate","","",6.10031895202006,35
"316","5bb0c112a1c73d0001b9ce9e","teenager","calibrator_ani_no_feedback","Animacy","VC",1738763480491,"animate",490,"A","animate;inanimate","","",6.19440539110467,36
"317","5bb0c112a1c73d0001b9ce9e","horse","calibrator_ani_no_feedback","Animacy","VC",1738763481627,"inanimate",384,"A","animate;inanimate","","",5.95064255258773,37
"318","5bb0c112a1c73d0001b9ce9e","table","calibrator_ani_no_feedback","Animacy","VC",1738763482831,"inanimate",450,"A","animate;inanimate","","",6.10924758276437,38
"319","5bb0c112a1c73d0001b9ce9e","computer","calibrator_ani_no_feedback","Animacy","VC",1738763484098,"inanimate",514,"A","animate;inanimate","","",6.24222326545517,39
"320","5bb0c112a1c73d0001b9ce9e","chair","calibrator_ani_no_feedback","Animacy","VC",1738763485293,"inanimate",439,"A","animate;inanimate","","",6.08449941307517,40
"321","647652cb5644044df439e1fb","bottle","calibrator_ani_feedback","Animacy","CV",1738783928053,"Option_J",2066,"animate","inanimate","Option_F;Option_J","A",7.63336964967958,1
"322","647652cb5644044df439e1fb","human","calibrator_ani_feedback","Animacy","CV",1738783932112,"Option_J",1292,"animate","inanimate","Option_F;Option_J","A",7.16394668434255,2
"323","647652cb5644044df439e1fb","clock","calibrator_ani_feedback","Animacy","CV",1738783935774,"Option_J",903,"animate","inanimate","Option_F;Option_J","A",6.80572255341699,3
"324","647652cb5644044df439e1fb","horse","calibrator_ani_feedback","Animacy","CV",1738783939038,"Option_F",502,"animate","inanimate","Option_F;Option_J","A",6.21860011969173,4
"325","647652cb5644044df439e1fb","monkey","calibrator_ani_feedback","Animacy","CV",1738783942319,"Option_F",516,"animate","inanimate","Option_F;Option_J","A",6.24610676548156,5
"326","647652cb5644044df439e1fb","elephant","calibrator_ani_feedback","Animacy","CV",1738783945646,"Option_F",568,"animate","inanimate","Option_F;Option_J","A",6.34212141872115,6
"327","647652cb5644044df439e1fb","table","calibrator_ani_feedback","Animacy","CV",1738783949480,"Option_J",1071,"animate","inanimate","Option_F;Option_J","A",6.97634807044775,7
"328","647652cb5644044df439e1fb","computer","calibrator_ani_feedback","Animacy","CV",1738783952760,"Option_J",522,"animate","inanimate","Option_F;Option_J","A",6.25766758788264,8
"329","647652cb5644044df439e1fb","teenager","calibrator_ani_feedback","Animacy","CV",1738783956184,"Option_F",666,"animate","inanimate","Option_F;Option_J","A",6.50128967054039,9
"330","647652cb5644044df439e1fb","chair","calibrator_ani_feedback","Animacy","CV",1738783959719,"Option_J",774,"animate","inanimate","Option_F;Option_J","A",6.65157187358973,10
"331","647652cb5644044df439e1fb","chair","calibrator_ani_no_feedback","Animacy","CV",1738783963009,"inanimate",534,"A","animate;inanimate","","",6.2803958389602,11
"332","647652cb5644044df439e1fb","computer","calibrator_ani_no_feedback","Animacy","CV",1738783964477,"inanimate",714,"A","animate;inanimate","","",6.57088296233958,12
"333","647652cb5644044df439e1fb","elephant","calibrator_ani_no_feedback","Animacy","CV",1738783965763,"animate",530,"A","animate;inanimate","","",6.27287700654617,13
"334","647652cb5644044df439e1fb","monkey","calibrator_ani_no_feedback","Animacy","CV",1738783966973,"animate",450,"A","animate;inanimate","","",6.10924758276437,14
"335","647652cb5644044df439e1fb","horse","calibrator_ani_no_feedback","Animacy","CV",1738783968242,"animate",512,"A","animate;inanimate","","",6.23832462503951,15
"336","647652cb5644044df439e1fb","bottle","calibrator_ani_no_feedback","Animacy","CV",1738783969605,"inanimate",602,"A","animate;inanimate","","",6.40025744530882,16
"337","647652cb5644044df439e1fb","human","calibrator_ani_no_feedback","Animacy","CV",1738783970918,"animate",554,"A","animate;inanimate","","",6.31716468674728,17
"338","647652cb5644044df439e1fb","table","calibrator_ani_no_feedback","Animacy","CV",1738783972293,"inanimate",620,"A","animate;inanimate","","",6.42971947803914,18
"339","647652cb5644044df439e1fb","teenager","calibrator_ani_no_feedback","Animacy","CV",1738783973759,"animate",708,"A","animate;inanimate","","",6.56244409369372,19
"340","647652cb5644044df439e1fb","clock","calibrator_ani_no_feedback","Animacy","CV",1738783975193,"inanimate",677,"A","animate;inanimate","","",6.51767127291227,20
"341","647652cb5644044df439e1fb","joke","calibrator_val_feedback","Valence","CV",1738784221716,"positive",1124,"positive","negative","positive;negative","A",7.02464903045364,21
"342","647652cb5644044df439e1fb","jail","calibrator_val_feedback","Valence","CV",1738784225145,"negative",672,"positive","negative","positive;negative","A",6.51025834052315,22
"343","647652cb5644044df439e1fb","kitten","calibrator_val_feedback","Valence","CV",1738784228457,"positive",554,"positive","negative","positive;negative","A",6.31716468674728,23
"344","647652cb5644044df439e1fb","invader","calibrator_val_feedback","Valence","CV",1738784231842,"negative",625,"positive","negative","positive;negative","A",6.4377516497364,24
"345","647652cb5644044df439e1fb","hat","calibrator_val_feedback","Valence","CV",1738784235484,"positive",880,"positive","negative","positive;negative","A",6.77992190747225,25
"346","647652cb5644044df439e1fb","insecure","calibrator_val_feedback","Valence","CV",1738784239039,"negative",792,"positive","negative","positive;negative","A",6.67456139181443,26
"347","647652cb5644044df439e1fb","icebox","calibrator_val_feedback","Valence","CV",1738784242918,"positive",1117,"positive","negative","positive;negative","A",7.0184017990692,27
"348","647652cb5644044df439e1fb","free","calibrator_val_feedback","Valence","CV",1738784246632,"positive",953,"positive","negative","positive;negative","A",6.8596149036542,28
"349","647652cb5644044df439e1fb","industry","calibrator_val_feedback","Valence","CV",1738784250489,"positive",1099,"positive","negative","positive;negative","A",7.00215595440362,29
"350","647652cb5644044df439e1fb","grin","calibrator_val_feedback","Valence","CV",1738784254325,"positive",1076,"positive","negative","positive;negative","A",6.98100574072173,30
"351","647652cb5644044df439e1fb","icebox","calibrator_val_no_feedback","Valence","CV",1738784258172,"positive",1087,"A","positive;negative","","",6.99117688712121,31
"352","647652cb5644044df439e1fb","invader","calibrator_val_no_feedback","Valence","CV",1738784259799,"negative",872,"A","positive;negative","","",6.77078942390898,32
"353","647652cb5644044df439e1fb","industry","calibrator_val_no_feedback","Valence","CV",1738784261382,"positive",829,"A","positive;negative","","",6.7202201551353,33
"354","647652cb5644044df439e1fb","insecure","calibrator_val_no_feedback","Valence","CV",1738784262818,"negative",680,"A","positive;negative","","",6.52209279817015,34
"355","647652cb5644044df439e1fb","grin","calibrator_val_no_feedback","Valence","CV",1738784264270,"positive",694,"A","positive;negative","","",6.5424719605068,35
"356","647652cb5644044df439e1fb","jail","calibrator_val_no_feedback","Valence","CV",1738784265710,"negative",685,"A","positive;negative","","",6.52941883826223,36
"357","647652cb5644044df439e1fb","hat","calibrator_val_no_feedback","Valence","CV",1738784267133,"positive",665,"A","positive;negative","","",6.49978704065585,37
"358","647652cb5644044df439e1fb","free","calibrator_val_no_feedback","Valence","CV",1738784268683,"positive",794,"A","positive;negative","","",6.67708346124714,38
"359","647652cb5644044df439e1fb","kitten","calibrator_val_no_feedback","Valence","CV",1738784270030,"positive",590,"A","positive;negative","","",6.38012253689976,39
"360","647652cb5644044df439e1fb","joke","calibrator_val_no_feedback","Valence","CV",1738784271452,"positive",667,"A","positive;negative","","",6.50279004591562,40
"361","57656f6c2bfddf000125cce5","clock","calibrator_ani_feedback","Animacy","CV",1738776570166,"Option_F",1571,"inanimate","animate","Option_F;Option_J","B",7.35946763825562,1
"362","57656f6c2bfddf000125cce5","elephant","calibrator_ani_feedback","Animacy","CV",1738776574077,"Option_J",1147,"inanimate","animate","Option_F;Option_J","B",7.04490511712937,2
"363","57656f6c2bfddf000125cce5","teenager","calibrator_ani_feedback","Animacy","CV",1738776578053,"Option_J",1212,"inanimate","animate","Option_F;Option_J","B",7.10002716662926,3
"364","57656f6c2bfddf000125cce5","bottle","calibrator_ani_feedback","Animacy","CV",1738776581701,"Option_F",879,"inanimate","animate","Option_F;Option_J","B",6.77878489768518,4
"365","57656f6c2bfddf000125cce5","human","calibrator_ani_feedback","Animacy","CV",1738776585308,"Option_J",843,"inanimate","animate","Option_F;Option_J","B",6.73696695800186,5
"366","57656f6c2bfddf000125cce5","monkey","calibrator_ani_feedback","Animacy","CV",1738776589285,"Option_J",1211,"inanimate","animate","Option_F;Option_J","B",7.09920174355309,6
"367","57656f6c2bfddf000125cce5","table","calibrator_ani_feedback","Animacy","CV",1738776593052,"Option_F",1005,"inanimate","animate","Option_F;Option_J","B",6.91274282049318,7
"368","57656f6c2bfddf000125cce5","computer","calibrator_ani_feedback","Animacy","CV",1738776596925,"Option_F",1108,"inanimate","animate","Option_F;Option_J","B",7.01031186730723,8
"369","57656f6c2bfddf000125cce5","horse","calibrator_ani_feedback","Animacy","CV",1738776600565,"Option_J",874,"inanimate","animate","Option_F;Option_J","B",6.77308037565554,9
"370","57656f6c2bfddf000125cce5","chair","calibrator_ani_feedback","Animacy","CV",1738776604324,"Option_F",991,"inanimate","animate","Option_F;Option_J","B",6.89871453432999,10
"371","57656f6c2bfddf000125cce5","computer","calibrator_ani_no_feedback","Animacy","CV",1738776607892,"inanimate",806,"B","inanimate;animate","","",6.69208374250663,11
"372","57656f6c2bfddf000125cce5","monkey","calibrator_ani_no_feedback","Animacy","CV",1738776609636,"animate",983,"B","inanimate;animate","","",6.89060912014717,12
"373","57656f6c2bfddf000125cce5","table","calibrator_ani_no_feedback","Animacy","CV",1738776611285,"inanimate",886,"B","inanimate;animate","","",6.78671695060508,13
"374","57656f6c2bfddf000125cce5","teenager","calibrator_ani_no_feedback","Animacy","CV",1738776612828,"animate",788,"B","inanimate;animate","","",6.66949808985788,14
"375","57656f6c2bfddf000125cce5","elephant","calibrator_ani_no_feedback","Animacy","CV",1738776614229,"animate",639,"B","inanimate;animate","","",6.45990445437753,15
"376","57656f6c2bfddf000125cce5","clock","calibrator_ani_no_feedback","Animacy","CV",1738776615588,"inanimate",600,"B","inanimate;animate","","",6.39692965521615,16
"377","57656f6c2bfddf000125cce5","human","calibrator_ani_no_feedback","Animacy","CV",1738776616989,"animate",639,"B","inanimate;animate","","",6.45990445437753,17
"378","57656f6c2bfddf000125cce5","chair","calibrator_ani_no_feedback","Animacy","CV",1738776618340,"inanimate",591,"B","inanimate;animate","","",6.3818160174061,18
"379","57656f6c2bfddf000125cce5","horse","calibrator_ani_no_feedback","Animacy","CV",1738776619836,"animate",735,"B","inanimate;animate","","",6.59987049921284,19
"380","57656f6c2bfddf000125cce5","bottle","calibrator_ani_no_feedback","Animacy","CV",1738776621212,"inanimate",619,"B","inanimate;animate","","",6.4281052726846,20
"381","57656f6c2bfddf000125cce5","joke","calibrator_val_feedback","Valence","CV",1738776864443,"positive",1374,"positive","negative","positive;negative","A",7.22548147278229,21
"382","57656f6c2bfddf000125cce5","insecure","calibrator_val_feedback","Valence","CV",1738776868426,"negative",1220,"positive","negative","positive;negative","A",7.1066061377273,22
"383","57656f6c2bfddf000125cce5","industry","calibrator_val_feedback","Valence","CV",1738776872883,"positive",1689,"positive","negative","positive;negative","A",7.4318919168078,23
"384","57656f6c2bfddf000125cce5","invader","calibrator_val_feedback","Valence","CV",1738776877018,"negative",1371,"positive","negative","positive;negative","A",7.22329567956231,24
"385","57656f6c2bfddf000125cce5","hat","calibrator_val_feedback","Valence","CV",1738776880931,"positive",1150,"positive","negative","positive;negative","A",7.0475172213573,25
"386","57656f6c2bfddf000125cce5","kitten","calibrator_val_feedback","Valence","CV",1738776884738,"positive",1046,"positive","negative","positive;negative","A",6.95272864462487,26
"387","57656f6c2bfddf000125cce5","free","calibrator_val_feedback","Valence","CV",1738776888322,"positive",817,"positive","negative","positive;negative","A",6.70563909486,27
"388","57656f6c2bfddf000125cce5","grin","calibrator_val_feedback","Valence","CV",1738776891843,"positive",753,"positive","negative","positive;negative","A",6.62406522779989,28
"389","57656f6c2bfddf000125cce5","icebox","calibrator_val_feedback","Valence","CV",1738776895739,"positive",1137,"positive","negative","positive;negative","A",7.03614849375054,29
"390","57656f6c2bfddf000125cce5","jail","calibrator_val_feedback","Valence","CV",1738776899474,"negative",973,"positive","negative","positive;negative","A",6.880384082186,30
"391","57656f6c2bfddf000125cce5","icebox","calibrator_val_no_feedback","Valence","CV",1738776903106,"positive",863,"A","positive;negative","","",6.76041469108343,31
"392","57656f6c2bfddf000125cce5","hat","calibrator_val_no_feedback","Valence","CV",1738776904666,"positive",798,"A","positive;negative","","",6.68210859744981,32
"393","57656f6c2bfddf000125cce5","free","calibrator_val_no_feedback","Valence","CV",1738776906042,"positive",617,"A","positive;negative","","",6.42486902390539,33
"394","57656f6c2bfddf000125cce5","insecure","calibrator_val_no_feedback","Valence","CV",1738776907883,"negative",1079,"A","positive;negative","","",6.98378996525813,34
"395","57656f6c2bfddf000125cce5","kitten","calibrator_val_no_feedback","Valence","CV",1738776909538,"positive",896,"A","positive;negative","","",6.79794041297493,35
"396","57656f6c2bfddf000125cce5","grin","calibrator_val_no_feedback","Valence","CV",1738776911130,"positive",829,"A","positive;negative","","",6.7202201551353,36
"397","57656f6c2bfddf000125cce5","invader","calibrator_val_no_feedback","Valence","CV",1738776912658,"negative",767,"A","positive;negative","","",6.64248680136726,37
"398","57656f6c2bfddf000125cce5","industry","calibrator_val_no_feedback","Valence","CV",1738776914083,"positive",667,"A","positive;negative","","",6.50279004591562,38
"399","57656f6c2bfddf000125cce5","joke","calibrator_val_no_feedback","Valence","CV",1738776915594,"positive",753,"A","positive;negative","","",6.62406522779989,39
"400","57656f6c2bfddf000125cce5","jail","calibrator_val_no_feedback","Valence","CV",1738776917154,"negative",801,"A","positive;negative","","",6.68586094706836,40
"401","63b6c0245a6de54b28e6ef89","teenager","calibrator_ani_feedback","Animacy","CV",1738775987203,"Option_J",1710,"inanimate","animate","Option_F;Option_J","B",7.44424864949671,1
"402","63b6c0245a6de54b28e6ef89","table","calibrator_ani_feedback","Animacy","CV",1738775990383,"Option_F",1062,"inanimate","animate","Option_F;Option_J","B",6.96790920180188,2
"403","63b6c0245a6de54b28e6ef89","monkey","calibrator_ani_feedback","Animacy","CV",1738775994094,"Option_J",947,"inanimate","animate","Option_F;Option_J","B",6.85329909318608,3
"404","63b6c0245a6de54b28e6ef89","horse","calibrator_ani_feedback","Animacy","CV",1738775997798,"Option_J",939,"inanimate","animate","Option_F;Option_J","B",6.84481547920826,4
"405","63b6c0245a6de54b28e6ef89","chair","calibrator_ani_feedback","Animacy","CV",1738776001613,"Option_F",601,"inanimate","animate","Option_F;Option_J","B",6.39859493453521,5
"406","63b6c0245a6de54b28e6ef89","clock","calibrator_ani_feedback","Animacy","CV",1738776004830,"Option_F",910,"inanimate","animate","Option_F;Option_J","B",6.8134445995109,6
"407","63b6c0245a6de54b28e6ef89","bottle","calibrator_ani_feedback","Animacy","CV",1738776008551,"Option_F",963,"inanimate","animate","Option_F;Option_J","B",6.87005341179813,7
"408","63b6c0245a6de54b28e6ef89","elephant","calibrator_ani_feedback","Animacy","CV",1738776012244,"Option_J",934,"inanimate","animate","Option_F;Option_J","B",6.83947643822884,8
"409","63b6c0245a6de54b28e6ef89","human","calibrator_ani_feedback","Animacy","CV",1738776015739,"Option_J",734,"inanimate","animate","Option_F;Option_J","B",6.59850902861452,9
"410","63b6c0245a6de54b28e6ef89","computer","calibrator_ani_feedback","Animacy","CV",1738776019210,"Option_F",711,"inanimate","animate","Option_F;Option_J","B",6.56667242980324,10
"411","63b6c0245a6de54b28e6ef89","human","calibrator_ani_no_feedback","Animacy","CV",1738776022581,"animate",610,"B","inanimate;animate","","",6.41345895716736,11
"412","63b6c0245a6de54b28e6ef89","monkey","calibrator_ani_no_feedback","Animacy","CV",1738776024637,"animate",1296,"B","inanimate;animate","","",7.16703787691222,12
"413","63b6c0245a6de54b28e6ef89","clock","calibrator_ani_no_feedback","Animacy","CV",1738776026445,"inanimate",1050,"B","inanimate;animate","","",6.95654544315157,13
"414","63b6c0245a6de54b28e6ef89","elephant","calibrator_ani_no_feedback","Animacy","CV",1738776027826,"animate",620,"B","inanimate;animate","","",6.42971947803914,14
"415","63b6c0245a6de54b28e6ef89","bottle","calibrator_ani_no_feedback","Animacy","CV",1738776029191,"inanimate",604,"B","inanimate;animate","","",6.40357419793482,15
"416","63b6c0245a6de54b28e6ef89","computer","calibrator_ani_no_feedback","Animacy","CV",1738776030647,"inanimate",698,"B","inanimate;animate","","",6.54821910276237,16
"417","63b6c0245a6de54b28e6ef89","teenager","calibrator_ani_no_feedback","Animacy","CV",1738776031962,"animate",558,"B","inanimate;animate","","",6.32435896238131,17
"418","63b6c0245a6de54b28e6ef89","horse","calibrator_ani_no_feedback","Animacy","CV",1738776033418,"animate",700,"B","inanimate;animate","","",6.5510803350434,18
"419","63b6c0245a6de54b28e6ef89","chair","calibrator_ani_no_feedback","Animacy","CV",1738776034668,"inanimate",493,"B","inanimate;animate","","",6.20050917404269,19
"420","63b6c0245a6de54b28e6ef89","table","calibrator_ani_no_feedback","Animacy","CV",1738776036164,"inanimate",736,"B","inanimate;animate","","",6.60123011872888,20
"421","63b6c0245a6de54b28e6ef89","invader","calibrator_val_feedback","Valence","CV",1738776329213,"negative",1333,"positive","negative","positive;negative","A",7.19518732017871,21
"422","63b6c0245a6de54b28e6ef89","icebox","calibrator_val_feedback","Valence","CV",1738776334088,"positive",1924,"positive","negative","positive;negative","A",7.56216163122565,22
"423","63b6c0245a6de54b28e6ef89","joke","calibrator_val_feedback","Valence","CV",1738776339134,"positive",2337,"positive","negative","positive;negative","A",7.75662333453886,23
"424","63b6c0245a6de54b28e6ef89","insecure","calibrator_val_feedback","Valence","CV",1738776344870,"negative",2756,"positive","negative","positive;negative","A",7.92153563213355,24
"425","63b6c0245a6de54b28e6ef89","hat","calibrator_val_feedback","Valence","CV",1738776348499,"positive",964,"positive","negative","positive;negative","A",6.87109129461055,25
"426","63b6c0245a6de54b28e6ef89","grin","calibrator_val_feedback","Valence","CV",1738776352054,"positive",1036,"positive","negative","positive;negative","A",6.94312242281943,26
"427","63b6c0245a6de54b28e6ef89","industry","calibrator_val_feedback","Valence","CV",1738776355551,"positive",929,"positive","negative","positive;negative","A",6.83410873881384,27
"428","63b6c0245a6de54b28e6ef89","kitten","calibrator_val_feedback","Valence","CV",1738776359074,"positive",955,"positive","negative","positive;negative","A",6.86171134048073,28
"429","63b6c0245a6de54b28e6ef89","free","calibrator_val_feedback","Valence","CV",1738776363195,"positive",993,"positive","negative","positive;negative","A",6.90073066404517,29
"430","63b6c0245a6de54b28e6ef89","jail","calibrator_val_feedback","Valence","CV",1738776367017,"negative",735,"positive","negative","positive;negative","A",6.59987049921284,30
"431","63b6c0245a6de54b28e6ef89","insecure","calibrator_val_no_feedback","Valence","CV",1738776368824,"negative",947,"A","positive;negative","","",6.85329909318608,31
"432","63b6c0245a6de54b28e6ef89","grin","calibrator_val_no_feedback","Valence","CV",1738776370660,"positive",1079,"A","positive;negative","","",6.98378996525813,32
"433","63b6c0245a6de54b28e6ef89","free","calibrator_val_no_feedback","Valence","CV",1738776372464,"positive",1048,"A","positive;negative","","",6.95463886488099,33
"434","63b6c0245a6de54b28e6ef89","invader","calibrator_val_no_feedback","Valence","CV",1738776373907,"negative",689,"A","positive;negative","","",6.53524127101366,34
"435","63b6c0245a6de54b28e6ef89","icebox","calibrator_val_no_feedback","Valence","CV",1738776375351,"positive",689,"A","positive;negative","","",6.53524127101366,35
"436","63b6c0245a6de54b28e6ef89","hat","calibrator_val_no_feedback","Valence","CV",1738776376755,"positive",648,"A","positive;negative","","",6.47389069635227,36
"437","63b6c0245a6de54b28e6ef89","jail","calibrator_val_no_feedback","Valence","CV",1738776378140,"negative",631,"A","positive;negative","","",6.44730586254121,37
"438","63b6c0245a6de54b28e6ef89","kitten","calibrator_val_no_feedback","Valence","CV",1738776379684,"positive",789,"A","positive;negative","","",6.67076632084587,38
"439","63b6c0245a6de54b28e6ef89","joke","calibrator_val_no_feedback","Valence","CV",1738776381886,"positive",1447,"A","positive;negative","","",7.27724772663148,39
"440","63b6c0245a6de54b28e6ef89","industry","calibrator_val_no_feedback","Valence","CV",1738776383730,"positive",1087,"A","positive;negative","","",6.99117688712121,40
"441","561bbdf9811d22000df3138a","joke","calibrator_val_feedback","Valence","VC",1738766464489,"positive",904,"positive","negative","positive;negative","A",6.80682936039218,1
"442","561bbdf9811d22000df3138a","grin","calibrator_val_feedback","Valence","VC",1738766469454,"positive",957,"positive","negative","positive;negative","A",6.86380339145295,2
"443","561bbdf9811d22000df3138a","hat","calibrator_val_feedback","Valence","VC",1738766473378,"positive",1154,"positive","negative","positive;negative","A",7.05098944706805,3
"444","561bbdf9811d22000df3138a","kitten","calibrator_val_feedback","Valence","VC",1738766475824,"positive",935,"positive","negative","positive;negative","A",6.84054652928869,4
"445","561bbdf9811d22000df3138a","invader","calibrator_val_feedback","Valence","VC",1738766479648,"negative",1058,"positive","negative","positive;negative","A",6.96413561241824,5
"446","561bbdf9811d22000df3138a","free","calibrator_val_feedback","Valence","VC",1738766483432,"positive",1018,"positive","negative","positive;negative","A",6.92559519711047,6
"447","561bbdf9811d22000df3138a","jail","calibrator_val_feedback","Valence","VC",1738766490071,"negative",2013,"positive","negative","positive;negative","A",7.60738142563979,7
"448","561bbdf9811d22000df3138a","industry","calibrator_val_feedback","Valence","VC",1738766493098,"positive",2137,"positive","negative","positive;negative","A",7.66715825531915,8
"449","561bbdf9811d22000df3138a","insecure","calibrator_val_feedback","Valence","VC",1738766497382,"negative",1518,"positive","negative","positive;negative","A",7.32514895795557,9
"450","561bbdf9811d22000df3138a","icebox","calibrator_val_feedback","Valence","VC",1738766502107,"positive",1961,"positive","negative","positive;negative","A",7.58120982619635,10
"451","561bbdf9811d22000df3138a","insecure","calibrator_val_no_feedback","Valence","VC",1738766506150,"negative",1281,"A","positive;negative","","",7.15539630189673,11
"452","561bbdf9811d22000df3138a","industry","calibrator_val_no_feedback","Valence","VC",1738766508479,"positive",1567,"A","positive;negative","","",7.35691824235602,12
"453","561bbdf9811d22000df3138a","kitten","calibrator_val_no_feedback","Valence","VC",1738766510022,"positive",784,"A","positive;negative","","",6.66440902035041,13
"454","561bbdf9811d22000df3138a","grin","calibrator_val_no_feedback","Valence","VC",1738766511484,"positive",703,"A","positive;negative","","",6.55535689181067,14
"455","561bbdf9811d22000df3138a","jail","calibrator_val_no_feedback","Valence","VC",1738766512947,"negative",702,"A","positive;negative","","",6.55393340402581,15
"456","561bbdf9811d22000df3138a","icebox","calibrator_val_no_feedback","Valence","VC",1738766514767,"positive",1061,"A","positive;negative","","",6.96696713861398,16
"457","561bbdf9811d22000df3138a","invader","calibrator_val_no_feedback","Valence","VC",1738766516469,"negative",940,"A","positive;negative","","",6.84587987526405,17
"458","561bbdf9811d22000df3138a","hat","calibrator_val_no_feedback","Valence","VC",1738766518061,"positive",832,"A","positive;negative","","",6.72383244082121,18
"459","561bbdf9811d22000df3138a","free","calibrator_val_no_feedback","Valence","VC",1738766519470,"positive",649,"A","positive;negative","","",6.47543271670409,19
"460","561bbdf9811d22000df3138a","joke","calibrator_val_no_feedback","Valence","VC",1738766520902,"positive",673,"A","positive;negative","","",6.51174532964473,20
"461","561bbdf9811d22000df3138a","bottle","calibrator_ani_feedback","Animacy","VC",1738767076295,"Option_J",1113,"animate","inanimate","Option_F;Option_J","A",7.01481435127554,21
"462","561bbdf9811d22000df3138a","teenager","calibrator_ani_feedback","Animacy","VC",1738767080173,"Option_F",1118,"animate","inanimate","Option_F;Option_J","A",7.01929665371504,22
"463","561bbdf9811d22000df3138a","human","calibrator_ani_feedback","Animacy","VC",1738767083552,"Option_F",619,"animate","inanimate","Option_F;Option_J","A",6.4281052726846,23
"464","561bbdf9811d22000df3138a","clock","calibrator_ani_feedback","Animacy","VC",1738767087175,"Option_J",855,"animate","inanimate","Option_F;Option_J","A",6.75110146893676,24
"465","561bbdf9811d22000df3138a","chair","calibrator_ani_feedback","Animacy","VC",1738767091022,"Option_J",1089,"animate","inanimate","Option_F;Option_J","A",6.99301512293296,25
"466","561bbdf9811d22000df3138a","horse","calibrator_ani_feedback","Animacy","VC",1738767094826,"Option_F",1037,"animate","inanimate","Option_F;Option_J","A",6.94408720822953,26
"467","561bbdf9811d22000df3138a","table","calibrator_ani_feedback","Animacy","VC",1738767098703,"Option_J",1114,"animate","inanimate","Option_F;Option_J","A",7.01571242048723,27
"468","561bbdf9811d22000df3138a","monkey","calibrator_ani_feedback","Animacy","VC",1738767102159,"Option_F",693,"animate","inanimate","Option_F;Option_J","A",6.5410299991899,28
"469","561bbdf9811d22000df3138a","elephant","calibrator_ani_feedback","Animacy","VC",1738767105754,"Option_F",829,"animate","inanimate","Option_F;Option_J","A",6.7202201551353,29
"470","561bbdf9811d22000df3138a","computer","calibrator_ani_feedback","Animacy","VC",1738767109309,"Option_J",792,"animate","inanimate","Option_F;Option_J","A",6.67456139181443,30
"471","561bbdf9811d22000df3138a","teenager","calibrator_ani_no_feedback","Animacy","VC",1738767112681,"animate",610,"A","animate;inanimate","","",6.41345895716736,31
"472","561bbdf9811d22000df3138a","clock","calibrator_ani_no_feedback","Animacy","VC",1738767114683,"inanimate",1243,"A","animate;inanimate","","",7.12528309151071,32
"473","561bbdf9811d22000df3138a","chair","calibrator_ani_no_feedback","Animacy","VC",1738767116493,"animate",1053,"A","animate;inanimate","","",6.95939851213398,33
"474","561bbdf9811d22000df3138a","computer","calibrator_ani_no_feedback","Animacy","VC",1738767118428,"inanimate",1175,"A","animate;inanimate","","",7.06902342657826,34
"475","561bbdf9811d22000df3138a","monkey","calibrator_ani_no_feedback","Animacy","VC",1738767119789,"inanimate",603,"A","animate;inanimate","","",6.40191719672719,35
"476","561bbdf9811d22000df3138a","horse","calibrator_ani_no_feedback","Animacy","VC",1738767121089,"animate",538,"A","animate;inanimate","","",6.28785856016178,36
"477","561bbdf9811d22000df3138a","elephant","calibrator_ani_no_feedback","Animacy","VC",1738767122415,"animate",564,"A","animate;inanimate","","",6.33505425149806,37
"478","561bbdf9811d22000df3138a","human","calibrator_ani_no_feedback","Animacy","VC",1738767123758,"animate",585,"A","animate;inanimate","","",6.37161184723186,38
"479","561bbdf9811d22000df3138a","bottle","calibrator_ani_no_feedback","Animacy","VC",1738767125197,"inanimate",681,"A","animate;inanimate","","",6.52356230614951,39
"480","561bbdf9811d22000df3138a","table","calibrator_ani_no_feedback","Animacy","VC",1738767126854,"inanimate",896,"A","animate;inanimate","","",6.79794041297493,40
"481","662a4a8b566905a139dc2ce1","teenager","calibrator_ani_feedback","Animacy","CV",1738783418511,"Option_F",2336,"animate","inanimate","Option_F;Option_J","A",7.75619534394812,1
"482","662a4a8b566905a139dc2ce1","monkey","calibrator_ani_feedback","Animacy","CV",1738783422167,"Option_F",871,"animate","inanimate","Option_F;Option_J","A",6.7696419768525,2
"483","662a4a8b566905a139dc2ce1","clock","calibrator_ani_feedback","Animacy","CV",1738783426127,"Option_J",1184,"animate","inanimate","Option_F;Option_J","A",7.07665381544395,3
"484","662a4a8b566905a139dc2ce1","horse","calibrator_ani_feedback","Animacy","CV",1738783430087,"Option_F",1189,"animate","inanimate","Option_F;Option_J","A",7.08086789669078,4
"485","662a4a8b566905a139dc2ce1","computer","calibrator_ani_feedback","Animacy","CV",1738783433494,"Option_J",624,"animate","inanimate","Option_F;Option_J","A",6.43615036836943,5
"486","662a4a8b566905a139dc2ce1","bottle","calibrator_ani_feedback","Animacy","CV",1738783437198,"Option_J",915,"animate","inanimate","Option_F;Option_J","A",6.81892406527552,6
"487","662a4a8b566905a139dc2ce1","elephant","calibrator_ani_feedback","Animacy","CV",1738783441191,"Option_F",1198,"animate","inanimate","Option_F;Option_J","A",7.08840877867539,7
"488","662a4a8b566905a139dc2ce1","table","calibrator_ani_feedback","Animacy","CV",1738783444750,"Option_J",765,"animate","inanimate","Option_F;Option_J","A",6.63987583382654,8
"489","662a4a8b566905a139dc2ce1","human","calibrator_ani_feedback","Animacy","CV",1738783448222,"Option_F",683,"animate","inanimate","Option_F;Option_J","A",6.52649485957079,9
"490","662a4a8b566905a139dc2ce1","chair","calibrator_ani_feedback","Animacy","CV",1738783451663,"Option_J",649,"animate","inanimate","Option_F;Option_J","A",6.47543271670409,10
"491","662a4a8b566905a139dc2ce1","teenager","calibrator_ani_no_feedback","Animacy","CV",1738783455094,"animate",645,"A","animate;inanimate","","",6.46925031679577,11
"492","662a4a8b566905a139dc2ce1","horse","calibrator_ani_no_feedback","Animacy","CV",1738783456735,"animate",880,"A","animate;inanimate","","",6.77992190747225,12
"493","662a4a8b566905a139dc2ce1","chair","calibrator_ani_no_feedback","Animacy","CV",1738783458287,"inanimate",781,"A","animate;inanimate","","",6.66057514983969,13
"494","662a4a8b566905a139dc2ce1","computer","calibrator_ani_no_feedback","Animacy","CV",1738783459783,"inanimate",717,"A","animate;inanimate","","",6.57507584059962,14
"495","662a4a8b566905a139dc2ce1","bottle","calibrator_ani_no_feedback","Animacy","CV",1738783461175,"inanimate",621,"A","animate;inanimate","","",6.43133108193348,15
"496","662a4a8b566905a139dc2ce1","table","calibrator_ani_no_feedback","Animacy","CV",1738783462695,"inanimate",756,"A","animate;inanimate","","",6.62804137617953,16
"497","662a4a8b566905a139dc2ce1","human","calibrator_ani_no_feedback","Animacy","CV",1738783464071,"animate",602,"A","animate;inanimate","","",6.40025744530882,17
"498","662a4a8b566905a139dc2ce1","clock","calibrator_ani_no_feedback","Animacy","CV",1738783465607,"inanimate",773,"A","animate;inanimate","","",6.65027904858742,18
"499","662a4a8b566905a139dc2ce1","monkey","calibrator_ani_no_feedback","Animacy","CV",1738783467143,"animate",760,"A","animate;inanimate","","",6.63331843328038,19
"500","662a4a8b566905a139dc2ce1","elephant","calibrator_ani_no_feedback","Animacy","CV",1738783468455,"animate",544,"A","animate;inanimate","","",6.29894924685594,20
"501","662a4a8b566905a139dc2ce1","free","calibrator_val_feedback","Valence","CV",1738783726006,"positive",2738,"positive","negative","positive;negative","A",7.91498300584839,21
"502","662a4a8b566905a139dc2ce1","invader","calibrator_val_feedback","Valence","CV",1738783729702,"negative",920,"positive","negative","positive;negative","A",6.82437367004309,22
"503","662a4a8b566905a139dc2ce1","joke","calibrator_val_feedback","Valence","CV",1738783735375,"negative",2886,"positive","negative","positive;negative","A",7.96762673933382,23
"504","662a4a8b566905a139dc2ce1","grin","calibrator_val_feedback","Valence","CV",1738783739359,"positive",1193,"positive","negative","positive;negative","A",7.08422642209792,24
"505","662a4a8b566905a139dc2ce1","hat","calibrator_val_feedback","Valence","CV",1738783743742,"positive",1603,"positive","negative","positive;negative","A",7.37963215260955,25
"506","662a4a8b566905a139dc2ce1","kitten","calibrator_val_feedback","Valence","CV",1738783747183,"positive",662,"positive","negative","positive;negative","A",6.49526555593701,26
"507","662a4a8b566905a139dc2ce1","icebox","calibrator_val_feedback","Valence","CV",1738783751326,"positive",1362,"positive","negative","positive;negative","A",7.21670948670946,27
"508","662a4a8b566905a139dc2ce1","insecure","calibrator_val_feedback","Valence","CV",1738783754951,"negative",831,"positive","negative","positive;negative","A",6.72262979485545,28
"509","662a4a8b566905a139dc2ce1","jail","calibrator_val_feedback","Valence","CV",1738783758527,"negative",800,"positive","negative","positive;negative","A",6.68461172766793,29
"510","662a4a8b566905a139dc2ce1","industry","calibrator_val_feedback","Valence","CV",1738783763143,"positive",1849,"positive","negative","positive;negative","A",7.52240023138712,30
"511","662a4a8b566905a139dc2ce1","industry","calibrator_val_no_feedback","Valence","CV",1738783767102,"positive",1183,"A","positive;negative","","",7.07580886397839,31
"512","662a4a8b566905a139dc2ce1","insecure","calibrator_val_no_feedback","Valence","CV",1738783769566,"negative",1691,"A","positive;negative","","",7.43307534889858,32
"513","662a4a8b566905a139dc2ce1","icebox","calibrator_val_no_feedback","Valence","CV",1738783771774,"positive",1432,"A","positive;negative","","",7.26682734752059,33
"514","662a4a8b566905a139dc2ce1","hat","calibrator_val_no_feedback","Valence","CV",1738783773542,"positive",997,"A","positive;negative","","",6.90475076996184,34
"515","662a4a8b566905a139dc2ce1","invader","calibrator_val_no_feedback","Valence","CV",1738783775295,"negative",985,"A","positive;negative","","",6.89264164117209,35
"516","662a4a8b566905a139dc2ce1","free","calibrator_val_no_feedback","Valence","CV",1738783777071,"positive",998,"A","positive;negative","","",6.90575327631146,36
"517","662a4a8b566905a139dc2ce1","joke","calibrator_val_no_feedback","Valence","CV",1738783778967,"positive",1121,"A","positive;negative","","",7.02197642307216,37
"518","662a4a8b566905a139dc2ce1","kitten","calibrator_val_no_feedback","Valence","CV",1738783780446,"positive",703,"A","positive;negative","","",6.55535689181067,38
"519","662a4a8b566905a139dc2ce1","grin","calibrator_val_no_feedback","Valence","CV",1738783781934,"positive",722,"A","positive;negative","","",6.58202513889283,39
"520","662a4a8b566905a139dc2ce1","jail","calibrator_val_no_feedback","Valence","CV",1738783783383,"negative",685,"A","positive;negative","","",6.52941883826223,40
"521","606b3da5eb533db26ffbfa36","insecure","calibrator_val_feedback","Valence","VC",1738769407533,"negative",3312,"positive","negative","positive;negative","A",8.10530751550515,1
"522","606b3da5eb533db26ffbfa36","grin","calibrator_val_feedback","Valence","VC",1738769411862,"positive",1569,"positive","negative","positive;negative","A",7.35819375273303,2
"523","606b3da5eb533db26ffbfa36","joke","calibrator_val_feedback","Valence","VC",1738769416414,"positive",1788,"positive","negative","positive;negative","A",7.48885295573346,3
"524","606b3da5eb533db26ffbfa36","industry","calibrator_val_feedback","Valence","VC",1738769421663,"positive",2487,"positive","negative","positive;negative","A",7.8188324438034,4
"525","606b3da5eb533db26ffbfa36","free","calibrator_val_feedback","Valence","VC",1738769425106,"positive",681,"positive","negative","positive;negative","A",6.52356230614951,5
"526","606b3da5eb533db26ffbfa36","hat","calibrator_val_feedback","Valence","VC",1738769428867,"positive",999,"positive","negative","positive;negative","A",6.90675477864855,6
"527","606b3da5eb533db26ffbfa36","kitten","calibrator_val_feedback","Valence","VC",1738769432809,"positive",1180,"positive","negative","positive;negative","A",7.07326971745971,7
"528","606b3da5eb533db26ffbfa36","icebox","calibrator_val_feedback","Valence","VC",1738769437169,"positive",1595,"positive","negative","positive;negative","A",7.37462901521894,8
"529","606b3da5eb533db26ffbfa36","invader","calibrator_val_feedback","Valence","VC",1738769441162,"negative",1233,"positive","negative","positive;negative","A",7.11720550316434,9
"530","606b3da5eb533db26ffbfa36","jail","calibrator_val_feedback","Valence","VC",1738769445006,"negative",1087,"positive","negative","positive;negative","A",6.99117688712121,10
"531","606b3da5eb533db26ffbfa36","kitten","calibrator_val_no_feedback","Valence","VC",1738769448652,"positive",881,"A","positive;negative","","",6.78105762593618,11
"532","606b3da5eb533db26ffbfa36","grin","calibrator_val_no_feedback","Valence","VC",1738769450431,"positive",1023,"A","positive;negative","","",6.93049476595163,12
"533","606b3da5eb533db26ffbfa36","hat","calibrator_val_no_feedback","Valence","VC",1738769452242,"positive",1052,"A","positive;negative","","",6.95844839329766,13
"534","606b3da5eb533db26ffbfa36","icebox","calibrator_val_no_feedback","Valence","VC",1738769453705,"positive",707,"A","positive;negative","","",6.56103066589657,14
"535","606b3da5eb533db26ffbfa36","jail","calibrator_val_no_feedback","Valence","VC",1738769455076,"negative",612,"A","positive;negative","","",6.41673228251233,15
"536","606b3da5eb533db26ffbfa36","free","calibrator_val_no_feedback","Valence","VC",1738769456459,"positive",628,"A","positive;negative","","",6.4425401664682,16
"537","606b3da5eb533db26ffbfa36","insecure","calibrator_val_no_feedback","Valence","VC",1738769457948,"negative",729,"A","positive;negative","","",6.59167373200866,17
"538","606b3da5eb533db26ffbfa36","industry","calibrator_val_no_feedback","Valence","VC",1738769459496,"positive",789,"A","positive;negative","","",6.67076632084587,18
"539","606b3da5eb533db26ffbfa36","joke","calibrator_val_no_feedback","Valence","VC",1738769460748,"positive",493,"A","positive;negative","","",6.20050917404269,19
"540","606b3da5eb533db26ffbfa36","invader","calibrator_val_no_feedback","Valence","VC",1738769462122,"negative",617,"A","positive;negative","","",6.42486902390539,20
"541","606b3da5eb533db26ffbfa36","teenager","calibrator_ani_feedback","Animacy","VC",1738770120201,"Option_J",20474,"inanimate","animate","Option_F;Option_J","B",9.92691106747972,21
"542","606b3da5eb533db26ffbfa36","monkey","calibrator_ani_feedback","Animacy","VC",1738770127576,"Option_J",4605,"inanimate","animate","Option_F;Option_J","B",8.43489794868941,22
"543","606b3da5eb533db26ffbfa36","human","calibrator_ani_feedback","Animacy","VC",1738770135503,"Option_J",5169,"inanimate","animate","Option_F;Option_J","B",8.55043452519604,23
"544","606b3da5eb533db26ffbfa36","elephant","calibrator_ani_feedback","Animacy","VC",1738770140788,"Option_J",2521,"inanimate","animate","Option_F;Option_J","B",7.83241092718792,24
"545","606b3da5eb533db26ffbfa36","table","calibrator_ani_feedback","Animacy","VC",1738770145722,"Option_F",1004,"inanimate","animate","Option_F;Option_J","B",6.91174730025167,25
"546","606b3da5eb533db26ffbfa36","clock","calibrator_ani_feedback","Animacy","VC",1738770148907,"Option_F",1589,"inanimate","animate","Option_F;Option_J","B",7.37086016653672,26
"547","606b3da5eb533db26ffbfa36","bottle","calibrator_ani_feedback","Animacy","VC",1738770152220,"Option_F",555,"inanimate","animate","Option_F;Option_J","B",6.31896811374643,27
"548","606b3da5eb533db26ffbfa36","computer","calibrator_ani_feedback","Animacy","VC",1738770156244,"Option_F",1261,"inanimate","animate","Option_F;Option_J","B",7.13966033596492,28
"549","606b3da5eb533db26ffbfa36","chair","calibrator_ani_feedback","Animacy","VC",1738770160314,"Option_F",1309,"inanimate","animate","Option_F;Option_J","B",7.1770187659099,29
"550","606b3da5eb533db26ffbfa36","horse","calibrator_ani_feedback","Animacy","VC",1738770167525,"Option_J",4452,"inanimate","animate","Option_F;Option_J","B",8.40110871239544,30
"551","606b3da5eb533db26ffbfa36","clock","calibrator_ani_no_feedback","Animacy","VC",1738770171141,"inanimate",862,"B","inanimate;animate","","",6.75925527066369,31
"552","606b3da5eb533db26ffbfa36","bottle","calibrator_ani_no_feedback","Animacy","VC",1738770174381,"inanimate",2477,"B","inanimate;animate","","",7.81480342948936,32
"553","606b3da5eb533db26ffbfa36","horse","calibrator_ani_no_feedback","Animacy","VC",1738770176372,"animate",1231,"B","inanimate;animate","","",7.11558212618445,33
"554","606b3da5eb533db26ffbfa36","monkey","calibrator_ani_no_feedback","Animacy","VC",1738770177641,"animate",510,"B","inanimate;animate","","",6.23441072571837,34
"555","606b3da5eb533db26ffbfa36","teenager","calibrator_ani_no_feedback","Animacy","VC",1738770179033,"animate",635,"B","inanimate;animate","","",6.45362499889269,35
"556","606b3da5eb533db26ffbfa36","chair","calibrator_ani_no_feedback","Animacy","VC",1738770180409,"inanimate",621,"B","inanimate;animate","","",6.43133108193348,36
"557","606b3da5eb533db26ffbfa36","human","calibrator_ani_no_feedback","Animacy","VC",1738770181728,"animate",564,"B","inanimate;animate","","",6.33505425149806,37
"558","606b3da5eb533db26ffbfa36","table","calibrator_ani_no_feedback","Animacy","VC",1738770183073,"inanimate",589,"B","inanimate;animate","","",6.37842618365159,38
"559","606b3da5eb533db26ffbfa36","elephant","calibrator_ani_no_feedback","Animacy","VC",1738770184315,"inanimate",486,"B","inanimate;animate","","",6.18620862390049,39
"560","606b3da5eb533db26ffbfa36","computer","calibrator_ani_no_feedback","Animacy","VC",1738770186099,"inanimate",1025,"B","inanimate;animate","","",6.93244789157251,40
"561","655f8e46111e1df6951e1ede","bottle","calibrator_ani_feedback","Animacy","CV",1738776460544,"Option_F",2454,"inanimate","animate","Option_F;Option_J","B",7.80547462527086,1
"562","655f8e46111e1df6951e1ede","teenager","calibrator_ani_feedback","Animacy","CV",1738776465074,"Option_J",1776,"inanimate","animate","Option_F;Option_J","B",7.48211892355212,2
"563","655f8e46111e1df6951e1ede","clock","calibrator_ani_feedback","Animacy","CV",1738776470785,"Option_F",2950,"inanimate","animate","Option_F;Option_J","B",7.98956044933387,3
"564","655f8e46111e1df6951e1ede","elephant","calibrator_ani_feedback","Animacy","CV",1738776474991,"Option_J",1451,"inanimate","animate","Option_F;Option_J","B",7.28000825288419,4
"565","655f8e46111e1df6951e1ede","monkey","calibrator_ani_feedback","Animacy","CV",1738776479288,"Option_J",1537,"inanimate","animate","Option_F;Option_J","B",7.3375877435386,5
"566","655f8e46111e1df6951e1ede","horse","calibrator_ani_feedback","Animacy","CV",1738776483172,"Option_J",1130,"inanimate","animate","Option_F;Option_J","B",7.02997291170639,6
"567","655f8e46111e1df6951e1ede","table","calibrator_ani_feedback","Animacy","CV",1738776487229,"Option_F",1302,"inanimate","animate","Option_F;Option_J","B",7.17165682276851,7
"568","655f8e46111e1df6951e1ede","human","calibrator_ani_feedback","Animacy","CV",1738776490792,"Option_J",804,"inanimate","animate","Option_F;Option_J","B",6.68959926917897,8
"569","655f8e46111e1df6951e1ede","computer","calibrator_ani_feedback","Animacy","CV",1738776494638,"Option_F",1091,"inanimate","animate","Option_F;Option_J","B",6.99484998583307,9
"570","655f8e46111e1df6951e1ede","chair","calibrator_ani_feedback","Animacy","CV",1738776498090,"Option_F",697,"inanimate","animate","Option_F;Option_J","B",6.54678541076052,10
"571","655f8e46111e1df6951e1ede","table","calibrator_ani_no_feedback","Animacy","CV",1738776501584,"inanimate",734,"B","inanimate;animate","","",6.59850902861452,11
"572","655f8e46111e1df6951e1ede","bottle","calibrator_ani_no_feedback","Animacy","CV",1738776503632,"inanimate",1289,"B","inanimate;animate","","",7.16162200293919,12
"573","655f8e46111e1df6951e1ede","computer","calibrator_ani_no_feedback","Animacy","CV",1738776505499,"inanimate",1112,"B","inanimate;animate","","",7.01391547481053,13
"574","655f8e46111e1df6951e1ede","human","calibrator_ani_no_feedback","Animacy","CV",1738776506965,"animate",712,"B","inanimate;animate","","",6.56807791141198,14
"575","655f8e46111e1df6951e1ede","teenager","calibrator_ani_no_feedback","Animacy","CV",1738776508265,"animate",546,"B","inanimate;animate","","",6.30261897574491,15
"576","655f8e46111e1df6951e1ede","chair","calibrator_ani_no_feedback","Animacy","CV",1738776509551,"inanimate",531,"B","inanimate;animate","","",6.27476202124194,16
"577","655f8e46111e1df6951e1ede","monkey","calibrator_ani_no_feedback","Animacy","CV",1738776511129,"animate",821,"B","inanimate;animate","","",6.71052310945243,17
"578","655f8e46111e1df6951e1ede","elephant","calibrator_ani_no_feedback","Animacy","CV",1738776512726,"animate",840,"B","inanimate;animate","","",6.73340189183736,18
"579","655f8e46111e1df6951e1ede","horse","calibrator_ani_no_feedback","Animacy","CV",1738776514017,"animate",536,"B","inanimate;animate","","",6.2841341610708,19
"580","655f8e46111e1df6951e1ede","clock","calibrator_ani_no_feedback","Animacy","CV",1738776515251,"inanimate",478,"B","inanimate;animate","","",6.16961073249146,20
"581","655f8e46111e1df6951e1ede","industry","calibrator_val_feedback","Valence","CV",1738776757248,"negative",2382,"positive","negative","positive;negative","A",7.77569574991525,21
"582","655f8e46111e1df6951e1ede","grin","calibrator_val_feedback","Valence","CV",1738776761560,"positive",1547,"positive","negative","positive;negative","A",7.34407285057307,22
"583","655f8e46111e1df6951e1ede","kitten","calibrator_val_feedback","Valence","CV",1738776767020,"positive",2701,"positive","negative","positive;negative","A",7.90137735379262,23
