#
# Results on Wed, 02 Oct 2024 09:22:38 GMT
# USER AGENT: Mozilla/5.0 (Windows NT 10.0; Win64; x64) AppleWebKit/537.36 (KHTML, like Gecko) Chrome/129.0.0.0 Safari/537.36 Edg/129.0.0.0
# Design number was non-random = 0
#
# Columns below this comment are as follows:
# 1. Results reception time.
# 2. MD5 hash of participant's IP address.
# 3. Controller name.
# 4. Order number of item.
# 5. Inner element number.
# 6. Label.
# 7. Latin Square Group.
# 8. PennElementType.
# 9. PennElementName.
# 10. Parameter.
# 11. Value.
# 12. EventTime.
# 13. Comments.
1727860958,81a0f5c282d0fdaeee3e6d137df7f65b,PennController,1,0,welcome,NULL,PennController,0,_Trial_,Start,1727860675928,NULL
1727860958,81a0f5c282d0fdaeee3e6d137df7f65b,PennController,1,0,welcome,NULL,PennController,0,_Header_,Start,1727860675928,NULL
1727860958,81a0f5c282d0fdaeee3e6d137df7f65b,PennController,1,0,welcome,NULL,PennController,0,_Header_,End,1727860676183,NULL
1727860958,81a0f5c282d0fdaeee3e6d137df7f65b,PennController,1,0,welcome,NULL,PennController,0,_Trial_,End,1727860679875,NULL
# 13. ID.
# 14. Comments.
1727860958,81a0f5c282d0fdaeee3e6d137df7f65b,PennController,55,0,consent,NULL,PennController,3,_Trial_,Start,1727860679877,6630e6a0f1db179069761af4,NULL
1727860958,81a0f5c282d0fdaeee3e6d137df7f65b,PennController,55,0,consent,NULL,PennController,3,_Header_,Start,1727860679877,6630e6a0f1db179069761af4,NULL
1727860958,81a0f5c282d0fdaeee3e6d137df7f65b,PennController,55,0,consent,NULL,PennController,3,_Header_,End,1727860680127,6630e6a0f1db179069761af4,NULL
1727860958,81a0f5c282d0fdaeee3e6d137df7f65b,PennController,55,0,consent,NULL,TextInput,ID,First,,1727860686672,6630e6a0f1db179069761af4,Control
1727860958,81a0f5c282d0fdaeee3e6d137df7f65b,PennController,55,0,consent,NULL,TextInput,ID,Final,6630e6a0f1db179069761af4,1727860694402,6630e6a0f1db179069761af4,NULL
1727860958,81a0f5c282d0fdaeee3e6d137df7f65b,PennController,55,0,consent,NULL,PennController,3,_Trial_,End,1727860694402,6630e6a0f1db179069761af4,NULL
# 13. Comments.
1727860958,81a0f5c282d0fdaeee3e6d137df7f65b,PennController,57,0,instructions1,NULL,PennController,5,_Trial_,Start,1727860694403,NULL
1727860958,81a0f5c282d0fdaeee3e6d137df7f65b,PennController,57,0,instructions1,NULL,PennController,5,_Header_,Start,1727860694403,NULL
1727860958,81a0f5c282d0fdaeee3e6d137df7f65b,PennController,57,0,instructions1,NULL,PennController,5,_Header_,End,1727860694653,NULL
1727860958,81a0f5c282d0fdaeee3e6d137df7f65b,PennController,57,0,instructions1,NULL,PennController,5,_Trial_,End,1727860702003,NULL
1727860958,81a0f5c282d0fdaeee3e6d137df7f65b,PennController,58,0,instructions2,NULL,PennController,6,_Trial_,Start,1727860702004,NULL
1727860958,81a0f5c282d0fdaeee3e6d137df7f65b,PennController,58,0,instructions2,NULL,PennController,6,_Header_,Start,1727860702004,NULL
1727860958,81a0f5c282d0fdaeee3e6d137df7f65b,PennController,58,0,instructions2,NULL,PennController,6,_Header_,End,1727860702255,NULL
1727860958,81a0f5c282d0fdaeee3e6d137df7f65b,PennController,58,0,instructions2,NULL,PennController,6,_Trial_,End,1727860725043,NULL
1727860958,81a0f5c282d0fdaeee3e6d137df7f65b,PennController,59,0,instructions3,NULL,PennController,7,_Trial_,Start,1727860725045,NULL
1727860958,81a0f5c282d0fdaeee3e6d137df7f65b,PennController,59,0,instructions3,NULL,PennController,7,_Header_,Start,1727860725045,NULL
1727860958,81a0f5c282d0fdaeee3e6d137df7f65b,PennController,59,0,instructions3,NULL,PennController,7,_Header_,End,1727860725297,NULL
1727860958,81a0f5c282d0fdaeee3e6d137df7f65b,PennController,59,0,instructions3,NULL,PennController,7,_Trial_,End,1727860740970,NULL
1727860958,81a0f5c282d0fdaeee3e6d137df7f65b,PennController,44,0,practice_intro,NULL,PennController,2,_Trial_,Start,1727860740971,NULL
1727860958,81a0f5c282d0fdaeee3e6d137df7f65b,PennController,44,0,practice_intro,NULL,PennController,2,_Header_,Start,1727860740971,NULL
1727860958,81a0f5c282d0fdaeee3e6d137df7f65b,PennController,44,0,practice_intro,NULL,PennController,2,_Header_,End,1727860741221,NULL
1727860958,81a0f5c282d0fdaeee3e6d137df7f65b,PennController,44,0,practice_intro,NULL,PennController,2,_Trial_,End,1727860742966,NULL
# 13. ID.
# 14. ReactionTime.
# 15. Word.
# 16. Key_value_F.
# 17. Key_value_J.
# 18. Group.
# 19. Comments.
1727860958,81a0f5c282d0fdaeee3e6d137df7f65b,PennController,53,0,calibrator,NULL,PennController,57,_Trial_,Start,1727860742967,undefined,2720,theory,abstract,concrete,A,NULL
1727860958,81a0f5c282d0fdaeee3e6d137df7f65b,PennController,53,0,calibrator,NULL,PennController,57,_Header_,Start,1727860742967,undefined,2720,theory,abstract,concrete,A,NULL
1727860958,81a0f5c282d0fdaeee3e6d137df7f65b,PennController,53,0,calibrator,NULL,PennController,57,_Header_,End,1727860743219,undefined,2720,theory,abstract,concrete,A,NULL
1727860958,81a0f5c282d0fdaeee3e6d137df7f65b,PennController,53,0,calibrator,NULL,Selector,unnamed-Selector,Selection,concrete,1727860746444,undefined,2720,theory,abstract,concrete,A,abstract;concrete
1727860958,81a0f5c282d0fdaeee3e6d137df7f65b,PennController,53,0,calibrator,NULL,PennController,57,_Trial_,End,1727860746446,undefined,2720,theory,abstract,concrete,A,NULL
1727860958,81a0f5c282d0fdaeee3e6d137df7f65b,PennController,52,0,calibrator,NULL,PennController,56,_Trial_,Start,1727860746447,undefined,3136,whistle,abstract,concrete,A,NULL
1727860958,81a0f5c282d0fdaeee3e6d137df7f65b,PennController,52,0,calibrator,NULL,PennController,56,_Header_,Start,1727860746447,undefined,3136,whistle,abstract,concrete,A,NULL
1727860958,81a0f5c282d0fdaeee3e6d137df7f65b,PennController,52,0,calibrator,NULL,PennController,56,_Header_,End,1727860746699,undefined,3136,whistle,abstract,concrete,A,NULL
1727860958,81a0f5c282d0fdaeee3e6d137df7f65b,PennController,52,0,calibrator,NULL,Selector,unnamed-Selector,Selection,concrete,1727860750338,undefined,3136,whistle,abstract,concrete,A,abstract;concrete
1727860958,81a0f5c282d0fdaeee3e6d137df7f65b,PennController,52,0,calibrator,NULL,PennController,56,_Trial_,End,1727860750339,undefined,3136,whistle,abstract,concrete,A,NULL
1727860958,81a0f5c282d0fdaeee3e6d137df7f65b,PennController,49,0,calibrator,NULL,PennController,53,_Trial_,Start,1727860750340,undefined,2672,marriage,abstract,concrete,A,NULL
1727860958,81a0f5c282d0fdaeee3e6d137df7f65b,PennController,49,0,calibrator,NULL,PennController,53,_Header_,Start,1727860750340,undefined,2672,marriage,abstract,concrete,A,NULL
1727860958,81a0f5c282d0fdaeee3e6d137df7f65b,PennController,49,0,calibrator,NULL,PennController,53,_Header_,End,1727860750591,undefined,2672,marriage,abstract,concrete,A,NULL
1727860958,81a0f5c282d0fdaeee3e6d137df7f65b,PennController,49,0,calibrator,NULL,Selector,unnamed-Selector,Selection,abstract,1727860753764,undefined,2672,marriage,abstract,concrete,A,abstract;concrete
1727860958,81a0f5c282d0fdaeee3e6d137df7f65b,PennController,49,0,calibrator,NULL,PennController,53,_Trial_,End,1727860753765,undefined,2672,marriage,abstract,concrete,A,NULL
1727860958,81a0f5c282d0fdaeee3e6d137df7f65b,PennController,50,0,calibrator,NULL,PennController,54,_Trial_,Start,1727860753767,undefined,2912,kick,abstract,concrete,A,NULL
1727860958,81a0f5c282d0fdaeee3e6d137df7f65b,PennController,50,0,calibrator,NULL,PennController,54,_Header_,Start,1727860753767,undefined,2912,kick,abstract,concrete,A,NULL
1727860958,81a0f5c282d0fdaeee3e6d137df7f65b,PennController,50,0,calibrator,NULL,PennController,54,_Header_,End,1727860754018,undefined,2912,kick,abstract,concrete,A,NULL
1727860958,81a0f5c282d0fdaeee3e6d137df7f65b,PennController,50,0,calibrator,NULL,Selector,unnamed-Selector,Selection,concrete,1727860757433,undefined,2912,kick,abstract,concrete,A,abstract;concrete
1727860958,81a0f5c282d0fdaeee3e6d137df7f65b,PennController,50,0,calibrator,NULL,PennController,54,_Trial_,End,1727860757434,undefined,2912,kick,abstract,concrete,A,NULL
1727860958,81a0f5c282d0fdaeee3e6d137df7f65b,PennController,51,0,calibrator,NULL,PennController,55,_Trial_,Start,1727860757435,undefined,1729,polite,abstract,concrete,A,NULL
1727860958,81a0f5c282d0fdaeee3e6d137df7f65b,PennController,51,0,calibrator,NULL,PennController,55,_Header_,Start,1727860757435,undefined,1729,polite,abstract,concrete,A,NULL
1727860958,81a0f5c282d0fdaeee3e6d137df7f65b,PennController,51,0,calibrator,NULL,PennController,55,_Header_,End,1727860757685,undefined,1729,polite,abstract,concrete,A,NULL
1727860958,81a0f5c282d0fdaeee3e6d137df7f65b,PennController,51,0,calibrator,NULL,Selector,unnamed-Selector,Selection,abstract,1727860759915,undefined,1729,polite,abstract,concrete,A,abstract;concrete
1727860958,81a0f5c282d0fdaeee3e6d137df7f65b,PennController,51,0,calibrator,NULL,PennController,55,_Trial_,End,1727860759916,undefined,1729,polite,abstract,concrete,A,NULL
1727860958,81a0f5c282d0fdaeee3e6d137df7f65b,PennController,46,0,calibrator,NULL,PennController,50,_Trial_,Start,1727860759917,undefined,5118,infinity,abstract,concrete,A,NULL
1727860958,81a0f5c282d0fdaeee3e6d137df7f65b,PennController,46,0,calibrator,NULL,PennController,50,_Header_,Start,1727860759917,undefined,5118,infinity,abstract,concrete,A,NULL
1727860958,81a0f5c282d0fdaeee3e6d137df7f65b,PennController,46,0,calibrator,NULL,PennController,50,_Header_,End,1727860760170,undefined,5118,infinity,abstract,concrete,A,NULL
1727860958,81a0f5c282d0fdaeee3e6d137df7f65b,PennController,46,0,calibrator,NULL,Selector,unnamed-Selector,Selection,abstract,1727860765789,undefined,5118,infinity,abstract,concrete,A,abstract;concrete
1727860958,81a0f5c282d0fdaeee3e6d137df7f65b,PennController,46,0,calibrator,NULL,PennController,50,_Trial_,End,1727860765790,undefined,5118,infinity,abstract,concrete,A,NULL
1727860958,81a0f5c282d0fdaeee3e6d137df7f65b,PennController,47,0,calibrator,NULL,PennController,51,_Trial_,Start,1727860765791,undefined,2001,gas,abstract,concrete,A,NULL
1727860958,81a0f5c282d0fdaeee3e6d137df7f65b,PennController,47,0,calibrator,NULL,PennController,51,_Header_,Start,1727860765791,undefined,2001,gas,abstract,concrete,A,NULL
1727860958,81a0f5c282d0fdaeee3e6d137df7f65b,PennController,47,0,calibrator,NULL,PennController,51,_Header_,End,1727860766043,undefined,2001,gas,abstract,concrete,A,NULL
1727860958,81a0f5c282d0fdaeee3e6d137df7f65b,PennController,47,0,calibrator,NULL,Selector,unnamed-Selector,Selection,concrete,1727860768547,undefined,2001,gas,abstract,concrete,A,abstract;concrete
1727860958,81a0f5c282d0fdaeee3e6d137df7f65b,PennController,47,0,calibrator,NULL,PennController,51,_Trial_,End,1727860768548,undefined,2001,gas,abstract,concrete,A,NULL
1727860958,81a0f5c282d0fdaeee3e6d137df7f65b,PennController,54,0,calibrator,NULL,PennController,58,_Trial_,Start,1727860768548,undefined,1392,sugar,abstract,concrete,A,NULL
1727860958,81a0f5c282d0fdaeee3e6d137df7f65b,PennController,54,0,calibrator,NULL,PennController,58,_Header_,Start,1727860768548,undefined,1392,sugar,abstract,concrete,A,NULL
1727860958,81a0f5c282d0fdaeee3e6d137df7f65b,PennController,54,0,calibrator,NULL,PennController,58,_Header_,End,1727860768798,undefined,1392,sugar,abstract,concrete,A,NULL
1727860958,81a0f5c282d0fdaeee3e6d137df7f65b,PennController,54,0,calibrator,NULL,Selector,unnamed-Selector,Selection,abstract,1727860770693,undefined,1392,sugar,abstract,concrete,A,abstract;concrete
1727860958,81a0f5c282d0fdaeee3e6d137df7f65b,PennController,54,0,calibrator,NULL,PennController,58,_Trial_,End,1727860770694,undefined,1392,sugar,abstract,concrete,A,NULL
1727860958,81a0f5c282d0fdaeee3e6d137df7f65b,PennController,48,0,calibrator,NULL,PennController,52,_Trial_,Start,1727860770695,undefined,1472,grasshopper,abstract,concrete,A,NULL
1727860958,81a0f5c282d0fdaeee3e6d137df7f65b,PennController,48,0,calibrator,NULL,PennController,52,_Header_,Start,1727860770695,undefined,1472,grasshopper,abstract,concrete,A,NULL
1727860958,81a0f5c282d0fdaeee3e6d137df7f65b,PennController,48,0,calibrator,NULL,PennController,52,_Header_,End,1727860770949,undefined,1472,grasshopper,abstract,concrete,A,NULL
1727860958,81a0f5c282d0fdaeee3e6d137df7f65b,PennController,48,0,calibrator,NULL,Selector,unnamed-Selector,Selection,abstract,1727860772923,undefined,1472,grasshopper,abstract,concrete,A,abstract;concrete
1727860958,81a0f5c282d0fdaeee3e6d137df7f65b,PennController,48,0,calibrator,NULL,PennController,52,_Trial_,End,1727860772924,undefined,1472,grasshopper,abstract,concrete,A,NULL
1727860958,81a0f5c282d0fdaeee3e6d137df7f65b,PennController,45,0,calibrator,NULL,PennController,49,_Trial_,Start,1727860772926,undefined,1640,shirt,abstract,concrete,A,NULL
1727860958,81a0f5c282d0fdaeee3e6d137df7f65b,PennController,45,0,calibrator,NULL,PennController,49,_Header_,Start,1727860772926,undefined,1640,shirt,abstract,concrete,A,NULL
1727860958,81a0f5c282d0fdaeee3e6d137df7f65b,PennController,45,0,calibrator,NULL,PennController,49,_Header_,End,1727860773177,undefined,1640,shirt,abstract,concrete,A,NULL
1727860958,81a0f5c282d0fdaeee3e6d137df7f65b,PennController,45,0,calibrator,NULL,Selector,unnamed-Selector,Selection,abstract,1727860775317,undefined,1640,shirt,abstract,concrete,A,abstract;concrete
1727860958,81a0f5c282d0fdaeee3e6d137df7f65b,PennController,45,0,calibrator,NULL,PennController,49,_Trial_,End,1727860775318,undefined,1640,shirt,abstract,concrete,A,NULL
# 13. Comments.
1727860958,81a0f5c282d0fdaeee3e6d137df7f65b,PennController,60,0,endinstructions,NULL,PennController,8,_Trial_,Start,1727860775320,NULL
1727860958,81a0f5c282d0fdaeee3e6d137df7f65b,PennController,60,0,endinstructions,NULL,PennController,8,_Header_,Start,1727860775320,NULL
1727860958,81a0f5c282d0fdaeee3e6d137df7f65b,PennController,60,0,endinstructions,NULL,PennController,8,_Header_,End,1727860775571,NULL
1727860958,81a0f5c282d0fdaeee3e6d137df7f65b,PennController,60,0,endinstructions,NULL,PennController,8,_Trial_,End,1727860821120,NULL
# 13. ID.
# 14. ReactionTime.
# 15. Word.
# 16. ConcValCombo.
# 17. Key_value_F.
# 18. Key_value_J.
# 19. Comments.
1727860958,81a0f5c282d0fdaeee3e6d137df7f65b,PennController,14,0,test,NULL,PennController,19,_Trial_,Start,1727860821122,undefined,2164,check,abstract-positive,abstract,concrete,NULL
1727860958,81a0f5c282d0fdaeee3e6d137df7f65b,PennController,14,0,test,NULL,PennController,19,_Header_,Start,1727860821122,undefined,2164,check,abstract-positive,abstract,concrete,NULL
1727860958,81a0f5c282d0fdaeee3e6d137df7f65b,PennController,14,0,test,NULL,PennController,19,_Header_,End,1727860821375,undefined,2164,check,abstract-positive,abstract,concrete,NULL
1727860958,81a0f5c282d0fdaeee3e6d137df7f65b,PennController,14,0,test,NULL,Selector,unnamed-Selector,Selection,abstract,1727860824043,undefined,2164,check,abstract-positive,abstract,concrete,concrete;abstract
1727860958,81a0f5c282d0fdaeee3e6d137df7f65b,PennController,14,0,test,NULL,PennController,19,_Trial_,End,1727860824045,undefined,2164,check,abstract-positive,abstract,concrete,NULL
1727860958,81a0f5c282d0fdaeee3e6d137df7f65b,PennController,9,0,test,NULL,PennController,14,_Trial_,Start,1727860824046,undefined,1422,drool,abstract-negative,abstract,concrete,NULL
1727860958,81a0f5c282d0fdaeee3e6d137df7f65b,PennController,9,0,test,NULL,PennController,14,_Header_,Start,1727860824046,undefined,1422,drool,abstract-negative,abstract,concrete,NULL
1727860958,81a0f5c282d0fdaeee3e6d137df7f65b,PennController,9,0,test,NULL,PennController,14,_Header_,End,1727860824298,undefined,1422,drool,abstract-negative,abstract,concrete,NULL
1727860958,81a0f5c282d0fdaeee3e6d137df7f65b,PennController,9,0,test,NULL,Selector,unnamed-Selector,Selection,concrete,1727860826222,undefined,1422,drool,abstract-negative,abstract,concrete,concrete;abstract
1727860958,81a0f5c282d0fdaeee3e6d137df7f65b,PennController,9,0,test,NULL,PennController,14,_Trial_,End,1727860826223,undefined,1422,drool,abstract-negative,abstract,concrete,NULL
1727860958,81a0f5c282d0fdaeee3e6d137df7f65b,PennController,29,0,test,NULL,PennController,34,_Trial_,Start,1727860826224,undefined,1613,distrust,concrete-negative,abstract,concrete,NULL
1727860958,81a0f5c282d0fdaeee3e6d137df7f65b,PennController,29,0,test,NULL,PennController,34,_Header_,Start,1727860826224,undefined,1613,distrust,concrete-negative,abstract,concrete,NULL
1727860958,81a0f5c282d0fdaeee3e6d137df7f65b,PennController,29,0,test,NULL,PennController,34,_Header_,End,1727860826476,undefined,1613,distrust,concrete-negative,abstract,concrete,NULL
1727860958,81a0f5c282d0fdaeee3e6d137df7f65b,PennController,29,0,test,NULL,Selector,unnamed-Selector,Selection,concrete,1727860828593,undefined,1613,distrust,concrete-negative,abstract,concrete,concrete;abstract
1727860958,81a0f5c282d0fdaeee3e6d137df7f65b,PennController,29,0,test,NULL,PennController,34,_Trial_,End,1727860828594,undefined,1613,distrust,concrete-negative,abstract,concrete,NULL
1727860958,81a0f5c282d0fdaeee3e6d137df7f65b,PennController,32,0,test,NULL,PennController,37,_Trial_,Start,1727860828595,undefined,1469,violate,concrete-negative,abstract,concrete,NULL
1727860958,81a0f5c282d0fdaeee3e6d137df7f65b,PennController,32,0,test,NULL,PennController,37,_Header_,Start,1727860828595,undefined,1469,violate,concrete-negative,abstract,concrete,NULL
1727860958,81a0f5c282d0fdaeee3e6d137df7f65b,PennController,32,0,test,NULL,PennController,37,_Header_,End,1727860828848,undefined,1469,violate,concrete-negative,abstract,concrete,NULL
1727860958,81a0f5c282d0fdaeee3e6d137df7f65b,PennController,32,0,test,NULL,Selector,unnamed-Selector,Selection,concrete,1727860830820,undefined,1469,violate,concrete-negative,abstract,concrete,concrete;abstract
1727860958,81a0f5c282d0fdaeee3e6d137df7f65b,PennController,32,0,test,NULL,PennController,37,_Trial_,End,1727860830821,undefined,1469,violate,concrete-negative,abstract,concrete,NULL
1727860958,81a0f5c282d0fdaeee3e6d137df7f65b,PennController,24,0,test,NULL,PennController,29,_Trial_,Start,1727860830822,undefined,2190,disappoint,concrete-negative,abstract,concrete,NULL
1727860958,81a0f5c282d0fdaeee3e6d137df7f65b,PennController,24,0,test,NULL,PennController,29,_Header_,Start,1727860830822,undefined,2190,disappoint,concrete-negative,abstract,concrete,NULL
1727860958,81a0f5c282d0fdaeee3e6d137df7f65b,PennController,24,0,test,NULL,PennController,29,_Header_,End,1727860831072,undefined,2190,disappoint,concrete-negative,abstract,concrete,NULL
1727860958,81a0f5c282d0fdaeee3e6d137df7f65b,PennController,24,0,test,NULL,Selector,unnamed-Selector,Selection,concrete,1727860833766,undefined,2190,disappoint,concrete-negative,abstract,concrete,concrete;abstract
1727860958,81a0f5c282d0fdaeee3e6d137df7f65b,PennController,24,0,test,NULL,PennController,29,_Trial_,End,1727860833767,undefined,2190,disappoint,concrete-negative,abstract,concrete,NULL
1727860958,81a0f5c282d0fdaeee3e6d137df7f65b,PennController,36,0,test,NULL,PennController,41,_Trial_,Start,1727860833768,undefined,2113,feeling,concrete-positive,abstract,concrete,NULL
1727860958,81a0f5c282d0fdaeee3e6d137df7f65b,PennController,36,0,test,NULL,PennController,41,_Header_,Start,1727860833768,undefined,2113,feeling,concrete-positive,abstract,concrete,NULL
1727860958,81a0f5c282d0fdaeee3e6d137df7f65b,PennController,36,0,test,NULL,PennController,41,_Header_,End,1727860834019,undefined,2113,feeling,concrete-positive,abstract,concrete,NULL
1727860958,81a0f5c282d0fdaeee3e6d137df7f65b,PennController,36,0,test,NULL,Selector,unnamed-Selector,Selection,abstract,1727860836636,undefined,2113,feeling,concrete-positive,abstract,concrete,concrete;abstract
1727860958,81a0f5c282d0fdaeee3e6d137df7f65b,PennController,36,0,test,NULL,PennController,41,_Trial_,End,1727860836637,undefined,2113,feeling,concrete-positive,abstract,concrete,NULL
1727860958,81a0f5c282d0fdaeee3e6d137df7f65b,PennController,42,0,test,NULL,PennController,47,_Trial_,Start,1727860836638,undefined,1422,wish,concrete-positive,abstract,concrete,NULL
1727860958,81a0f5c282d0fdaeee3e6d137df7f65b,PennController,42,0,test,NULL,PennController,47,_Header_,Start,1727860836638,undefined,1422,wish,concrete-positive,abstract,concrete,NULL
1727860958,81a0f5c282d0fdaeee3e6d137df7f65b,PennController,42,0,test,NULL,PennController,47,_Header_,End,1727860836892,undefined,1422,wish,concrete-positive,abstract,concrete,NULL
1727860958,81a0f5c282d0fdaeee3e6d137df7f65b,PennController,42,0,test,NULL,Selector,unnamed-Selector,Selection,concrete,1727860838816,undefined,1422,wish,concrete-positive,abstract,concrete,concrete;abstract
1727860958,81a0f5c282d0fdaeee3e6d137df7f65b,PennController,42,0,test,NULL,PennController,47,_Trial_,End,1727860838817,undefined,1422,wish,concrete-positive,abstract,concrete,NULL
1727860958,81a0f5c282d0fdaeee3e6d137df7f65b,PennController,13,0,test,NULL,PennController,18,_Trial_,Start,1727860838818,undefined,2151,smack,abstract-negative,abstract,concrete,NULL
1727860958,81a0f5c282d0fdaeee3e6d137df7f65b,PennController,13,0,test,NULL,PennController,18,_Header_,Start,1727860838818,undefined,2151,smack,abstract-negative,abstract,concrete,NULL
1727860958,81a0f5c282d0fdaeee3e6d137df7f65b,PennController,13,0,test,NULL,PennController,18,_Header_,End,1727860839070,undefined,2151,smack,abstract-negative,abstract,concrete,NULL
1727860958,81a0f5c282d0fdaeee3e6d137df7f65b,PennController,13,0,test,NULL,Selector,unnamed-Selector,Selection,concrete,1727860841722,undefined,2151,smack,abstract-negative,abstract,concrete,concrete;abstract
1727860958,81a0f5c282d0fdaeee3e6d137df7f65b,PennController,13,0,test,NULL,PennController,18,_Trial_,End,1727860841723,undefined,2151,smack,abstract-negative,abstract,concrete,NULL
1727860958,81a0f5c282d0fdaeee3e6d137df7f65b,PennController,21,0,test,NULL,PennController,26,_Trial_,Start,1727860841724,undefined,1630,sail,abstract-positive,abstract,concrete,NULL
1727860958,81a0f5c282d0fdaeee3e6d137df7f65b,PennController,21,0,test,NULL,PennController,26,_Header_,Start,1727860841724,undefined,1630,sail,abstract-positive,abstract,concrete,NULL
1727860958,81a0f5c282d0fdaeee3e6d137df7f65b,PennController,21,0,test,NULL,PennController,26,_Header_,End,1727860841978,undefined,1630,sail,abstract-positive,abstract,concrete,NULL
1727860958,81a0f5c282d0fdaeee3e6d137df7f65b,PennController,21,0,test,NULL,Selector,unnamed-Selector,Selection,concrete,1727860844110,undefined,1630,sail,abstract-positive,abstract,concrete,concrete;abstract
1727860958,81a0f5c282d0fdaeee3e6d137df7f65b,PennController,21,0,test,NULL,PennController,26,_Trial_,End,1727860844111,undefined,1630,sail,abstract-positive,abstract,concrete,NULL
1727860958,81a0f5c282d0fdaeee3e6d137df7f65b,PennController,11,0,test,NULL,PennController,16,_Trial_,Start,1727860844113,undefined,2819,crank,abstract-negative,abstract,concrete,NULL
1727860958,81a0f5c282d0fdaeee3e6d137df7f65b,PennController,11,0,test,NULL,PennController,16,_Header_,Start,1727860844113,undefined,2819,crank,abstract-negative,abstract,concrete,NULL
1727860958,81a0f5c282d0fdaeee3e6d137df7f65b,PennController,11,0,test,NULL,PennController,16,_Header_,End,1727860844364,undefined,2819,crank,abstract-negative,abstract,concrete,NULL
1727860958,81a0f5c282d0fdaeee3e6d137df7f65b,PennController,11,0,test,NULL,Selector,unnamed-Selector,Selection,abstract,1727860847685,undefined,2819,crank,abstract-negative,abstract,concrete,concrete;abstract
1727860958,81a0f5c282d0fdaeee3e6d137df7f65b,PennController,11,0,test,NULL,PennController,16,_Trial_,End,1727860847686,undefined,2819,crank,abstract-negative,abstract,concrete,NULL
1727860958,81a0f5c282d0fdaeee3e6d137df7f65b,PennController,19,0,test,NULL,PennController,24,_Trial_,Start,1727860847687,undefined,1895,running,abstract-positive,abstract,concrete,NULL
1727860958,81a0f5c282d0fdaeee3e6d137df7f65b,PennController,19,0,test,NULL,PennController,24,_Header_,Start,1727860847687,undefined,1895,running,abstract-positive,abstract,concrete,NULL
1727860958,81a0f5c282d0fdaeee3e6d137df7f65b,PennController,19,0,test,NULL,PennController,24,_Header_,End,1727860847937,undefined,1895,running,abstract-positive,abstract,concrete,NULL
1727860958,81a0f5c282d0fdaeee3e6d137df7f65b,PennController,19,0,test,NULL,Selector,unnamed-Selector,Selection,abstract,1727860850334,undefined,1895,running,abstract-positive,abstract,concrete,concrete;abstract
1727860958,81a0f5c282d0fdaeee3e6d137df7f65b,PennController,19,0,test,NULL,PennController,24,_Trial_,End,1727860850335,undefined,1895,running,abstract-positive,abstract,concrete,NULL
1727860958,81a0f5c282d0fdaeee3e6d137df7f65b,PennController,17,0,test,NULL,PennController,22,_Trial_,Start,1727860850336,undefined,1453,laugh,abstract-positive,abstract,concrete,NULL
1727860958,81a0f5c282d0fdaeee3e6d137df7f65b,PennController,17,0,test,NULL,PennController,22,_Header_,Start,1727860850336,undefined,1453,laugh,abstract-positive,abstract,concrete,NULL
1727860958,81a0f5c282d0fdaeee3e6d137df7f65b,PennController,17,0,test,NULL,PennController,22,_Header_,End,1727860850586,undefined,1453,laugh,abstract-positive,abstract,concrete,NULL
1727860958,81a0f5c282d0fdaeee3e6d137df7f65b,PennController,17,0,test,NULL,Selector,unnamed-Selector,Selection,concrete,1727860852542,undefined,1453,laugh,abstract-positive,abstract,concrete,concrete;abstract
1727860958,81a0f5c282d0fdaeee3e6d137df7f65b,PennController,17,0,test,NULL,PennController,22,_Trial_,End,1727860852543,undefined,1453,laugh,abstract-positive,abstract,concrete,NULL
1727860958,81a0f5c282d0fdaeee3e6d137df7f65b,PennController,43,0,test,NULL,PennController,48,_Trial_,Start,1727860852544,undefined,3034,forgive,concrete-positive,abstract,concrete,NULL
1727860958,81a0f5c282d0fdaeee3e6d137df7f65b,PennController,43,0,test,NULL,PennController,48,_Header_,Start,1727860852544,undefined,3034,forgive,concrete-positive,abstract,concrete,NULL
1727860958,81a0f5c282d0fdaeee3e6d137df7f65b,PennController,43,0,test,NULL,PennController,48,_Header_,End,1727860852796,undefined,3034,forgive,concrete-positive,abstract,concrete,NULL
1727860958,81a0f5c282d0fdaeee3e6d137df7f65b,PennController,43,0,test,NULL,Selector,unnamed-Selector,Selection,concrete,1727860856332,undefined,3034,forgive,concrete-positive,abstract,concrete,concrete;abstract
1727860958,81a0f5c282d0fdaeee3e6d137df7f65b,PennController,43,0,test,NULL,PennController,48,_Trial_,End,1727860856333,undefined,3034,forgive,concrete-positive,abstract,concrete,NULL
1727860958,81a0f5c282d0fdaeee3e6d137df7f65b,PennController,40,0,test,NULL,PennController,45,_Trial_,Start,1727860856334,undefined,1052,justify,concrete-positive,abstract,concrete,NULL
1727860958,81a0f5c282d0fdaeee3e6d137df7f65b,PennController,40,0,test,NULL,PennController,45,_Header_,Start,1727860856334,undefined,1052,justify,concrete-positive,abstract,concrete,NULL
1727860958,81a0f5c282d0fdaeee3e6d137df7f65b,PennController,40,0,test,NULL,PennController,45,_Header_,End,1727860856586,undefined,1052,justify,concrete-positive,abstract,concrete,NULL
1727860958,81a0f5c282d0fdaeee3e6d137df7f65b,PennController,40,0,test,NULL,Selector,unnamed-Selector,Selection,concrete,1727860858143,undefined,1052,justify,concrete-positive,abstract,concrete,concrete;abstract
1727860958,81a0f5c282d0fdaeee3e6d137df7f65b,PennController,40,0,test,NULL,PennController,45,_Trial_,End,1727860858144,undefined,1052,justify,concrete-positive,abstract,concrete,NULL
1727860958,81a0f5c282d0fdaeee3e6d137df7f65b,PennController,35,0,test,NULL,PennController,40,_Trial_,Start,1727860858145,undefined,1968,hope,concrete-positive,abstract,concrete,NULL
1727860958,81a0f5c282d0fdaeee3e6d137df7f65b,PennController,35,0,test,NULL,PennController,40,_Header_,Start,1727860858145,undefined,1968,hope,concrete-positive,abstract,concrete,NULL
1727860958,81a0f5c282d0fdaeee3e6d137df7f65b,PennController,35,0,test,NULL,PennController,40,_Header_,End,1727860858398,undefined,1968,hope,concrete-positive,abstract,concrete,NULL
1727860958,81a0f5c282d0fdaeee3e6d137df7f65b,PennController,35,0,test,NULL,Selector,unnamed-Selector,Selection,concrete,1727860860866,undefined,1968,hope,concrete-positive,abstract,concrete,concrete;abstract
1727860958,81a0f5c282d0fdaeee3e6d137df7f65b,PennController,35,0,test,NULL,PennController,40,_Trial_,End,1727860860867,undefined,1968,hope,concrete-positive,abstract,concrete,NULL
1727860958,81a0f5c282d0fdaeee3e6d137df7f65b,PennController,22,0,test,NULL,PennController,27,_Trial_,Start,1727860860868,undefined,2001,talk,abstract-positive,abstract,concrete,NULL
1727860958,81a0f5c282d0fdaeee3e6d137df7f65b,PennController,22,0,test,NULL,PennController,27,_Header_,Start,1727860860868,undefined,2001,talk,abstract-positive,abstract,concrete,NULL
1727860958,81a0f5c282d0fdaeee3e6d137df7f65b,PennController,22,0,test,NULL,PennController,27,_Header_,End,1727860861118,undefined,2001,talk,abstract-positive,abstract,concrete,NULL
1727860958,81a0f5c282d0fdaeee3e6d137df7f65b,PennController,22,0,test,NULL,Selector,unnamed-Selector,Selection,abstract,1727860863622,undefined,2001,talk,abstract-positive,abstract,concrete,concrete;abstract
1727860958,81a0f5c282d0fdaeee3e6d137df7f65b,PennController,22,0,test,NULL,PennController,27,_Trial_,End,1727860863624,undefined,2001,talk,abstract-positive,abstract,concrete,NULL
1727860958,81a0f5c282d0fdaeee3e6d137df7f65b,PennController,34,0,test,NULL,PennController,39,_Trial_,Start,1727860863625,undefined,1649,qualify,concrete-positive,abstract,concrete,NULL
1727860958,81a0f5c282d0fdaeee3e6d137df7f65b,PennController,34,0,test,NULL,PennController,39,_Header_,Start,1727860863625,undefined,1649,qualify,concrete-positive,abstract,concrete,NULL
1727860958,81a0f5c282d0fdaeee3e6d137df7f65b,PennController,34,0,test,NULL,PennController,39,_Header_,End,1727860863878,undefined,1649,qualify,concrete-positive,abstract,concrete,NULL
1727860958,81a0f5c282d0fdaeee3e6d137df7f65b,PennController,34,0,test,NULL,Selector,unnamed-Selector,Selection,concrete,1727860866030,undefined,1649,qualify,concrete-positive,abstract,concrete,concrete;abstract
1727860958,81a0f5c282d0fdaeee3e6d137df7f65b,PennController,34,0,test,NULL,PennController,39,_Trial_,End,1727860866031,undefined,1649,qualify,concrete-positive,abstract,concrete,NULL
1727860958,81a0f5c282d0fdaeee3e6d137df7f65b,PennController,15,0,test,NULL,PennController,20,_Trial_,Start,1727860866032,undefined,1593,bathe,abstract-positive,abstract,concrete,NULL
1727860958,81a0f5c282d0fdaeee3e6d137df7f65b,PennController,15,0,test,NULL,PennController,20,_Header_,Start,1727860866032,undefined,1593,bathe,abstract-positive,abstract,concrete,NULL
1727860958,81a0f5c282d0fdaeee3e6d137df7f65b,PennController,15,0,test,NULL,PennController,20,_Header_,End,1727860866282,undefined,1593,bathe,abstract-positive,abstract,concrete,NULL
1727860958,81a0f5c282d0fdaeee3e6d137df7f65b,PennController,15,0,test,NULL,Selector,unnamed-Selector,Selection,concrete,1727860868377,undefined,1593,bathe,abstract-positive,abstract,concrete,concrete;abstract
1727860958,81a0f5c282d0fdaeee3e6d137df7f65b,PennController,15,0,test,NULL,PennController,20,_Trial_,End,1727860868378,undefined,1593,bathe,abstract-positive,abstract,concrete,NULL
1727860958,81a0f5c282d0fdaeee3e6d137df7f65b,PennController,4,0,test,NULL,PennController,9,_Trial_,Start,1727860868379,undefined,1694,whip,abstract-negative,abstract,concrete,NULL
1727860958,81a0f5c282d0fdaeee3e6d137df7f65b,PennController,4,0,test,NULL,PennController,9,_Header_,Start,1727860868379,undefined,1694,whip,abstract-negative,abstract,concrete,NULL
1727860958,81a0f5c282d0fdaeee3e6d137df7f65b,PennController,4,0,test,NULL,PennController,9,_Header_,End,1727860868629,undefined,1694,whip,abstract-negative,abstract,concrete,NULL
1727860958,81a0f5c282d0fdaeee3e6d137df7f65b,PennController,4,0,test,NULL,Selector,unnamed-Selector,Selection,abstract,1727860870828,undefined,1694,whip,abstract-negative,abstract,concrete,concrete;abstract
1727860958,81a0f5c282d0fdaeee3e6d137df7f65b,PennController,4,0,test,NULL,PennController,9,_Trial_,End,1727860870829,undefined,1694,whip,abstract-negative,abstract,concrete,NULL
1727860958,81a0f5c282d0fdaeee3e6d137df7f65b,PennController,27,0,test,NULL,PennController,32,_Trial_,Start,1727860870830,undefined,2746,impose,concrete-negative,abstract,concrete,NULL
1727860958,81a0f5c282d0fdaeee3e6d137df7f65b,PennController,27,0,test,NULL,PennController,32,_Header_,Start,1727860870830,undefined,2746,impose,concrete-negative,abstract,concrete,NULL
1727860958,81a0f5c282d0fdaeee3e6d137df7f65b,PennController,27,0,test,NULL,PennController,32,_Header_,End,1727860871084,undefined,2746,impose,concrete-negative,abstract,concrete,NULL
1727860958,81a0f5c282d0fdaeee3e6d137df7f65b,PennController,27,0,test,NULL,Selector,unnamed-Selector,Selection,concrete,1727860874331,undefined,2746,impose,concrete-negative,abstract,concrete,concrete;abstract
1727860958,81a0f5c282d0fdaeee3e6d137df7f65b,PennController,27,0,test,NULL,PennController,32,_Trial_,End,1727860874332,undefined,2746,impose,concrete-negative,abstract,concrete,NULL
1727860958,81a0f5c282d0fdaeee3e6d137df7f65b,PennController,20,0,test,NULL,PennController,25,_Trial_,Start,1727860874333,undefined,1350,caress,abstract-positive,abstract,concrete,NULL
1727860958,81a0f5c282d0fdaeee3e6d137df7f65b,PennController,20,0,test,NULL,PennController,25,_Header_,Start,1727860874333,undefined,1350,caress,abstract-positive,abstract,concrete,NULL
1727860958,81a0f5c282d0fdaeee3e6d137df7f65b,PennController,20,0,test,NULL,PennController,25,_Header_,End,1727860874585,undefined,1350,caress,abstract-positive,abstract,concrete,NULL
1727860958,81a0f5c282d0fdaeee3e6d137df7f65b,PennController,20,0,test,NULL,Selector,unnamed-Selector,Selection,concrete,1727860876438,undefined,1350,caress,abstract-positive,abstract,concrete,concrete;abstract
1727860958,81a0f5c282d0fdaeee3e6d137df7f65b,PennController,20,0,test,NULL,PennController,25,_Trial_,End,1727860876440,undefined,1350,caress,abstract-positive,abstract,concrete,NULL
1727860958,81a0f5c282d0fdaeee3e6d137df7f65b,PennController,39,0,test,NULL,PennController,44,_Trial_,Start,1727860876441,undefined,1660,consider,concrete-positive,abstract,concrete,NULL
1727860958,81a0f5c282d0fdaeee3e6d137df7f65b,PennController,39,0,test,NULL,PennController,44,_Header_,Start,1727860876441,undefined,1660,consider,concrete-positive,abstract,concrete,NULL
1727860958,81a0f5c282d0fdaeee3e6d137df7f65b,PennController,39,0,test,NULL,PennController,44,_Header_,End,1727860876693,undefined,1660,consider,concrete-positive,abstract,concrete,NULL
1727860958,81a0f5c282d0fdaeee3e6d137df7f65b,PennController,39,0,test,NULL,Selector,unnamed-Selector,Selection,concrete,1727860878856,undefined,1660,consider,concrete-positive,abstract,concrete,concrete;abstract
1727860958,81a0f5c282d0fdaeee3e6d137df7f65b,PennController,39,0,test,NULL,PennController,44,_Trial_,End,1727860878857,undefined,1660,consider,concrete-positive,abstract,concrete,NULL
1727860958,81a0f5c282d0fdaeee3e6d137df7f65b,PennController,8,0,test,NULL,PennController,13,_Trial_,Start,1727860878858,undefined,1202,meth,abstract-negative,abstract,concrete,NULL
1727860958,81a0f5c282d0fdaeee3e6d137df7f65b,PennController,8,0,test,NULL,PennController,13,_Header_,Start,1727860878858,undefined,1202,meth,abstract-negative,abstract,concrete,NULL
1727860958,81a0f5c282d0fdaeee3e6d137df7f65b,PennController,8,0,test,NULL,PennController,13,_Header_,End,1727860879112,undefined,1202,meth,abstract-negative,abstract,concrete,NULL
1727860958,81a0f5c282d0fdaeee3e6d137df7f65b,PennController,8,0,test,NULL,Selector,unnamed-Selector,Selection,abstract,1727860880819,undefined,1202,meth,abstract-negative,abstract,concrete,concrete;abstract
1727860958,81a0f5c282d0fdaeee3e6d137df7f65b,PennController,8,0,test,NULL,PennController,13,_Trial_,End,1727860880820,undefined,1202,meth,abstract-negative,abstract,concrete,NULL
1727860958,81a0f5c282d0fdaeee3e6d137df7f65b,PennController,6,0,test,NULL,PennController,11,_Trial_,Start,1727860880821,undefined,1712,hurl,abstract-negative,abstract,concrete,NULL
1727860958,81a0f5c282d0fdaeee3e6d137df7f65b,PennController,6,0,test,NULL,PennController,11,_Header_,Start,1727860880821,undefined,1712,hurl,abstract-negative,abstract,concrete,NULL
1727860958,81a0f5c282d0fdaeee3e6d137df7f65b,PennController,6,0,test,NULL,PennController,11,_Header_,End,1727860881071,undefined,1712,hurl,abstract-negative,abstract,concrete,NULL
1727860958,81a0f5c282d0fdaeee3e6d137df7f65b,PennController,6,0,test,NULL,Selector,unnamed-Selector,Selection,abstract,1727860883286,undefined,1712,hurl,abstract-negative,abstract,concrete,concrete;abstract
1727860958,81a0f5c282d0fdaeee3e6d137df7f65b,PennController,6,0,test,NULL,PennController,11,_Trial_,End,1727860883287,undefined,1712,hurl,abstract-negative,abstract,concrete,NULL
1727860958,81a0f5c282d0fdaeee3e6d137df7f65b,PennController,33,0,test,NULL,PennController,38,_Trial_,Start,1727860883288,undefined,2357,beware,concrete-negative,abstract,concrete,NULL
1727860958,81a0f5c282d0fdaeee3e6d137df7f65b,PennController,33,0,test,NULL,PennController,38,_Header_,Start,1727860883288,undefined,2357,beware,concrete-negative,abstract,concrete,NULL
1727860958,81a0f5c282d0fdaeee3e6d137df7f65b,PennController,33,0,test,NULL,PennController,38,_Header_,End,1727860883539,undefined,2357,beware,concrete-negative,abstract,concrete,NULL
1727860958,81a0f5c282d0fdaeee3e6d137df7f65b,PennController,33,0,test,NULL,Selector,unnamed-Selector,Selection,concrete,1727860886398,undefined,2357,beware,concrete-negative,abstract,concrete,concrete;abstract
1727860958,81a0f5c282d0fdaeee3e6d137df7f65b,PennController,33,0,test,NULL,PennController,38,_Trial_,End,1727860886399,undefined,2357,beware,concrete-negative,abstract,concrete,NULL
1727860958,81a0f5c282d0fdaeee3e6d137df7f65b,PennController,25,0,test,NULL,PennController,30,_Trial_,Start,1727860886400,undefined,1087,discourage,concrete-negative,abstract,concrete,NULL
1727860958,81a0f5c282d0fdaeee3e6d137df7f65b,PennController,25,0,test,NULL,PennController,30,_Header_,Start,1727860886400,undefined,1087,discourage,concrete-negative,abstract,concrete,NULL
1727860958,81a0f5c282d0fdaeee3e6d137df7f65b,PennController,25,0,test,NULL,PennController,30,_Header_,End,1727860886652,undefined,1087,discourage,concrete-negative,abstract,concrete,NULL
1727860958,81a0f5c282d0fdaeee3e6d137df7f65b,PennController,25,0,test,NULL,Selector,unnamed-Selector,Selection,concrete,1727860888243,undefined,1087,discourage,concrete-negative,abstract,concrete,concrete;abstract
1727860958,81a0f5c282d0fdaeee3e6d137df7f65b,PennController,25,0,test,NULL,PennController,30,_Trial_,End,1727860888244,undefined,1087,discourage,concrete-negative,abstract,concrete,NULL
1727860958,81a0f5c282d0fdaeee3e6d137df7f65b,PennController,12,0,test,NULL,PennController,17,_Trial_,Start,1727860888245,undefined,1028,frown,abstract-negative,abstract,concrete,NULL
1727860958,81a0f5c282d0fdaeee3e6d137df7f65b,PennController,12,0,test,NULL,PennController,17,_Header_,Start,1727860888245,undefined,1028,frown,abstract-negative,abstract,concrete,NULL
1727860958,81a0f5c282d0fdaeee3e6d137df7f65b,PennController,12,0,test,NULL,PennController,17,_Header_,End,1727860888497,undefined,1028,frown,abstract-negative,abstract,concrete,NULL
1727860958,81a0f5c282d0fdaeee3e6d137df7f65b,PennController,12,0,test,NULL,Selector,unnamed-Selector,Selection,concrete,1727860890027,undefined,1028,frown,abstract-negative,abstract,concrete,concrete;abstract
1727860958,81a0f5c282d0fdaeee3e6d137df7f65b,PennController,12,0,test,NULL,PennController,17,_Trial_,End,1727860890028,undefined,1028,frown,abstract-negative,abstract,concrete,NULL
1727860958,81a0f5c282d0fdaeee3e6d137df7f65b,PennController,26,0,test,NULL,PennController,31,_Trial_,Start,1727860890029,undefined,1630,befall,concrete-negative,abstract,concrete,NULL
1727860958,81a0f5c282d0fdaeee3e6d137df7f65b,PennController,26,0,test,NULL,PennController,31,_Header_,Start,1727860890029,undefined,1630,befall,concrete-negative,abstract,concrete,NULL
1727860958,81a0f5c282d0fdaeee3e6d137df7f65b,PennController,26,0,test,NULL,PennController,31,_Header_,End,1727860890279,undefined,1630,befall,concrete-negative,abstract,concrete,NULL
1727860958,81a0f5c282d0fdaeee3e6d137df7f65b,PennController,26,0,test,NULL,Selector,unnamed-Selector,Selection,concrete,1727860892415,undefined,1630,befall,concrete-negative,abstract,concrete,concrete;abstract
1727860958,81a0f5c282d0fdaeee3e6d137df7f65b,PennController,26,0,test,NULL,PennController,31,_Trial_,End,1727860892416,undefined,1630,befall,concrete-negative,abstract,concrete,NULL
1727860958,81a0f5c282d0fdaeee3e6d137df7f65b,PennController,41,0,test,NULL,PennController,46,_Trial_,Start,1727860892417,undefined,953,improve,concrete-positive,abstract,concrete,NULL
1727860958,81a0f5c282d0fdaeee3e6d137df7f65b,PennController,41,0,test,NULL,PennController,46,_Header_,Start,1727860892417,undefined,953,improve,concrete-positive,abstract,concrete,NULL
1727860958,81a0f5c282d0fdaeee3e6d137df7f65b,PennController,41,0,test,NULL,PennController,46,_Header_,End,1727860892667,undefined,953,improve,concrete-positive,abstract,concrete,NULL
1727860958,81a0f5c282d0fdaeee3e6d137df7f65b,PennController,41,0,test,NULL,Selector,unnamed-Selector,Selection,concrete,1727860894121,undefined,953,improve,concrete-positive,abstract,concrete,concrete;abstract
1727860958,81a0f5c282d0fdaeee3e6d137df7f65b,PennController,41,0,test,NULL,PennController,46,_Trial_,End,1727860894122,undefined,953,improve,concrete-positive,abstract,concrete,NULL
1727860958,81a0f5c282d0fdaeee3e6d137df7f65b,PennController,28,0,test,NULL,PennController,33,_Trial_,Start,1727860894123,undefined,2018,exploit,concrete-negative,abstract,concrete,NULL
1727860958,81a0f5c282d0fdaeee3e6d137df7f65b,PennController,28,0,test,NULL,PennController,33,_Header_,Start,1727860894123,undefined,2018,exploit,concrete-negative,abstract,concrete,NULL
1727860958,81a0f5c282d0fdaeee3e6d137df7f65b,PennController,28,0,test,NULL,PennController,33,_Header_,End,1727860894374,undefined,2018,exploit,concrete-negative,abstract,concrete,NULL
1727860958,81a0f5c282d0fdaeee3e6d137df7f65b,PennController,28,0,test,NULL,Selector,unnamed-Selector,Selection,concrete,1727860896894,undefined,2018,exploit,concrete-negative,abstract,concrete,concrete;abstract
1727860958,81a0f5c282d0fdaeee3e6d137df7f65b,PennController,28,0,test,NULL,PennController,33,_Trial_,End,1727860896895,undefined,2018,exploit,concrete-negative,abstract,concrete,NULL
1727860958,81a0f5c282d0fdaeee3e6d137df7f65b,PennController,10,0,test,NULL,PennController,15,_Trial_,Start,1727860896896,undefined,1858,crushed,abstract-negative,abstract,concrete,NULL
1727860958,81a0f5c282d0fdaeee3e6d137df7f65b,PennController,10,0,test,NULL,PennController,15,_Header_,Start,1727860896896,undefined,1858,crushed,abstract-negative,abstract,concrete,NULL
1727860958,81a0f5c282d0fdaeee3e6d137df7f65b,PennController,10,0,test,NULL,PennController,15,_Header_,End,1727860897148,undefined,1858,crushed,abstract-negative,abstract,concrete,NULL
1727860958,81a0f5c282d0fdaeee3e6d137df7f65b,PennController,10,0,test,NULL,Selector,unnamed-Selector,Selection,abstract,1727860899508,undefined,1858,crushed,abstract-negative,abstract,concrete,concrete;abstract
1727860958,81a0f5c282d0fdaeee3e6d137df7f65b,PennController,10,0,test,NULL,PennController,15,_Trial_,End,1727860899509,undefined,1858,crushed,abstract-negative,abstract,concrete,NULL
1727860958,81a0f5c282d0fdaeee3e6d137df7f65b,PennController,37,0,test,NULL,PennController,42,_Trial_,Start,1727860899510,undefined,2523,specialize,concrete-positive,abstract,concrete,NULL
1727860958,81a0f5c282d0fdaeee3e6d137df7f65b,PennController,37,0,test,NULL,PennController,42,_Header_,Start,1727860899510,undefined,2523,specialize,concrete-positive,abstract,concrete,NULL
1727860958,81a0f5c282d0fdaeee3e6d137df7f65b,PennController,37,0,test,NULL,PennController,42,_Header_,End,1727860899762,undefined,2523,specialize,concrete-positive,abstract,concrete,NULL
1727860958,81a0f5c282d0fdaeee3e6d137df7f65b,PennController,37,0,test,NULL,Selector,unnamed-Selector,Selection,abstract,1727860902788,undefined,2523,specialize,concrete-positive,abstract,concrete,concrete;abstract
1727860958,81a0f5c282d0fdaeee3e6d137df7f65b,PennController,37,0,test,NULL,PennController,42,_Trial_,End,1727860902789,undefined,2523,specialize,concrete-positive,abstract,concrete,NULL
1727860958,81a0f5c282d0fdaeee3e6d137df7f65b,PennController,18,0,test,NULL,PennController,23,_Trial_,Start,1727860902790,undefined,745,breathe,abstract-positive,abstract,concrete,NULL
1727860958,81a0f5c282d0fdaeee3e6d137df7f65b,PennController,18,0,test,NULL,PennController,23,_Header_,Start,1727860902790,undefined,745,breathe,abstract-positive,abstract,concrete,NULL
1727860958,81a0f5c282d0fdaeee3e6d137df7f65b,PennController,18,0,test,NULL,PennController,23,_Header_,End,1727860903040,undefined,745,breathe,abstract-positive,abstract,concrete,NULL
1727860958,81a0f5c282d0fdaeee3e6d137df7f65b,PennController,18,0,test,NULL,Selector,unnamed-Selector,Selection,concrete,1727860904287,undefined,745,breathe,abstract-positive,abstract,concrete,concrete;abstract
1727860958,81a0f5c282d0fdaeee3e6d137df7f65b,PennController,18,0,test,NULL,PennController,23,_Trial_,End,1727860904288,undefined,745,breathe,abstract-positive,abstract,concrete,NULL
1727860958,81a0f5c282d0fdaeee3e6d137df7f65b,PennController,38,0,test,NULL,PennController,43,_Trial_,Start,1727860904289,undefined,1988,behold,concrete-positive,abstract,concrete,NULL
1727860958,81a0f5c282d0fdaeee3e6d137df7f65b,PennController,38,0,test,NULL,PennController,43,_Header_,Start,1727860904289,undefined,1988,behold,concrete-positive,abstract,concrete,NULL
1727860958,81a0f5c282d0fdaeee3e6d137df7f65b,PennController,38,0,test,NULL,PennController,43,_Header_,End,1727860904539,undefined,1988,behold,concrete-positive,abstract,concrete,NULL
1727860958,81a0f5c282d0fdaeee3e6d137df7f65b,PennController,38,0,test,NULL,Selector,unnamed-Selector,Selection,concrete,1727860907031,undefined,1988,behold,concrete-positive,abstract,concrete,concrete;abstract
1727860958,81a0f5c282d0fdaeee3e6d137df7f65b,PennController,38,0,test,NULL,PennController,43,_Trial_,End,1727860907032,undefined,1988,behold,concrete-positive,abstract,concrete,NULL
1727860958,81a0f5c282d0fdaeee3e6d137df7f65b,PennController,7,0,test,NULL,PennController,12,_Trial_,Start,1727860907033,undefined,1583,fall,abstract-negative,abstract,concrete,NULL
1727860958,81a0f5c282d0fdaeee3e6d137df7f65b,PennController,7,0,test,NULL,PennController,12,_Header_,Start,1727860907033,undefined,1583,fall,abstract-negative,abstract,concrete,NULL
1727860958,81a0f5c282d0fdaeee3e6d137df7f65b,PennController,7,0,test,NULL,PennController,12,_Header_,End,1727860907284,undefined,1583,fall,abstract-negative,abstract,concrete,NULL
1727860958,81a0f5c282d0fdaeee3e6d137df7f65b,PennController,7,0,test,NULL,Selector,unnamed-Selector,Selection,concrete,1727860909368,undefined,1583,fall,abstract-negative,abstract,concrete,concrete;abstract
1727860958,81a0f5c282d0fdaeee3e6d137df7f65b,PennController,7,0,test,NULL,PennController,12,_Trial_,End,1727860909369,undefined,1583,fall,abstract-negative,abstract,concrete,NULL
1727860958,81a0f5c282d0fdaeee3e6d137df7f65b,PennController,16,0,test,NULL,PennController,21,_Trial_,Start,1727860909370,undefined,1322,lick,abstract-positive,abstract,concrete,NULL
1727860958,81a0f5c282d0fdaeee3e6d137df7f65b,PennController,16,0,test,NULL,PennController,21,_Header_,Start,1727860909370,undefined,1322,lick,abstract-positive,abstract,concrete,NULL
1727860958,81a0f5c282d0fdaeee3e6d137df7f65b,PennController,16,0,test,NULL,PennController,21,_Header_,End,1727860909623,undefined,1322,lick,abstract-positive,abstract,concrete,NULL
1727860958,81a0f5c282d0fdaeee3e6d137df7f65b,PennController,16,0,test,NULL,Selector,unnamed-Selector,Selection,concrete,1727860911448,undefined,1322,lick,abstract-positive,abstract,concrete,concrete;abstract
1727860958,81a0f5c282d0fdaeee3e6d137df7f65b,PennController,16,0,test,NULL,PennController,21,_Trial_,End,1727860911449,undefined,1322,lick,abstract-positive,abstract,concrete,NULL
1727860958,81a0f5c282d0fdaeee3e6d137df7f65b,PennController,5,0,test,NULL,PennController,10,_Trial_,Start,1727860911450,undefined,1197,snore,abstract-negative,abstract,concrete,NULL
1727860958,81a0f5c282d0fdaeee3e6d137df7f65b,PennController,5,0,test,NULL,PennController,10,_Header_,Start,1727860911450,undefined,1197,snore,abstract-negative,abstract,concrete,NULL
1727860958,81a0f5c282d0fdaeee3e6d137df7f65b,PennController,5,0,test,NULL,PennController,10,_Header_,End,1727860911700,undefined,1197,snore,abstract-negative,abstract,concrete,NULL
1727860958,81a0f5c282d0fdaeee3e6d137df7f65b,PennController,5,0,test,NULL,Selector,unnamed-Selector,Selection,concrete,1727860913400,undefined,1197,snore,abstract-negative,abstract,concrete,concrete;abstract
1727860958,81a0f5c282d0fdaeee3e6d137df7f65b,PennController,5,0,test,NULL,PennController,10,_Trial_,End,1727860913401,undefined,1197,snore,abstract-negative,abstract,concrete,NULL
1727860958,81a0f5c282d0fdaeee3e6d137df7f65b,PennController,30,0,test,NULL,PennController,35,_Trial_,Start,1727860913402,undefined,2273,envy,concrete-negative,abstract,concrete,NULL
1727860958,81a0f5c282d0fdaeee3e6d137df7f65b,PennController,30,0,test,NULL,PennController,35,_Header_,Start,1727860913402,undefined,2273,envy,concrete-negative,abstract,concrete,NULL
1727860958,81a0f5c282d0fdaeee3e6d137df7f65b,PennController,30,0,test,NULL,PennController,35,_Header_,End,1727860913654,undefined,2273,envy,concrete-negative,abstract,concrete,NULL
1727860958,81a0f5c282d0fdaeee3e6d137df7f65b,PennController,30,0,test,NULL,Selector,unnamed-Selector,Selection,concrete,1727860916432,undefined,2273,envy,concrete-negative,abstract,concrete,concrete;abstract
1727860958,81a0f5c282d0fdaeee3e6d137df7f65b,PennController,30,0,test,NULL,PennController,35,_Trial_,End,1727860916432,undefined,2273,envy,concrete-negative,abstract,concrete,NULL
1727860958,81a0f5c282d0fdaeee3e6d137df7f65b,PennController,31,0,test,NULL,PennController,36,_Trial_,Start,1727860916433,undefined,1122,presume,concrete-negative,abstract,concrete,NULL
1727860958,81a0f5c282d0fdaeee3e6d137df7f65b,PennController,31,0,test,NULL,PennController,36,_Header_,Start,1727860916433,undefined,1122,presume,concrete-negative,abstract,concrete,NULL
1727860958,81a0f5c282d0fdaeee3e6d137df7f65b,PennController,31,0,test,NULL,PennController,36,_Header_,End,1727860916683,undefined,1122,presume,concrete-negative,abstract,concrete,NULL
1727860958,81a0f5c282d0fdaeee3e6d137df7f65b,PennController,31,0,test,NULL,Selector,unnamed-Selector,Selection,concrete,1727860918310,undefined,1122,presume,concrete-negative,abstract,concrete,concrete;abstract
1727860958,81a0f5c282d0fdaeee3e6d137df7f65b,PennController,31,0,test,NULL,PennController,36,_Trial_,End,1727860918311,undefined,1122,presume,concrete-negative,abstract,concrete,NULL
1727860958,81a0f5c282d0fdaeee3e6d137df7f65b,PennController,23,0,test,NULL,PennController,28,_Trial_,Start,1727860918312,undefined,1526,sing,abstract-positive,abstract,concrete,NULL
1727860958,81a0f5c282d0fdaeee3e6d137df7f65b,PennController,23,0,test,NULL,PennController,28,_Header_,Start,1727860918312,undefined,1526,sing,abstract-positive,abstract,concrete,NULL
1727860958,81a0f5c282d0fdaeee3e6d137df7f65b,PennController,23,0,test,NULL,PennController,28,_Header_,End,1727860918562,undefined,1526,sing,abstract-positive,abstract,concrete,NULL
1727860958,81a0f5c282d0fdaeee3e6d137df7f65b,PennController,23,0,test,NULL,Selector,unnamed-Selector,Selection,concrete,1727860920590,undefined,1526,sing,abstract-positive,abstract,concrete,concrete;abstract
1727860958,81a0f5c282d0fdaeee3e6d137df7f65b,PennController,23,0,test,NULL,PennController,28,_Trial_,End,1727860920591,undefined,1526,sing,abstract-positive,abstract,concrete,NULL
# 13. NativeLang.
# 14. OtherLangs.
# 15. Gender.
# 16. Education.
# 17. Comments.
# 18. Comments.
1727860958,81a0f5c282d0fdaeee3e6d137df7f65b,PennController,56,0,demo,NULL,PennController,4,_Trial_,Start,1727860920592,english,spanish,undefined,undefined,undefined,NULL
1727860958,81a0f5c282d0fdaeee3e6d137df7f65b,PennController,56,0,demo,NULL,PennController,4,_Header_,Start,1727860920592,english,spanish,undefined,undefined,undefined,NULL
1727860958,81a0f5c282d0fdaeee3e6d137df7f65b,PennController,56,0,demo,NULL,PennController,4,_Header_,End,1727860920843,english,spanish,undefined,undefined,undefined,NULL
1727860958,81a0f5c282d0fdaeee3e6d137df7f65b,PennController,56,0,demo,NULL,TextInput,Gender,First,,1727860924627,english,spanish,undefined,undefined,undefined,M
1727860958,81a0f5c282d0fdaeee3e6d137df7f65b,PennController,56,0,demo,NULL,TextInput,Education,First,,1727860932428,english,spanish,undefined,undefined,undefined,CapsLock
1727860958,81a0f5c282d0fdaeee3e6d137df7f65b,PennController,56,0,demo,NULL,TextInput,NativeLang,First,,1727860939165,english,spanish,undefined,undefined,undefined,e
1727860958,81a0f5c282d0fdaeee3e6d137df7f65b,PennController,56,0,demo,NULL,TextInput,Gender,Final,MALE,1727860958246,english,spanish,undefined,undefined,undefined,NULL
1727860958,81a0f5c282d0fdaeee3e6d137df7f65b,PennController,56,0,demo,NULL,TextInput,Education,Final,some college,1727860958246,english,spanish,undefined,undefined,undefined,NULL
1727860958,81a0f5c282d0fdaeee3e6d137df7f65b,PennController,56,0,demo,NULL,TextInput,NativeLang,Final,english,1727860958246,english,spanish,undefined,undefined,undefined,NULL
1727860958,81a0f5c282d0fdaeee3e6d137df7f65b,PennController,56,0,demo,NULL,PennController,4,_Trial_,End,1727860958246,english,spanish,undefined,undefined,undefined,NULL
#
# Results on Wed, 02 Oct 2024 09:26:51 GMT
# USER AGENT: Mozilla/5.0 (Windows NT 10.0; Win64; x64) AppleWebKit/537.36 (KHTML, like Gecko) Chrome/123.0.0.0 Safari/537.36
# Design number was non-random = 0
#
# Columns below this comment are as follows:
# 1. Results reception time.
# 2. MD5 hash of participant's IP address.
# 3. Controller name.
# 4. Order number of item.
# 5. Inner element number.
# 6. Label.
# 7. Latin Square Group.
# 8. PennElementType.
# 9. PennElementName.
# 10. Parameter.
# 11. Value.
# 12. EventTime.
# 13. Comments.
1727861211,a2e9d3a3e41bc1398a1becbcaab3cd8f,PennController,1,0,welcome,NULL,PennController,0,_Trial_,Start,1727860935735,NULL
1727861211,a2e9d3a3e41bc1398a1becbcaab3cd8f,PennController,1,0,welcome,NULL,PennController,0,_Header_,Start,1727860935735,NULL
1727861211,a2e9d3a3e41bc1398a1becbcaab3cd8f,PennController,1,0,welcome,NULL,PennController,0,_Header_,End,1727860935986,NULL
1727861211,a2e9d3a3e41bc1398a1becbcaab3cd8f,PennController,1,0,welcome,NULL,PennController,0,_Trial_,End,1727860967720,NULL
# 13. ID.
# 14. Comments.
1727861211,a2e9d3a3e41bc1398a1becbcaab3cd8f,PennController,55,0,consent,NULL,PennController,3,_Trial_,Start,1727860967724,59c9c8da5535800001a8e434,NULL
1727861211,a2e9d3a3e41bc1398a1becbcaab3cd8f,PennController,55,0,consent,NULL,PennController,3,_Header_,Start,1727860967724,59c9c8da5535800001a8e434,NULL
1727861211,a2e9d3a3e41bc1398a1becbcaab3cd8f,PennController,55,0,consent,NULL,PennController,3,_Header_,End,1727860967975,59c9c8da5535800001a8e434,NULL
1727861211,a2e9d3a3e41bc1398a1becbcaab3cd8f,PennController,55,0,consent,NULL,TextInput,ID,First,,1727860972156,59c9c8da5535800001a8e434,Meta
1727861211,a2e9d3a3e41bc1398a1becbcaab3cd8f,PennController,55,0,consent,NULL,TextInput,ID,Final,59c9c8da5535800001a8e434,1727861000890,59c9c8da5535800001a8e434,NULL
1727861211,a2e9d3a3e41bc1398a1becbcaab3cd8f,PennController,55,0,consent,NULL,PennController,3,_Trial_,End,1727861000890,59c9c8da5535800001a8e434,NULL
# 13. Comments.
1727861211,a2e9d3a3e41bc1398a1becbcaab3cd8f,PennController,57,0,instructions1,NULL,PennController,5,_Trial_,Start,1727861000892,NULL
1727861211,a2e9d3a3e41bc1398a1becbcaab3cd8f,PennController,57,0,instructions1,NULL,PennController,5,_Header_,Start,1727861000892,NULL
1727861211,a2e9d3a3e41bc1398a1becbcaab3cd8f,PennController,57,0,instructions1,NULL,PennController,5,_Header_,End,1727861001143,NULL
1727861211,a2e9d3a3e41bc1398a1becbcaab3cd8f,PennController,57,0,instructions1,NULL,PennController,5,_Trial_,End,1727861030459,NULL
1727861211,a2e9d3a3e41bc1398a1becbcaab3cd8f,PennController,58,0,instructions2,NULL,PennController,6,_Trial_,Start,1727861030461,NULL
1727861211,a2e9d3a3e41bc1398a1becbcaab3cd8f,PennController,58,0,instructions2,NULL,PennController,6,_Header_,Start,1727861030461,NULL
1727861211,a2e9d3a3e41bc1398a1becbcaab3cd8f,PennController,58,0,instructions2,NULL,PennController,6,_Header_,End,1727861030713,NULL
1727861211,a2e9d3a3e41bc1398a1becbcaab3cd8f,PennController,58,0,instructions2,NULL,PennController,6,_Trial_,End,1727861065166,NULL
1727861211,a2e9d3a3e41bc1398a1becbcaab3cd8f,PennController,59,0,instructions3,NULL,PennController,7,_Trial_,Start,1727861065167,NULL
1727861211,a2e9d3a3e41bc1398a1becbcaab3cd8f,PennController,59,0,instructions3,NULL,PennController,7,_Header_,Start,1727861065167,NULL
1727861211,a2e9d3a3e41bc1398a1becbcaab3cd8f,PennController,59,0,instructions3,NULL,PennController,7,_Header_,End,1727861065418,NULL
1727861211,a2e9d3a3e41bc1398a1becbcaab3cd8f,PennController,59,0,instructions3,NULL,PennController,7,_Trial_,End,1727861075784,NULL
1727861211,a2e9d3a3e41bc1398a1becbcaab3cd8f,PennController,44,0,practice_intro,NULL,PennController,2,_Trial_,Start,1727861075785,NULL
1727861211,a2e9d3a3e41bc1398a1becbcaab3cd8f,PennController,44,0,practice_intro,NULL,PennController,2,_Header_,Start,1727861075785,NULL
1727861211,a2e9d3a3e41bc1398a1becbcaab3cd8f,PennController,44,0,practice_intro,NULL,PennController,2,_Header_,End,1727861076038,NULL
1727861211,a2e9d3a3e41bc1398a1becbcaab3cd8f,PennController,44,0,practice_intro,NULL,PennController,2,_Trial_,End,1727861077608,NULL
# 13. ID.
# 14. ReactionTime.
# 15. Word.
# 16. Key_value_F.
# 17. Key_value_J.
# 18. Group.
# 19. Comments.
1727861211,a2e9d3a3e41bc1398a1becbcaab3cd8f,PennController,45,0,calibrator,NULL,PennController,49,_Trial_,Start,1727861077610,undefined,1823,shirt,abstract,concrete,A,NULL
1727861211,a2e9d3a3e41bc1398a1becbcaab3cd8f,PennController,45,0,calibrator,NULL,PennController,49,_Header_,Start,1727861077610,undefined,1823,shirt,abstract,concrete,A,NULL
1727861211,a2e9d3a3e41bc1398a1becbcaab3cd8f,PennController,45,0,calibrator,NULL,PennController,49,_Header_,End,1727861077861,undefined,1823,shirt,abstract,concrete,A,NULL
1727861211,a2e9d3a3e41bc1398a1becbcaab3cd8f,PennController,45,0,calibrator,NULL,Selector,unnamed-Selector,Selection,concrete,1727861080190,undefined,1823,shirt,abstract,concrete,A,abstract;concrete
1727861211,a2e9d3a3e41bc1398a1becbcaab3cd8f,PennController,45,0,calibrator,NULL,PennController,49,_Trial_,End,1727861080192,undefined,1823,shirt,abstract,concrete,A,NULL
1727861211,a2e9d3a3e41bc1398a1becbcaab3cd8f,PennController,46,0,calibrator,NULL,PennController,50,_Trial_,Start,1727861080193,undefined,1138,infinity,abstract,concrete,A,NULL
1727861211,a2e9d3a3e41bc1398a1becbcaab3cd8f,PennController,46,0,calibrator,NULL,PennController,50,_Header_,Start,1727861080193,undefined,1138,infinity,abstract,concrete,A,NULL
1727861211,a2e9d3a3e41bc1398a1becbcaab3cd8f,PennController,46,0,calibrator,NULL,PennController,50,_Header_,End,1727861080445,undefined,1138,infinity,abstract,concrete,A,NULL
1727861211,a2e9d3a3e41bc1398a1becbcaab3cd8f,PennController,46,0,calibrator,NULL,Selector,unnamed-Selector,Selection,abstract,1727861082090,undefined,1138,infinity,abstract,concrete,A,abstract;concrete
1727861211,a2e9d3a3e41bc1398a1becbcaab3cd8f,PennController,46,0,calibrator,NULL,PennController,50,_Trial_,End,1727861082092,undefined,1138,infinity,abstract,concrete,A,NULL
1727861211,a2e9d3a3e41bc1398a1becbcaab3cd8f,PennController,53,0,calibrator,NULL,PennController,57,_Trial_,Start,1727861082093,undefined,949,theory,abstract,concrete,A,NULL
1727861211,a2e9d3a3e41bc1398a1becbcaab3cd8f,PennController,53,0,calibrator,NULL,PennController,57,_Header_,Start,1727861082093,undefined,949,theory,abstract,concrete,A,NULL
1727861211,a2e9d3a3e41bc1398a1becbcaab3cd8f,PennController,53,0,calibrator,NULL,PennController,57,_Header_,End,1727861082345,undefined,949,theory,abstract,concrete,A,NULL
1727861211,a2e9d3a3e41bc1398a1becbcaab3cd8f,PennController,53,0,calibrator,NULL,Selector,unnamed-Selector,Selection,abstract,1727861083799,undefined,949,theory,abstract,concrete,A,abstract;concrete
1727861211,a2e9d3a3e41bc1398a1becbcaab3cd8f,PennController,53,0,calibrator,NULL,PennController,57,_Trial_,End,1727861083800,undefined,949,theory,abstract,concrete,A,NULL
1727861211,a2e9d3a3e41bc1398a1becbcaab3cd8f,PennController,48,0,calibrator,NULL,PennController,52,_Trial_,Start,1727861083801,undefined,731,grasshopper,abstract,concrete,A,NULL
1727861211,a2e9d3a3e41bc1398a1becbcaab3cd8f,PennController,48,0,calibrator,NULL,PennController,52,_Header_,Start,1727861083801,undefined,731,grasshopper,abstract,concrete,A,NULL
1727861211,a2e9d3a3e41bc1398a1becbcaab3cd8f,PennController,48,0,calibrator,NULL,PennController,52,_Header_,End,1727861084054,undefined,731,grasshopper,abstract,concrete,A,NULL
1727861211,a2e9d3a3e41bc1398a1becbcaab3cd8f,PennController,48,0,calibrator,NULL,Selector,unnamed-Selector,Selection,concrete,1727861085291,undefined,731,grasshopper,abstract,concrete,A,abstract;concrete
1727861211,a2e9d3a3e41bc1398a1becbcaab3cd8f,PennController,48,0,calibrator,NULL,PennController,52,_Trial_,End,1727861085291,undefined,731,grasshopper,abstract,concrete,A,NULL
1727861211,a2e9d3a3e41bc1398a1becbcaab3cd8f,PennController,54,0,calibrator,NULL,PennController,58,_Trial_,Start,1727861085292,undefined,960,sugar,abstract,concrete,A,NULL
1727861211,a2e9d3a3e41bc1398a1becbcaab3cd8f,PennController,54,0,calibrator,NULL,PennController,58,_Header_,Start,1727861085292,undefined,960,sugar,abstract,concrete,A,NULL
1727861211,a2e9d3a3e41bc1398a1becbcaab3cd8f,PennController,54,0,calibrator,NULL,PennController,58,_Header_,End,1727861085545,undefined,960,sugar,abstract,concrete,A,NULL
1727861211,a2e9d3a3e41bc1398a1becbcaab3cd8f,PennController,54,0,calibrator,NULL,Selector,unnamed-Selector,Selection,concrete,1727861087010,undefined,960,sugar,abstract,concrete,A,abstract;concrete
1727861211,a2e9d3a3e41bc1398a1becbcaab3cd8f,PennController,54,0,calibrator,NULL,PennController,58,_Trial_,End,1727861087011,undefined,960,sugar,abstract,concrete,A,NULL
1727861211,a2e9d3a3e41bc1398a1becbcaab3cd8f,PennController,52,0,calibrator,NULL,PennController,56,_Trial_,Start,1727861087012,undefined,1448,whistle,abstract,concrete,A,NULL
1727861211,a2e9d3a3e41bc1398a1becbcaab3cd8f,PennController,52,0,calibrator,NULL,PennController,56,_Header_,Start,1727861087012,undefined,1448,whistle,abstract,concrete,A,NULL
1727861211,a2e9d3a3e41bc1398a1becbcaab3cd8f,PennController,52,0,calibrator,NULL,PennController,56,_Header_,End,1727861087266,undefined,1448,whistle,abstract,concrete,A,NULL
1727861211,a2e9d3a3e41bc1398a1becbcaab3cd8f,PennController,52,0,calibrator,NULL,Selector,unnamed-Selector,Selection,abstract,1727861089217,undefined,1448,whistle,abstract,concrete,A,abstract;concrete
1727861211,a2e9d3a3e41bc1398a1becbcaab3cd8f,PennController,52,0,calibrator,NULL,PennController,56,_Trial_,End,1727861089219,undefined,1448,whistle,abstract,concrete,A,NULL
1727861211,a2e9d3a3e41bc1398a1becbcaab3cd8f,PennController,49,0,calibrator,NULL,PennController,53,_Trial_,Start,1727861089220,undefined,1946,marriage,abstract,concrete,A,NULL
1727861211,a2e9d3a3e41bc1398a1becbcaab3cd8f,PennController,49,0,calibrator,NULL,PennController,53,_Header_,Start,1727861089220,undefined,1946,marriage,abstract,concrete,A,NULL
1727861211,a2e9d3a3e41bc1398a1becbcaab3cd8f,PennController,49,0,calibrator,NULL,PennController,53,_Header_,End,1727861089472,undefined,1946,marriage,abstract,concrete,A,NULL
1727861211,a2e9d3a3e41bc1398a1becbcaab3cd8f,PennController,49,0,calibrator,NULL,Selector,unnamed-Selector,Selection,abstract,1727861091922,undefined,1946,marriage,abstract,concrete,A,abstract;concrete
1727861211,a2e9d3a3e41bc1398a1becbcaab3cd8f,PennController,49,0,calibrator,NULL,PennController,53,_Trial_,End,1727861091923,undefined,1946,marriage,abstract,concrete,A,NULL
1727861211,a2e9d3a3e41bc1398a1becbcaab3cd8f,PennController,47,0,calibrator,NULL,PennController,51,_Trial_,Start,1727861091923,undefined,1073,gas,abstract,concrete,A,NULL
1727861211,a2e9d3a3e41bc1398a1becbcaab3cd8f,PennController,47,0,calibrator,NULL,PennController,51,_Header_,Start,1727861091923,undefined,1073,gas,abstract,concrete,A,NULL
1727861211,a2e9d3a3e41bc1398a1becbcaab3cd8f,PennController,47,0,calibrator,NULL,PennController,51,_Header_,End,1727861092177,undefined,1073,gas,abstract,concrete,A,NULL
1727861211,a2e9d3a3e41bc1398a1becbcaab3cd8f,PennController,47,0,calibrator,NULL,Selector,unnamed-Selector,Selection,concrete,1727861093756,undefined,1073,gas,abstract,concrete,A,abstract;concrete
1727861211,a2e9d3a3e41bc1398a1becbcaab3cd8f,PennController,47,0,calibrator,NULL,PennController,51,_Trial_,End,1727861093757,undefined,1073,gas,abstract,concrete,A,NULL
1727861211,a2e9d3a3e41bc1398a1becbcaab3cd8f,PennController,50,0,calibrator,NULL,PennController,54,_Trial_,Start,1727861093758,undefined,1748,kick,abstract,concrete,A,NULL
1727861211,a2e9d3a3e41bc1398a1becbcaab3cd8f,PennController,50,0,calibrator,NULL,PennController,54,_Header_,Start,1727861093758,undefined,1748,kick,abstract,concrete,A,NULL
1727861211,a2e9d3a3e41bc1398a1becbcaab3cd8f,PennController,50,0,calibrator,NULL,PennController,54,_Header_,End,1727861094009,undefined,1748,kick,abstract,concrete,A,NULL
1727861211,a2e9d3a3e41bc1398a1becbcaab3cd8f,PennController,50,0,calibrator,NULL,Selector,unnamed-Selector,Selection,abstract,1727861096261,undefined,1748,kick,abstract,concrete,A,abstract;concrete
1727861211,a2e9d3a3e41bc1398a1becbcaab3cd8f,PennController,50,0,calibrator,NULL,PennController,54,_Trial_,End,1727861096263,undefined,1748,kick,abstract,concrete,A,NULL
1727861211,a2e9d3a3e41bc1398a1becbcaab3cd8f,PennController,51,0,calibrator,NULL,PennController,55,_Trial_,Start,1727861096264,undefined,1059,polite,abstract,concrete,A,NULL
1727861211,a2e9d3a3e41bc1398a1becbcaab3cd8f,PennController,51,0,calibrator,NULL,PennController,55,_Header_,Start,1727861096264,undefined,1059,polite,abstract,concrete,A,NULL
1727861211,a2e9d3a3e41bc1398a1becbcaab3cd8f,PennController,51,0,calibrator,NULL,PennController,55,_Header_,End,1727861096516,undefined,1059,polite,abstract,concrete,A,NULL
1727861211,a2e9d3a3e41bc1398a1becbcaab3cd8f,PennController,51,0,calibrator,NULL,Selector,unnamed-Selector,Selection,abstract,1727861098082,undefined,1059,polite,abstract,concrete,A,abstract;concrete
1727861211,a2e9d3a3e41bc1398a1becbcaab3cd8f,PennController,51,0,calibrator,NULL,PennController,55,_Trial_,End,1727861098083,undefined,1059,polite,abstract,concrete,A,NULL
# 13. Comments.
1727861211,a2e9d3a3e41bc1398a1becbcaab3cd8f,PennController,60,0,endinstructions,NULL,PennController,8,_Trial_,Start,1727861098084,NULL
1727861211,a2e9d3a3e41bc1398a1becbcaab3cd8f,PennController,60,0,endinstructions,NULL,PennController,8,_Header_,Start,1727861098084,NULL
1727861211,a2e9d3a3e41bc1398a1becbcaab3cd8f,PennController,60,0,endinstructions,NULL,PennController,8,_Header_,End,1727861098338,NULL
1727861211,a2e9d3a3e41bc1398a1becbcaab3cd8f,PennController,60,0,endinstructions,NULL,PennController,8,_Trial_,End,1727861104174,NULL
# 13. ID.
# 14. ReactionTime.
# 15. Word.
# 16. ConcValCombo.
# 17. Key_value_F.
# 18. Key_value_J.
# 19. Comments.
1727861211,a2e9d3a3e41bc1398a1becbcaab3cd8f,PennController,25,0,test,NULL,PennController,30,_Trial_,Start,1727861104175,undefined,1324,discourage,concrete-negative,abstract,concrete,NULL
1727861211,a2e9d3a3e41bc1398a1becbcaab3cd8f,PennController,25,0,test,NULL,PennController,30,_Header_,Start,1727861104175,undefined,1324,discourage,concrete-negative,abstract,concrete,NULL
1727861211,a2e9d3a3e41bc1398a1becbcaab3cd8f,PennController,25,0,test,NULL,PennController,30,_Header_,End,1727861104426,undefined,1324,discourage,concrete-negative,abstract,concrete,NULL
1727861211,a2e9d3a3e41bc1398a1becbcaab3cd8f,PennController,25,0,test,NULL,Selector,unnamed-Selector,Selection,concrete,1727861106261,undefined,1324,discourage,concrete-negative,abstract,concrete,concrete;abstract
1727861211,a2e9d3a3e41bc1398a1becbcaab3cd8f,PennController,25,0,test,NULL,PennController,30,_Trial_,End,1727861106263,undefined,1324,discourage,concrete-negative,abstract,concrete,NULL
1727861211,a2e9d3a3e41bc1398a1becbcaab3cd8f,PennController,28,0,test,NULL,PennController,33,_Trial_,Start,1727861106264,undefined,1012,exploit,concrete-negative,abstract,concrete,NULL
1727861211,a2e9d3a3e41bc1398a1becbcaab3cd8f,PennController,28,0,test,NULL,PennController,33,_Header_,Start,1727861106264,undefined,1012,exploit,concrete-negative,abstract,concrete,NULL
1727861211,a2e9d3a3e41bc1398a1becbcaab3cd8f,PennController,28,0,test,NULL,PennController,33,_Header_,End,1727861106514,undefined,1012,exploit,concrete-negative,abstract,concrete,NULL
1727861211,a2e9d3a3e41bc1398a1becbcaab3cd8f,PennController,28,0,test,NULL,Selector,unnamed-Selector,Selection,concrete,1727861108031,undefined,1012,exploit,concrete-negative,abstract,concrete,concrete;abstract
1727861211,a2e9d3a3e41bc1398a1becbcaab3cd8f,PennController,28,0,test,NULL,PennController,33,_Trial_,End,1727861108033,undefined,1012,exploit,concrete-negative,abstract,concrete,NULL
1727861211,a2e9d3a3e41bc1398a1becbcaab3cd8f,PennController,10,0,test,NULL,PennController,15,_Trial_,Start,1727861108035,undefined,1042,crushed,abstract-negative,abstract,concrete,NULL
1727861211,a2e9d3a3e41bc1398a1becbcaab3cd8f,PennController,10,0,test,NULL,PennController,15,_Header_,Start,1727861108035,undefined,1042,crushed,abstract-negative,abstract,concrete,NULL
1727861211,a2e9d3a3e41bc1398a1becbcaab3cd8f,PennController,10,0,test,NULL,PennController,15,_Header_,End,1727861108290,undefined,1042,crushed,abstract-negative,abstract,concrete,NULL
1727861211,a2e9d3a3e41bc1398a1becbcaab3cd8f,PennController,10,0,test,NULL,Selector,unnamed-Selector,Selection,concrete,1727861109836,undefined,1042,crushed,abstract-negative,abstract,concrete,concrete;abstract
1727861211,a2e9d3a3e41bc1398a1becbcaab3cd8f,PennController,10,0,test,NULL,PennController,15,_Trial_,End,1727861109838,undefined,1042,crushed,abstract-negative,abstract,concrete,NULL
1727861211,a2e9d3a3e41bc1398a1becbcaab3cd8f,PennController,42,0,test,NULL,PennController,47,_Trial_,Start,1727861109839,undefined,754,wish,concrete-positive,abstract,concrete,NULL
1727861211,a2e9d3a3e41bc1398a1becbcaab3cd8f,PennController,42,0,test,NULL,PennController,47,_Header_,Start,1727861109839,undefined,754,wish,concrete-positive,abstract,concrete,NULL
1727861211,a2e9d3a3e41bc1398a1becbcaab3cd8f,PennController,42,0,test,NULL,PennController,47,_Header_,End,1727861110089,undefined,754,wish,concrete-positive,abstract,concrete,NULL
1727861211,a2e9d3a3e41bc1398a1becbcaab3cd8f,PennController,42,0,test,NULL,Selector,unnamed-Selector,Selection,concrete,1727861111349,undefined,754,wish,concrete-positive,abstract,concrete,concrete;abstract
1727861211,a2e9d3a3e41bc1398a1becbcaab3cd8f,PennController,42,0,test,NULL,PennController,47,_Trial_,End,1727861111351,undefined,754,wish,concrete-positive,abstract,concrete,NULL
1727861211,a2e9d3a3e41bc1398a1becbcaab3cd8f,PennController,36,0,test,NULL,PennController,41,_Trial_,Start,1727861111352,undefined,752,feeling,concrete-positive,abstract,concrete,NULL
1727861211,a2e9d3a3e41bc1398a1becbcaab3cd8f,PennController,36,0,test,NULL,PennController,41,_Header_,Start,1727861111352,undefined,752,feeling,concrete-positive,abstract,concrete,NULL
1727861211,a2e9d3a3e41bc1398a1becbcaab3cd8f,PennController,36,0,test,NULL,PennController,41,_Header_,End,1727861111605,undefined,752,feeling,concrete-positive,abstract,concrete,NULL
1727861211,a2e9d3a3e41bc1398a1becbcaab3cd8f,PennController,36,0,test,NULL,Selector,unnamed-Selector,Selection,concrete,1727861112859,undefined,752,feeling,concrete-positive,abstract,concrete,concrete;abstract
1727861211,a2e9d3a3e41bc1398a1becbcaab3cd8f,PennController,36,0,test,NULL,PennController,41,_Trial_,End,1727861112860,undefined,752,feeling,concrete-positive,abstract,concrete,NULL
1727861211,a2e9d3a3e41bc1398a1becbcaab3cd8f,PennController,14,0,test,NULL,PennController,19,_Trial_,Start,1727861112862,undefined,917,check,abstract-positive,abstract,concrete,NULL
1727861211,a2e9d3a3e41bc1398a1becbcaab3cd8f,PennController,14,0,test,NULL,PennController,19,_Header_,Start,1727861112862,undefined,917,check,abstract-positive,abstract,concrete,NULL
1727861211,a2e9d3a3e41bc1398a1becbcaab3cd8f,PennController,14,0,test,NULL,PennController,19,_Header_,End,1727861113113,undefined,917,check,abstract-positive,abstract,concrete,NULL
1727861211,a2e9d3a3e41bc1398a1becbcaab3cd8f,PennController,14,0,test,NULL,Selector,unnamed-Selector,Selection,abstract,1727861114535,undefined,917,check,abstract-positive,abstract,concrete,concrete;abstract
1727861211,a2e9d3a3e41bc1398a1becbcaab3cd8f,PennController,14,0,test,NULL,PennController,19,_Trial_,End,1727861114536,undefined,917,check,abstract-positive,abstract,concrete,NULL
1727861211,a2e9d3a3e41bc1398a1becbcaab3cd8f,PennController,9,0,test,NULL,PennController,14,_Trial_,Start,1727861114537,undefined,868,drool,abstract-negative,abstract,concrete,NULL
1727861211,a2e9d3a3e41bc1398a1becbcaab3cd8f,PennController,9,0,test,NULL,PennController,14,_Header_,Start,1727861114537,undefined,868,drool,abstract-negative,abstract,concrete,NULL
1727861211,a2e9d3a3e41bc1398a1becbcaab3cd8f,PennController,9,0,test,NULL,PennController,14,_Header_,End,1727861114790,undefined,868,drool,abstract-negative,abstract,concrete,NULL
1727861211,a2e9d3a3e41bc1398a1becbcaab3cd8f,PennController,9,0,test,NULL,Selector,unnamed-Selector,Selection,abstract,1727861116161,undefined,868,drool,abstract-negative,abstract,concrete,concrete;abstract
1727861211,a2e9d3a3e41bc1398a1becbcaab3cd8f,PennController,9,0,test,NULL,PennController,14,_Trial_,End,1727861116163,undefined,868,drool,abstract-negative,abstract,concrete,NULL
1727861211,a2e9d3a3e41bc1398a1becbcaab3cd8f,PennController,24,0,test,NULL,PennController,29,_Trial_,Start,1727861116163,undefined,795,disappoint,concrete-negative,abstract,concrete,NULL
1727861211,a2e9d3a3e41bc1398a1becbcaab3cd8f,PennController,24,0,test,NULL,PennController,29,_Header_,Start,1727861116164,undefined,795,disappoint,concrete-negative,abstract,concrete,NULL
1727861211,a2e9d3a3e41bc1398a1becbcaab3cd8f,PennController,24,0,test,NULL,PennController,29,_Header_,End,1727861116415,undefined,795,disappoint,concrete-negative,abstract,concrete,NULL
1727861211,a2e9d3a3e41bc1398a1becbcaab3cd8f,PennController,24,0,test,NULL,Selector,unnamed-Selector,Selection,concrete,1727861117717,undefined,795,disappoint,concrete-negative,abstract,concrete,concrete;abstract
1727861211,a2e9d3a3e41bc1398a1becbcaab3cd8f,PennController,24,0,test,NULL,PennController,29,_Trial_,End,1727861117718,undefined,795,disappoint,concrete-negative,abstract,concrete,NULL
1727861211,a2e9d3a3e41bc1398a1becbcaab3cd8f,PennController,16,0,test,NULL,PennController,21,_Trial_,Start,1727861117719,undefined,1199,lick,abstract-positive,abstract,concrete,NULL
1727861211,a2e9d3a3e41bc1398a1becbcaab3cd8f,PennController,16,0,test,NULL,PennController,21,_Header_,Start,1727861117719,undefined,1199,lick,abstract-positive,abstract,concrete,NULL
1727861211,a2e9d3a3e41bc1398a1becbcaab3cd8f,PennController,16,0,test,NULL,PennController,21,_Header_,End,1727861117969,undefined,1199,lick,abstract-positive,abstract,concrete,NULL
1727861211,a2e9d3a3e41bc1398a1becbcaab3cd8f,PennController,16,0,test,NULL,Selector,unnamed-Selector,Selection,abstract,1727861119671,undefined,1199,lick,abstract-positive,abstract,concrete,concrete;abstract
1727861211,a2e9d3a3e41bc1398a1becbcaab3cd8f,PennController,16,0,test,NULL,PennController,21,_Trial_,End,1727861119673,undefined,1199,lick,abstract-positive,abstract,concrete,NULL
1727861211,a2e9d3a3e41bc1398a1becbcaab3cd8f,PennController,6,0,test,NULL,PennController,11,_Trial_,Start,1727861119675,undefined,1129,hurl,abstract-negative,abstract,concrete,NULL
1727861211,a2e9d3a3e41bc1398a1becbcaab3cd8f,PennController,6,0,test,NULL,PennController,11,_Header_,Start,1727861119675,undefined,1129,hurl,abstract-negative,abstract,concrete,NULL
1727861211,a2e9d3a3e41bc1398a1becbcaab3cd8f,PennController,6,0,test,NULL,PennController,11,_Header_,End,1727861119928,undefined,1129,hurl,abstract-negative,abstract,concrete,NULL
1727861211,a2e9d3a3e41bc1398a1becbcaab3cd8f,PennController,6,0,test,NULL,Selector,unnamed-Selector,Selection,abstract,1727861121564,undefined,1129,hurl,abstract-negative,abstract,concrete,concrete;abstract
1727861211,a2e9d3a3e41bc1398a1becbcaab3cd8f,PennController,6,0,test,NULL,PennController,11,_Trial_,End,1727861121566,undefined,1129,hurl,abstract-negative,abstract,concrete,NULL
1727861211,a2e9d3a3e41bc1398a1becbcaab3cd8f,PennController,43,0,test,NULL,PennController,48,_Trial_,Start,1727861121567,undefined,733,forgive,concrete-positive,abstract,concrete,NULL
1727861211,a2e9d3a3e41bc1398a1becbcaab3cd8f,PennController,43,0,test,NULL,PennController,48,_Header_,Start,1727861121567,undefined,733,forgive,concrete-positive,abstract,concrete,NULL
1727861211,a2e9d3a3e41bc1398a1becbcaab3cd8f,PennController,43,0,test,NULL,PennController,48,_Header_,End,1727861121819,undefined,733,forgive,concrete-positive,abstract,concrete,NULL
1727861211,a2e9d3a3e41bc1398a1becbcaab3cd8f,PennController,43,0,test,NULL,Selector,unnamed-Selector,Selection,concrete,1727861123059,undefined,733,forgive,concrete-positive,abstract,concrete,concrete;abstract
1727861211,a2e9d3a3e41bc1398a1becbcaab3cd8f,PennController,43,0,test,NULL,PennController,48,_Trial_,End,1727861123060,undefined,733,forgive,concrete-positive,abstract,concrete,NULL
1727861211,a2e9d3a3e41bc1398a1becbcaab3cd8f,PennController,7,0,test,NULL,PennController,12,_Trial_,Start,1727861123061,undefined,1066,fall,abstract-negative,abstract,concrete,NULL
1727861211,a2e9d3a3e41bc1398a1becbcaab3cd8f,PennController,7,0,test,NULL,PennController,12,_Header_,Start,1727861123061,undefined,1066,fall,abstract-negative,abstract,concrete,NULL
1727861211,a2e9d3a3e41bc1398a1becbcaab3cd8f,PennController,7,0,test,NULL,PennController,12,_Header_,End,1727861123316,undefined,1066,fall,abstract-negative,abstract,concrete,NULL
1727861211,a2e9d3a3e41bc1398a1becbcaab3cd8f,PennController,7,0,test,NULL,Selector,unnamed-Selector,Selection,abstract,1727861124889,undefined,1066,fall,abstract-negative,abstract,concrete,concrete;abstract
1727861211,a2e9d3a3e41bc1398a1becbcaab3cd8f,PennController,7,0,test,NULL,PennController,12,_Trial_,End,1727861124892,undefined,1066,fall,abstract-negative,abstract,concrete,NULL
1727861211,a2e9d3a3e41bc1398a1becbcaab3cd8f,PennController,29,0,test,NULL,PennController,34,_Trial_,Start,1727861124893,undefined,908,distrust,concrete-negative,abstract,concrete,NULL
1727861211,a2e9d3a3e41bc1398a1becbcaab3cd8f,PennController,29,0,test,NULL,PennController,34,_Header_,Start,1727861124893,undefined,908,distrust,concrete-negative,abstract,concrete,NULL
1727861211,a2e9d3a3e41bc1398a1becbcaab3cd8f,PennController,29,0,test,NULL,PennController,34,_Header_,End,1727861125144,undefined,908,distrust,concrete-negative,abstract,concrete,NULL
1727861211,a2e9d3a3e41bc1398a1becbcaab3cd8f,PennController,29,0,test,NULL,Selector,unnamed-Selector,Selection,concrete,1727861126557,undefined,908,distrust,concrete-negative,abstract,concrete,concrete;abstract
1727861211,a2e9d3a3e41bc1398a1becbcaab3cd8f,PennController,29,0,test,NULL,PennController,34,_Trial_,End,1727861126558,undefined,908,distrust,concrete-negative,abstract,concrete,NULL
1727861211,a2e9d3a3e41bc1398a1becbcaab3cd8f,PennController,26,0,test,NULL,PennController,31,_Trial_,Start,1727861126558,undefined,820,befall,concrete-negative,abstract,concrete,NULL
1727861211,a2e9d3a3e41bc1398a1becbcaab3cd8f,PennController,26,0,test,NULL,PennController,31,_Header_,Start,1727861126558,undefined,820,befall,concrete-negative,abstract,concrete,NULL
1727861211,a2e9d3a3e41bc1398a1becbcaab3cd8f,PennController,26,0,test,NULL,PennController,31,_Header_,End,1727861126808,undefined,820,befall,concrete-negative,abstract,concrete,NULL
1727861211,a2e9d3a3e41bc1398a1becbcaab3cd8f,PennController,26,0,test,NULL,Selector,unnamed-Selector,Selection,concrete,1727861128134,undefined,820,befall,concrete-negative,abstract,concrete,concrete;abstract
1727861211,a2e9d3a3e41bc1398a1becbcaab3cd8f,PennController,26,0,test,NULL,PennController,31,_Trial_,End,1727861128135,undefined,820,befall,concrete-negative,abstract,concrete,NULL
1727861211,a2e9d3a3e41bc1398a1becbcaab3cd8f,PennController,40,0,test,NULL,PennController,45,_Trial_,Start,1727861128135,undefined,821,justify,concrete-positive,abstract,concrete,NULL
1727861211,a2e9d3a3e41bc1398a1becbcaab3cd8f,PennController,40,0,test,NULL,PennController,45,_Header_,Start,1727861128135,undefined,821,justify,concrete-positive,abstract,concrete,NULL
1727861211,a2e9d3a3e41bc1398a1becbcaab3cd8f,PennController,40,0,test,NULL,PennController,45,_Header_,End,1727861128386,undefined,821,justify,concrete-positive,abstract,concrete,NULL
1727861211,a2e9d3a3e41bc1398a1becbcaab3cd8f,PennController,40,0,test,NULL,Selector,unnamed-Selector,Selection,concrete,1727861129712,undefined,821,justify,concrete-positive,abstract,concrete,concrete;abstract
1727861211,a2e9d3a3e41bc1398a1becbcaab3cd8f,PennController,40,0,test,NULL,PennController,45,_Trial_,End,1727861129714,undefined,821,justify,concrete-positive,abstract,concrete,NULL
1727861211,a2e9d3a3e41bc1398a1becbcaab3cd8f,PennController,18,0,test,NULL,PennController,23,_Trial_,Start,1727861129715,undefined,1246,breathe,abstract-positive,abstract,concrete,NULL
1727861211,a2e9d3a3e41bc1398a1becbcaab3cd8f,PennController,18,0,test,NULL,PennController,23,_Header_,Start,1727861129715,undefined,1246,breathe,abstract-positive,abstract,concrete,NULL
1727861211,a2e9d3a3e41bc1398a1becbcaab3cd8f,PennController,18,0,test,NULL,PennController,23,_Header_,End,1727861129968,undefined,1246,breathe,abstract-positive,abstract,concrete,NULL
1727861211,a2e9d3a3e41bc1398a1becbcaab3cd8f,PennController,18,0,test,NULL,Selector,unnamed-Selector,Selection,concrete,1727861131718,undefined,1246,breathe,abstract-positive,abstract,concrete,concrete;abstract
1727861211,a2e9d3a3e41bc1398a1becbcaab3cd8f,PennController,18,0,test,NULL,PennController,23,_Trial_,End,1727861131720,undefined,1246,breathe,abstract-positive,abstract,concrete,NULL
1727861211,a2e9d3a3e41bc1398a1becbcaab3cd8f,PennController,15,0,test,NULL,PennController,20,_Trial_,Start,1727861131721,undefined,900,bathe,abstract-positive,abstract,concrete,NULL
1727861211,a2e9d3a3e41bc1398a1becbcaab3cd8f,PennController,15,0,test,NULL,PennController,20,_Header_,Start,1727861131721,undefined,900,bathe,abstract-positive,abstract,concrete,NULL
1727861211,a2e9d3a3e41bc1398a1becbcaab3cd8f,PennController,15,0,test,NULL,PennController,20,_Header_,End,1727861131973,undefined,900,bathe,abstract-positive,abstract,concrete,NULL
1727861211,a2e9d3a3e41bc1398a1becbcaab3cd8f,PennController,15,0,test,NULL,Selector,unnamed-Selector,Selection,abstract,1727861133378,undefined,900,bathe,abstract-positive,abstract,concrete,concrete;abstract
1727861211,a2e9d3a3e41bc1398a1becbcaab3cd8f,PennController,15,0,test,NULL,PennController,20,_Trial_,End,1727861133381,undefined,900,bathe,abstract-positive,abstract,concrete,NULL
1727861211,a2e9d3a3e41bc1398a1becbcaab3cd8f,PennController,35,0,test,NULL,PennController,40,_Trial_,Start,1727861133382,undefined,767,hope,concrete-positive,abstract,concrete,NULL
1727861211,a2e9d3a3e41bc1398a1becbcaab3cd8f,PennController,35,0,test,NULL,PennController,40,_Header_,Start,1727861133382,undefined,767,hope,concrete-positive,abstract,concrete,NULL
1727861211,a2e9d3a3e41bc1398a1becbcaab3cd8f,PennController,35,0,test,NULL,PennController,40,_Header_,End,1727861133632,undefined,767,hope,concrete-positive,abstract,concrete,NULL
1727861211,a2e9d3a3e41bc1398a1becbcaab3cd8f,PennController,35,0,test,NULL,Selector,unnamed-Selector,Selection,concrete,1727861134906,undefined,767,hope,concrete-positive,abstract,concrete,concrete;abstract
1727861211,a2e9d3a3e41bc1398a1becbcaab3cd8f,PennController,35,0,test,NULL,PennController,40,_Trial_,End,1727861134908,undefined,767,hope,concrete-positive,abstract,concrete,NULL
1727861211,a2e9d3a3e41bc1398a1becbcaab3cd8f,PennController,34,0,test,NULL,PennController,39,_Trial_,Start,1727861134909,undefined,1180,qualify,concrete-positive,abstract,concrete,NULL
1727861211,a2e9d3a3e41bc1398a1becbcaab3cd8f,PennController,34,0,test,NULL,PennController,39,_Header_,Start,1727861134909,undefined,1180,qualify,concrete-positive,abstract,concrete,NULL
1727861211,a2e9d3a3e41bc1398a1becbcaab3cd8f,PennController,34,0,test,NULL,PennController,39,_Header_,End,1727861135162,undefined,1180,qualify,concrete-positive,abstract,concrete,NULL
1727861211,a2e9d3a3e41bc1398a1becbcaab3cd8f,PennController,34,0,test,NULL,Selector,unnamed-Selector,Selection,concrete,1727861136849,undefined,1180,qualify,concrete-positive,abstract,concrete,concrete;abstract
1727861211,a2e9d3a3e41bc1398a1becbcaab3cd8f,PennController,34,0,test,NULL,PennController,39,_Trial_,End,1727861136850,undefined,1180,qualify,concrete-positive,abstract,concrete,NULL
1727861211,a2e9d3a3e41bc1398a1becbcaab3cd8f,PennController,32,0,test,NULL,PennController,37,_Trial_,Start,1727861136850,undefined,1039,violate,concrete-negative,abstract,concrete,NULL
1727861211,a2e9d3a3e41bc1398a1becbcaab3cd8f,PennController,32,0,test,NULL,PennController,37,_Header_,Start,1727861136850,undefined,1039,violate,concrete-negative,abstract,concrete,NULL
1727861211,a2e9d3a3e41bc1398a1becbcaab3cd8f,PennController,32,0,test,NULL,PennController,37,_Header_,End,1727861137100,undefined,1039,violate,concrete-negative,abstract,concrete,NULL
1727861211,a2e9d3a3e41bc1398a1becbcaab3cd8f,PennController,32,0,test,NULL,Selector,unnamed-Selector,Selection,concrete,1727861138645,undefined,1039,violate,concrete-negative,abstract,concrete,concrete;abstract
1727861211,a2e9d3a3e41bc1398a1becbcaab3cd8f,PennController,32,0,test,NULL,PennController,37,_Trial_,End,1727861138646,undefined,1039,violate,concrete-negative,abstract,concrete,NULL
1727861211,a2e9d3a3e41bc1398a1becbcaab3cd8f,PennController,22,0,test,NULL,PennController,27,_Trial_,Start,1727861138646,undefined,1165,talk,abstract-positive,abstract,concrete,NULL
1727861211,a2e9d3a3e41bc1398a1becbcaab3cd8f,PennController,22,0,test,NULL,PennController,27,_Header_,Start,1727861138646,undefined,1165,talk,abstract-positive,abstract,concrete,NULL
1727861211,a2e9d3a3e41bc1398a1becbcaab3cd8f,PennController,22,0,test,NULL,PennController,27,_Header_,End,1727861138897,undefined,1165,talk,abstract-positive,abstract,concrete,NULL
1727861211,a2e9d3a3e41bc1398a1becbcaab3cd8f,PennController,22,0,test,NULL,Selector,unnamed-Selector,Selection,abstract,1727861140566,undefined,1165,talk,abstract-positive,abstract,concrete,concrete;abstract
1727861211,a2e9d3a3e41bc1398a1becbcaab3cd8f,PennController,22,0,test,NULL,PennController,27,_Trial_,End,1727861140567,undefined,1165,talk,abstract-positive,abstract,concrete,NULL
1727861211,a2e9d3a3e41bc1398a1becbcaab3cd8f,PennController,33,0,test,NULL,PennController,38,_Trial_,Start,1727861140568,undefined,878,beware,concrete-negative,abstract,concrete,NULL
1727861211,a2e9d3a3e41bc1398a1becbcaab3cd8f,PennController,33,0,test,NULL,PennController,38,_Header_,Start,1727861140568,undefined,878,beware,concrete-negative,abstract,concrete,NULL
1727861211,a2e9d3a3e41bc1398a1becbcaab3cd8f,PennController,33,0,test,NULL,PennController,38,_Header_,End,1727861140822,undefined,878,beware,concrete-negative,abstract,concrete,NULL
1727861211,a2e9d3a3e41bc1398a1becbcaab3cd8f,PennController,33,0,test,NULL,Selector,unnamed-Selector,Selection,concrete,1727861142209,undefined,878,beware,concrete-negative,abstract,concrete,concrete;abstract
1727861211,a2e9d3a3e41bc1398a1becbcaab3cd8f,PennController,33,0,test,NULL,PennController,38,_Trial_,End,1727861142211,undefined,878,beware,concrete-negative,abstract,concrete,NULL
1727861211,a2e9d3a3e41bc1398a1becbcaab3cd8f,PennController,8,0,test,NULL,PennController,13,_Trial_,Start,1727861142212,undefined,877,meth,abstract-negative,abstract,concrete,NULL
1727861211,a2e9d3a3e41bc1398a1becbcaab3cd8f,PennController,8,0,test,NULL,PennController,13,_Header_,Start,1727861142212,undefined,877,meth,abstract-negative,abstract,concrete,NULL
1727861211,a2e9d3a3e41bc1398a1becbcaab3cd8f,PennController,8,0,test,NULL,PennController,13,_Header_,End,1727861142463,undefined,877,meth,abstract-negative,abstract,concrete,NULL
1727861211,a2e9d3a3e41bc1398a1becbcaab3cd8f,PennController,8,0,test,NULL,Selector,unnamed-Selector,Selection,abstract,1727861143842,undefined,877,meth,abstract-negative,abstract,concrete,concrete;abstract
1727861211,a2e9d3a3e41bc1398a1becbcaab3cd8f,PennController,8,0,test,NULL,PennController,13,_Trial_,End,1727861143844,undefined,877,meth,abstract-negative,abstract,concrete,NULL
1727861211,a2e9d3a3e41bc1398a1becbcaab3cd8f,PennController,23,0,test,NULL,PennController,28,_Trial_,Start,1727861143845,undefined,1057,sing,abstract-positive,abstract,concrete,NULL
1727861211,a2e9d3a3e41bc1398a1becbcaab3cd8f,PennController,23,0,test,NULL,PennController,28,_Header_,Start,1727861143845,undefined,1057,sing,abstract-positive,abstract,concrete,NULL
1727861211,a2e9d3a3e41bc1398a1becbcaab3cd8f,PennController,23,0,test,NULL,PennController,28,_Header_,End,1727861144100,undefined,1057,sing,abstract-positive,abstract,concrete,NULL
1727861211,a2e9d3a3e41bc1398a1becbcaab3cd8f,PennController,23,0,test,NULL,Selector,unnamed-Selector,Selection,concrete,1727861145664,undefined,1057,sing,abstract-positive,abstract,concrete,concrete;abstract
1727861211,a2e9d3a3e41bc1398a1becbcaab3cd8f,PennController,23,0,test,NULL,PennController,28,_Trial_,End,1727861145665,undefined,1057,sing,abstract-positive,abstract,concrete,NULL
1727861211,a2e9d3a3e41bc1398a1becbcaab3cd8f,PennController,21,0,test,NULL,PennController,26,_Trial_,Start,1727861145666,undefined,1663,sail,abstract-positive,abstract,concrete,NULL
1727861211,a2e9d3a3e41bc1398a1becbcaab3cd8f,PennController,21,0,test,NULL,PennController,26,_Header_,Start,1727861145666,undefined,1663,sail,abstract-positive,abstract,concrete,NULL
1727861211,a2e9d3a3e41bc1398a1becbcaab3cd8f,PennController,21,0,test,NULL,PennController,26,_Header_,End,1727861145920,undefined,1663,sail,abstract-positive,abstract,concrete,NULL
1727861211,a2e9d3a3e41bc1398a1becbcaab3cd8f,PennController,21,0,test,NULL,Selector,unnamed-Selector,Selection,abstract,1727861148085,undefined,1663,sail,abstract-positive,abstract,concrete,concrete;abstract
1727861211,a2e9d3a3e41bc1398a1becbcaab3cd8f,PennController,21,0,test,NULL,PennController,26,_Trial_,End,1727861148086,undefined,1663,sail,abstract-positive,abstract,concrete,NULL
1727861211,a2e9d3a3e41bc1398a1becbcaab3cd8f,PennController,30,0,test,NULL,PennController,35,_Trial_,Start,1727861148088,undefined,759,envy,concrete-negative,abstract,concrete,NULL
1727861211,a2e9d3a3e41bc1398a1becbcaab3cd8f,PennController,30,0,test,NULL,PennController,35,_Header_,Start,1727861148088,undefined,759,envy,concrete-negative,abstract,concrete,NULL
1727861211,a2e9d3a3e41bc1398a1becbcaab3cd8f,PennController,30,0,test,NULL,PennController,35,_Header_,End,1727861148339,undefined,759,envy,concrete-negative,abstract,concrete,NULL
1727861211,a2e9d3a3e41bc1398a1becbcaab3cd8f,PennController,30,0,test,NULL,Selector,unnamed-Selector,Selection,concrete,1727861149605,undefined,759,envy,concrete-negative,abstract,concrete,concrete;abstract
1727861211,a2e9d3a3e41bc1398a1becbcaab3cd8f,PennController,30,0,test,NULL,PennController,35,_Trial_,End,1727861149606,undefined,759,envy,concrete-negative,abstract,concrete,NULL
1727861211,a2e9d3a3e41bc1398a1becbcaab3cd8f,PennController,5,0,test,NULL,PennController,10,_Trial_,Start,1727861149607,undefined,1113,snore,abstract-negative,abstract,concrete,NULL
1727861211,a2e9d3a3e41bc1398a1becbcaab3cd8f,PennController,5,0,test,NULL,PennController,10,_Header_,Start,1727861149607,undefined,1113,snore,abstract-negative,abstract,concrete,NULL
1727861211,a2e9d3a3e41bc1398a1becbcaab3cd8f,PennController,5,0,test,NULL,PennController,10,_Header_,End,1727861149862,undefined,1113,snore,abstract-negative,abstract,concrete,NULL
1727861211,a2e9d3a3e41bc1398a1becbcaab3cd8f,PennController,5,0,test,NULL,Selector,unnamed-Selector,Selection,abstract,1727861151481,undefined,1113,snore,abstract-negative,abstract,concrete,concrete;abstract
1727861211,a2e9d3a3e41bc1398a1becbcaab3cd8f,PennController,5,0,test,NULL,PennController,10,_Trial_,End,1727861151482,undefined,1113,snore,abstract-negative,abstract,concrete,NULL
1727861211,a2e9d3a3e41bc1398a1becbcaab3cd8f,PennController,13,0,test,NULL,PennController,18,_Trial_,Start,1727861151483,undefined,1061,smack,abstract-negative,abstract,concrete,NULL
1727861211,a2e9d3a3e41bc1398a1becbcaab3cd8f,PennController,13,0,test,NULL,PennController,18,_Header_,Start,1727861151483,undefined,1061,smack,abstract-negative,abstract,concrete,NULL
1727861211,a2e9d3a3e41bc1398a1becbcaab3cd8f,PennController,13,0,test,NULL,PennController,18,_Header_,End,1727861151734,undefined,1061,smack,abstract-negative,abstract,concrete,NULL
1727861211,a2e9d3a3e41bc1398a1becbcaab3cd8f,PennController,13,0,test,NULL,Selector,unnamed-Selector,Selection,abstract,1727861153301,undefined,1061,smack,abstract-negative,abstract,concrete,concrete;abstract
1727861211,a2e9d3a3e41bc1398a1becbcaab3cd8f,PennController,13,0,test,NULL,PennController,18,_Trial_,End,1727861153303,undefined,1061,smack,abstract-negative,abstract,concrete,NULL
1727861211,a2e9d3a3e41bc1398a1becbcaab3cd8f,PennController,4,0,test,NULL,PennController,9,_Trial_,Start,1727861153304,undefined,926,whip,abstract-negative,abstract,concrete,NULL
1727861211,a2e9d3a3e41bc1398a1becbcaab3cd8f,PennController,4,0,test,NULL,PennController,9,_Header_,Start,1727861153304,undefined,926,whip,abstract-negative,abstract,concrete,NULL
1727861211,a2e9d3a3e41bc1398a1becbcaab3cd8f,PennController,4,0,test,NULL,PennController,9,_Header_,End,1727861153557,undefined,926,whip,abstract-negative,abstract,concrete,NULL
1727861211,a2e9d3a3e41bc1398a1becbcaab3cd8f,PennController,4,0,test,NULL,Selector,unnamed-Selector,Selection,abstract,1727861154991,undefined,926,whip,abstract-negative,abstract,concrete,concrete;abstract
1727861211,a2e9d3a3e41bc1398a1becbcaab3cd8f,PennController,4,0,test,NULL,PennController,9,_Trial_,End,1727861154992,undefined,926,whip,abstract-negative,abstract,concrete,NULL
1727861211,a2e9d3a3e41bc1398a1becbcaab3cd8f,PennController,39,0,test,NULL,PennController,44,_Trial_,Start,1727861154992,undefined,894,consider,concrete-positive,abstract,concrete,NULL
1727861211,a2e9d3a3e41bc1398a1becbcaab3cd8f,PennController,39,0,test,NULL,PennController,44,_Header_,Start,1727861154992,undefined,894,consider,concrete-positive,abstract,concrete,NULL
1727861211,a2e9d3a3e41bc1398a1becbcaab3cd8f,PennController,39,0,test,NULL,PennController,44,_Header_,End,1727861155245,undefined,894,consider,concrete-positive,abstract,concrete,NULL
1727861211,a2e9d3a3e41bc1398a1becbcaab3cd8f,PennController,39,0,test,NULL,Selector,unnamed-Selector,Selection,concrete,1727861156643,undefined,894,consider,concrete-positive,abstract,concrete,concrete;abstract
1727861211,a2e9d3a3e41bc1398a1becbcaab3cd8f,PennController,39,0,test,NULL,PennController,44,_Trial_,End,1727861156644,undefined,894,consider,concrete-positive,abstract,concrete,NULL
1727861211,a2e9d3a3e41bc1398a1becbcaab3cd8f,PennController,27,0,test,NULL,PennController,32,_Trial_,Start,1727861156644,undefined,777,impose,concrete-negative,abstract,concrete,NULL
1727861211,a2e9d3a3e41bc1398a1becbcaab3cd8f,PennController,27,0,test,NULL,PennController,32,_Header_,Start,1727861156644,undefined,777,impose,concrete-negative,abstract,concrete,NULL
1727861211,a2e9d3a3e41bc1398a1becbcaab3cd8f,PennController,27,0,test,NULL,PennController,32,_Header_,End,1727861156898,undefined,777,impose,concrete-negative,abstract,concrete,NULL
1727861211,a2e9d3a3e41bc1398a1becbcaab3cd8f,PennController,27,0,test,NULL,Selector,unnamed-Selector,Selection,concrete,1727861158179,undefined,777,impose,concrete-negative,abstract,concrete,concrete;abstract
1727861211,a2e9d3a3e41bc1398a1becbcaab3cd8f,PennController,27,0,test,NULL,PennController,32,_Trial_,End,1727861158180,undefined,777,impose,concrete-negative,abstract,concrete,NULL
1727861211,a2e9d3a3e41bc1398a1becbcaab3cd8f,PennController,17,0,test,NULL,PennController,22,_Trial_,Start,1727861158181,undefined,802,laugh,abstract-positive,abstract,concrete,NULL
1727861211,a2e9d3a3e41bc1398a1becbcaab3cd8f,PennController,17,0,test,NULL,PennController,22,_Header_,Start,1727861158181,undefined,802,laugh,abstract-positive,abstract,concrete,NULL
1727861211,a2e9d3a3e41bc1398a1becbcaab3cd8f,PennController,17,0,test,NULL,PennController,22,_Header_,End,1727861158432,undefined,802,laugh,abstract-positive,abstract,concrete,NULL
1727861211,a2e9d3a3e41bc1398a1becbcaab3cd8f,PennController,17,0,test,NULL,Selector,unnamed-Selector,Selection,abstract,1727861159740,undefined,802,laugh,abstract-positive,abstract,concrete,concrete;abstract
1727861211,a2e9d3a3e41bc1398a1becbcaab3cd8f,PennController,17,0,test,NULL,PennController,22,_Trial_,End,1727861159742,undefined,802,laugh,abstract-positive,abstract,concrete,NULL
1727861211,a2e9d3a3e41bc1398a1becbcaab3cd8f,PennController,12,0,test,NULL,PennController,17,_Trial_,Start,1727861159743,undefined,1465,frown,abstract-negative,abstract,concrete,NULL
1727861211,a2e9d3a3e41bc1398a1becbcaab3cd8f,PennController,12,0,test,NULL,PennController,17,_Header_,Start,1727861159743,undefined,1465,frown,abstract-negative,abstract,concrete,NULL
1727861211,a2e9d3a3e41bc1398a1becbcaab3cd8f,PennController,12,0,test,NULL,PennController,17,_Header_,End,1727861159996,undefined,1465,frown,abstract-negative,abstract,concrete,NULL
1727861211,a2e9d3a3e41bc1398a1becbcaab3cd8f,PennController,12,0,test,NULL,Selector,unnamed-Selector,Selection,abstract,1727861161965,undefined,1465,frown,abstract-negative,abstract,concrete,concrete;abstract
1727861211,a2e9d3a3e41bc1398a1becbcaab3cd8f,PennController,12,0,test,NULL,PennController,17,_Trial_,End,1727861161967,undefined,1465,frown,abstract-negative,abstract,concrete,NULL
1727861211,a2e9d3a3e41bc1398a1becbcaab3cd8f,PennController,19,0,test,NULL,PennController,24,_Trial_,Start,1727861161968,undefined,1458,running,abstract-positive,abstract,concrete,NULL
1727861211,a2e9d3a3e41bc1398a1becbcaab3cd8f,PennController,19,0,test,NULL,PennController,24,_Header_,Start,1727861161968,undefined,1458,running,abstract-positive,abstract,concrete,NULL
1727861211,a2e9d3a3e41bc1398a1becbcaab3cd8f,PennController,19,0,test,NULL,PennController,24,_Header_,End,1727861162220,undefined,1458,running,abstract-positive,abstract,concrete,NULL
1727861211,a2e9d3a3e41bc1398a1becbcaab3cd8f,PennController,19,0,test,NULL,Selector,unnamed-Selector,Selection,abstract,1727861164181,undefined,1458,running,abstract-positive,abstract,concrete,concrete;abstract
1727861211,a2e9d3a3e41bc1398a1becbcaab3cd8f,PennController,19,0,test,NULL,PennController,24,_Trial_,End,1727861164182,undefined,1458,running,abstract-positive,abstract,concrete,NULL
1727861211,a2e9d3a3e41bc1398a1becbcaab3cd8f,PennController,41,0,test,NULL,PennController,46,_Trial_,Start,1727861164183,undefined,1226,improve,concrete-positive,abstract,concrete,NULL
1727861211,a2e9d3a3e41bc1398a1becbcaab3cd8f,PennController,41,0,test,NULL,PennController,46,_Header_,Start,1727861164183,undefined,1226,improve,concrete-positive,abstract,concrete,NULL
1727861211,a2e9d3a3e41bc1398a1becbcaab3cd8f,PennController,41,0,test,NULL,PennController,46,_Header_,End,1727861164436,undefined,1226,improve,concrete-positive,abstract,concrete,NULL
1727861211,a2e9d3a3e41bc1398a1becbcaab3cd8f,PennController,41,0,test,NULL,Selector,unnamed-Selector,Selection,concrete,1727861166167,undefined,1226,improve,concrete-positive,abstract,concrete,concrete;abstract
1727861211,a2e9d3a3e41bc1398a1becbcaab3cd8f,PennController,41,0,test,NULL,PennController,46,_Trial_,End,1727861166168,undefined,1226,improve,concrete-positive,abstract,concrete,NULL
1727861211,a2e9d3a3e41bc1398a1becbcaab3cd8f,PennController,38,0,test,NULL,PennController,43,_Trial_,Start,1727861166170,undefined,861,behold,concrete-positive,abstract,concrete,NULL
1727861211,a2e9d3a3e41bc1398a1becbcaab3cd8f,PennController,38,0,test,NULL,PennController,43,_Header_,Start,1727861166170,undefined,861,behold,concrete-positive,abstract,concrete,NULL
