#
# Results on Wed, 02 Oct 2024 13:17:45 GMT
# USER AGENT: Mozilla/5.0 (Windows NT 10.0; Win64; x64) AppleWebKit/537.36 (KHTML, like Gecko) Chrome/128.0.0.0 Safari/537.36
# Design number was non-random = 0
#
# Columns below this comment are as follows:
# 1. Results reception time.
# 2. MD5 hash of participant's IP address.
# 3. Controller name.
# 4. Order number of item.
# 5. Inner element number.
# 6. Label.
# 7. Latin Square Group.
# 8. PennElementType.
# 9. PennElementName.
# 10. Parameter.
# 11. Value.
# 12. EventTime.
# 13. Comments.
1727875065,7296ceeaadcbecb52e91b4c2365a11c5,PennController,1,0,welcome,NULL,PennController,0,_Trial_,Start,1727874767428,NULL
1727875065,7296ceeaadcbecb52e91b4c2365a11c5,PennController,1,0,welcome,NULL,PennController,0,_Header_,Start,1727874767428,NULL
1727875065,7296ceeaadcbecb52e91b4c2365a11c5,PennController,1,0,welcome,NULL,PennController,0,_Header_,End,1727874767681,NULL
1727875065,7296ceeaadcbecb52e91b4c2365a11c5,PennController,1,0,welcome,NULL,PennController,0,_Trial_,End,1727874770664,NULL
# 13. ID.
# 14. Comments.
1727875065,7296ceeaadcbecb52e91b4c2365a11c5,PennController,55,0,consent,NULL,PennController,3,_Trial_,Start,1727874770666,599de5758a6cc5000128f97e,NULL
1727875065,7296ceeaadcbecb52e91b4c2365a11c5,PennController,55,0,consent,NULL,PennController,3,_Header_,Start,1727874770666,599de5758a6cc5000128f97e,NULL
1727875065,7296ceeaadcbecb52e91b4c2365a11c5,PennController,55,0,consent,NULL,PennController,3,_Header_,End,1727874770917,599de5758a6cc5000128f97e,NULL
1727875065,7296ceeaadcbecb52e91b4c2365a11c5,PennController,55,0,consent,NULL,TextInput,ID,Final,599de5758a6cc5000128f97e,1727874780049,599de5758a6cc5000128f97e,NULL
1727875065,7296ceeaadcbecb52e91b4c2365a11c5,PennController,55,0,consent,NULL,PennController,3,_Trial_,End,1727874780049,599de5758a6cc5000128f97e,NULL
# 13. Comments.
1727875065,7296ceeaadcbecb52e91b4c2365a11c5,PennController,57,0,instructions1,NULL,PennController,5,_Trial_,Start,1727874780051,NULL
1727875065,7296ceeaadcbecb52e91b4c2365a11c5,PennController,57,0,instructions1,NULL,PennController,5,_Header_,Start,1727874780051,NULL
1727875065,7296ceeaadcbecb52e91b4c2365a11c5,PennController,57,0,instructions1,NULL,PennController,5,_Header_,End,1727874780303,NULL
1727875065,7296ceeaadcbecb52e91b4c2365a11c5,PennController,57,0,instructions1,NULL,PennController,5,_Trial_,End,1727874804487,NULL
1727875065,7296ceeaadcbecb52e91b4c2365a11c5,PennController,58,0,instructions2,NULL,PennController,6,_Trial_,Start,1727874804489,NULL
1727875065,7296ceeaadcbecb52e91b4c2365a11c5,PennController,58,0,instructions2,NULL,PennController,6,_Header_,Start,1727874804489,NULL
1727875065,7296ceeaadcbecb52e91b4c2365a11c5,PennController,58,0,instructions2,NULL,PennController,6,_Header_,End,1727874804741,NULL
1727875065,7296ceeaadcbecb52e91b4c2365a11c5,PennController,58,0,instructions2,NULL,PennController,6,_Trial_,End,1727874820271,NULL
1727875065,7296ceeaadcbecb52e91b4c2365a11c5,PennController,59,0,instructions3,NULL,PennController,7,_Trial_,Start,1727874820272,NULL
1727875065,7296ceeaadcbecb52e91b4c2365a11c5,PennController,59,0,instructions3,NULL,PennController,7,_Header_,Start,1727874820272,NULL
1727875065,7296ceeaadcbecb52e91b4c2365a11c5,PennController,59,0,instructions3,NULL,PennController,7,_Header_,End,1727874820522,NULL
1727875065,7296ceeaadcbecb52e91b4c2365a11c5,PennController,59,0,instructions3,NULL,PennController,7,_Trial_,End,1727874860540,NULL
1727875065,7296ceeaadcbecb52e91b4c2365a11c5,PennController,44,0,practice_intro,NULL,PennController,2,_Trial_,Start,1727874860544,NULL
1727875065,7296ceeaadcbecb52e91b4c2365a11c5,PennController,44,0,practice_intro,NULL,PennController,2,_Header_,Start,1727874860544,NULL
1727875065,7296ceeaadcbecb52e91b4c2365a11c5,PennController,44,0,practice_intro,NULL,PennController,2,_Header_,End,1727874860794,NULL
1727875065,7296ceeaadcbecb52e91b4c2365a11c5,PennController,44,0,practice_intro,NULL,PennController,2,_Trial_,End,1727874862042,NULL
# 13. ID.
# 14. ReactionTime.
# 15. Word.
# 16. Key_value_F.
# 17. Key_value_J.
# 18. Group.
# 19. Comments.
1727875065,7296ceeaadcbecb52e91b4c2365a11c5,PennController,51,0,calibrator,NULL,PennController,55,_Trial_,Start,1727874862045,undefined,2175,grin,negative,positive,B,NULL
1727875065,7296ceeaadcbecb52e91b4c2365a11c5,PennController,51,0,calibrator,NULL,PennController,55,_Header_,Start,1727874862045,undefined,2175,grin,negative,positive,B,NULL
1727875065,7296ceeaadcbecb52e91b4c2365a11c5,PennController,51,0,calibrator,NULL,PennController,55,_Header_,End,1727874862296,undefined,2175,grin,negative,positive,B,NULL
1727875065,7296ceeaadcbecb52e91b4c2365a11c5,PennController,51,0,calibrator,NULL,Selector,unnamed-Selector,Selection,positive,1727874864974,undefined,2175,grin,negative,positive,B,negative;positive
1727875065,7296ceeaadcbecb52e91b4c2365a11c5,PennController,51,0,calibrator,NULL,PennController,55,_Trial_,End,1727874864978,undefined,2175,grin,negative,positive,B,NULL
1727875065,7296ceeaadcbecb52e91b4c2365a11c5,PennController,53,0,calibrator,NULL,PennController,57,_Trial_,Start,1727874864981,undefined,1440,joke,negative,positive,B,NULL
1727875065,7296ceeaadcbecb52e91b4c2365a11c5,PennController,53,0,calibrator,NULL,PennController,57,_Header_,Start,1727874864981,undefined,1440,joke,negative,positive,B,NULL
1727875065,7296ceeaadcbecb52e91b4c2365a11c5,PennController,53,0,calibrator,NULL,PennController,57,_Header_,End,1727874865231,undefined,1440,joke,negative,positive,B,NULL
1727875065,7296ceeaadcbecb52e91b4c2365a11c5,PennController,53,0,calibrator,NULL,Selector,unnamed-Selector,Selection,positive,1727874867175,undefined,1440,joke,negative,positive,B,negative;positive
1727875065,7296ceeaadcbecb52e91b4c2365a11c5,PennController,53,0,calibrator,NULL,PennController,57,_Trial_,End,1727874867180,undefined,1440,joke,negative,positive,B,NULL
1727875065,7296ceeaadcbecb52e91b4c2365a11c5,PennController,49,0,calibrator,NULL,PennController,53,_Trial_,Start,1727874867182,undefined,1182,icebox,negative,positive,B,NULL
1727875065,7296ceeaadcbecb52e91b4c2365a11c5,PennController,49,0,calibrator,NULL,PennController,53,_Header_,Start,1727874867182,undefined,1182,icebox,negative,positive,B,NULL
1727875065,7296ceeaadcbecb52e91b4c2365a11c5,PennController,49,0,calibrator,NULL,PennController,53,_Header_,End,1727874867435,undefined,1182,icebox,negative,positive,B,NULL
1727875065,7296ceeaadcbecb52e91b4c2365a11c5,PennController,49,0,calibrator,NULL,Selector,unnamed-Selector,Selection,positive,1727874869121,undefined,1182,icebox,negative,positive,B,negative;positive
1727875065,7296ceeaadcbecb52e91b4c2365a11c5,PennController,49,0,calibrator,NULL,PennController,53,_Trial_,End,1727874869122,undefined,1182,icebox,negative,positive,B,NULL
1727875065,7296ceeaadcbecb52e91b4c2365a11c5,PennController,47,0,calibrator,NULL,PennController,51,_Trial_,Start,1727874869124,undefined,851,insecure,negative,positive,B,NULL
1727875065,7296ceeaadcbecb52e91b4c2365a11c5,PennController,47,0,calibrator,NULL,PennController,51,_Header_,Start,1727874869124,undefined,851,insecure,negative,positive,B,NULL
1727875065,7296ceeaadcbecb52e91b4c2365a11c5,PennController,47,0,calibrator,NULL,PennController,51,_Header_,End,1727874869378,undefined,851,insecure,negative,positive,B,NULL
1727875065,7296ceeaadcbecb52e91b4c2365a11c5,PennController,47,0,calibrator,NULL,Selector,unnamed-Selector,Selection,negative,1727874870736,undefined,851,insecure,negative,positive,B,negative;positive
1727875065,7296ceeaadcbecb52e91b4c2365a11c5,PennController,47,0,calibrator,NULL,PennController,51,_Trial_,End,1727874870737,undefined,851,insecure,negative,positive,B,NULL
1727875065,7296ceeaadcbecb52e91b4c2365a11c5,PennController,46,0,calibrator,NULL,PennController,50,_Trial_,Start,1727874870739,undefined,1245,invader,negative,positive,B,NULL
1727875065,7296ceeaadcbecb52e91b4c2365a11c5,PennController,46,0,calibrator,NULL,PennController,50,_Header_,Start,1727874870739,undefined,1245,invader,negative,positive,B,NULL
1727875065,7296ceeaadcbecb52e91b4c2365a11c5,PennController,46,0,calibrator,NULL,PennController,50,_Header_,End,1727874870992,undefined,1245,invader,negative,positive,B,NULL
1727875065,7296ceeaadcbecb52e91b4c2365a11c5,PennController,46,0,calibrator,NULL,Selector,unnamed-Selector,Selection,negative,1727874872743,undefined,1245,invader,negative,positive,B,negative;positive
1727875065,7296ceeaadcbecb52e91b4c2365a11c5,PennController,46,0,calibrator,NULL,PennController,50,_Trial_,End,1727874872745,undefined,1245,invader,negative,positive,B,NULL
1727875065,7296ceeaadcbecb52e91b4c2365a11c5,PennController,54,0,calibrator,NULL,PennController,58,_Trial_,Start,1727874872747,undefined,768,free,negative,positive,B,NULL
1727875065,7296ceeaadcbecb52e91b4c2365a11c5,PennController,54,0,calibrator,NULL,PennController,58,_Header_,Start,1727874872747,undefined,768,free,negative,positive,B,NULL
1727875065,7296ceeaadcbecb52e91b4c2365a11c5,PennController,54,0,calibrator,NULL,PennController,58,_Header_,End,1727874873000,undefined,768,free,negative,positive,B,NULL
1727875065,7296ceeaadcbecb52e91b4c2365a11c5,PennController,54,0,calibrator,NULL,Selector,unnamed-Selector,Selection,positive,1727874874272,undefined,768,free,negative,positive,B,negative;positive
1727875065,7296ceeaadcbecb52e91b4c2365a11c5,PennController,54,0,calibrator,NULL,PennController,58,_Trial_,End,1727874874273,undefined,768,free,negative,positive,B,NULL
1727875065,7296ceeaadcbecb52e91b4c2365a11c5,PennController,50,0,calibrator,NULL,PennController,54,_Trial_,Start,1727874874274,undefined,1294,hat,negative,positive,B,NULL
1727875065,7296ceeaadcbecb52e91b4c2365a11c5,PennController,50,0,calibrator,NULL,PennController,54,_Header_,Start,1727874874274,undefined,1294,hat,negative,positive,B,NULL
1727875065,7296ceeaadcbecb52e91b4c2365a11c5,PennController,50,0,calibrator,NULL,PennController,54,_Header_,End,1727874874524,undefined,1294,hat,negative,positive,B,NULL
1727875065,7296ceeaadcbecb52e91b4c2365a11c5,PennController,50,0,calibrator,NULL,Selector,unnamed-Selector,Selection,positive,1727874876324,undefined,1294,hat,negative,positive,B,negative;positive
1727875065,7296ceeaadcbecb52e91b4c2365a11c5,PennController,50,0,calibrator,NULL,PennController,54,_Trial_,End,1727874876326,undefined,1294,hat,negative,positive,B,NULL
1727875065,7296ceeaadcbecb52e91b4c2365a11c5,PennController,45,0,calibrator,NULL,PennController,49,_Trial_,Start,1727874876328,undefined,989,jail,negative,positive,B,NULL
1727875065,7296ceeaadcbecb52e91b4c2365a11c5,PennController,45,0,calibrator,NULL,PennController,49,_Header_,Start,1727874876328,undefined,989,jail,negative,positive,B,NULL
1727875065,7296ceeaadcbecb52e91b4c2365a11c5,PennController,45,0,calibrator,NULL,PennController,49,_Header_,End,1727874876582,undefined,989,jail,negative,positive,B,NULL
1727875065,7296ceeaadcbecb52e91b4c2365a11c5,PennController,45,0,calibrator,NULL,Selector,unnamed-Selector,Selection,negative,1727874878076,undefined,989,jail,negative,positive,B,negative;positive
1727875065,7296ceeaadcbecb52e91b4c2365a11c5,PennController,45,0,calibrator,NULL,PennController,49,_Trial_,End,1727874878078,undefined,989,jail,negative,positive,B,NULL
1727875065,7296ceeaadcbecb52e91b4c2365a11c5,PennController,52,0,calibrator,NULL,PennController,56,_Trial_,Start,1727874878081,undefined,881,kitten,negative,positive,B,NULL
1727875065,7296ceeaadcbecb52e91b4c2365a11c5,PennController,52,0,calibrator,NULL,PennController,56,_Header_,Start,1727874878081,undefined,881,kitten,negative,positive,B,NULL
1727875065,7296ceeaadcbecb52e91b4c2365a11c5,PennController,52,0,calibrator,NULL,PennController,56,_Header_,End,1727874878331,undefined,881,kitten,negative,positive,B,NULL
1727875065,7296ceeaadcbecb52e91b4c2365a11c5,PennController,52,0,calibrator,NULL,Selector,unnamed-Selector,Selection,positive,1727874879715,undefined,881,kitten,negative,positive,B,negative;positive
1727875065,7296ceeaadcbecb52e91b4c2365a11c5,PennController,52,0,calibrator,NULL,PennController,56,_Trial_,End,1727874879719,undefined,881,kitten,negative,positive,B,NULL
1727875065,7296ceeaadcbecb52e91b4c2365a11c5,PennController,48,0,calibrator,NULL,PennController,52,_Trial_,Start,1727874879724,undefined,1139,industry,negative,positive,B,NULL
1727875065,7296ceeaadcbecb52e91b4c2365a11c5,PennController,48,0,calibrator,NULL,PennController,52,_Header_,Start,1727874879724,undefined,1139,industry,negative,positive,B,NULL
1727875065,7296ceeaadcbecb52e91b4c2365a11c5,PennController,48,0,calibrator,NULL,PennController,52,_Header_,End,1727874879976,undefined,1139,industry,negative,positive,B,NULL
1727875065,7296ceeaadcbecb52e91b4c2365a11c5,PennController,48,0,calibrator,NULL,Selector,unnamed-Selector,Selection,positive,1727874881619,undefined,1139,industry,negative,positive,B,negative;positive
1727875065,7296ceeaadcbecb52e91b4c2365a11c5,PennController,48,0,calibrator,NULL,PennController,52,_Trial_,End,1727874881621,undefined,1139,industry,negative,positive,B,NULL
# 13. Comments.
1727875065,7296ceeaadcbecb52e91b4c2365a11c5,PennController,60,0,endinstructions,NULL,PennController,8,_Trial_,Start,1727874881624,NULL
1727875065,7296ceeaadcbecb52e91b4c2365a11c5,PennController,60,0,endinstructions,NULL,PennController,8,_Header_,Start,1727874881624,NULL
1727875065,7296ceeaadcbecb52e91b4c2365a11c5,PennController,60,0,endinstructions,NULL,PennController,8,_Header_,End,1727874881876,NULL
1727875065,7296ceeaadcbecb52e91b4c2365a11c5,PennController,60,0,endinstructions,NULL,PennController,8,_Trial_,End,1727874886823,NULL
# 13. ID.
# 14. ReactionTime.
# 15. Word.
# 16. ConcValCombo.
# 17. Key_value_F.
# 18. Key_value_J.
# 19. Comments.
1727875065,7296ceeaadcbecb52e91b4c2365a11c5,PennController,4,0,test,NULL,PennController,9,_Trial_,Start,1727874886825,undefined,1234,whip,abstract-negative,negative,positive,NULL
1727875065,7296ceeaadcbecb52e91b4c2365a11c5,PennController,4,0,test,NULL,PennController,9,_Header_,Start,1727874886825,undefined,1234,whip,abstract-negative,negative,positive,NULL
1727875065,7296ceeaadcbecb52e91b4c2365a11c5,PennController,4,0,test,NULL,PennController,9,_Header_,End,1727874887078,undefined,1234,whip,abstract-negative,negative,positive,NULL
1727875065,7296ceeaadcbecb52e91b4c2365a11c5,PennController,4,0,test,NULL,Selector,unnamed-Selector,Selection,negative,1727874888816,undefined,1234,whip,abstract-negative,negative,positive,negative;positive
1727875065,7296ceeaadcbecb52e91b4c2365a11c5,PennController,4,0,test,NULL,PennController,9,_Trial_,End,1727874888819,undefined,1234,whip,abstract-negative,negative,positive,NULL
1727875065,7296ceeaadcbecb52e91b4c2365a11c5,PennController,12,0,test,NULL,PennController,17,_Trial_,Start,1727874888822,undefined,882,frown,abstract-negative,negative,positive,NULL
1727875065,7296ceeaadcbecb52e91b4c2365a11c5,PennController,12,0,test,NULL,PennController,17,_Header_,Start,1727874888822,undefined,882,frown,abstract-negative,negative,positive,NULL
1727875065,7296ceeaadcbecb52e91b4c2365a11c5,PennController,12,0,test,NULL,PennController,17,_Header_,End,1727874889073,undefined,882,frown,abstract-negative,negative,positive,NULL
1727875065,7296ceeaadcbecb52e91b4c2365a11c5,PennController,12,0,test,NULL,Selector,unnamed-Selector,Selection,negative,1727874890460,undefined,882,frown,abstract-negative,negative,positive,negative;positive
1727875065,7296ceeaadcbecb52e91b4c2365a11c5,PennController,12,0,test,NULL,PennController,17,_Trial_,End,1727874890462,undefined,882,frown,abstract-negative,negative,positive,NULL
1727875065,7296ceeaadcbecb52e91b4c2365a11c5,PennController,21,0,test,NULL,PennController,26,_Trial_,Start,1727874890465,undefined,1324,sail,abstract-positive,negative,positive,NULL
1727875065,7296ceeaadcbecb52e91b4c2365a11c5,PennController,21,0,test,NULL,PennController,26,_Header_,Start,1727874890465,undefined,1324,sail,abstract-positive,negative,positive,NULL
1727875065,7296ceeaadcbecb52e91b4c2365a11c5,PennController,21,0,test,NULL,PennController,26,_Header_,End,1727874890716,undefined,1324,sail,abstract-positive,negative,positive,NULL
1727875065,7296ceeaadcbecb52e91b4c2365a11c5,PennController,21,0,test,NULL,Selector,unnamed-Selector,Selection,positive,1727874892544,undefined,1324,sail,abstract-positive,negative,positive,negative;positive
1727875065,7296ceeaadcbecb52e91b4c2365a11c5,PennController,21,0,test,NULL,PennController,26,_Trial_,End,1727874892546,undefined,1324,sail,abstract-positive,negative,positive,NULL
1727875065,7296ceeaadcbecb52e91b4c2365a11c5,PennController,11,0,test,NULL,PennController,16,_Trial_,Start,1727874892548,undefined,1416,crank,abstract-negative,negative,positive,NULL
1727875065,7296ceeaadcbecb52e91b4c2365a11c5,PennController,11,0,test,NULL,PennController,16,_Header_,Start,1727874892548,undefined,1416,crank,abstract-negative,negative,positive,NULL
1727875065,7296ceeaadcbecb52e91b4c2365a11c5,PennController,11,0,test,NULL,PennController,16,_Header_,End,1727874892804,undefined,1416,crank,abstract-negative,negative,positive,NULL
1727875065,7296ceeaadcbecb52e91b4c2365a11c5,PennController,11,0,test,NULL,Selector,unnamed-Selector,Selection,positive,1727874894726,undefined,1416,crank,abstract-negative,negative,positive,negative;positive
1727875065,7296ceeaadcbecb52e91b4c2365a11c5,PennController,11,0,test,NULL,PennController,16,_Trial_,End,1727874894726,undefined,1416,crank,abstract-negative,negative,positive,NULL
1727875065,7296ceeaadcbecb52e91b4c2365a11c5,PennController,23,0,test,NULL,PennController,28,_Trial_,Start,1727874894727,undefined,1483,sing,abstract-positive,negative,positive,NULL
1727875065,7296ceeaadcbecb52e91b4c2365a11c5,PennController,23,0,test,NULL,PennController,28,_Header_,Start,1727874894727,undefined,1483,sing,abstract-positive,negative,positive,NULL
1727875065,7296ceeaadcbecb52e91b4c2365a11c5,PennController,23,0,test,NULL,PennController,28,_Header_,End,1727874894979,undefined,1483,sing,abstract-positive,negative,positive,NULL
1727875065,7296ceeaadcbecb52e91b4c2365a11c5,PennController,23,0,test,NULL,Selector,unnamed-Selector,Selection,positive,1727874896967,undefined,1483,sing,abstract-positive,negative,positive,negative;positive
1727875065,7296ceeaadcbecb52e91b4c2365a11c5,PennController,23,0,test,NULL,PennController,28,_Trial_,End,1727874896968,undefined,1483,sing,abstract-positive,negative,positive,NULL
1727875065,7296ceeaadcbecb52e91b4c2365a11c5,PennController,27,0,test,NULL,PennController,32,_Trial_,Start,1727874896969,undefined,1621,impose,concrete-negative,negative,positive,NULL
1727875065,7296ceeaadcbecb52e91b4c2365a11c5,PennController,27,0,test,NULL,PennController,32,_Header_,Start,1727874896969,undefined,1621,impose,concrete-negative,negative,positive,NULL
1727875065,7296ceeaadcbecb52e91b4c2365a11c5,PennController,27,0,test,NULL,PennController,32,_Header_,End,1727874897221,undefined,1621,impose,concrete-negative,negative,positive,NULL
1727875065,7296ceeaadcbecb52e91b4c2365a11c5,PennController,27,0,test,NULL,Selector,unnamed-Selector,Selection,positive,1727874899350,undefined,1621,impose,concrete-negative,negative,positive,negative;positive
1727875065,7296ceeaadcbecb52e91b4c2365a11c5,PennController,27,0,test,NULL,PennController,32,_Trial_,End,1727874899352,undefined,1621,impose,concrete-negative,negative,positive,NULL
1727875065,7296ceeaadcbecb52e91b4c2365a11c5,PennController,35,0,test,NULL,PennController,40,_Trial_,Start,1727874899354,undefined,950,hope,concrete-positive,negative,positive,NULL
1727875065,7296ceeaadcbecb52e91b4c2365a11c5,PennController,35,0,test,NULL,PennController,40,_Header_,Start,1727874899354,undefined,950,hope,concrete-positive,negative,positive,NULL
1727875065,7296ceeaadcbecb52e91b4c2365a11c5,PennController,35,0,test,NULL,PennController,40,_Header_,End,1727874899607,undefined,950,hope,concrete-positive,negative,positive,NULL
1727875065,7296ceeaadcbecb52e91b4c2365a11c5,PennController,35,0,test,NULL,Selector,unnamed-Selector,Selection,positive,1727874901062,undefined,950,hope,concrete-positive,negative,positive,negative;positive
1727875065,7296ceeaadcbecb52e91b4c2365a11c5,PennController,35,0,test,NULL,PennController,40,_Trial_,End,1727874901065,undefined,950,hope,concrete-positive,negative,positive,NULL
1727875065,7296ceeaadcbecb52e91b4c2365a11c5,PennController,18,0,test,NULL,PennController,23,_Trial_,Start,1727874901067,undefined,1052,breathe,abstract-positive,negative,positive,NULL
1727875065,7296ceeaadcbecb52e91b4c2365a11c5,PennController,18,0,test,NULL,PennController,23,_Header_,Start,1727874901067,undefined,1052,breathe,abstract-positive,negative,positive,NULL
1727875065,7296ceeaadcbecb52e91b4c2365a11c5,PennController,18,0,test,NULL,PennController,23,_Header_,End,1727874901317,undefined,1052,breathe,abstract-positive,negative,positive,NULL
1727875065,7296ceeaadcbecb52e91b4c2365a11c5,PennController,18,0,test,NULL,Selector,unnamed-Selector,Selection,positive,1727874902876,undefined,1052,breathe,abstract-positive,negative,positive,negative;positive
1727875065,7296ceeaadcbecb52e91b4c2365a11c5,PennController,18,0,test,NULL,PennController,23,_Trial_,End,1727874902879,undefined,1052,breathe,abstract-positive,negative,positive,NULL
1727875065,7296ceeaadcbecb52e91b4c2365a11c5,PennController,8,0,test,NULL,PennController,13,_Trial_,Start,1727874902881,undefined,1211,meth,abstract-negative,negative,positive,NULL
1727875065,7296ceeaadcbecb52e91b4c2365a11c5,PennController,8,0,test,NULL,PennController,13,_Header_,Start,1727874902881,undefined,1211,meth,abstract-negative,negative,positive,NULL
1727875065,7296ceeaadcbecb52e91b4c2365a11c5,PennController,8,0,test,NULL,PennController,13,_Header_,End,1727874903133,undefined,1211,meth,abstract-negative,negative,positive,NULL
1727875065,7296ceeaadcbecb52e91b4c2365a11c5,PennController,8,0,test,NULL,Selector,unnamed-Selector,Selection,negative,1727874904850,undefined,1211,meth,abstract-negative,negative,positive,negative;positive
1727875065,7296ceeaadcbecb52e91b4c2365a11c5,PennController,8,0,test,NULL,PennController,13,_Trial_,End,1727874904851,undefined,1211,meth,abstract-negative,negative,positive,NULL
1727875065,7296ceeaadcbecb52e91b4c2365a11c5,PennController,7,0,test,NULL,PennController,12,_Trial_,Start,1727874904853,undefined,2041,fall,abstract-negative,negative,positive,NULL
1727875065,7296ceeaadcbecb52e91b4c2365a11c5,PennController,7,0,test,NULL,PennController,12,_Header_,Start,1727874904853,undefined,2041,fall,abstract-negative,negative,positive,NULL
1727875065,7296ceeaadcbecb52e91b4c2365a11c5,PennController,7,0,test,NULL,PennController,12,_Header_,End,1727874905104,undefined,2041,fall,abstract-negative,negative,positive,NULL
1727875065,7296ceeaadcbecb52e91b4c2365a11c5,PennController,7,0,test,NULL,Selector,unnamed-Selector,Selection,positive,1727874907652,undefined,2041,fall,abstract-negative,negative,positive,negative;positive
1727875065,7296ceeaadcbecb52e91b4c2365a11c5,PennController,7,0,test,NULL,PennController,12,_Trial_,End,1727874907653,undefined,2041,fall,abstract-negative,negative,positive,NULL
1727875065,7296ceeaadcbecb52e91b4c2365a11c5,PennController,16,0,test,NULL,PennController,21,_Trial_,Start,1727874907654,undefined,1355,lick,abstract-positive,negative,positive,NULL
1727875065,7296ceeaadcbecb52e91b4c2365a11c5,PennController,16,0,test,NULL,PennController,21,_Header_,Start,1727874907654,undefined,1355,lick,abstract-positive,negative,positive,NULL
1727875065,7296ceeaadcbecb52e91b4c2365a11c5,PennController,16,0,test,NULL,PennController,21,_Header_,End,1727874907906,undefined,1355,lick,abstract-positive,negative,positive,NULL
1727875065,7296ceeaadcbecb52e91b4c2365a11c5,PennController,16,0,test,NULL,Selector,unnamed-Selector,Selection,positive,1727874909763,undefined,1355,lick,abstract-positive,negative,positive,negative;positive
1727875065,7296ceeaadcbecb52e91b4c2365a11c5,PennController,16,0,test,NULL,PennController,21,_Trial_,End,1727874909764,undefined,1355,lick,abstract-positive,negative,positive,NULL
1727875065,7296ceeaadcbecb52e91b4c2365a11c5,PennController,9,0,test,NULL,PennController,14,_Trial_,Start,1727874909765,undefined,1924,drool,abstract-negative,negative,positive,NULL
1727875065,7296ceeaadcbecb52e91b4c2365a11c5,PennController,9,0,test,NULL,PennController,14,_Header_,Start,1727874909765,undefined,1924,drool,abstract-negative,negative,positive,NULL
1727875065,7296ceeaadcbecb52e91b4c2365a11c5,PennController,9,0,test,NULL,PennController,14,_Header_,End,1727874910018,undefined,1924,drool,abstract-negative,negative,positive,NULL
1727875065,7296ceeaadcbecb52e91b4c2365a11c5,PennController,9,0,test,NULL,Selector,unnamed-Selector,Selection,negative,1727874912446,undefined,1924,drool,abstract-negative,negative,positive,negative;positive
1727875065,7296ceeaadcbecb52e91b4c2365a11c5,PennController,9,0,test,NULL,PennController,14,_Trial_,End,1727874912450,undefined,1924,drool,abstract-negative,negative,positive,NULL
1727875065,7296ceeaadcbecb52e91b4c2365a11c5,PennController,14,0,test,NULL,PennController,19,_Trial_,Start,1727874912453,undefined,1627,check,abstract-positive,negative,positive,NULL
1727875065,7296ceeaadcbecb52e91b4c2365a11c5,PennController,14,0,test,NULL,PennController,19,_Header_,Start,1727874912453,undefined,1627,check,abstract-positive,negative,positive,NULL
1727875065,7296ceeaadcbecb52e91b4c2365a11c5,PennController,14,0,test,NULL,PennController,19,_Header_,End,1727874912704,undefined,1627,check,abstract-positive,negative,positive,NULL
1727875065,7296ceeaadcbecb52e91b4c2365a11c5,PennController,14,0,test,NULL,Selector,unnamed-Selector,Selection,positive,1727874914839,undefined,1627,check,abstract-positive,negative,positive,negative;positive
1727875065,7296ceeaadcbecb52e91b4c2365a11c5,PennController,14,0,test,NULL,PennController,19,_Trial_,End,1727874914840,undefined,1627,check,abstract-positive,negative,positive,NULL
1727875065,7296ceeaadcbecb52e91b4c2365a11c5,PennController,15,0,test,NULL,PennController,20,_Trial_,Start,1727874914841,undefined,966,bathe,abstract-positive,negative,positive,NULL
1727875065,7296ceeaadcbecb52e91b4c2365a11c5,PennController,15,0,test,NULL,PennController,20,_Header_,Start,1727874914841,undefined,966,bathe,abstract-positive,negative,positive,NULL
1727875065,7296ceeaadcbecb52e91b4c2365a11c5,PennController,15,0,test,NULL,PennController,20,_Header_,End,1727874915094,undefined,966,bathe,abstract-positive,negative,positive,NULL
1727875065,7296ceeaadcbecb52e91b4c2365a11c5,PennController,15,0,test,NULL,Selector,unnamed-Selector,Selection,positive,1727874916563,undefined,966,bathe,abstract-positive,negative,positive,negative;positive
1727875065,7296ceeaadcbecb52e91b4c2365a11c5,PennController,15,0,test,NULL,PennController,20,_Trial_,End,1727874916565,undefined,966,bathe,abstract-positive,negative,positive,NULL
1727875065,7296ceeaadcbecb52e91b4c2365a11c5,PennController,37,0,test,NULL,PennController,42,_Trial_,Start,1727874916568,undefined,1164,specialize,concrete-positive,negative,positive,NULL
1727875065,7296ceeaadcbecb52e91b4c2365a11c5,PennController,37,0,test,NULL,PennController,42,_Header_,Start,1727874916568,undefined,1164,specialize,concrete-positive,negative,positive,NULL
1727875065,7296ceeaadcbecb52e91b4c2365a11c5,PennController,37,0,test,NULL,PennController,42,_Header_,End,1727874916819,undefined,1164,specialize,concrete-positive,negative,positive,NULL
1727875065,7296ceeaadcbecb52e91b4c2365a11c5,PennController,37,0,test,NULL,Selector,unnamed-Selector,Selection,positive,1727874918489,undefined,1164,specialize,concrete-positive,negative,positive,negative;positive
1727875065,7296ceeaadcbecb52e91b4c2365a11c5,PennController,37,0,test,NULL,PennController,42,_Trial_,End,1727874918491,undefined,1164,specialize,concrete-positive,negative,positive,NULL
1727875065,7296ceeaadcbecb52e91b4c2365a11c5,PennController,17,0,test,NULL,PennController,22,_Trial_,Start,1727874918493,undefined,1003,laugh,abstract-positive,negative,positive,NULL
1727875065,7296ceeaadcbecb52e91b4c2365a11c5,PennController,17,0,test,NULL,PennController,22,_Header_,Start,1727874918493,undefined,1003,laugh,abstract-positive,negative,positive,NULL
1727875065,7296ceeaadcbecb52e91b4c2365a11c5,PennController,17,0,test,NULL,PennController,22,_Header_,End,1727874918746,undefined,1003,laugh,abstract-positive,negative,positive,NULL
1727875065,7296ceeaadcbecb52e91b4c2365a11c5,PennController,17,0,test,NULL,Selector,unnamed-Selector,Selection,positive,1727874920254,undefined,1003,laugh,abstract-positive,negative,positive,negative;positive
1727875065,7296ceeaadcbecb52e91b4c2365a11c5,PennController,17,0,test,NULL,PennController,22,_Trial_,End,1727874920257,undefined,1003,laugh,abstract-positive,negative,positive,NULL
1727875065,7296ceeaadcbecb52e91b4c2365a11c5,PennController,20,0,test,NULL,PennController,25,_Trial_,Start,1727874920260,undefined,906,caress,abstract-positive,negative,positive,NULL
1727875065,7296ceeaadcbecb52e91b4c2365a11c5,PennController,20,0,test,NULL,PennController,25,_Header_,Start,1727874920260,undefined,906,caress,abstract-positive,negative,positive,NULL
1727875065,7296ceeaadcbecb52e91b4c2365a11c5,PennController,20,0,test,NULL,PennController,25,_Header_,End,1727874920510,undefined,906,caress,abstract-positive,negative,positive,NULL
1727875065,7296ceeaadcbecb52e91b4c2365a11c5,PennController,20,0,test,NULL,Selector,unnamed-Selector,Selection,positive,1727874921920,undefined,906,caress,abstract-positive,negative,positive,negative;positive
1727875065,7296ceeaadcbecb52e91b4c2365a11c5,PennController,20,0,test,NULL,PennController,25,_Trial_,End,1727874921923,undefined,906,caress,abstract-positive,negative,positive,NULL
1727875065,7296ceeaadcbecb52e91b4c2365a11c5,PennController,28,0,test,NULL,PennController,33,_Trial_,Start,1727874921926,undefined,793,exploit,concrete-negative,negative,positive,NULL
1727875065,7296ceeaadcbecb52e91b4c2365a11c5,PennController,28,0,test,NULL,PennController,33,_Header_,Start,1727874921926,undefined,793,exploit,concrete-negative,negative,positive,NULL
1727875065,7296ceeaadcbecb52e91b4c2365a11c5,PennController,28,0,test,NULL,PennController,33,_Header_,End,1727874922181,undefined,793,exploit,concrete-negative,negative,positive,NULL
1727875065,7296ceeaadcbecb52e91b4c2365a11c5,PennController,28,0,test,NULL,Selector,unnamed-Selector,Selection,negative,1727874923479,undefined,793,exploit,concrete-negative,negative,positive,negative;positive
1727875065,7296ceeaadcbecb52e91b4c2365a11c5,PennController,28,0,test,NULL,PennController,33,_Trial_,End,1727874923482,undefined,793,exploit,concrete-negative,negative,positive,NULL
1727875065,7296ceeaadcbecb52e91b4c2365a11c5,PennController,19,0,test,NULL,PennController,24,_Trial_,Start,1727874923485,undefined,1002,running,abstract-positive,negative,positive,NULL
1727875065,7296ceeaadcbecb52e91b4c2365a11c5,PennController,19,0,test,NULL,PennController,24,_Header_,Start,1727874923485,undefined,1002,running,abstract-positive,negative,positive,NULL
1727875065,7296ceeaadcbecb52e91b4c2365a11c5,PennController,19,0,test,NULL,PennController,24,_Header_,End,1727874923735,undefined,1002,running,abstract-positive,negative,positive,NULL
1727875065,7296ceeaadcbecb52e91b4c2365a11c5,PennController,19,0,test,NULL,Selector,unnamed-Selector,Selection,positive,1727874925242,undefined,1002,running,abstract-positive,negative,positive,negative;positive
1727875065,7296ceeaadcbecb52e91b4c2365a11c5,PennController,19,0,test,NULL,PennController,24,_Trial_,End,1727874925244,undefined,1002,running,abstract-positive,negative,positive,NULL
1727875065,7296ceeaadcbecb52e91b4c2365a11c5,PennController,38,0,test,NULL,PennController,43,_Trial_,Start,1727874925246,undefined,1175,behold,concrete-positive,negative,positive,NULL
1727875065,7296ceeaadcbecb52e91b4c2365a11c5,PennController,38,0,test,NULL,PennController,43,_Header_,Start,1727874925246,undefined,1175,behold,concrete-positive,negative,positive,NULL
1727875065,7296ceeaadcbecb52e91b4c2365a11c5,PennController,38,0,test,NULL,PennController,43,_Header_,End,1727874925498,undefined,1175,behold,concrete-positive,negative,positive,NULL
1727875065,7296ceeaadcbecb52e91b4c2365a11c5,PennController,38,0,test,NULL,Selector,unnamed-Selector,Selection,positive,1727874927180,undefined,1175,behold,concrete-positive,negative,positive,negative;positive
1727875065,7296ceeaadcbecb52e91b4c2365a11c5,PennController,38,0,test,NULL,PennController,43,_Trial_,End,1727874927182,undefined,1175,behold,concrete-positive,negative,positive,NULL
1727875065,7296ceeaadcbecb52e91b4c2365a11c5,PennController,33,0,test,NULL,PennController,38,_Trial_,Start,1727874927185,undefined,1534,beware,concrete-negative,negative,positive,NULL
1727875065,7296ceeaadcbecb52e91b4c2365a11c5,PennController,33,0,test,NULL,PennController,38,_Header_,Start,1727874927185,undefined,1534,beware,concrete-negative,negative,positive,NULL
1727875065,7296ceeaadcbecb52e91b4c2365a11c5,PennController,33,0,test,NULL,PennController,38,_Header_,End,1727874927436,undefined,1534,beware,concrete-negative,negative,positive,NULL
1727875065,7296ceeaadcbecb52e91b4c2365a11c5,PennController,33,0,test,NULL,Selector,unnamed-Selector,Selection,positive,1727874929476,undefined,1534,beware,concrete-negative,negative,positive,negative;positive
1727875065,7296ceeaadcbecb52e91b4c2365a11c5,PennController,33,0,test,NULL,PennController,38,_Trial_,End,1727874929477,undefined,1534,beware,concrete-negative,negative,positive,NULL
1727875065,7296ceeaadcbecb52e91b4c2365a11c5,PennController,41,0,test,NULL,PennController,46,_Trial_,Start,1727874929477,undefined,919,improve,concrete-positive,negative,positive,NULL
1727875065,7296ceeaadcbecb52e91b4c2365a11c5,PennController,41,0,test,NULL,PennController,46,_Header_,Start,1727874929477,undefined,919,improve,concrete-positive,negative,positive,NULL
1727875065,7296ceeaadcbecb52e91b4c2365a11c5,PennController,41,0,test,NULL,PennController,46,_Header_,End,1727874929731,undefined,919,improve,concrete-positive,negative,positive,NULL
1727875065,7296ceeaadcbecb52e91b4c2365a11c5,PennController,41,0,test,NULL,Selector,unnamed-Selector,Selection,positive,1727874931153,undefined,919,improve,concrete-positive,negative,positive,negative;positive
1727875065,7296ceeaadcbecb52e91b4c2365a11c5,PennController,41,0,test,NULL,PennController,46,_Trial_,End,1727874931155,undefined,919,improve,concrete-positive,negative,positive,NULL
1727875065,7296ceeaadcbecb52e91b4c2365a11c5,PennController,22,0,test,NULL,PennController,27,_Trial_,Start,1727874931157,undefined,2085,talk,abstract-positive,negative,positive,NULL
1727875065,7296ceeaadcbecb52e91b4c2365a11c5,PennController,22,0,test,NULL,PennController,27,_Header_,Start,1727874931157,undefined,2085,talk,abstract-positive,negative,positive,NULL
1727875065,7296ceeaadcbecb52e91b4c2365a11c5,PennController,22,0,test,NULL,PennController,27,_Header_,End,1727874931411,undefined,2085,talk,abstract-positive,negative,positive,NULL
1727875065,7296ceeaadcbecb52e91b4c2365a11c5,PennController,22,0,test,NULL,Selector,unnamed-Selector,Selection,positive,1727874933999,undefined,2085,talk,abstract-positive,negative,positive,negative;positive
1727875065,7296ceeaadcbecb52e91b4c2365a11c5,PennController,22,0,test,NULL,PennController,27,_Trial_,End,1727874934002,undefined,2085,talk,abstract-positive,negative,positive,NULL
1727875065,7296ceeaadcbecb52e91b4c2365a11c5,PennController,36,0,test,NULL,PennController,41,_Trial_,Start,1727874934004,undefined,980,feeling,concrete-positive,negative,positive,NULL
1727875065,7296ceeaadcbecb52e91b4c2365a11c5,PennController,36,0,test,NULL,PennController,41,_Header_,Start,1727874934004,undefined,980,feeling,concrete-positive,negative,positive,NULL
1727875065,7296ceeaadcbecb52e91b4c2365a11c5,PennController,36,0,test,NULL,PennController,41,_Header_,End,1727874934256,undefined,980,feeling,concrete-positive,negative,positive,NULL
1727875065,7296ceeaadcbecb52e91b4c2365a11c5,PennController,36,0,test,NULL,Selector,unnamed-Selector,Selection,positive,1727874935743,undefined,980,feeling,concrete-positive,negative,positive,negative;positive
1727875065,7296ceeaadcbecb52e91b4c2365a11c5,PennController,36,0,test,NULL,PennController,41,_Trial_,End,1727874935747,undefined,980,feeling,concrete-positive,negative,positive,NULL
1727875065,7296ceeaadcbecb52e91b4c2365a11c5,PennController,39,0,test,NULL,PennController,44,_Trial_,Start,1727874935750,undefined,892,consider,concrete-positive,negative,positive,NULL
1727875065,7296ceeaadcbecb52e91b4c2365a11c5,PennController,39,0,test,NULL,PennController,44,_Header_,Start,1727874935750,undefined,892,consider,concrete-positive,negative,positive,NULL
1727875065,7296ceeaadcbecb52e91b4c2365a11c5,PennController,39,0,test,NULL,PennController,44,_Header_,End,1727874936004,undefined,892,consider,concrete-positive,negative,positive,NULL
1727875065,7296ceeaadcbecb52e91b4c2365a11c5,PennController,39,0,test,NULL,Selector,unnamed-Selector,Selection,positive,1727874937403,undefined,892,consider,concrete-positive,negative,positive,negative;positive
1727875065,7296ceeaadcbecb52e91b4c2365a11c5,PennController,39,0,test,NULL,PennController,44,_Trial_,End,1727874937406,undefined,892,consider,concrete-positive,negative,positive,NULL
1727875065,7296ceeaadcbecb52e91b4c2365a11c5,PennController,29,0,test,NULL,PennController,34,_Trial_,Start,1727874937410,undefined,738,distrust,concrete-negative,negative,positive,NULL
1727875065,7296ceeaadcbecb52e91b4c2365a11c5,PennController,29,0,test,NULL,PennController,34,_Header_,Start,1727874937410,undefined,738,distrust,concrete-negative,negative,positive,NULL
1727875065,7296ceeaadcbecb52e91b4c2365a11c5,PennController,29,0,test,NULL,PennController,34,_Header_,End,1727874937662,undefined,738,distrust,concrete-negative,negative,positive,NULL
1727875065,7296ceeaadcbecb52e91b4c2365a11c5,PennController,29,0,test,NULL,Selector,unnamed-Selector,Selection,negative,1727874938903,undefined,738,distrust,concrete-negative,negative,positive,negative;positive
1727875065,7296ceeaadcbecb52e91b4c2365a11c5,PennController,29,0,test,NULL,PennController,34,_Trial_,End,1727874938905,undefined,738,distrust,concrete-negative,negative,positive,NULL
1727875065,7296ceeaadcbecb52e91b4c2365a11c5,PennController,34,0,test,NULL,PennController,39,_Trial_,Start,1727874938906,undefined,1028,qualify,concrete-positive,negative,positive,NULL
1727875065,7296ceeaadcbecb52e91b4c2365a11c5,PennController,34,0,test,NULL,PennController,39,_Header_,Start,1727874938906,undefined,1028,qualify,concrete-positive,negative,positive,NULL
1727875065,7296ceeaadcbecb52e91b4c2365a11c5,PennController,34,0,test,NULL,PennController,39,_Header_,End,1727874939158,undefined,1028,qualify,concrete-positive,negative,positive,NULL
1727875065,7296ceeaadcbecb52e91b4c2365a11c5,PennController,34,0,test,NULL,Selector,unnamed-Selector,Selection,positive,1727874940689,undefined,1028,qualify,concrete-positive,negative,positive,negative;positive
1727875065,7296ceeaadcbecb52e91b4c2365a11c5,PennController,34,0,test,NULL,PennController,39,_Trial_,End,1727874940692,undefined,1028,qualify,concrete-positive,negative,positive,NULL
1727875065,7296ceeaadcbecb52e91b4c2365a11c5,PennController,30,0,test,NULL,PennController,35,_Trial_,Start,1727874940694,undefined,1665,envy,concrete-negative,negative,positive,NULL
1727875065,7296ceeaadcbecb52e91b4c2365a11c5,PennController,30,0,test,NULL,PennController,35,_Header_,Start,1727874940694,undefined,1665,envy,concrete-negative,negative,positive,NULL
1727875065,7296ceeaadcbecb52e91b4c2365a11c5,PennController,30,0,test,NULL,PennController,35,_Header_,End,1727874940948,undefined,1665,envy,concrete-negative,negative,positive,NULL
1727875065,7296ceeaadcbecb52e91b4c2365a11c5,PennController,30,0,test,NULL,Selector,unnamed-Selector,Selection,negative,1727874943121,undefined,1665,envy,concrete-negative,negative,positive,negative;positive
1727875065,7296ceeaadcbecb52e91b4c2365a11c5,PennController,30,0,test,NULL,PennController,35,_Trial_,End,1727874943124,undefined,1665,envy,concrete-negative,negative,positive,NULL
1727875065,7296ceeaadcbecb52e91b4c2365a11c5,PennController,32,0,test,NULL,PennController,37,_Trial_,Start,1727874943126,undefined,738,violate,concrete-negative,negative,positive,NULL
1727875065,7296ceeaadcbecb52e91b4c2365a11c5,PennController,32,0,test,NULL,PennController,37,_Header_,Start,1727874943126,undefined,738,violate,concrete-negative,negative,positive,NULL
1727875065,7296ceeaadcbecb52e91b4c2365a11c5,PennController,32,0,test,NULL,PennController,37,_Header_,End,1727874943376,undefined,738,violate,concrete-negative,negative,positive,NULL
1727875065,7296ceeaadcbecb52e91b4c2365a11c5,PennController,32,0,test,NULL,Selector,unnamed-Selector,Selection,negative,1727874944618,undefined,738,violate,concrete-negative,negative,positive,negative;positive
1727875065,7296ceeaadcbecb52e91b4c2365a11c5,PennController,32,0,test,NULL,PennController,37,_Trial_,End,1727874944620,undefined,738,violate,concrete-negative,negative,positive,NULL
1727875065,7296ceeaadcbecb52e91b4c2365a11c5,PennController,10,0,test,NULL,PennController,15,_Trial_,Start,1727874944622,undefined,1111,crushed,abstract-negative,negative,positive,NULL
1727875065,7296ceeaadcbecb52e91b4c2365a11c5,PennController,10,0,test,NULL,PennController,15,_Header_,Start,1727874944622,undefined,1111,crushed,abstract-negative,negative,positive,NULL
1727875065,7296ceeaadcbecb52e91b4c2365a11c5,PennController,10,0,test,NULL,PennController,15,_Header_,End,1727874944874,undefined,1111,crushed,abstract-negative,negative,positive,NULL
1727875065,7296ceeaadcbecb52e91b4c2365a11c5,PennController,10,0,test,NULL,Selector,unnamed-Selector,Selection,negative,1727874946489,undefined,1111,crushed,abstract-negative,negative,positive,negative;positive
1727875065,7296ceeaadcbecb52e91b4c2365a11c5,PennController,10,0,test,NULL,PennController,15,_Trial_,End,1727874946491,undefined,1111,crushed,abstract-negative,negative,positive,NULL
1727875065,7296ceeaadcbecb52e91b4c2365a11c5,PennController,31,0,test,NULL,PennController,36,_Trial_,Start,1727874946493,undefined,1602,presume,concrete-negative,negative,positive,NULL
1727875065,7296ceeaadcbecb52e91b4c2365a11c5,PennController,31,0,test,NULL,PennController,36,_Header_,Start,1727874946493,undefined,1602,presume,concrete-negative,negative,positive,NULL
1727875065,7296ceeaadcbecb52e91b4c2365a11c5,PennController,31,0,test,NULL,PennController,36,_Header_,End,1727874946746,undefined,1602,presume,concrete-negative,negative,positive,NULL
1727875065,7296ceeaadcbecb52e91b4c2365a11c5,PennController,31,0,test,NULL,Selector,unnamed-Selector,Selection,positive,1727874948852,undefined,1602,presume,concrete-negative,negative,positive,negative;positive
1727875065,7296ceeaadcbecb52e91b4c2365a11c5,PennController,31,0,test,NULL,PennController,36,_Trial_,End,1727874948856,undefined,1602,presume,concrete-negative,negative,positive,NULL
1727875065,7296ceeaadcbecb52e91b4c2365a11c5,PennController,26,0,test,NULL,PennController,31,_Trial_,Start,1727874948859,undefined,1480,befall,concrete-negative,negative,positive,NULL
1727875065,7296ceeaadcbecb52e91b4c2365a11c5,PennController,26,0,test,NULL,PennController,31,_Header_,Start,1727874948859,undefined,1480,befall,concrete-negative,negative,positive,NULL
1727875065,7296ceeaadcbecb52e91b4c2365a11c5,PennController,26,0,test,NULL,PennController,31,_Header_,End,1727874949109,undefined,1480,befall,concrete-negative,negative,positive,NULL
1727875065,7296ceeaadcbecb52e91b4c2365a11c5,PennController,26,0,test,NULL,Selector,unnamed-Selector,Selection,positive,1727874951092,undefined,1480,befall,concrete-negative,negative,positive,negative;positive
1727875065,7296ceeaadcbecb52e91b4c2365a11c5,PennController,26,0,test,NULL,PennController,31,_Trial_,End,1727874951093,undefined,1480,befall,concrete-negative,negative,positive,NULL
1727875065,7296ceeaadcbecb52e91b4c2365a11c5,PennController,42,0,test,NULL,PennController,47,_Trial_,Start,1727874951094,undefined,1818,wish,concrete-positive,negative,positive,NULL
1727875065,7296ceeaadcbecb52e91b4c2365a11c5,PennController,42,0,test,NULL,PennController,47,_Header_,Start,1727874951094,undefined,1818,wish,concrete-positive,negative,positive,NULL
1727875065,7296ceeaadcbecb52e91b4c2365a11c5,PennController,42,0,test,NULL,PennController,47,_Header_,End,1727874951344,undefined,1818,wish,concrete-positive,negative,positive,NULL
1727875065,7296ceeaadcbecb52e91b4c2365a11c5,PennController,42,0,test,NULL,Selector,unnamed-Selector,Selection,positive,1727874953665,undefined,1818,wish,concrete-positive,negative,positive,negative;positive
1727875065,7296ceeaadcbecb52e91b4c2365a11c5,PennController,42,0,test,NULL,PennController,47,_Trial_,End,1727874953667,undefined,1818,wish,concrete-positive,negative,positive,NULL
1727875065,7296ceeaadcbecb52e91b4c2365a11c5,PennController,6,0,test,NULL,PennController,11,_Trial_,Start,1727874953669,undefined,1368,hurl,abstract-negative,negative,positive,NULL
1727875065,7296ceeaadcbecb52e91b4c2365a11c5,PennController,6,0,test,NULL,PennController,11,_Header_,Start,1727874953669,undefined,1368,hurl,abstract-negative,negative,positive,NULL
1727875065,7296ceeaadcbecb52e91b4c2365a11c5,PennController,6,0,test,NULL,PennController,11,_Header_,End,1727874953919,undefined,1368,hurl,abstract-negative,negative,positive,NULL
1727875065,7296ceeaadcbecb52e91b4c2365a11c5,PennController,6,0,test,NULL,Selector,unnamed-Selector,Selection,positive,1727874955793,undefined,1368,hurl,abstract-negative,negative,positive,negative;positive
1727875065,7296ceeaadcbecb52e91b4c2365a11c5,PennController,6,0,test,NULL,PennController,11,_Trial_,End,1727874955795,undefined,1368,hurl,abstract-negative,negative,positive,NULL
1727875065,7296ceeaadcbecb52e91b4c2365a11c5,PennController,24,0,test,NULL,PennController,29,_Trial_,Start,1727874955798,undefined,720,disappoint,concrete-negative,negative,positive,NULL
1727875065,7296ceeaadcbecb52e91b4c2365a11c5,PennController,24,0,test,NULL,PennController,29,_Header_,Start,1727874955798,undefined,720,disappoint,concrete-negative,negative,positive,NULL
1727875065,7296ceeaadcbecb52e91b4c2365a11c5,PennController,24,0,test,NULL,PennController,29,_Header_,End,1727874956052,undefined,720,disappoint,concrete-negative,negative,positive,NULL
1727875065,7296ceeaadcbecb52e91b4c2365a11c5,PennController,24,0,test,NULL,Selector,unnamed-Selector,Selection,negative,1727874957278,undefined,720,disappoint,concrete-negative,negative,positive,negative;positive
1727875065,7296ceeaadcbecb52e91b4c2365a11c5,PennController,24,0,test,NULL,PennController,29,_Trial_,End,1727874957282,undefined,720,disappoint,concrete-negative,negative,positive,NULL
1727875065,7296ceeaadcbecb52e91b4c2365a11c5,PennController,13,0,test,NULL,PennController,18,_Trial_,Start,1727874957284,undefined,859,smack,abstract-negative,negative,positive,NULL
1727875065,7296ceeaadcbecb52e91b4c2365a11c5,PennController,13,0,test,NULL,PennController,18,_Header_,Start,1727874957284,undefined,859,smack,abstract-negative,negative,positive,NULL
1727875065,7296ceeaadcbecb52e91b4c2365a11c5,PennController,13,0,test,NULL,PennController,18,_Header_,End,1727874957534,undefined,859,smack,abstract-negative,negative,positive,NULL
1727875065,7296ceeaadcbecb52e91b4c2365a11c5,PennController,13,0,test,NULL,Selector,unnamed-Selector,Selection,negative,1727874958896,undefined,859,smack,abstract-negative,negative,positive,negative;positive
1727875065,7296ceeaadcbecb52e91b4c2365a11c5,PennController,13,0,test,NULL,PennController,18,_Trial_,End,1727874958897,undefined,859,smack,abstract-negative,negative,positive,NULL
1727875065,7296ceeaadcbecb52e91b4c2365a11c5,PennController,43,0,test,NULL,PennController,48,_Trial_,Start,1727874958898,undefined,1090,forgive,concrete-positive,negative,positive,NULL
1727875065,7296ceeaadcbecb52e91b4c2365a11c5,PennController,43,0,test,NULL,PennController,48,_Header_,Start,1727874958898,undefined,1090,forgive,concrete-positive,negative,positive,NULL
1727875065,7296ceeaadcbecb52e91b4c2365a11c5,PennController,43,0,test,NULL,PennController,48,_Header_,End,1727874959148,undefined,1090,forgive,concrete-positive,negative,positive,NULL
1727875065,7296ceeaadcbecb52e91b4c2365a11c5,PennController,43,0,test,NULL,Selector,unnamed-Selector,Selection,positive,1727874960743,undefined,1090,forgive,concrete-positive,negative,positive,negative;positive
1727875065,7296ceeaadcbecb52e91b4c2365a11c5,PennController,43,0,test,NULL,PennController,48,_Trial_,End,1727874960744,undefined,1090,forgive,concrete-positive,negative,positive,NULL
1727875065,7296ceeaadcbecb52e91b4c2365a11c5,PennController,40,0,test,NULL,PennController,45,_Trial_,Start,1727874960745,undefined,1513,justify,concrete-positive,negative,positive,NULL
1727875065,7296ceeaadcbecb52e91b4c2365a11c5,PennController,40,0,test,NULL,PennController,45,_Header_,Start,1727874960745,undefined,1513,justify,concrete-positive,negative,positive,NULL
1727875065,7296ceeaadcbecb52e91b4c2365a11c5,PennController,40,0,test,NULL,PennController,45,_Header_,End,1727874960996,undefined,1513,justify,concrete-positive,negative,positive,NULL
1727875065,7296ceeaadcbecb52e91b4c2365a11c5,PennController,40,0,test,NULL,Selector,unnamed-Selector,Selection,positive,1727874963016,undefined,1513,justify,concrete-positive,negative,positive,negative;positive
1727875065,7296ceeaadcbecb52e91b4c2365a11c5,PennController,40,0,test,NULL,PennController,45,_Trial_,End,1727874963018,undefined,1513,justify,concrete-positive,negative,positive,NULL
1727875065,7296ceeaadcbecb52e91b4c2365a11c5,PennController,5,0,test,NULL,PennController,10,_Trial_,Start,1727874963020,undefined,1143,snore,abstract-negative,negative,positive,NULL
1727875065,7296ceeaadcbecb52e91b4c2365a11c5,PennController,5,0,test,NULL,PennController,10,_Header_,Start,1727874963020,undefined,1143,snore,abstract-negative,negative,positive,NULL
1727875065,7296ceeaadcbecb52e91b4c2365a11c5,PennController,5,0,test,NULL,PennController,10,_Header_,End,1727874963270,undefined,1143,snore,abstract-negative,negative,positive,NULL
1727875065,7296ceeaadcbecb52e91b4c2365a11c5,PennController,5,0,test,NULL,Selector,unnamed-Selector,Selection,negative,1727874964919,undefined,1143,snore,abstract-negative,negative,positive,negative;positive
1727875065,7296ceeaadcbecb52e91b4c2365a11c5,PennController,5,0,test,NULL,PennController,10,_Trial_,End,1727874964922,undefined,1143,snore,abstract-negative,negative,positive,NULL
1727875065,7296ceeaadcbecb52e91b4c2365a11c5,PennController,25,0,test,NULL,PennController,30,_Trial_,Start,1727874964924,undefined,628,discourage,concrete-negative,negative,positive,NULL
1727875065,7296ceeaadcbecb52e91b4c2365a11c5,PennController,25,0,test,NULL,PennController,30,_Header_,Start,1727874964924,undefined,628,discourage,concrete-negative,negative,positive,NULL
1727875065,7296ceeaadcbecb52e91b4c2365a11c5,PennController,25,0,test,NULL,PennController,30,_Header_,End,1727874965179,undefined,628,discourage,concrete-negative,negative,positive,NULL
1727875065,7296ceeaadcbecb52e91b4c2365a11c5,PennController,25,0,test,NULL,Selector,unnamed-Selector,Selection,negative,1727874966311,undefined,628,discourage,concrete-negative,negative,positive,negative;positive
1727875065,7296ceeaadcbecb52e91b4c2365a11c5,PennController,25,0,test,NULL,PennController,30,_Trial_,End,1727874966314,undefined,628,discourage,concrete-negative,negative,positive,NULL
# 13. NativeLang.
# 14. OtherLangs.
# 15. Gender.
# 16. Education.
# 17. Comments.
# 18. Comments.
1727875065,7296ceeaadcbecb52e91b4c2365a11c5,PennController,56,0,demo,NULL,PennController,4,_Trial_,Start,1727874966316,English,No,undefined,undefined,undefined,NULL
1727875065,7296ceeaadcbecb52e91b4c2365a11c5,PennController,56,0,demo,NULL,PennController,4,_Header_,Start,1727874966316,English,No,undefined,undefined,undefined,NULL
1727875065,7296ceeaadcbecb52e91b4c2365a11c5,PennController,56,0,demo,NULL,PennController,4,_Header_,End,1727874966570,English,No,undefined,undefined,undefined,NULL
1727875065,7296ceeaadcbecb52e91b4c2365a11c5,PennController,56,0,demo,NULL,TextInput,Gender,First,,1727874970303,English,No,undefined,undefined,undefined,w
1727875065,7296ceeaadcbecb52e91b4c2365a11c5,PennController,56,0,demo,NULL,TextInput,Education,First,,1727874978812,English,No,undefined,undefined,undefined,Shift
1727875065,7296ceeaadcbecb52e91b4c2365a11c5,PennController,56,0,demo,NULL,TextInput,NativeLang,First,,1727874989477,English,No,undefined,undefined,undefined,Shift
1727875065,7296ceeaadcbecb52e91b4c2365a11c5,PennController,56,0,demo,NULL,TextInput,Gender,Final,woman,1727875065320,English,No,undefined,undefined,undefined,NULL
1727875065,7296ceeaadcbecb52e91b4c2365a11c5,PennController,56,0,demo,NULL,TextInput,Education,Final,Bachelor's degree ,1727875065320,English,No,undefined,undefined,undefined,NULL
1727875065,7296ceeaadcbecb52e91b4c2365a11c5,PennController,56,0,demo,NULL,TextInput,NativeLang,Final,English,1727875065320,English,No,undefined,undefined,undefined,NULL
1727875065,7296ceeaadcbecb52e91b4c2365a11c5,PennController,56,0,demo,NULL,PennController,4,_Trial_,End,1727875065320,English,No,undefined,undefined,undefined,NULL
#
# Results on Wed, 02 Oct 2024 13:22:29 GMT
# USER AGENT: Mozilla/5.0 (Windows NT 10.0; Win64; x64) AppleWebKit/537.36 (KHTML, like Gecko) Chrome/129.0.0.0 Safari/537.36
# Design number was non-random = 0
#
# Columns below this comment are as follows:
# 1. Results reception time.
# 2. MD5 hash of participant's IP address.
# 3. Controller name.
# 4. Order number of item.
# 5. Inner element number.
# 6. Label.
# 7. Latin Square Group.
# 8. PennElementType.
# 9. PennElementName.
# 10. Parameter.
# 11. Value.
# 12. EventTime.
# 13. Comments.
1727875349,fa8598f0b3f0a7298d45abe57c9178ac,PennController,1,0,welcome,NULL,PennController,0,_Trial_,Start,1727875046057,NULL
1727875349,fa8598f0b3f0a7298d45abe57c9178ac,PennController,1,0,welcome,NULL,PennController,0,_Header_,Start,1727875046058,NULL
1727875349,fa8598f0b3f0a7298d45abe57c9178ac,PennController,1,0,welcome,NULL,PennController,0,_Header_,End,1727875046310,NULL
1727875349,fa8598f0b3f0a7298d45abe57c9178ac,PennController,1,0,welcome,NULL,PennController,0,_Trial_,End,1727875064141,NULL
# 13. ID.
# 14. Comments.
1727875349,fa8598f0b3f0a7298d45abe57c9178ac,PennController,55,0,consent,NULL,PennController,3,_Trial_,Start,1727875064144,669aabcd5c4869b3bb6d7761,NULL
1727875349,fa8598f0b3f0a7298d45abe57c9178ac,PennController,55,0,consent,NULL,PennController,3,_Header_,Start,1727875064144,669aabcd5c4869b3bb6d7761,NULL
1727875349,fa8598f0b3f0a7298d45abe57c9178ac,PennController,55,0,consent,NULL,PennController,3,_Header_,End,1727875064395,669aabcd5c4869b3bb6d7761,NULL
1727875349,fa8598f0b3f0a7298d45abe57c9178ac,PennController,55,0,consent,NULL,TextInput,ID,Final,669aabcd5c4869b3bb6d7761,1727875125001,669aabcd5c4869b3bb6d7761,NULL
1727875349,fa8598f0b3f0a7298d45abe57c9178ac,PennController,55,0,consent,NULL,PennController,3,_Trial_,End,1727875125002,669aabcd5c4869b3bb6d7761,NULL
# 13. Comments.
1727875349,fa8598f0b3f0a7298d45abe57c9178ac,PennController,57,0,instructions1,NULL,PennController,5,_Trial_,Start,1727875125003,NULL
1727875349,fa8598f0b3f0a7298d45abe57c9178ac,PennController,57,0,instructions1,NULL,PennController,5,_Header_,Start,1727875125003,NULL
1727875349,fa8598f0b3f0a7298d45abe57c9178ac,PennController,57,0,instructions1,NULL,PennController,5,_Header_,End,1727875125255,NULL
1727875349,fa8598f0b3f0a7298d45abe57c9178ac,PennController,57,0,instructions1,NULL,PennController,5,_Trial_,End,1727875135821,NULL
1727875349,fa8598f0b3f0a7298d45abe57c9178ac,PennController,58,0,instructions2,NULL,PennController,6,_Trial_,Start,1727875135822,NULL
1727875349,fa8598f0b3f0a7298d45abe57c9178ac,PennController,58,0,instructions2,NULL,PennController,6,_Header_,Start,1727875135822,NULL
1727875349,fa8598f0b3f0a7298d45abe57c9178ac,PennController,58,0,instructions2,NULL,PennController,6,_Header_,End,1727875136077,NULL
1727875349,fa8598f0b3f0a7298d45abe57c9178ac,PennController,58,0,instructions2,NULL,PennController,6,_Trial_,End,1727875169971,NULL
1727875349,fa8598f0b3f0a7298d45abe57c9178ac,PennController,59,0,instructions3,NULL,PennController,7,_Trial_,Start,1727875169972,NULL
1727875349,fa8598f0b3f0a7298d45abe57c9178ac,PennController,59,0,instructions3,NULL,PennController,7,_Header_,Start,1727875169972,NULL
1727875349,fa8598f0b3f0a7298d45abe57c9178ac,PennController,59,0,instructions3,NULL,PennController,7,_Header_,End,1727875170223,NULL
1727875349,fa8598f0b3f0a7298d45abe57c9178ac,PennController,59,0,instructions3,NULL,PennController,7,_Trial_,End,1727875181502,NULL
1727875349,fa8598f0b3f0a7298d45abe57c9178ac,PennController,44,0,practice_intro,NULL,PennController,2,_Trial_,Start,1727875181503,NULL
1727875349,fa8598f0b3f0a7298d45abe57c9178ac,PennController,44,0,practice_intro,NULL,PennController,2,_Header_,Start,1727875181503,NULL
1727875349,fa8598f0b3f0a7298d45abe57c9178ac,PennController,44,0,practice_intro,NULL,PennController,2,_Header_,End,1727875181753,NULL
1727875349,fa8598f0b3f0a7298d45abe57c9178ac,PennController,44,0,practice_intro,NULL,PennController,2,_Trial_,End,1727875183859,NULL
# 13. ID.
# 14. ReactionTime.
# 15. Word.
# 16. Key_value_F.
# 17. Key_value_J.
# 18. Group.
# 19. Comments.
1727875349,fa8598f0b3f0a7298d45abe57c9178ac,PennController,54,0,calibrator,NULL,PennController,58,_Trial_,Start,1727875183860,undefined,3880,free,negative,positive,B,NULL
1727875349,fa8598f0b3f0a7298d45abe57c9178ac,PennController,54,0,calibrator,NULL,PennController,58,_Header_,Start,1727875183860,undefined,3880,free,negative,positive,B,NULL
1727875349,fa8598f0b3f0a7298d45abe57c9178ac,PennController,54,0,calibrator,NULL,PennController,58,_Header_,End,1727875184115,undefined,3880,free,negative,positive,B,NULL
1727875349,fa8598f0b3f0a7298d45abe57c9178ac,PennController,54,0,calibrator,NULL,Selector,unnamed-Selector,Selection,positive,1727875188500,undefined,3880,free,negative,positive,B,negative;positive
1727875349,fa8598f0b3f0a7298d45abe57c9178ac,PennController,54,0,calibrator,NULL,PennController,58,_Trial_,End,1727875188502,undefined,3880,free,negative,positive,B,NULL
1727875349,fa8598f0b3f0a7298d45abe57c9178ac,PennController,46,0,calibrator,NULL,PennController,50,_Trial_,Start,1727875188503,undefined,1654,invader,negative,positive,B,NULL
1727875349,fa8598f0b3f0a7298d45abe57c9178ac,PennController,46,0,calibrator,NULL,PennController,50,_Header_,Start,1727875188503,undefined,1654,invader,negative,positive,B,NULL
1727875349,fa8598f0b3f0a7298d45abe57c9178ac,PennController,46,0,calibrator,NULL,PennController,50,_Header_,End,1727875188757,undefined,1654,invader,negative,positive,B,NULL
1727875349,fa8598f0b3f0a7298d45abe57c9178ac,PennController,46,0,calibrator,NULL,Selector,unnamed-Selector,Selection,negative,1727875190913,undefined,1654,invader,negative,positive,B,negative;positive
1727875349,fa8598f0b3f0a7298d45abe57c9178ac,PennController,46,0,calibrator,NULL,PennController,50,_Trial_,End,1727875190914,undefined,1654,invader,negative,positive,B,NULL
1727875349,fa8598f0b3f0a7298d45abe57c9178ac,PennController,48,0,calibrator,NULL,PennController,52,_Trial_,Start,1727875190915,undefined,3256,industry,negative,positive,B,NULL
1727875349,fa8598f0b3f0a7298d45abe57c9178ac,PennController,48,0,calibrator,NULL,PennController,52,_Header_,Start,1727875190915,undefined,3256,industry,negative,positive,B,NULL
1727875349,fa8598f0b3f0a7298d45abe57c9178ac,PennController,48,0,calibrator,NULL,PennController,52,_Header_,End,1727875191167,undefined,3256,industry,negative,positive,B,NULL
1727875349,fa8598f0b3f0a7298d45abe57c9178ac,PennController,48,0,calibrator,NULL,Selector,unnamed-Selector,Selection,negative,1727875194927,undefined,3256,industry,negative,positive,B,negative;positive
1727875349,fa8598f0b3f0a7298d45abe57c9178ac,PennController,48,0,calibrator,NULL,PennController,52,_Trial_,End,1727875194927,undefined,3256,industry,negative,positive,B,NULL
1727875349,fa8598f0b3f0a7298d45abe57c9178ac,PennController,50,0,calibrator,NULL,PennController,54,_Trial_,Start,1727875194928,undefined,1198,hat,negative,positive,B,NULL
1727875349,fa8598f0b3f0a7298d45abe57c9178ac,PennController,50,0,calibrator,NULL,PennController,54,_Header_,Start,1727875194928,undefined,1198,hat,negative,positive,B,NULL
1727875349,fa8598f0b3f0a7298d45abe57c9178ac,PennController,50,0,calibrator,NULL,PennController,54,_Header_,End,1727875195181,undefined,1198,hat,negative,positive,B,NULL
1727875349,fa8598f0b3f0a7298d45abe57c9178ac,PennController,50,0,calibrator,NULL,Selector,unnamed-Selector,Selection,positive,1727875196882,undefined,1198,hat,negative,positive,B,negative;positive
1727875349,fa8598f0b3f0a7298d45abe57c9178ac,PennController,50,0,calibrator,NULL,PennController,54,_Trial_,End,1727875196883,undefined,1198,hat,negative,positive,B,NULL
1727875349,fa8598f0b3f0a7298d45abe57c9178ac,PennController,51,0,calibrator,NULL,PennController,55,_Trial_,Start,1727875196883,undefined,988,grin,negative,positive,B,NULL
1727875349,fa8598f0b3f0a7298d45abe57c9178ac,PennController,51,0,calibrator,NULL,PennController,55,_Header_,Start,1727875196883,undefined,988,grin,negative,positive,B,NULL
1727875349,fa8598f0b3f0a7298d45abe57c9178ac,PennController,51,0,calibrator,NULL,PennController,55,_Header_,End,1727875197134,undefined,988,grin,negative,positive,B,NULL
1727875349,fa8598f0b3f0a7298d45abe57c9178ac,PennController,51,0,calibrator,NULL,Selector,unnamed-Selector,Selection,positive,1727875198627,undefined,988,grin,negative,positive,B,negative;positive
1727875349,fa8598f0b3f0a7298d45abe57c9178ac,PennController,51,0,calibrator,NULL,PennController,55,_Trial_,End,1727875198628,undefined,988,grin,negative,positive,B,NULL
1727875349,fa8598f0b3f0a7298d45abe57c9178ac,PennController,49,0,calibrator,NULL,PennController,53,_Trial_,Start,1727875198629,undefined,2314,icebox,negative,positive,B,NULL
1727875349,fa8598f0b3f0a7298d45abe57c9178ac,PennController,49,0,calibrator,NULL,PennController,53,_Header_,Start,1727875198629,undefined,2314,icebox,negative,positive,B,NULL
1727875349,fa8598f0b3f0a7298d45abe57c9178ac,PennController,49,0,calibrator,NULL,PennController,53,_Header_,End,1727875198882,undefined,2314,icebox,negative,positive,B,NULL
1727875349,fa8598f0b3f0a7298d45abe57c9178ac,PennController,49,0,calibrator,NULL,Selector,unnamed-Selector,Selection,positive,1727875201699,undefined,2314,icebox,negative,positive,B,negative;positive
1727875349,fa8598f0b3f0a7298d45abe57c9178ac,PennController,49,0,calibrator,NULL,PennController,53,_Trial_,End,1727875201700,undefined,2314,icebox,negative,positive,B,NULL
1727875349,fa8598f0b3f0a7298d45abe57c9178ac,PennController,52,0,calibrator,NULL,PennController,56,_Trial_,Start,1727875201702,undefined,943,kitten,negative,positive,B,NULL
1727875349,fa8598f0b3f0a7298d45abe57c9178ac,PennController,52,0,calibrator,NULL,PennController,56,_Header_,Start,1727875201702,undefined,943,kitten,negative,positive,B,NULL
1727875349,fa8598f0b3f0a7298d45abe57c9178ac,PennController,52,0,calibrator,NULL,PennController,56,_Header_,End,1727875201954,undefined,943,kitten,negative,positive,B,NULL
1727875349,fa8598f0b3f0a7298d45abe57c9178ac,PennController,52,0,calibrator,NULL,Selector,unnamed-Selector,Selection,positive,1727875203399,undefined,943,kitten,negative,positive,B,negative;positive
1727875349,fa8598f0b3f0a7298d45abe57c9178ac,PennController,52,0,calibrator,NULL,PennController,56,_Trial_,End,1727875203400,undefined,943,kitten,negative,positive,B,NULL
1727875349,fa8598f0b3f0a7298d45abe57c9178ac,PennController,45,0,calibrator,NULL,PennController,49,_Trial_,Start,1727875203401,undefined,1266,jail,negative,positive,B,NULL
1727875349,fa8598f0b3f0a7298d45abe57c9178ac,PennController,45,0,calibrator,NULL,PennController,49,_Header_,Start,1727875203401,undefined,1266,jail,negative,positive,B,NULL
1727875349,fa8598f0b3f0a7298d45abe57c9178ac,PennController,45,0,calibrator,NULL,PennController,49,_Header_,End,1727875203651,undefined,1266,jail,negative,positive,B,NULL
1727875349,fa8598f0b3f0a7298d45abe57c9178ac,PennController,45,0,calibrator,NULL,Selector,unnamed-Selector,Selection,negative,1727875205418,undefined,1266,jail,negative,positive,B,negative;positive
1727875349,fa8598f0b3f0a7298d45abe57c9178ac,PennController,45,0,calibrator,NULL,PennController,49,_Trial_,End,1727875205419,undefined,1266,jail,negative,positive,B,NULL
1727875349,fa8598f0b3f0a7298d45abe57c9178ac,PennController,53,0,calibrator,NULL,PennController,57,_Trial_,Start,1727875205420,undefined,883,joke,negative,positive,B,NULL
1727875349,fa8598f0b3f0a7298d45abe57c9178ac,PennController,53,0,calibrator,NULL,PennController,57,_Header_,Start,1727875205420,undefined,883,joke,negative,positive,B,NULL
1727875349,fa8598f0b3f0a7298d45abe57c9178ac,PennController,53,0,calibrator,NULL,PennController,57,_Header_,End,1727875205670,undefined,883,joke,negative,positive,B,NULL
1727875349,fa8598f0b3f0a7298d45abe57c9178ac,PennController,53,0,calibrator,NULL,Selector,unnamed-Selector,Selection,positive,1727875207058,undefined,883,joke,negative,positive,B,negative;positive
1727875349,fa8598f0b3f0a7298d45abe57c9178ac,PennController,53,0,calibrator,NULL,PennController,57,_Trial_,End,1727875207059,undefined,883,joke,negative,positive,B,NULL
1727875349,fa8598f0b3f0a7298d45abe57c9178ac,PennController,47,0,calibrator,NULL,PennController,51,_Trial_,Start,1727875207060,undefined,1302,insecure,negative,positive,B,NULL
1727875349,fa8598f0b3f0a7298d45abe57c9178ac,PennController,47,0,calibrator,NULL,PennController,51,_Header_,Start,1727875207060,undefined,1302,insecure,negative,positive,B,NULL
1727875349,fa8598f0b3f0a7298d45abe57c9178ac,PennController,47,0,calibrator,NULL,PennController,51,_Header_,End,1727875207310,undefined,1302,insecure,negative,positive,B,NULL
1727875349,fa8598f0b3f0a7298d45abe57c9178ac,PennController,47,0,calibrator,NULL,Selector,unnamed-Selector,Selection,negative,1727875209114,undefined,1302,insecure,negative,positive,B,negative;positive
1727875349,fa8598f0b3f0a7298d45abe57c9178ac,PennController,47,0,calibrator,NULL,PennController,51,_Trial_,End,1727875209115,undefined,1302,insecure,negative,positive,B,NULL
# 13. Comments.
1727875349,fa8598f0b3f0a7298d45abe57c9178ac,PennController,60,0,endinstructions,NULL,PennController,8,_Trial_,Start,1727875209116,NULL
1727875349,fa8598f0b3f0a7298d45abe57c9178ac,PennController,60,0,endinstructions,NULL,PennController,8,_Header_,Start,1727875209116,NULL
1727875349,fa8598f0b3f0a7298d45abe57c9178ac,PennController,60,0,endinstructions,NULL,PennController,8,_Header_,End,1727875209368,NULL
1727875349,fa8598f0b3f0a7298d45abe57c9178ac,PennController,60,0,endinstructions,NULL,PennController,8,_Trial_,End,1727875215974,NULL
# 13. ID.
# 14. ReactionTime.
# 15. Word.
# 16. ConcValCombo.
# 17. Key_value_F.
# 18. Key_value_J.
# 19. Comments.
1727875349,fa8598f0b3f0a7298d45abe57c9178ac,PennController,15,0,test,NULL,PennController,20,_Trial_,Start,1727875215974,undefined,1031,bathe,abstract-positive,negative,positive,NULL
1727875349,fa8598f0b3f0a7298d45abe57c9178ac,PennController,15,0,test,NULL,PennController,20,_Header_,Start,1727875215974,undefined,1031,bathe,abstract-positive,negative,positive,NULL
1727875349,fa8598f0b3f0a7298d45abe57c9178ac,PennController,15,0,test,NULL,PennController,20,_Header_,End,1727875216225,undefined,1031,bathe,abstract-positive,negative,positive,NULL
1727875349,fa8598f0b3f0a7298d45abe57c9178ac,PennController,15,0,test,NULL,Selector,unnamed-Selector,Selection,positive,1727875217758,undefined,1031,bathe,abstract-positive,negative,positive,negative;positive
1727875349,fa8598f0b3f0a7298d45abe57c9178ac,PennController,15,0,test,NULL,PennController,20,_Trial_,End,1727875217759,undefined,1031,bathe,abstract-positive,negative,positive,NULL
1727875349,fa8598f0b3f0a7298d45abe57c9178ac,PennController,10,0,test,NULL,PennController,15,_Trial_,Start,1727875217760,undefined,1759,crushed,abstract-negative,negative,positive,NULL
1727875349,fa8598f0b3f0a7298d45abe57c9178ac,PennController,10,0,test,NULL,PennController,15,_Header_,Start,1727875217760,undefined,1759,crushed,abstract-negative,negative,positive,NULL
1727875349,fa8598f0b3f0a7298d45abe57c9178ac,PennController,10,0,test,NULL,PennController,15,_Header_,End,1727875218012,undefined,1759,crushed,abstract-negative,negative,positive,NULL
1727875349,fa8598f0b3f0a7298d45abe57c9178ac,PennController,10,0,test,NULL,Selector,unnamed-Selector,Selection,negative,1727875220277,undefined,1759,crushed,abstract-negative,negative,positive,negative;positive
1727875349,fa8598f0b3f0a7298d45abe57c9178ac,PennController,10,0,test,NULL,PennController,15,_Trial_,End,1727875220277,undefined,1759,crushed,abstract-negative,negative,positive,NULL
1727875349,fa8598f0b3f0a7298d45abe57c9178ac,PennController,17,0,test,NULL,PennController,22,_Trial_,Start,1727875220278,undefined,1028,laugh,abstract-positive,negative,positive,NULL
1727875349,fa8598f0b3f0a7298d45abe57c9178ac,PennController,17,0,test,NULL,PennController,22,_Header_,Start,1727875220278,undefined,1028,laugh,abstract-positive,negative,positive,NULL
1727875349,fa8598f0b3f0a7298d45abe57c9178ac,PennController,17,0,test,NULL,PennController,22,_Header_,End,1727875220528,undefined,1028,laugh,abstract-positive,negative,positive,NULL
1727875349,fa8598f0b3f0a7298d45abe57c9178ac,PennController,17,0,test,NULL,Selector,unnamed-Selector,Selection,positive,1727875222058,undefined,1028,laugh,abstract-positive,negative,positive,negative;positive
1727875349,fa8598f0b3f0a7298d45abe57c9178ac,PennController,17,0,test,NULL,PennController,22,_Trial_,End,1727875222059,undefined,1028,laugh,abstract-positive,negative,positive,NULL
1727875349,fa8598f0b3f0a7298d45abe57c9178ac,PennController,42,0,test,NULL,PennController,47,_Trial_,Start,1727875222059,undefined,993,wish,concrete-positive,negative,positive,NULL
1727875349,fa8598f0b3f0a7298d45abe57c9178ac,PennController,42,0,test,NULL,PennController,47,_Header_,Start,1727875222059,undefined,993,wish,concrete-positive,negative,positive,NULL
1727875349,fa8598f0b3f0a7298d45abe57c9178ac,PennController,42,0,test,NULL,PennController,47,_Header_,End,1727875222312,undefined,993,wish,concrete-positive,negative,positive,NULL
1727875349,fa8598f0b3f0a7298d45abe57c9178ac,PennController,42,0,test,NULL,Selector,unnamed-Selector,Selection,positive,1727875223807,undefined,993,wish,concrete-positive,negative,positive,negative;positive
1727875349,fa8598f0b3f0a7298d45abe57c9178ac,PennController,42,0,test,NULL,PennController,47,_Trial_,End,1727875223808,undefined,993,wish,concrete-positive,negative,positive,NULL
1727875349,fa8598f0b3f0a7298d45abe57c9178ac,PennController,14,0,test,NULL,PennController,19,_Trial_,Start,1727875223809,undefined,1419,check,abstract-positive,negative,positive,NULL
1727875349,fa8598f0b3f0a7298d45abe57c9178ac,PennController,14,0,test,NULL,PennController,19,_Header_,Start,1727875223809,undefined,1419,check,abstract-positive,negative,positive,NULL
1727875349,fa8598f0b3f0a7298d45abe57c9178ac,PennController,14,0,test,NULL,PennController,19,_Header_,End,1727875224059,undefined,1419,check,abstract-positive,negative,positive,NULL
1727875349,fa8598f0b3f0a7298d45abe57c9178ac,PennController,14,0,test,NULL,Selector,unnamed-Selector,Selection,positive,1727875225983,undefined,1419,check,abstract-positive,negative,positive,negative;positive
1727875349,fa8598f0b3f0a7298d45abe57c9178ac,PennController,14,0,test,NULL,PennController,19,_Trial_,End,1727875225983,undefined,1419,check,abstract-positive,negative,positive,NULL
1727875349,fa8598f0b3f0a7298d45abe57c9178ac,PennController,13,0,test,NULL,PennController,18,_Trial_,Start,1727875225984,undefined,1028,smack,abstract-negative,negative,positive,NULL
1727875349,fa8598f0b3f0a7298d45abe57c9178ac,PennController,13,0,test,NULL,PennController,18,_Header_,Start,1727875225984,undefined,1028,smack,abstract-negative,negative,positive,NULL
1727875349,fa8598f0b3f0a7298d45abe57c9178ac,PennController,13,0,test,NULL,PennController,18,_Header_,End,1727875226236,undefined,1028,smack,abstract-negative,negative,positive,NULL
1727875349,fa8598f0b3f0a7298d45abe57c9178ac,PennController,13,0,test,NULL,Selector,unnamed-Selector,Selection,negative,1727875227768,undefined,1028,smack,abstract-negative,negative,positive,negative;positive
1727875349,fa8598f0b3f0a7298d45abe57c9178ac,PennController,13,0,test,NULL,PennController,18,_Trial_,End,1727875227769,undefined,1028,smack,abstract-negative,negative,positive,NULL
1727875349,fa8598f0b3f0a7298d45abe57c9178ac,PennController,33,0,test,NULL,PennController,38,_Trial_,Start,1727875227770,undefined,1528,beware,concrete-negative,negative,positive,NULL
1727875349,fa8598f0b3f0a7298d45abe57c9178ac,PennController,33,0,test,NULL,PennController,38,_Header_,Start,1727875227770,undefined,1528,beware,concrete-negative,negative,positive,NULL
1727875349,fa8598f0b3f0a7298d45abe57c9178ac,PennController,33,0,test,NULL,PennController,38,_Header_,End,1727875228022,undefined,1528,beware,concrete-negative,negative,positive,NULL
1727875349,fa8598f0b3f0a7298d45abe57c9178ac,PennController,33,0,test,NULL,Selector,unnamed-Selector,Selection,negative,1727875230051,undefined,1528,beware,concrete-negative,negative,positive,negative;positive
1727875349,fa8598f0b3f0a7298d45abe57c9178ac,PennController,33,0,test,NULL,PennController,38,_Trial_,End,1727875230052,undefined,1528,beware,concrete-negative,negative,positive,NULL
1727875349,fa8598f0b3f0a7298d45abe57c9178ac,PennController,31,0,test,NULL,PennController,36,_Trial_,Start,1727875230052,undefined,2897,presume,concrete-negative,negative,positive,NULL
1727875349,fa8598f0b3f0a7298d45abe57c9178ac,PennController,31,0,test,NULL,PennController,36,_Header_,Start,1727875230052,undefined,2897,presume,concrete-negative,negative,positive,NULL
1727875349,fa8598f0b3f0a7298d45abe57c9178ac,PennController,31,0,test,NULL,PennController,36,_Header_,End,1727875230305,undefined,2897,presume,concrete-negative,negative,positive,NULL
1727875349,fa8598f0b3f0a7298d45abe57c9178ac,PennController,31,0,test,NULL,Selector,unnamed-Selector,Selection,negative,1727875233706,undefined,2897,presume,concrete-negative,negative,positive,negative;positive
1727875349,fa8598f0b3f0a7298d45abe57c9178ac,PennController,31,0,test,NULL,PennController,36,_Trial_,End,1727875233707,undefined,2897,presume,concrete-negative,negative,positive,NULL
1727875349,fa8598f0b3f0a7298d45abe57c9178ac,PennController,5,0,test,NULL,PennController,10,_Trial_,Start,1727875233708,undefined,2297,snore,abstract-negative,negative,positive,NULL
1727875349,fa8598f0b3f0a7298d45abe57c9178ac,PennController,5,0,test,NULL,PennController,10,_Header_,Start,1727875233708,undefined,2297,snore,abstract-negative,negative,positive,NULL
1727875349,fa8598f0b3f0a7298d45abe57c9178ac,PennController,5,0,test,NULL,PennController,10,_Header_,End,1727875233961,undefined,2297,snore,abstract-negative,negative,positive,NULL
1727875349,fa8598f0b3f0a7298d45abe57c9178ac,PennController,5,0,test,NULL,Selector,unnamed-Selector,Selection,negative,1727875236760,undefined,2297,snore,abstract-negative,negative,positive,negative;positive
1727875349,fa8598f0b3f0a7298d45abe57c9178ac,PennController,5,0,test,NULL,PennController,10,_Trial_,End,1727875236760,undefined,2297,snore,abstract-negative,negative,positive,NULL
1727875349,fa8598f0b3f0a7298d45abe57c9178ac,PennController,27,0,test,NULL,PennController,32,_Trial_,Start,1727875236761,undefined,2382,impose,concrete-negative,negative,positive,NULL
1727875349,fa8598f0b3f0a7298d45abe57c9178ac,PennController,27,0,test,NULL,PennController,32,_Header_,Start,1727875236761,undefined,2382,impose,concrete-negative,negative,positive,NULL
1727875349,fa8598f0b3f0a7298d45abe57c9178ac,PennController,27,0,test,NULL,PennController,32,_Header_,End,1727875237013,undefined,2382,impose,concrete-negative,negative,positive,NULL
1727875349,fa8598f0b3f0a7298d45abe57c9178ac,PennController,27,0,test,NULL,Selector,unnamed-Selector,Selection,negative,1727875239899,undefined,2382,impose,concrete-negative,negative,positive,negative;positive
1727875349,fa8598f0b3f0a7298d45abe57c9178ac,PennController,27,0,test,NULL,PennController,32,_Trial_,End,1727875239900,undefined,2382,impose,concrete-negative,negative,positive,NULL
1727875349,fa8598f0b3f0a7298d45abe57c9178ac,PennController,19,0,test,NULL,PennController,24,_Trial_,Start,1727875239901,undefined,1067,running,abstract-positive,negative,positive,NULL
1727875349,fa8598f0b3f0a7298d45abe57c9178ac,PennController,19,0,test,NULL,PennController,24,_Header_,Start,1727875239901,undefined,1067,running,abstract-positive,negative,positive,NULL
1727875349,fa8598f0b3f0a7298d45abe57c9178ac,PennController,19,0,test,NULL,PennController,24,_Header_,End,1727875240152,undefined,1067,running,abstract-positive,negative,positive,NULL
1727875349,fa8598f0b3f0a7298d45abe57c9178ac,PennController,19,0,test,NULL,Selector,unnamed-Selector,Selection,positive,1727875241720,undefined,1067,running,abstract-positive,negative,positive,negative;positive
1727875349,fa8598f0b3f0a7298d45abe57c9178ac,PennController,19,0,test,NULL,PennController,24,_Trial_,End,1727875241721,undefined,1067,running,abstract-positive,negative,positive,NULL
1727875349,fa8598f0b3f0a7298d45abe57c9178ac,PennController,25,0,test,NULL,PennController,30,_Trial_,Start,1727875241722,undefined,1032,discourage,concrete-negative,negative,positive,NULL
1727875349,fa8598f0b3f0a7298d45abe57c9178ac,PennController,25,0,test,NULL,PennController,30,_Header_,Start,1727875241722,undefined,1032,discourage,concrete-negative,negative,positive,NULL
1727875349,fa8598f0b3f0a7298d45abe57c9178ac,PennController,25,0,test,NULL,PennController,30,_Header_,End,1727875241972,undefined,1032,discourage,concrete-negative,negative,positive,NULL
1727875349,fa8598f0b3f0a7298d45abe57c9178ac,PennController,25,0,test,NULL,Selector,unnamed-Selector,Selection,negative,1727875243507,undefined,1032,discourage,concrete-negative,negative,positive,negative;positive
1727875349,fa8598f0b3f0a7298d45abe57c9178ac,PennController,25,0,test,NULL,PennController,30,_Trial_,End,1727875243508,undefined,1032,discourage,concrete-negative,negative,positive,NULL
1727875349,fa8598f0b3f0a7298d45abe57c9178ac,PennController,32,0,test,NULL,PennController,37,_Trial_,Start,1727875243509,undefined,1028,violate,concrete-negative,negative,positive,NULL
1727875349,fa8598f0b3f0a7298d45abe57c9178ac,PennController,32,0,test,NULL,PennController,37,_Header_,Start,1727875243509,undefined,1028,violate,concrete-negative,negative,positive,NULL
1727875349,fa8598f0b3f0a7298d45abe57c9178ac,PennController,32,0,test,NULL,PennController,37,_Header_,End,1727875243760,undefined,1028,violate,concrete-negative,negative,positive,NULL
1727875349,fa8598f0b3f0a7298d45abe57c9178ac,PennController,32,0,test,NULL,Selector,unnamed-Selector,Selection,negative,1727875245293,undefined,1028,violate,concrete-negative,negative,positive,negative;positive
1727875349,fa8598f0b3f0a7298d45abe57c9178ac,PennController,32,0,test,NULL,PennController,37,_Trial_,End,1727875245294,undefined,1028,violate,concrete-negative,negative,positive,NULL
1727875349,fa8598f0b3f0a7298d45abe57c9178ac,PennController,34,0,test,NULL,PennController,39,_Trial_,Start,1727875245295,undefined,1604,qualify,concrete-positive,negative,positive,NULL
1727875349,fa8598f0b3f0a7298d45abe57c9178ac,PennController,34,0,test,NULL,PennController,39,_Header_,Start,1727875245295,undefined,1604,qualify,concrete-positive,negative,positive,NULL
1727875349,fa8598f0b3f0a7298d45abe57c9178ac,PennController,34,0,test,NULL,PennController,39,_Header_,End,1727875245549,undefined,1604,qualify,concrete-positive,negative,positive,NULL
1727875349,fa8598f0b3f0a7298d45abe57c9178ac,PennController,34,0,test,NULL,Selector,unnamed-Selector,Selection,positive,1727875247656,undefined,1604,qualify,concrete-positive,negative,positive,negative;positive
1727875349,fa8598f0b3f0a7298d45abe57c9178ac,PennController,34,0,test,NULL,PennController,39,_Trial_,End,1727875247657,undefined,1604,qualify,concrete-positive,negative,positive,NULL
1727875349,fa8598f0b3f0a7298d45abe57c9178ac,PennController,22,0,test,NULL,PennController,27,_Trial_,Start,1727875247658,undefined,935,talk,abstract-positive,negative,positive,NULL
1727875349,fa8598f0b3f0a7298d45abe57c9178ac,PennController,22,0,test,NULL,PennController,27,_Header_,Start,1727875247658,undefined,935,talk,abstract-positive,negative,positive,NULL
1727875349,fa8598f0b3f0a7298d45abe57c9178ac,PennController,22,0,test,NULL,PennController,27,_Header_,End,1727875247909,undefined,935,talk,abstract-positive,negative,positive,NULL
1727875349,fa8598f0b3f0a7298d45abe57c9178ac,PennController,22,0,test,NULL,Selector,unnamed-Selector,Selection,positive,1727875249346,undefined,935,talk,abstract-positive,negative,positive,negative;positive
1727875349,fa8598f0b3f0a7298d45abe57c9178ac,PennController,22,0,test,NULL,PennController,27,_Trial_,End,1727875249347,undefined,935,talk,abstract-positive,negative,positive,NULL
1727875349,fa8598f0b3f0a7298d45abe57c9178ac,PennController,16,0,test,NULL,PennController,21,_Trial_,Start,1727875249348,undefined,2168,lick,abstract-positive,negative,positive,NULL
1727875349,fa8598f0b3f0a7298d45abe57c9178ac,PennController,16,0,test,NULL,PennController,21,_Header_,Start,1727875249348,undefined,2168,lick,abstract-positive,negative,positive,NULL
1727875349,fa8598f0b3f0a7298d45abe57c9178ac,PennController,16,0,test,NULL,PennController,21,_Header_,End,1727875249598,undefined,2168,lick,abstract-positive,negative,positive,NULL
1727875349,fa8598f0b3f0a7298d45abe57c9178ac,PennController,16,0,test,NULL,Selector,unnamed-Selector,Selection,negative,1727875252271,undefined,2168,lick,abstract-positive,negative,positive,negative;positive
1727875349,fa8598f0b3f0a7298d45abe57c9178ac,PennController,16,0,test,NULL,PennController,21,_Trial_,End,1727875252272,undefined,2168,lick,abstract-positive,negative,positive,NULL
1727875349,fa8598f0b3f0a7298d45abe57c9178ac,PennController,20,0,test,NULL,PennController,25,_Trial_,Start,1727875252273,undefined,820,caress,abstract-positive,negative,positive,NULL
1727875349,fa8598f0b3f0a7298d45abe57c9178ac,PennController,20,0,test,NULL,PennController,25,_Header_,Start,1727875252273,undefined,820,caress,abstract-positive,negative,positive,NULL
1727875349,fa8598f0b3f0a7298d45abe57c9178ac,PennController,20,0,test,NULL,PennController,25,_Header_,End,1727875252524,undefined,820,caress,abstract-positive,negative,positive,NULL
1727875349,fa8598f0b3f0a7298d45abe57c9178ac,PennController,20,0,test,NULL,Selector,unnamed-Selector,Selection,positive,1727875253846,undefined,820,caress,abstract-positive,negative,positive,negative;positive
1727875349,fa8598f0b3f0a7298d45abe57c9178ac,PennController,20,0,test,NULL,PennController,25,_Trial_,End,1727875253847,undefined,820,caress,abstract-positive,negative,positive,NULL
1727875349,fa8598f0b3f0a7298d45abe57c9178ac,PennController,38,0,test,NULL,PennController,43,_Trial_,Start,1727875253847,undefined,1490,behold,concrete-positive,negative,positive,NULL
1727875349,fa8598f0b3f0a7298d45abe57c9178ac,PennController,38,0,test,NULL,PennController,43,_Header_,Start,1727875253847,undefined,1490,behold,concrete-positive,negative,positive,NULL
1727875349,fa8598f0b3f0a7298d45abe57c9178ac,PennController,38,0,test,NULL,PennController,43,_Header_,End,1727875254099,undefined,1490,behold,concrete-positive,negative,positive,NULL
1727875349,fa8598f0b3f0a7298d45abe57c9178ac,PennController,38,0,test,NULL,Selector,unnamed-Selector,Selection,positive,1727875256094,undefined,1490,behold,concrete-positive,negative,positive,negative;positive
1727875349,fa8598f0b3f0a7298d45abe57c9178ac,PennController,38,0,test,NULL,PennController,43,_Trial_,End,1727875256095,undefined,1490,behold,concrete-positive,negative,positive,NULL
1727875349,fa8598f0b3f0a7298d45abe57c9178ac,PennController,18,0,test,NULL,PennController,23,_Trial_,Start,1727875256097,undefined,939,breathe,abstract-positive,negative,positive,NULL
1727875349,fa8598f0b3f0a7298d45abe57c9178ac,PennController,18,0,test,NULL,PennController,23,_Header_,Start,1727875256097,undefined,939,breathe,abstract-positive,negative,positive,NULL
1727875349,fa8598f0b3f0a7298d45abe57c9178ac,PennController,18,0,test,NULL,PennController,23,_Header_,End,1727875256348,undefined,939,breathe,abstract-positive,negative,positive,NULL
1727875349,fa8598f0b3f0a7298d45abe57c9178ac,PennController,18,0,test,NULL,Selector,unnamed-Selector,Selection,positive,1727875257790,undefined,939,breathe,abstract-positive,negative,positive,negative;positive
1727875349,fa8598f0b3f0a7298d45abe57c9178ac,PennController,18,0,test,NULL,PennController,23,_Trial_,End,1727875257791,undefined,939,breathe,abstract-positive,negative,positive,NULL
1727875349,fa8598f0b3f0a7298d45abe57c9178ac,PennController,6,0,test,NULL,PennController,11,_Trial_,Start,1727875257792,undefined,1203,hurl,abstract-negative,negative,positive,NULL
1727875349,fa8598f0b3f0a7298d45abe57c9178ac,PennController,6,0,test,NULL,PennController,11,_Header_,Start,1727875257792,undefined,1203,hurl,abstract-negative,negative,positive,NULL
1727875349,fa8598f0b3f0a7298d45abe57c9178ac,PennController,6,0,test,NULL,PennController,11,_Header_,End,1727875258044,undefined,1203,hurl,abstract-negative,negative,positive,NULL
1727875349,fa8598f0b3f0a7298d45abe57c9178ac,PennController,6,0,test,NULL,Selector,unnamed-Selector,Selection,negative,1727875259749,undefined,1203,hurl,abstract-negative,negative,positive,negative;positive
1727875349,fa8598f0b3f0a7298d45abe57c9178ac,PennController,6,0,test,NULL,PennController,11,_Trial_,End,1727875259750,undefined,1203,hurl,abstract-negative,negative,positive,NULL
1727875349,fa8598f0b3f0a7298d45abe57c9178ac,PennController,26,0,test,NULL,PennController,31,_Trial_,Start,1727875259750,undefined,1110,befall,concrete-negative,negative,positive,NULL
1727875349,fa8598f0b3f0a7298d45abe57c9178ac,PennController,26,0,test,NULL,PennController,31,_Header_,Start,1727875259750,undefined,1110,befall,concrete-negative,negative,positive,NULL
1727875349,fa8598f0b3f0a7298d45abe57c9178ac,PennController,26,0,test,NULL,PennController,31,_Header_,End,1727875260003,undefined,1110,befall,concrete-negative,negative,positive,NULL
1727875349,fa8598f0b3f0a7298d45abe57c9178ac,PennController,26,0,test,NULL,Selector,unnamed-Selector,Selection,negative,1727875261615,undefined,1110,befall,concrete-negative,negative,positive,negative;positive
1727875349,fa8598f0b3f0a7298d45abe57c9178ac,PennController,26,0,test,NULL,PennController,31,_Trial_,End,1727875261616,undefined,1110,befall,concrete-negative,negative,positive,NULL
1727875349,fa8598f0b3f0a7298d45abe57c9178ac,PennController,36,0,test,NULL,PennController,41,_Trial_,Start,1727875261617,undefined,988,feeling,concrete-positive,negative,positive,NULL
1727875349,fa8598f0b3f0a7298d45abe57c9178ac,PennController,36,0,test,NULL,PennController,41,_Header_,Start,1727875261617,undefined,988,feeling,concrete-positive,negative,positive,NULL
1727875349,fa8598f0b3f0a7298d45abe57c9178ac,PennController,36,0,test,NULL,PennController,41,_Header_,End,1727875261867,undefined,988,feeling,concrete-positive,negative,positive,NULL
1727875349,fa8598f0b3f0a7298d45abe57c9178ac,PennController,36,0,test,NULL,Selector,unnamed-Selector,Selection,positive,1727875263358,undefined,988,feeling,concrete-positive,negative,positive,negative;positive
1727875349,fa8598f0b3f0a7298d45abe57c9178ac,PennController,36,0,test,NULL,PennController,41,_Trial_,End,1727875263359,undefined,988,feeling,concrete-positive,negative,positive,NULL
1727875349,fa8598f0b3f0a7298d45abe57c9178ac,PennController,40,0,test,NULL,PennController,45,_Trial_,Start,1727875263360,undefined,2461,justify,concrete-positive,negative,positive,NULL
1727875349,fa8598f0b3f0a7298d45abe57c9178ac,PennController,40,0,test,NULL,PennController,45,_Header_,Start,1727875263360,undefined,2461,justify,concrete-positive,negative,positive,NULL
1727875349,fa8598f0b3f0a7298d45abe57c9178ac,PennController,40,0,test,NULL,PennController,45,_Header_,End,1727875263611,undefined,2461,justify,concrete-positive,negative,positive,NULL
1727875349,fa8598f0b3f0a7298d45abe57c9178ac,PennController,40,0,test,NULL,Selector,unnamed-Selector,Selection,negative,1727875266576,undefined,2461,justify,concrete-positive,negative,positive,negative;positive
1727875349,fa8598f0b3f0a7298d45abe57c9178ac,PennController,40,0,test,NULL,PennController,45,_Trial_,End,1727875266577,undefined,2461,justify,concrete-positive,negative,positive,NULL
1727875349,fa8598f0b3f0a7298d45abe57c9178ac,PennController,41,0,test,NULL,PennController,46,_Trial_,Start,1727875266578,undefined,1181,improve,concrete-positive,negative,positive,NULL
1727875349,fa8598f0b3f0a7298d45abe57c9178ac,PennController,41,0,test,NULL,PennController,46,_Header_,Start,1727875266578,undefined,1181,improve,concrete-positive,negative,positive,NULL
1727875349,fa8598f0b3f0a7298d45abe57c9178ac,PennController,41,0,test,NULL,PennController,46,_Header_,End,1727875266831,undefined,1181,improve,concrete-positive,negative,positive,NULL
1727875349,fa8598f0b3f0a7298d45abe57c9178ac,PennController,41,0,test,NULL,Selector,unnamed-Selector,Selection,positive,1727875268515,undefined,1181,improve,concrete-positive,negative,positive,negative;positive
1727875349,fa8598f0b3f0a7298d45abe57c9178ac,PennController,41,0,test,NULL,PennController,46,_Trial_,End,1727875268516,undefined,1181,improve,concrete-positive,negative,positive,NULL
1727875349,fa8598f0b3f0a7298d45abe57c9178ac,PennController,9,0,test,NULL,PennController,14,_Trial_,Start,1727875268517,undefined,938,drool,abstract-negative,negative,positive,NULL
1727875349,fa8598f0b3f0a7298d45abe57c9178ac,PennController,9,0,test,NULL,PennController,14,_Header_,Start,1727875268517,undefined,938,drool,abstract-negative,negative,positive,NULL
1727875349,fa8598f0b3f0a7298d45abe57c9178ac,PennController,9,0,test,NULL,PennController,14,_Header_,End,1727875268768,undefined,938,drool,abstract-negative,negative,positive,NULL
1727875349,fa8598f0b3f0a7298d45abe57c9178ac,PennController,9,0,test,NULL,Selector,unnamed-Selector,Selection,negative,1727875270209,undefined,938,drool,abstract-negative,negative,positive,negative;positive
1727875349,fa8598f0b3f0a7298d45abe57c9178ac,PennController,9,0,test,NULL,PennController,14,_Trial_,End,1727875270210,undefined,938,drool,abstract-negative,negative,positive,NULL
1727875349,fa8598f0b3f0a7298d45abe57c9178ac,PennController,30,0,test,NULL,PennController,35,_Trial_,Start,1727875270211,undefined,1634,envy,concrete-negative,negative,positive,NULL
1727875349,fa8598f0b3f0a7298d45abe57c9178ac,PennController,30,0,test,NULL,PennController,35,_Header_,Start,1727875270211,undefined,1634,envy,concrete-negative,negative,positive,NULL
1727875349,fa8598f0b3f0a7298d45abe57c9178ac,PennController,30,0,test,NULL,PennController,35,_Header_,End,1727875270462,undefined,1634,envy,concrete-negative,negative,positive,NULL
1727875349,fa8598f0b3f0a7298d45abe57c9178ac,PennController,30,0,test,NULL,Selector,unnamed-Selector,Selection,negative,1727875272598,undefined,1634,envy,concrete-negative,negative,positive,negative;positive
1727875349,fa8598f0b3f0a7298d45abe57c9178ac,PennController,30,0,test,NULL,PennController,35,_Trial_,End,1727875272599,undefined,1634,envy,concrete-negative,negative,positive,NULL
1727875349,fa8598f0b3f0a7298d45abe57c9178ac,PennController,37,0,test,NULL,PennController,42,_Trial_,Start,1727875272600,undefined,3006,specialize,concrete-positive,negative,positive,NULL
1727875349,fa8598f0b3f0a7298d45abe57c9178ac,PennController,37,0,test,NULL,PennController,42,_Header_,Start,1727875272600,undefined,3006,specialize,concrete-positive,negative,positive,NULL
1727875349,fa8598f0b3f0a7298d45abe57c9178ac,PennController,37,0,test,NULL,PennController,42,_Header_,End,1727875272853,undefined,3006,specialize,concrete-positive,negative,positive,NULL
1727875349,fa8598f0b3f0a7298d45abe57c9178ac,PennController,37,0,test,NULL,Selector,unnamed-Selector,Selection,positive,1727875276363,undefined,3006,specialize,concrete-positive,negative,positive,negative;positive
1727875349,fa8598f0b3f0a7298d45abe57c9178ac,PennController,37,0,test,NULL,PennController,42,_Trial_,End,1727875276364,undefined,3006,specialize,concrete-positive,negative,positive,NULL
1727875349,fa8598f0b3f0a7298d45abe57c9178ac,PennController,21,0,test,NULL,PennController,26,_Trial_,Start,1727875276366,undefined,1368,sail,abstract-positive,negative,positive,NULL
1727875349,fa8598f0b3f0a7298d45abe57c9178ac,PennController,21,0,test,NULL,PennController,26,_Header_,Start,1727875276366,undefined,1368,sail,abstract-positive,negative,positive,NULL
1727875349,fa8598f0b3f0a7298d45abe57c9178ac,PennController,21,0,test,NULL,PennController,26,_Header_,End,1727875276617,undefined,1368,sail,abstract-positive,negative,positive,NULL
1727875349,fa8598f0b3f0a7298d45abe57c9178ac,PennController,21,0,test,NULL,Selector,unnamed-Selector,Selection,positive,1727875278487,undefined,1368,sail,abstract-positive,negative,positive,negative;positive
1727875349,fa8598f0b3f0a7298d45abe57c9178ac,PennController,21,0,test,NULL,PennController,26,_Trial_,End,1727875278487,undefined,1368,sail,abstract-positive,negative,positive,NULL
1727875349,fa8598f0b3f0a7298d45abe57c9178ac,PennController,23,0,test,NULL,PennController,28,_Trial_,Start,1727875278488,undefined,780,sing,abstract-positive,negative,positive,NULL
1727875349,fa8598f0b3f0a7298d45abe57c9178ac,PennController,23,0,test,NULL,PennController,28,_Header_,Start,1727875278488,undefined,780,sing,abstract-positive,negative,positive,NULL
1727875349,fa8598f0b3f0a7298d45abe57c9178ac,PennController,23,0,test,NULL,PennController,28,_Header_,End,1727875278739,undefined,780,sing,abstract-positive,negative,positive,NULL
1727875349,fa8598f0b3f0a7298d45abe57c9178ac,PennController,23,0,test,NULL,Selector,unnamed-Selector,Selection,positive,1727875280019,undefined,780,sing,abstract-positive,negative,positive,negative;positive
1727875349,fa8598f0b3f0a7298d45abe57c9178ac,PennController,23,0,test,NULL,PennController,28,_Trial_,End,1727875280020,undefined,780,sing,abstract-positive,negative,positive,NULL
1727875349,fa8598f0b3f0a7298d45abe57c9178ac,PennController,8,0,test,NULL,PennController,13,_Trial_,Start,1727875280021,undefined,1074,meth,abstract-negative,negative,positive,NULL
1727875349,fa8598f0b3f0a7298d45abe57c9178ac,PennController,8,0,test,NULL,PennController,13,_Header_,Start,1727875280021,undefined,1074,meth,abstract-negative,negative,positive,NULL
1727875349,fa8598f0b3f0a7298d45abe57c9178ac,PennController,8,0,test,NULL,PennController,13,_Header_,End,1727875280272,undefined,1074,meth,abstract-negative,negative,positive,NULL
1727875349,fa8598f0b3f0a7298d45abe57c9178ac,PennController,8,0,test,NULL,Selector,unnamed-Selector,Selection,negative,1727875281848,undefined,1074,meth,abstract-negative,negative,positive,negative;positive
1727875349,fa8598f0b3f0a7298d45abe57c9178ac,PennController,8,0,test,NULL,PennController,13,_Trial_,End,1727875281848,undefined,1074,meth,abstract-negative,negative,positive,NULL
1727875349,fa8598f0b3f0a7298d45abe57c9178ac,PennController,4,0,test,NULL,PennController,9,_Trial_,Start,1727875281849,undefined,1311,whip,abstract-negative,negative,positive,NULL
1727875349,fa8598f0b3f0a7298d45abe57c9178ac,PennController,4,0,test,NULL,PennController,9,_Header_,Start,1727875281849,undefined,1311,whip,abstract-negative,negative,positive,NULL
1727875349,fa8598f0b3f0a7298d45abe57c9178ac,PennController,4,0,test,NULL,PennController,9,_Header_,End,1727875282101,undefined,1311,whip,abstract-negative,negative,positive,NULL
1727875349,fa8598f0b3f0a7298d45abe57c9178ac,PennController,4,0,test,NULL,Selector,unnamed-Selector,Selection,positive,1727875283917,undefined,1311,whip,abstract-negative,negative,positive,negative;positive
1727875349,fa8598f0b3f0a7298d45abe57c9178ac,PennController,4,0,test,NULL,PennController,9,_Trial_,End,1727875283918,undefined,1311,whip,abstract-negative,negative,positive,NULL
1727875349,fa8598f0b3f0a7298d45abe57c9178ac,PennController,35,0,test,NULL,PennController,40,_Trial_,Start,1727875283918,undefined,1456,hope,concrete-positive,negative,positive,NULL
1727875349,fa8598f0b3f0a7298d45abe57c9178ac,PennController,35,0,test,NULL,PennController,40,_Header_,Start,1727875283918,undefined,1456,hope,concrete-positive,negative,positive,NULL
1727875349,fa8598f0b3f0a7298d45abe57c9178ac,PennController,35,0,test,NULL,PennController,40,_Header_,End,1727875284171,undefined,1456,hope,concrete-positive,negative,positive,NULL
1727875349,fa8598f0b3f0a7298d45abe57c9178ac,PennController,35,0,test,NULL,Selector,unnamed-Selector,Selection,positive,1727875286133,undefined,1456,hope,concrete-positive,negative,positive,negative;positive
1727875349,fa8598f0b3f0a7298d45abe57c9178ac,PennController,35,0,test,NULL,PennController,40,_Trial_,End,1727875286134,undefined,1456,hope,concrete-positive,negative,positive,NULL
1727875349,fa8598f0b3f0a7298d45abe57c9178ac,PennController,28,0,test,NULL,PennController,33,_Trial_,Start,1727875286135,undefined,969,exploit,concrete-negative,negative,positive,NULL
1727875349,fa8598f0b3f0a7298d45abe57c9178ac,PennController,28,0,test,NULL,PennController,33,_Header_,Start,1727875286135,undefined,969,exploit,concrete-negative,negative,positive,NULL
1727875349,fa8598f0b3f0a7298d45abe57c9178ac,PennController,28,0,test,NULL,PennController,33,_Header_,End,1727875286389,undefined,969,exploit,concrete-negative,negative,positive,NULL
1727875349,fa8598f0b3f0a7298d45abe57c9178ac,PennController,28,0,test,NULL,Selector,unnamed-Selector,Selection,negative,1727875287860,undefined,969,exploit,concrete-negative,negative,positive,negative;positive
1727875349,fa8598f0b3f0a7298d45abe57c9178ac,PennController,28,0,test,NULL,PennController,33,_Trial_,End,1727875287860,undefined,969,exploit,concrete-negative,negative,positive,NULL
1727875349,fa8598f0b3f0a7298d45abe57c9178ac,PennController,43,0,test,NULL,PennController,48,_Trial_,Start,1727875287861,undefined,1111,forgive,concrete-positive,negative,positive,NULL
1727875349,fa8598f0b3f0a7298d45abe57c9178ac,PennController,43,0,test,NULL,PennController,48,_Header_,Start,1727875287861,undefined,1111,forgive,concrete-positive,negative,positive,NULL
1727875349,fa8598f0b3f0a7298d45abe57c9178ac,PennController,43,0,test,NULL,PennController,48,_Header_,End,1727875288114,undefined,1111,forgive,concrete-positive,negative,positive,NULL
1727875349,fa8598f0b3f0a7298d45abe57c9178ac,PennController,43,0,test,NULL,Selector,unnamed-Selector,Selection,positive,1727875289726,undefined,1111,forgive,concrete-positive,negative,positive,negative;positive
1727875349,fa8598f0b3f0a7298d45abe57c9178ac,PennController,43,0,test,NULL,PennController,48,_Trial_,End,1727875289726,undefined,1111,forgive,concrete-positive,negative,positive,NULL
1727875349,fa8598f0b3f0a7298d45abe57c9178ac,PennController,11,0,test,NULL,PennController,16,_Trial_,Start,1727875289727,undefined,3612,crank,abstract-negative,negative,positive,NULL
1727875349,fa8598f0b3f0a7298d45abe57c9178ac,PennController,11,0,test,NULL,PennController,16,_Header_,Start,1727875289727,undefined,3612,crank,abstract-negative,negative,positive,NULL
1727875349,fa8598f0b3f0a7298d45abe57c9178ac,PennController,11,0,test,NULL,PennController,16,_Header_,End,1727875289978,undefined,3612,crank,abstract-negative,negative,positive,NULL
1727875349,fa8598f0b3f0a7298d45abe57c9178ac,PennController,11,0,test,NULL,Selector,unnamed-Selector,Selection,negative,1727875294093,undefined,3612,crank,abstract-negative,negative,positive,negative;positive
1727875349,fa8598f0b3f0a7298d45abe57c9178ac,PennController,11,0,test,NULL,PennController,16,_Trial_,End,1727875294094,undefined,3612,crank,abstract-negative,negative,positive,NULL
1727875349,fa8598f0b3f0a7298d45abe57c9178ac,PennController,29,0,test,NULL,PennController,34,_Trial_,Start,1727875294094,undefined,3056,distrust,concrete-negative,negative,positive,NULL
1727875349,fa8598f0b3f0a7298d45abe57c9178ac,PennController,29,0,test,NULL,PennController,34,_Header_,Start,1727875294094,undefined,3056,distrust,concrete-negative,negative,positive,NULL
1727875349,fa8598f0b3f0a7298d45abe57c9178ac,PennController,29,0,test,NULL,PennController,34,_Header_,End,1727875294346,undefined,3056,distrust,concrete-negative,negative,positive,NULL
1727875349,fa8598f0b3f0a7298d45abe57c9178ac,PennController,29,0,test,NULL,Selector,unnamed-Selector,Selection,negative,1727875297905,undefined,3056,distrust,concrete-negative,negative,positive,negative;positive
