#
# Results on Thu, 21 Nov 2024 19:43:46 GMT
# USER AGENT: Mozilla/5.0 (Windows NT 10.0; Win64; x64) AppleWebKit/537.36 (KHTML, like Gecko) Chrome/131.0.0.0 Safari/537.36
# Design number was non-random = 0
#
# Columns below this comment are as follows:
# 1. Results reception time.
# 2. MD5 hash of participant's IP address.
# 3. Controller name.
# 4. Order number of item.
# 5. Inner element number.
# 6. Label.
# 7. Latin Square Group.
# 8. PennElementType.
# 9. PennElementName.
# 10. Parameter.
# 11. Value.
# 12. EventTime.
# 13. Comments.
1732218226,b105447023c41c3837c9a333146c15b7,PennController,1,0,welcome,NULL,PennController,0,_Trial_,Start,1732217626706,NULL
1732218226,b105447023c41c3837c9a333146c15b7,PennController,1,0,welcome,NULL,PennController,0,_Header_,Start,1732217626706,NULL
1732218226,b105447023c41c3837c9a333146c15b7,PennController,1,0,welcome,NULL,PennController,0,_Header_,End,1732217626959,NULL
1732218226,b105447023c41c3837c9a333146c15b7,PennController,1,0,welcome,NULL,PennController,0,_Trial_,End,1732217658068,NULL
# 13. ID.
# 14. Comments.
1732218226,b105447023c41c3837c9a333146c15b7,PennController,124,0,consent,NULL,PennController,2,_Trial_,Start,1732217658074,65055af809999c0ee7cee26d,NULL
1732218226,b105447023c41c3837c9a333146c15b7,PennController,124,0,consent,NULL,PennController,2,_Header_,Start,1732217658074,65055af809999c0ee7cee26d,NULL
1732218226,b105447023c41c3837c9a333146c15b7,PennController,124,0,consent,NULL,PennController,2,_Header_,End,1732217658328,65055af809999c0ee7cee26d,NULL
1732218226,b105447023c41c3837c9a333146c15b7,PennController,124,0,consent,NULL,TextInput,ID,First,,1732217673028,65055af809999c0ee7cee26d,Control
1732218226,b105447023c41c3837c9a333146c15b7,PennController,124,0,consent,NULL,TextInput,ID,Final,65055af809999c0ee7cee26d,1732217673728,65055af809999c0ee7cee26d,NULL
1732218226,b105447023c41c3837c9a333146c15b7,PennController,124,0,consent,NULL,PennController,2,_Trial_,End,1732217673729,65055af809999c0ee7cee26d,NULL
# 13. Comments.
1732218226,b105447023c41c3837c9a333146c15b7,PennController,126,0,instructions1_val,NULL,PennController,4,_Trial_,Start,1732217673730,NULL
1732218226,b105447023c41c3837c9a333146c15b7,PennController,126,0,instructions1_val,NULL,PennController,4,_Header_,Start,1732217673730,NULL
1732218226,b105447023c41c3837c9a333146c15b7,PennController,126,0,instructions1_val,NULL,PennController,4,_Header_,End,1732217673984,NULL
1732218226,b105447023c41c3837c9a333146c15b7,PennController,126,0,instructions1_val,NULL,PennController,4,_Trial_,End,1732217677592,NULL
1732218226,b105447023c41c3837c9a333146c15b7,PennController,127,0,instructions2_val,NULL,PennController,5,_Trial_,Start,1732217677593,NULL
1732218226,b105447023c41c3837c9a333146c15b7,PennController,127,0,instructions2_val,NULL,PennController,5,_Header_,Start,1732217677593,NULL
1732218226,b105447023c41c3837c9a333146c15b7,PennController,127,0,instructions2_val,NULL,PennController,5,_Header_,End,1732217677846,NULL
1732218226,b105447023c41c3837c9a333146c15b7,PennController,127,0,instructions2_val,NULL,PennController,5,_Trial_,End,1732217681678,NULL
1732218226,b105447023c41c3837c9a333146c15b7,PennController,128,0,instructions3_hands,NULL,PennController,6,_Trial_,Start,1732217681679,NULL
1732218226,b105447023c41c3837c9a333146c15b7,PennController,128,0,instructions3_hands,NULL,PennController,6,_Header_,Start,1732217681679,NULL
1732218226,b105447023c41c3837c9a333146c15b7,PennController,128,0,instructions3_hands,NULL,PennController,6,_Header_,End,1732217681930,NULL
1732218226,b105447023c41c3837c9a333146c15b7,PennController,128,0,instructions3_hands,NULL,PennController,6,_Trial_,End,1732217684314,NULL
1732218226,b105447023c41c3837c9a333146c15b7,PennController,129,0,practice_intro_val,NULL,PennController,7,_Trial_,Start,1732217684315,NULL
1732218226,b105447023c41c3837c9a333146c15b7,PennController,129,0,practice_intro_val,NULL,PennController,7,_Header_,Start,1732217684315,NULL
1732218226,b105447023c41c3837c9a333146c15b7,PennController,129,0,practice_intro_val,NULL,PennController,7,_Header_,End,1732217684568,NULL
1732218226,b105447023c41c3837c9a333146c15b7,PennController,129,0,practice_intro_val,NULL,PennController,7,_Trial_,End,1732217686592,NULL
# 13. ID.
# 14. ReactionTime.
# 15. Word.
# 16. selectedKey.
# 17. selectedValue.
# 18. Key_value_F.
# 19. Key_value_J.
# 20. Group.
# 21. Comments.
1732218226,b105447023c41c3837c9a333146c15b7,PennController,105,0,calibrator_val_feedback,NULL,PennController,116,_Trial_,Start,1732217686593,undefined,1427,grin,undefined,positive,negative,positive,A,NULL
1732218226,b105447023c41c3837c9a333146c15b7,PennController,105,0,calibrator_val_feedback,NULL,PennController,116,_Header_,Start,1732217686593,undefined,1427,grin,undefined,positive,negative,positive,A,NULL
1732218226,b105447023c41c3837c9a333146c15b7,PennController,105,0,calibrator_val_feedback,NULL,PennController,116,_Header_,End,1732217686843,undefined,1427,grin,undefined,positive,negative,positive,A,NULL
1732218226,b105447023c41c3837c9a333146c15b7,PennController,105,0,calibrator_val_feedback,NULL,Selector,Selection,Selection,positive,1732217688773,undefined,1427,grin,undefined,positive,negative,positive,A,negative;positive
1732218226,b105447023c41c3837c9a333146c15b7,PennController,105,0,calibrator_val_feedback,NULL,PennController,116,_Trial_,End,1732217690783,undefined,1427,grin,undefined,positive,negative,positive,A,NULL
1732218226,b105447023c41c3837c9a333146c15b7,PennController,104,0,calibrator_val_feedback,NULL,PennController,115,_Trial_,Start,1732217690784,undefined,365,free,undefined,positive,negative,positive,A,NULL
1732218226,b105447023c41c3837c9a333146c15b7,PennController,104,0,calibrator_val_feedback,NULL,PennController,115,_Header_,Start,1732217690784,undefined,365,free,undefined,positive,negative,positive,A,NULL
1732218226,b105447023c41c3837c9a333146c15b7,PennController,104,0,calibrator_val_feedback,NULL,PennController,115,_Header_,End,1732217691037,undefined,365,free,undefined,positive,negative,positive,A,NULL
1732218226,b105447023c41c3837c9a333146c15b7,PennController,104,0,calibrator_val_feedback,NULL,Selector,Selection,Selection,positive,1732217691907,undefined,365,free,undefined,positive,negative,positive,A,negative;positive
1732218226,b105447023c41c3837c9a333146c15b7,PennController,104,0,calibrator_val_feedback,NULL,PennController,115,_Trial_,End,1732217693917,undefined,365,free,undefined,positive,negative,positive,A,NULL
1732218226,b105447023c41c3837c9a333146c15b7,PennController,107,0,calibrator_val_feedback,NULL,PennController,118,_Trial_,Start,1732217693922,undefined,133,icebox,undefined,positive,negative,positive,A,NULL
1732218226,b105447023c41c3837c9a333146c15b7,PennController,107,0,calibrator_val_feedback,NULL,PennController,118,_Header_,Start,1732217693922,undefined,133,icebox,undefined,positive,negative,positive,A,NULL
1732218226,b105447023c41c3837c9a333146c15b7,PennController,107,0,calibrator_val_feedback,NULL,PennController,118,_Header_,End,1732217694177,undefined,133,icebox,undefined,positive,negative,positive,A,NULL
1732218226,b105447023c41c3837c9a333146c15b7,PennController,107,0,calibrator_val_feedback,NULL,Selector,Selection,Selection,positive,1732217694810,undefined,133,icebox,undefined,positive,negative,positive,A,negative;positive
1732218226,b105447023c41c3837c9a333146c15b7,PennController,107,0,calibrator_val_feedback,NULL,PennController,118,_Trial_,End,1732217696816,undefined,133,icebox,undefined,positive,negative,positive,A,NULL
1732218226,b105447023c41c3837c9a333146c15b7,PennController,110,0,calibrator_val_feedback,NULL,PennController,121,_Trial_,Start,1732217696819,undefined,404,invader,undefined,positive,negative,positive,A,NULL
1732218226,b105447023c41c3837c9a333146c15b7,PennController,110,0,calibrator_val_feedback,NULL,PennController,121,_Header_,Start,1732217696819,undefined,404,invader,undefined,positive,negative,positive,A,NULL
1732218226,b105447023c41c3837c9a333146c15b7,PennController,110,0,calibrator_val_feedback,NULL,PennController,121,_Header_,End,1732217697075,undefined,404,invader,undefined,positive,negative,positive,A,NULL
1732218226,b105447023c41c3837c9a333146c15b7,PennController,110,0,calibrator_val_feedback,NULL,Selector,Selection,Selection,positive,1732217697986,undefined,404,invader,undefined,positive,negative,positive,A,negative;positive
1732218226,b105447023c41c3837c9a333146c15b7,PennController,110,0,calibrator_val_feedback,NULL,PennController,121,_Trial_,End,1732217699991,undefined,404,invader,undefined,positive,negative,positive,A,NULL
1732218226,b105447023c41c3837c9a333146c15b7,PennController,111,0,calibrator_val_feedback,NULL,PennController,122,_Trial_,Start,1732217699996,undefined,964,jail,undefined,positive,negative,positive,A,NULL
1732218226,b105447023c41c3837c9a333146c15b7,PennController,111,0,calibrator_val_feedback,NULL,PennController,122,_Header_,Start,1732217699996,undefined,964,jail,undefined,positive,negative,positive,A,NULL
1732218226,b105447023c41c3837c9a333146c15b7,PennController,111,0,calibrator_val_feedback,NULL,PennController,122,_Header_,End,1732217700249,undefined,964,jail,undefined,positive,negative,positive,A,NULL
1732218226,b105447023c41c3837c9a333146c15b7,PennController,111,0,calibrator_val_feedback,NULL,Selector,Selection,Selection,negative,1732217701716,undefined,964,jail,undefined,positive,negative,positive,A,negative;positive
1732218226,b105447023c41c3837c9a333146c15b7,PennController,111,0,calibrator_val_feedback,NULL,PennController,122,_Trial_,End,1732217703725,undefined,964,jail,undefined,positive,negative,positive,A,NULL
1732218226,b105447023c41c3837c9a333146c15b7,PennController,106,0,calibrator_val_feedback,NULL,PennController,117,_Trial_,Start,1732217703728,undefined,1797,hat,undefined,positive,negative,positive,A,NULL
1732218226,b105447023c41c3837c9a333146c15b7,PennController,106,0,calibrator_val_feedback,NULL,PennController,117,_Header_,Start,1732217703728,undefined,1797,hat,undefined,positive,negative,positive,A,NULL
1732218226,b105447023c41c3837c9a333146c15b7,PennController,106,0,calibrator_val_feedback,NULL,PennController,117,_Header_,End,1732217703982,undefined,1797,hat,undefined,positive,negative,positive,A,NULL
1732218226,b105447023c41c3837c9a333146c15b7,PennController,106,0,calibrator_val_feedback,NULL,Selector,Selection,Selection,negative,1732217706289,undefined,1797,hat,undefined,positive,negative,positive,A,negative;positive
1732218226,b105447023c41c3837c9a333146c15b7,PennController,106,0,calibrator_val_feedback,NULL,PennController,117,_Trial_,End,1732217708285,undefined,1797,hat,undefined,positive,negative,positive,A,NULL
1732218226,b105447023c41c3837c9a333146c15b7,PennController,112,0,calibrator_val_feedback,NULL,PennController,123,_Trial_,Start,1732217708286,undefined,1021,joke,undefined,positive,negative,positive,A,NULL
1732218226,b105447023c41c3837c9a333146c15b7,PennController,112,0,calibrator_val_feedback,NULL,PennController,123,_Header_,Start,1732217708286,undefined,1021,joke,undefined,positive,negative,positive,A,NULL
1732218226,b105447023c41c3837c9a333146c15b7,PennController,112,0,calibrator_val_feedback,NULL,PennController,123,_Header_,End,1732217708538,undefined,1021,joke,undefined,positive,negative,positive,A,NULL
1732218226,b105447023c41c3837c9a333146c15b7,PennController,112,0,calibrator_val_feedback,NULL,Selector,Selection,Selection,positive,1732217710065,undefined,1021,joke,undefined,positive,negative,positive,A,negative;positive
1732218226,b105447023c41c3837c9a333146c15b7,PennController,112,0,calibrator_val_feedback,NULL,PennController,123,_Trial_,End,1732217712075,undefined,1021,joke,undefined,positive,negative,positive,A,NULL
1732218226,b105447023c41c3837c9a333146c15b7,PennController,113,0,calibrator_val_feedback,NULL,PennController,124,_Trial_,Start,1732217712080,undefined,789,kitten,undefined,positive,negative,positive,A,NULL
1732218226,b105447023c41c3837c9a333146c15b7,PennController,113,0,calibrator_val_feedback,NULL,PennController,124,_Header_,Start,1732217712080,undefined,789,kitten,undefined,positive,negative,positive,A,NULL
1732218226,b105447023c41c3837c9a333146c15b7,PennController,113,0,calibrator_val_feedback,NULL,PennController,124,_Header_,End,1732217712335,undefined,789,kitten,undefined,positive,negative,positive,A,NULL
1732218226,b105447023c41c3837c9a333146c15b7,PennController,113,0,calibrator_val_feedback,NULL,Selector,Selection,Selection,positive,1732217713627,undefined,789,kitten,undefined,positive,negative,positive,A,negative;positive
1732218226,b105447023c41c3837c9a333146c15b7,PennController,113,0,calibrator_val_feedback,NULL,PennController,124,_Trial_,End,1732217715633,undefined,789,kitten,undefined,positive,negative,positive,A,NULL
1732218226,b105447023c41c3837c9a333146c15b7,PennController,108,0,calibrator_val_feedback,NULL,PennController,119,_Trial_,Start,1732217715636,undefined,2620,industry,undefined,positive,negative,positive,A,NULL
1732218226,b105447023c41c3837c9a333146c15b7,PennController,108,0,calibrator_val_feedback,NULL,PennController,119,_Header_,Start,1732217715636,undefined,2620,industry,undefined,positive,negative,positive,A,NULL
1732218226,b105447023c41c3837c9a333146c15b7,PennController,108,0,calibrator_val_feedback,NULL,PennController,119,_Header_,End,1732217715886,undefined,2620,industry,undefined,positive,negative,positive,A,NULL
1732218226,b105447023c41c3837c9a333146c15b7,PennController,108,0,calibrator_val_feedback,NULL,Selector,Selection,Selection,negative,1732217719009,undefined,2620,industry,undefined,positive,negative,positive,A,negative;positive
1732218226,b105447023c41c3837c9a333146c15b7,PennController,108,0,calibrator_val_feedback,NULL,PennController,119,_Trial_,End,1732217721013,undefined,2620,industry,undefined,positive,negative,positive,A,NULL
1732218226,b105447023c41c3837c9a333146c15b7,PennController,109,0,calibrator_val_feedback,NULL,PennController,120,_Trial_,Start,1732217721016,undefined,902,insecure,undefined,positive,negative,positive,A,NULL
1732218226,b105447023c41c3837c9a333146c15b7,PennController,109,0,calibrator_val_feedback,NULL,PennController,120,_Header_,Start,1732217721016,undefined,902,insecure,undefined,positive,negative,positive,A,NULL
1732218226,b105447023c41c3837c9a333146c15b7,PennController,109,0,calibrator_val_feedback,NULL,PennController,120,_Header_,End,1732217721267,undefined,902,insecure,undefined,positive,negative,positive,A,NULL
1732218226,b105447023c41c3837c9a333146c15b7,PennController,109,0,calibrator_val_feedback,NULL,Selector,Selection,Selection,negative,1732217722675,undefined,902,insecure,undefined,positive,negative,positive,A,negative;positive
1732218226,b105447023c41c3837c9a333146c15b7,PennController,109,0,calibrator_val_feedback,NULL,PennController,120,_Trial_,End,1732217724679,undefined,902,insecure,undefined,positive,negative,positive,A,NULL
# 16. Key_value_F.
# 17. Key_value_J.
# 18. Group.
# 19. Comments.
1732218226,b105447023c41c3837c9a333146c15b7,PennController,123,0,calibrator_val_no_feedback,NULL,PennController,134,_Trial_,Start,1732217724680,undefined,671,kitten,negative,positive,A,NULL
1732218226,b105447023c41c3837c9a333146c15b7,PennController,123,0,calibrator_val_no_feedback,NULL,PennController,134,_Header_,Start,1732217724680,undefined,671,kitten,negative,positive,A,NULL
1732218226,b105447023c41c3837c9a333146c15b7,PennController,123,0,calibrator_val_no_feedback,NULL,PennController,134,_Header_,End,1732217724932,undefined,671,kitten,negative,positive,A,NULL
1732218226,b105447023c41c3837c9a333146c15b7,PennController,123,0,calibrator_val_no_feedback,NULL,Selector,unnamed-Selector,Selection,positive,1732217726107,undefined,671,kitten,negative,positive,A,negative;positive
1732218226,b105447023c41c3837c9a333146c15b7,PennController,123,0,calibrator_val_no_feedback,NULL,PennController,134,_Trial_,End,1732217726110,undefined,671,kitten,negative,positive,A,NULL
1732218226,b105447023c41c3837c9a333146c15b7,PennController,120,0,calibrator_val_no_feedback,NULL,PennController,131,_Trial_,Start,1732217726112,undefined,1277,invader,negative,positive,A,NULL
1732218226,b105447023c41c3837c9a333146c15b7,PennController,120,0,calibrator_val_no_feedback,NULL,PennController,131,_Header_,Start,1732217726112,undefined,1277,invader,negative,positive,A,NULL
1732218226,b105447023c41c3837c9a333146c15b7,PennController,120,0,calibrator_val_no_feedback,NULL,PennController,131,_Header_,End,1732217726363,undefined,1277,invader,negative,positive,A,NULL
1732218226,b105447023c41c3837c9a333146c15b7,PennController,120,0,calibrator_val_no_feedback,NULL,Selector,unnamed-Selector,Selection,negative,1732217728142,undefined,1277,invader,negative,positive,A,negative;positive
1732218226,b105447023c41c3837c9a333146c15b7,PennController,120,0,calibrator_val_no_feedback,NULL,PennController,131,_Trial_,End,1732217728145,undefined,1277,invader,negative,positive,A,NULL
1732218226,b105447023c41c3837c9a333146c15b7,PennController,115,0,calibrator_val_no_feedback,NULL,PennController,126,_Trial_,Start,1732217728147,undefined,876,grin,negative,positive,A,NULL
1732218226,b105447023c41c3837c9a333146c15b7,PennController,115,0,calibrator_val_no_feedback,NULL,PennController,126,_Header_,Start,1732217728147,undefined,876,grin,negative,positive,A,NULL
1732218226,b105447023c41c3837c9a333146c15b7,PennController,115,0,calibrator_val_no_feedback,NULL,PennController,126,_Header_,End,1732217728398,undefined,876,grin,negative,positive,A,NULL
1732218226,b105447023c41c3837c9a333146c15b7,PennController,115,0,calibrator_val_no_feedback,NULL,Selector,unnamed-Selector,Selection,positive,1732217729779,undefined,876,grin,negative,positive,A,negative;positive
1732218226,b105447023c41c3837c9a333146c15b7,PennController,115,0,calibrator_val_no_feedback,NULL,PennController,126,_Trial_,End,1732217729781,undefined,876,grin,negative,positive,A,NULL
1732218226,b105447023c41c3837c9a333146c15b7,PennController,119,0,calibrator_val_no_feedback,NULL,PennController,130,_Trial_,Start,1732217729783,undefined,822,insecure,negative,positive,A,NULL
1732218226,b105447023c41c3837c9a333146c15b7,PennController,119,0,calibrator_val_no_feedback,NULL,PennController,130,_Header_,Start,1732217729783,undefined,822,insecure,negative,positive,A,NULL
1732218226,b105447023c41c3837c9a333146c15b7,PennController,119,0,calibrator_val_no_feedback,NULL,PennController,130,_Header_,End,1732217730037,undefined,822,insecure,negative,positive,A,NULL
1732218226,b105447023c41c3837c9a333146c15b7,PennController,119,0,calibrator_val_no_feedback,NULL,Selector,unnamed-Selector,Selection,negative,1732217731363,undefined,822,insecure,negative,positive,A,negative;positive
1732218226,b105447023c41c3837c9a333146c15b7,PennController,119,0,calibrator_val_no_feedback,NULL,PennController,130,_Trial_,End,1732217731366,undefined,822,insecure,negative,positive,A,NULL
1732218226,b105447023c41c3837c9a333146c15b7,PennController,114,0,calibrator_val_no_feedback,NULL,PennController,125,_Trial_,Start,1732217731368,undefined,1031,free,negative,positive,A,NULL
1732218226,b105447023c41c3837c9a333146c15b7,PennController,114,0,calibrator_val_no_feedback,NULL,PennController,125,_Header_,Start,1732217731368,undefined,1031,free,negative,positive,A,NULL
1732218226,b105447023c41c3837c9a333146c15b7,PennController,114,0,calibrator_val_no_feedback,NULL,PennController,125,_Header_,End,1732217731619,undefined,1031,free,negative,positive,A,NULL
1732218226,b105447023c41c3837c9a333146c15b7,PennController,114,0,calibrator_val_no_feedback,NULL,Selector,unnamed-Selector,Selection,positive,1732217733153,undefined,1031,free,negative,positive,A,negative;positive
1732218226,b105447023c41c3837c9a333146c15b7,PennController,114,0,calibrator_val_no_feedback,NULL,PennController,125,_Trial_,End,1732217733154,undefined,1031,free,negative,positive,A,NULL
1732218226,b105447023c41c3837c9a333146c15b7,PennController,118,0,calibrator_val_no_feedback,NULL,PennController,129,_Trial_,Start,1732217733155,undefined,3198,industry,negative,positive,A,NULL
1732218226,b105447023c41c3837c9a333146c15b7,PennController,118,0,calibrator_val_no_feedback,NULL,PennController,129,_Header_,Start,1732217733155,undefined,3198,industry,negative,positive,A,NULL
1732218226,b105447023c41c3837c9a333146c15b7,PennController,118,0,calibrator_val_no_feedback,NULL,PennController,129,_Header_,End,1732217733407,undefined,3198,industry,negative,positive,A,NULL
1732218226,b105447023c41c3837c9a333146c15b7,PennController,118,0,calibrator_val_no_feedback,NULL,Selector,unnamed-Selector,Selection,positive,1732217737111,undefined,3198,industry,negative,positive,A,negative;positive
1732218226,b105447023c41c3837c9a333146c15b7,PennController,118,0,calibrator_val_no_feedback,NULL,PennController,129,_Trial_,End,1732217737114,undefined,3198,industry,negative,positive,A,NULL
1732218226,b105447023c41c3837c9a333146c15b7,PennController,117,0,calibrator_val_no_feedback,NULL,PennController,128,_Trial_,Start,1732217737117,undefined,955,icebox,negative,positive,A,NULL
1732218226,b105447023c41c3837c9a333146c15b7,PennController,117,0,calibrator_val_no_feedback,NULL,PennController,128,_Header_,Start,1732217737117,undefined,955,icebox,negative,positive,A,NULL
1732218226,b105447023c41c3837c9a333146c15b7,PennController,117,0,calibrator_val_no_feedback,NULL,PennController,128,_Header_,End,1732217737369,undefined,955,icebox,negative,positive,A,NULL
1732218226,b105447023c41c3837c9a333146c15b7,PennController,117,0,calibrator_val_no_feedback,NULL,Selector,unnamed-Selector,Selection,negative,1732217738828,undefined,955,icebox,negative,positive,A,negative;positive
1732218226,b105447023c41c3837c9a333146c15b7,PennController,117,0,calibrator_val_no_feedback,NULL,PennController,128,_Trial_,End,1732217738831,undefined,955,icebox,negative,positive,A,NULL
1732218226,b105447023c41c3837c9a333146c15b7,PennController,116,0,calibrator_val_no_feedback,NULL,PennController,127,_Trial_,Start,1732217738833,undefined,1280,hat,negative,positive,A,NULL
1732218226,b105447023c41c3837c9a333146c15b7,PennController,116,0,calibrator_val_no_feedback,NULL,PennController,127,_Header_,Start,1732217738833,undefined,1280,hat,negative,positive,A,NULL
1732218226,b105447023c41c3837c9a333146c15b7,PennController,116,0,calibrator_val_no_feedback,NULL,PennController,127,_Header_,End,1732217739084,undefined,1280,hat,negative,positive,A,NULL
1732218226,b105447023c41c3837c9a333146c15b7,PennController,116,0,calibrator_val_no_feedback,NULL,Selector,unnamed-Selector,Selection,negative,1732217740868,undefined,1280,hat,negative,positive,A,negative;positive
1732218226,b105447023c41c3837c9a333146c15b7,PennController,116,0,calibrator_val_no_feedback,NULL,PennController,127,_Trial_,End,1732217740870,undefined,1280,hat,negative,positive,A,NULL
1732218226,b105447023c41c3837c9a333146c15b7,PennController,122,0,calibrator_val_no_feedback,NULL,PennController,133,_Trial_,Start,1732217740872,undefined,1467,joke,negative,positive,A,NULL
1732218226,b105447023c41c3837c9a333146c15b7,PennController,122,0,calibrator_val_no_feedback,NULL,PennController,133,_Header_,Start,1732217740872,undefined,1467,joke,negative,positive,A,NULL
1732218226,b105447023c41c3837c9a333146c15b7,PennController,122,0,calibrator_val_no_feedback,NULL,PennController,133,_Header_,End,1732217741125,undefined,1467,joke,negative,positive,A,NULL
1732218226,b105447023c41c3837c9a333146c15b7,PennController,122,0,calibrator_val_no_feedback,NULL,Selector,unnamed-Selector,Selection,positive,1732217743099,undefined,1467,joke,negative,positive,A,negative;positive
1732218226,b105447023c41c3837c9a333146c15b7,PennController,122,0,calibrator_val_no_feedback,NULL,PennController,133,_Trial_,End,1732217743102,undefined,1467,joke,negative,positive,A,NULL
1732218226,b105447023c41c3837c9a333146c15b7,PennController,121,0,calibrator_val_no_feedback,NULL,PennController,132,_Trial_,Start,1732217743104,undefined,797,jail,negative,positive,A,NULL
1732218226,b105447023c41c3837c9a333146c15b7,PennController,121,0,calibrator_val_no_feedback,NULL,PennController,132,_Header_,Start,1732217743104,undefined,797,jail,negative,positive,A,NULL
1732218226,b105447023c41c3837c9a333146c15b7,PennController,121,0,calibrator_val_no_feedback,NULL,PennController,132,_Header_,End,1732217743357,undefined,797,jail,negative,positive,A,NULL
1732218226,b105447023c41c3837c9a333146c15b7,PennController,121,0,calibrator_val_no_feedback,NULL,Selector,unnamed-Selector,Selection,negative,1732217744658,undefined,797,jail,negative,positive,A,negative;positive
1732218226,b105447023c41c3837c9a333146c15b7,PennController,121,0,calibrator_val_no_feedback,NULL,PennController,132,_Trial_,End,1732217744659,undefined,797,jail,negative,positive,A,NULL
# 13. Comments.
1732218226,b105447023c41c3837c9a333146c15b7,PennController,130,0,endinstructions_val,NULL,PennController,8,_Trial_,Start,1732217744660,NULL
1732218226,b105447023c41c3837c9a333146c15b7,PennController,130,0,endinstructions_val,NULL,PennController,8,_Header_,Start,1732217744660,NULL
1732218226,b105447023c41c3837c9a333146c15b7,PennController,130,0,endinstructions_val,NULL,PennController,8,_Header_,End,1732217744914,NULL
1732218226,b105447023c41c3837c9a333146c15b7,PennController,130,0,endinstructions_val,NULL,PennController,8,_Trial_,End,1732217748461,NULL
# 13. ID.
# 14. ReactionTime.
# 15. Word.
# 16. ConcValCombo.
# 17. Key_value_F.
# 18. Key_value_J.
# 19. Group.
# 20. Comments.
1732218226,b105447023c41c3837c9a333146c15b7,PennController,71,0,test_val,NULL,PennController,82,_Trial_,Start,1732217748463,undefined,760,scorn,abstract-negative,negative,positive,A,NULL
1732218226,b105447023c41c3837c9a333146c15b7,PennController,71,0,test_val,NULL,PennController,82,_Header_,Start,1732217748463,undefined,760,scorn,abstract-negative,negative,positive,A,NULL
1732218226,b105447023c41c3837c9a333146c15b7,PennController,71,0,test_val,NULL,PennController,82,_Header_,End,1732217748716,undefined,760,scorn,abstract-negative,negative,positive,A,NULL
1732218226,b105447023c41c3837c9a333146c15b7,PennController,71,0,test_val,NULL,Selector,unnamed-Selector,Selection,negative,1732217749981,undefined,760,scorn,abstract-negative,negative,positive,A,negative;positive
1732218226,b105447023c41c3837c9a333146c15b7,PennController,71,0,test_val,NULL,PennController,82,_Trial_,End,1732217749983,undefined,760,scorn,abstract-negative,negative,positive,A,NULL
1732218226,b105447023c41c3837c9a333146c15b7,PennController,70,0,test_val,NULL,PennController,81,_Trial_,Start,1732217749986,undefined,629,resent,abstract-negative,negative,positive,A,NULL
1732218226,b105447023c41c3837c9a333146c15b7,PennController,70,0,test_val,NULL,PennController,81,_Header_,Start,1732217749986,undefined,629,resent,abstract-negative,negative,positive,A,NULL
1732218226,b105447023c41c3837c9a333146c15b7,PennController,70,0,test_val,NULL,PennController,81,_Header_,End,1732217750239,undefined,629,resent,abstract-negative,negative,positive,A,NULL
1732218226,b105447023c41c3837c9a333146c15b7,PennController,70,0,test_val,NULL,Selector,unnamed-Selector,Selection,negative,1732217751372,undefined,629,resent,abstract-negative,negative,positive,A,negative;positive
1732218226,b105447023c41c3837c9a333146c15b7,PennController,70,0,test_val,NULL,PennController,81,_Trial_,End,1732217751375,undefined,629,resent,abstract-negative,negative,positive,A,NULL
1732218226,b105447023c41c3837c9a333146c15b7,PennController,80,0,test_val,NULL,PennController,91,_Trial_,Start,1732217751377,undefined,619,fulfill,abstract-positive,negative,positive,A,NULL
1732218226,b105447023c41c3837c9a333146c15b7,PennController,80,0,test_val,NULL,PennController,91,_Header_,Start,1732217751377,undefined,619,fulfill,abstract-positive,negative,positive,A,NULL
1732218226,b105447023c41c3837c9a333146c15b7,PennController,80,0,test_val,NULL,PennController,91,_Header_,End,1732217751631,undefined,619,fulfill,abstract-positive,negative,positive,A,NULL
1732218226,b105447023c41c3837c9a333146c15b7,PennController,80,0,test_val,NULL,Selector,unnamed-Selector,Selection,positive,1732217752755,undefined,619,fulfill,abstract-positive,negative,positive,A,negative;positive
1732218226,b105447023c41c3837c9a333146c15b7,PennController,80,0,test_val,NULL,PennController,91,_Trial_,End,1732217752758,undefined,619,fulfill,abstract-positive,negative,positive,A,NULL
1732218226,b105447023c41c3837c9a333146c15b7,PennController,83,0,test_val,NULL,PennController,94,_Trial_,Start,1732217752760,undefined,581,respect,abstract-positive,negative,positive,A,NULL
1732218226,b105447023c41c3837c9a333146c15b7,PennController,83,0,test_val,NULL,PennController,94,_Header_,Start,1732217752760,undefined,581,respect,abstract-positive,negative,positive,A,NULL
1732218226,b105447023c41c3837c9a333146c15b7,PennController,83,0,test_val,NULL,PennController,94,_Header_,End,1732217753013,undefined,581,respect,abstract-positive,negative,positive,A,NULL
1732218226,b105447023c41c3837c9a333146c15b7,PennController,83,0,test_val,NULL,Selector,unnamed-Selector,Selection,positive,1732217754099,undefined,581,respect,abstract-positive,negative,positive,A,negative;positive
1732218226,b105447023c41c3837c9a333146c15b7,PennController,83,0,test_val,NULL,PennController,94,_Trial_,End,1732217754101,undefined,581,respect,abstract-positive,negative,positive,A,NULL
1732218226,b105447023c41c3837c9a333146c15b7,PennController,81,0,test_val,NULL,PennController,92,_Trial_,Start,1732217754103,undefined,680,esteem,abstract-positive,negative,positive,A,NULL
1732218226,b105447023c41c3837c9a333146c15b7,PennController,81,0,test_val,NULL,PennController,92,_Header_,Start,1732217754103,undefined,680,esteem,abstract-positive,negative,positive,A,NULL
1732218226,b105447023c41c3837c9a333146c15b7,PennController,81,0,test_val,NULL,PennController,92,_Header_,End,1732217754355,undefined,680,esteem,abstract-positive,negative,positive,A,NULL
1732218226,b105447023c41c3837c9a333146c15b7,PennController,81,0,test_val,NULL,Selector,unnamed-Selector,Selection,positive,1732217755539,undefined,680,esteem,abstract-positive,negative,positive,A,negative;positive
1732218226,b105447023c41c3837c9a333146c15b7,PennController,81,0,test_val,NULL,PennController,92,_Trial_,End,1732217755541,undefined,680,esteem,abstract-positive,negative,positive,A,NULL
1732218226,b105447023c41c3837c9a333146c15b7,PennController,75,0,test_val,NULL,PennController,86,_Trial_,Start,1732217755544,undefined,765,enlighten,abstract-positive,negative,positive,A,NULL
1732218226,b105447023c41c3837c9a333146c15b7,PennController,75,0,test_val,NULL,PennController,86,_Header_,Start,1732217755544,undefined,765,enlighten,abstract-positive,negative,positive,A,NULL
1732218226,b105447023c41c3837c9a333146c15b7,PennController,75,0,test_val,NULL,PennController,86,_Header_,End,1732217755797,undefined,765,enlighten,abstract-positive,negative,positive,A,NULL
1732218226,b105447023c41c3837c9a333146c15b7,PennController,75,0,test_val,NULL,Selector,unnamed-Selector,Selection,positive,1732217757067,undefined,765,enlighten,abstract-positive,negative,positive,A,negative;positive
1732218226,b105447023c41c3837c9a333146c15b7,PennController,75,0,test_val,NULL,PennController,86,_Trial_,End,1732217757069,undefined,765,enlighten,abstract-positive,negative,positive,A,NULL
1732218226,b105447023c41c3837c9a333146c15b7,PennController,56,0,test_val,NULL,PennController,67,_Trial_,Start,1732217757071,undefined,631,murder,concrete-negative,negative,positive,A,NULL
1732218226,b105447023c41c3837c9a333146c15b7,PennController,56,0,test_val,NULL,PennController,67,_Header_,Start,1732217757071,undefined,631,murder,concrete-negative,negative,positive,A,NULL
1732218226,b105447023c41c3837c9a333146c15b7,PennController,56,0,test_val,NULL,PennController,67,_Header_,End,1732217757324,undefined,631,murder,concrete-negative,negative,positive,A,NULL
1732218226,b105447023c41c3837c9a333146c15b7,PennController,56,0,test_val,NULL,Selector,unnamed-Selector,Selection,negative,1732217758460,undefined,631,murder,concrete-negative,negative,positive,A,negative;positive
1732218226,b105447023c41c3837c9a333146c15b7,PennController,56,0,test_val,NULL,PennController,67,_Trial_,End,1732217758462,undefined,631,murder,concrete-negative,negative,positive,A,NULL
1732218226,b105447023c41c3837c9a333146c15b7,PennController,68,0,test_val,NULL,PennController,79,_Trial_,Start,1732217758464,undefined,623,loathe,abstract-negative,negative,positive,A,NULL
1732218226,b105447023c41c3837c9a333146c15b7,PennController,68,0,test_val,NULL,PennController,79,_Header_,Start,1732217758464,undefined,623,loathe,abstract-negative,negative,positive,A,NULL
1732218226,b105447023c41c3837c9a333146c15b7,PennController,68,0,test_val,NULL,PennController,79,_Header_,End,1732217758714,undefined,623,loathe,abstract-negative,negative,positive,A,NULL
1732218226,b105447023c41c3837c9a333146c15b7,PennController,68,0,test_val,NULL,Selector,unnamed-Selector,Selection,negative,1732217759843,undefined,623,loathe,abstract-negative,negative,positive,A,negative;positive
1732218226,b105447023c41c3837c9a333146c15b7,PennController,68,0,test_val,NULL,PennController,79,_Trial_,End,1732217759846,undefined,623,loathe,abstract-negative,negative,positive,A,NULL
1732218226,b105447023c41c3837c9a333146c15b7,PennController,76,0,test_val,NULL,PennController,87,_Trial_,Start,1732217759848,undefined,637,admired,abstract-positive,negative,positive,A,NULL
1732218226,b105447023c41c3837c9a333146c15b7,PennController,76,0,test_val,NULL,PennController,87,_Header_,Start,1732217759848,undefined,637,admired,abstract-positive,negative,positive,A,NULL
1732218226,b105447023c41c3837c9a333146c15b7,PennController,76,0,test_val,NULL,PennController,87,_Header_,End,1732217760102,undefined,637,admired,abstract-positive,negative,positive,A,NULL
1732218226,b105447023c41c3837c9a333146c15b7,PennController,76,0,test_val,NULL,Selector,unnamed-Selector,Selection,positive,1732217761244,undefined,637,admired,abstract-positive,negative,positive,A,negative;positive
1732218226,b105447023c41c3837c9a333146c15b7,PennController,76,0,test_val,NULL,PennController,87,_Trial_,End,1732217761246,undefined,637,admired,abstract-positive,negative,positive,A,NULL
1732218226,b105447023c41c3837c9a333146c15b7,PennController,52,0,test_val,NULL,PennController,63,_Trial_,Start,1732217761249,undefined,574,smile,concrete-positive,negative,positive,A,NULL
1732218226,b105447023c41c3837c9a333146c15b7,PennController,52,0,test_val,NULL,PennController,63,_Header_,Start,1732217761249,undefined,574,smile,concrete-positive,negative,positive,A,NULL
1732218226,b105447023c41c3837c9a333146c15b7,PennController,52,0,test_val,NULL,PennController,63,_Header_,End,1732217761499,undefined,574,smile,concrete-positive,negative,positive,A,NULL
1732218226,b105447023c41c3837c9a333146c15b7,PennController,52,0,test_val,NULL,Selector,unnamed-Selector,Selection,positive,1732217762580,undefined,574,smile,concrete-positive,negative,positive,A,negative;positive
1732218226,b105447023c41c3837c9a333146c15b7,PennController,52,0,test_val,NULL,PennController,63,_Trial_,End,1732217762582,undefined,574,smile,concrete-positive,negative,positive,A,NULL
1732218226,b105447023c41c3837c9a333146c15b7,PennController,62,0,test_val,NULL,PennController,73,_Trial_,Start,1732217762584,undefined,618,stab,concrete-negative,negative,positive,A,NULL
1732218226,b105447023c41c3837c9a333146c15b7,PennController,62,0,test_val,NULL,PennController,73,_Header_,Start,1732217762584,undefined,618,stab,concrete-negative,negative,positive,A,NULL
1732218226,b105447023c41c3837c9a333146c15b7,PennController,62,0,test_val,NULL,PennController,73,_Header_,End,1732217762839,undefined,618,stab,concrete-negative,negative,positive,A,NULL
1732218226,b105447023c41c3837c9a333146c15b7,PennController,62,0,test_val,NULL,Selector,unnamed-Selector,Selection,negative,1732217763963,undefined,618,stab,concrete-negative,negative,positive,A,negative;positive
1732218226,b105447023c41c3837c9a333146c15b7,PennController,62,0,test_val,NULL,PennController,73,_Trial_,End,1732217763966,undefined,618,stab,concrete-negative,negative,positive,A,NULL
1732218226,b105447023c41c3837c9a333146c15b7,PennController,77,0,test_val,NULL,PennController,88,_Trial_,Start,1732217763967,undefined,561,cherish,abstract-positive,negative,positive,A,NULL
1732218226,b105447023c41c3837c9a333146c15b7,PennController,77,0,test_val,NULL,PennController,88,_Header_,Start,1732217763967,undefined,561,cherish,abstract-positive,negative,positive,A,NULL
1732218226,b105447023c41c3837c9a333146c15b7,PennController,77,0,test_val,NULL,PennController,88,_Header_,End,1732217764218,undefined,561,cherish,abstract-positive,negative,positive,A,NULL
1732218226,b105447023c41c3837c9a333146c15b7,PennController,77,0,test_val,NULL,Selector,unnamed-Selector,Selection,positive,1732217765284,undefined,561,cherish,abstract-positive,negative,positive,A,negative;positive
1732218226,b105447023c41c3837c9a333146c15b7,PennController,77,0,test_val,NULL,PennController,88,_Trial_,End,1732217765286,undefined,561,cherish,abstract-positive,negative,positive,A,NULL
1732218226,b105447023c41c3837c9a333146c15b7,PennController,72,0,test_val,NULL,PennController,83,_Trial_,Start,1732217765288,undefined,806,violate,abstract-negative,negative,positive,A,NULL
1732218226,b105447023c41c3837c9a333146c15b7,PennController,72,0,test_val,NULL,PennController,83,_Header_,Start,1732217765288,undefined,806,violate,abstract-negative,negative,positive,A,NULL
1732218226,b105447023c41c3837c9a333146c15b7,PennController,72,0,test_val,NULL,PennController,83,_Header_,End,1732217765541,undefined,806,violate,abstract-negative,negative,positive,A,NULL
1732218226,b105447023c41c3837c9a333146c15b7,PennController,72,0,test_val,NULL,Selector,unnamed-Selector,Selection,negative,1732217766851,undefined,806,violate,abstract-negative,negative,positive,A,negative;positive
1732218226,b105447023c41c3837c9a333146c15b7,PennController,72,0,test_val,NULL,PennController,83,_Trial_,End,1732217766853,undefined,806,violate,abstract-negative,negative,positive,A,NULL
1732218226,b105447023c41c3837c9a333146c15b7,PennController,78,0,test_val,NULL,PennController,89,_Trial_,Start,1732217766856,undefined,645,hope,abstract-positive,negative,positive,A,NULL
1732218226,b105447023c41c3837c9a333146c15b7,PennController,78,0,test_val,NULL,PennController,89,_Header_,Start,1732217766856,undefined,645,hope,abstract-positive,negative,positive,A,NULL
1732218226,b105447023c41c3837c9a333146c15b7,PennController,78,0,test_val,NULL,PennController,89,_Header_,End,1732217767108,undefined,645,hope,abstract-positive,negative,positive,A,NULL
1732218226,b105447023c41c3837c9a333146c15b7,PennController,78,0,test_val,NULL,Selector,unnamed-Selector,Selection,positive,1732217768257,undefined,645,hope,abstract-positive,negative,positive,A,negative;positive
1732218226,b105447023c41c3837c9a333146c15b7,PennController,78,0,test_val,NULL,PennController,89,_Trial_,End,1732217768258,undefined,645,hope,abstract-positive,negative,positive,A,NULL
1732218226,b105447023c41c3837c9a333146c15b7,PennController,66,0,test_val,NULL,PennController,77,_Trial_,Start,1732217768259,undefined,602,criticize,abstract-negative,negative,positive,A,NULL
1732218226,b105447023c41c3837c9a333146c15b7,PennController,66,0,test_val,NULL,PennController,77,_Header_,Start,1732217768259,undefined,602,criticize,abstract-negative,negative,positive,A,NULL
1732218226,b105447023c41c3837c9a333146c15b7,PennController,66,0,test_val,NULL,PennController,77,_Header_,End,1732217768512,undefined,602,criticize,abstract-negative,negative,positive,A,NULL
1732218226,b105447023c41c3837c9a333146c15b7,PennController,66,0,test_val,NULL,Selector,unnamed-Selector,Selection,negative,1732217769619,undefined,602,criticize,abstract-negative,negative,positive,A,negative;positive
1732218226,b105447023c41c3837c9a333146c15b7,PennController,66,0,test_val,NULL,PennController,77,_Trial_,End,1732217769621,undefined,602,criticize,abstract-negative,negative,positive,A,NULL
1732218226,b105447023c41c3837c9a333146c15b7,PennController,51,0,test_val,NULL,PennController,62,_Trial_,Start,1732217769624,undefined,918,sail,concrete-positive,negative,positive,A,NULL
1732218226,b105447023c41c3837c9a333146c15b7,PennController,51,0,test_val,NULL,PennController,62,_Header_,Start,1732217769624,undefined,918,sail,concrete-positive,negative,positive,A,NULL
1732218226,b105447023c41c3837c9a333146c15b7,PennController,51,0,test_val,NULL,PennController,62,_Header_,End,1732217769877,undefined,918,sail,concrete-positive,negative,positive,A,NULL
1732218226,b105447023c41c3837c9a333146c15b7,PennController,51,0,test_val,NULL,Selector,unnamed-Selector,Selection,positive,1732217771301,undefined,918,sail,concrete-positive,negative,positive,A,negative;positive
1732218226,b105447023c41c3837c9a333146c15b7,PennController,51,0,test_val,NULL,PennController,62,_Trial_,End,1732217771303,undefined,918,sail,concrete-positive,negative,positive,A,NULL
1732218226,b105447023c41c3837c9a333146c15b7,PennController,63,0,test_val,NULL,PennController,74,_Trial_,Start,1732217771305,undefined,1213,vomit,concrete-negative,negative,positive,A,NULL
1732218226,b105447023c41c3837c9a333146c15b7,PennController,63,0,test_val,NULL,PennController,74,_Header_,Start,1732217771305,undefined,1213,vomit,concrete-negative,negative,positive,A,NULL
1732218226,b105447023c41c3837c9a333146c15b7,PennController,63,0,test_val,NULL,PennController,74,_Header_,End,1732217771556,undefined,1213,vomit,concrete-negative,negative,positive,A,NULL
1732218226,b105447023c41c3837c9a333146c15b7,PennController,63,0,test_val,NULL,Selector,unnamed-Selector,Selection,negative,1732217773273,undefined,1213,vomit,concrete-negative,negative,positive,A,negative;positive
1732218226,b105447023c41c3837c9a333146c15b7,PennController,63,0,test_val,NULL,PennController,74,_Trial_,End,1732217773274,undefined,1213,vomit,concrete-negative,negative,positive,A,NULL
1732218226,b105447023c41c3837c9a333146c15b7,PennController,55,0,test_val,NULL,PennController,66,_Trial_,Start,1732217773274,undefined,934,kill,concrete-negative,negative,positive,A,NULL
1732218226,b105447023c41c3837c9a333146c15b7,PennController,55,0,test_val,NULL,PennController,66,_Header_,Start,1732217773274,undefined,934,kill,concrete-negative,negative,positive,A,NULL
1732218226,b105447023c41c3837c9a333146c15b7,PennController,55,0,test_val,NULL,PennController,66,_Header_,End,1732217773525,undefined,934,kill,concrete-negative,negative,positive,A,NULL
1732218226,b105447023c41c3837c9a333146c15b7,PennController,55,0,test_val,NULL,Selector,unnamed-Selector,Selection,negative,1732217774962,undefined,934,kill,concrete-negative,negative,positive,A,negative;positive
1732218226,b105447023c41c3837c9a333146c15b7,PennController,55,0,test_val,NULL,PennController,66,_Trial_,End,1732217774963,undefined,934,kill,concrete-negative,negative,positive,A,NULL
1732218226,b105447023c41c3837c9a333146c15b7,PennController,46,0,test_val,NULL,PennController,57,_Trial_,Start,1732217774964,undefined,663,cuddle,concrete-positive,negative,positive,A,NULL
1732218226,b105447023c41c3837c9a333146c15b7,PennController,46,0,test_val,NULL,PennController,57,_Header_,Start,1732217774964,undefined,663,cuddle,concrete-positive,negative,positive,A,NULL
1732218226,b105447023c41c3837c9a333146c15b7,PennController,46,0,test_val,NULL,PennController,57,_Header_,End,1732217775218,undefined,663,cuddle,concrete-positive,negative,positive,A,NULL
1732218226,b105447023c41c3837c9a333146c15b7,PennController,46,0,test_val,NULL,Selector,unnamed-Selector,Selection,positive,1732217776386,undefined,663,cuddle,concrete-positive,negative,positive,A,negative;positive
1732218226,b105447023c41c3837c9a333146c15b7,PennController,46,0,test_val,NULL,PennController,57,_Trial_,End,1732217776388,undefined,663,cuddle,concrete-positive,negative,positive,A,NULL
1732218226,b105447023c41c3837c9a333146c15b7,PennController,50,0,test_val,NULL,PennController,61,_Trial_,Start,1732217776390,undefined,959,running,concrete-positive,negative,positive,A,NULL
1732218226,b105447023c41c3837c9a333146c15b7,PennController,50,0,test_val,NULL,PennController,61,_Header_,Start,1732217776390,undefined,959,running,concrete-positive,negative,positive,A,NULL
1732218226,b105447023c41c3837c9a333146c15b7,PennController,50,0,test_val,NULL,PennController,61,_Header_,End,1732217776643,undefined,959,running,concrete-positive,negative,positive,A,NULL
1732218226,b105447023c41c3837c9a333146c15b7,PennController,50,0,test_val,NULL,Selector,unnamed-Selector,Selection,negative,1732217778107,undefined,959,running,concrete-positive,negative,positive,A,negative;positive
1732218226,b105447023c41c3837c9a333146c15b7,PennController,50,0,test_val,NULL,PennController,61,_Trial_,End,1732217778109,undefined,959,running,concrete-positive,negative,positive,A,NULL
1732218226,b105447023c41c3837c9a333146c15b7,PennController,44,0,test_val,NULL,PennController,55,_Trial_,Start,1732217778112,undefined,1004,build,concrete-positive,negative,positive,A,NULL
1732218226,b105447023c41c3837c9a333146c15b7,PennController,44,0,test_val,NULL,PennController,55,_Header_,Start,1732217778112,undefined,1004,build,concrete-positive,negative,positive,A,NULL
1732218226,b105447023c41c3837c9a333146c15b7,PennController,44,0,test_val,NULL,PennController,55,_Header_,End,1732217778364,undefined,1004,build,concrete-positive,negative,positive,A,NULL
1732218226,b105447023c41c3837c9a333146c15b7,PennController,44,0,test_val,NULL,Selector,unnamed-Selector,Selection,negative,1732217779873,undefined,1004,build,concrete-positive,negative,positive,A,negative;positive
1732218226,b105447023c41c3837c9a333146c15b7,PennController,44,0,test_val,NULL,PennController,55,_Trial_,End,1732217779873,undefined,1004,build,concrete-positive,negative,positive,A,NULL
1732218226,b105447023c41c3837c9a333146c15b7,PennController,79,0,test_val,NULL,PennController,90,_Trial_,Start,1732217779874,undefined,641,believe,abstract-positive,negative,positive,A,NULL
1732218226,b105447023c41c3837c9a333146c15b7,PennController,79,0,test_val,NULL,PennController,90,_Header_,Start,1732217779874,undefined,641,believe,abstract-positive,negative,positive,A,NULL
1732218226,b105447023c41c3837c9a333146c15b7,PennController,79,0,test_val,NULL,PennController,90,_Header_,End,1732217780125,undefined,641,believe,abstract-positive,negative,positive,A,NULL
1732218226,b105447023c41c3837c9a333146c15b7,PennController,79,0,test_val,NULL,Selector,unnamed-Selector,Selection,positive,1732217781267,undefined,641,believe,abstract-positive,negative,positive,A,negative;positive
1732218226,b105447023c41c3837c9a333146c15b7,PennController,79,0,test_val,NULL,PennController,90,_Trial_,End,1732217781269,undefined,641,believe,abstract-positive,negative,positive,A,NULL
1732218226,b105447023c41c3837c9a333146c15b7,PennController,54,0,test_val,NULL,PennController,65,_Trial_,Start,1732217781271,undefined,733,bleed,concrete-negative,negative,positive,A,NULL
1732218226,b105447023c41c3837c9a333146c15b7,PennController,54,0,test_val,NULL,PennController,65,_Header_,Start,1732217781272,undefined,733,bleed,concrete-negative,negative,positive,A,NULL
1732218226,b105447023c41c3837c9a333146c15b7,PennController,54,0,test_val,NULL,PennController,65,_Header_,End,1732217781526,undefined,733,bleed,concrete-negative,negative,positive,A,NULL
1732218226,b105447023c41c3837c9a333146c15b7,PennController,54,0,test_val,NULL,Selector,unnamed-Selector,Selection,negative,1732217782763,undefined,733,bleed,concrete-negative,negative,positive,A,negative;positive
1732218226,b105447023c41c3837c9a333146c15b7,PennController,54,0,test_val,NULL,PennController,65,_Trial_,End,1732217782765,undefined,733,bleed,concrete-negative,negative,positive,A,NULL
1732218226,b105447023c41c3837c9a333146c15b7,PennController,60,0,test_val,NULL,PennController,71,_Trial_,Start,1732217782768,undefined,710,smack,concrete-negative,negative,positive,A,NULL
1732218226,b105447023c41c3837c9a333146c15b7,PennController,60,0,test_val,NULL,PennController,71,_Header_,Start,1732217782768,undefined,710,smack,concrete-negative,negative,positive,A,NULL
1732218226,b105447023c41c3837c9a333146c15b7,PennController,60,0,test_val,NULL,PennController,71,_Header_,End,1732217783019,undefined,710,smack,concrete-negative,negative,positive,A,NULL
1732218226,b105447023c41c3837c9a333146c15b7,PennController,60,0,test_val,NULL,Selector,unnamed-Selector,Selection,negative,1732217784235,undefined,710,smack,concrete-negative,negative,positive,A,negative;positive
1732218226,b105447023c41c3837c9a333146c15b7,PennController,60,0,test_val,NULL,PennController,71,_Trial_,End,1732217784237,undefined,710,smack,concrete-negative,negative,positive,A,NULL
1732218226,b105447023c41c3837c9a333146c15b7,PennController,57,0,test_val,NULL,PennController,68,_Trial_,Start,1732217784239,undefined,591,puke,concrete-negative,negative,positive,A,NULL
1732218226,b105447023c41c3837c9a333146c15b7,PennController,57,0,test_val,NULL,PennController,68,_Header_,Start,1732217784239,undefined,591,puke,concrete-negative,negative,positive,A,NULL
1732218226,b105447023c41c3837c9a333146c15b7,PennController,57,0,test_val,NULL,PennController,68,_Header_,End,1732217784491,undefined,591,puke,concrete-negative,negative,positive,A,NULL
1732218226,b105447023c41c3837c9a333146c15b7,PennController,57,0,test_val,NULL,Selector,unnamed-Selector,Selection,negative,1732217785587,undefined,591,puke,concrete-negative,negative,positive,A,negative;positive
1732218226,b105447023c41c3837c9a333146c15b7,PennController,57,0,test_val,NULL,PennController,68,_Trial_,End,1732217785589,undefined,591,puke,concrete-negative,negative,positive,A,NULL
1732218226,b105447023c41c3837c9a333146c15b7,PennController,47,0,test_val,NULL,PennController,58,_Trial_,Start,1732217785591,undefined,1251,eat,concrete-positive,negative,positive,A,NULL
1732218226,b105447023c41c3837c9a333146c15b7,PennController,47,0,test_val,NULL,PennController,58,_Header_,Start,1732217785591,undefined,1251,eat,concrete-positive,negative,positive,A,NULL
1732218226,b105447023c41c3837c9a333146c15b7,PennController,47,0,test_val,NULL,PennController,58,_Header_,End,1732217785842,undefined,1251,eat,concrete-positive,negative,positive,A,NULL
1732218226,b105447023c41c3837c9a333146c15b7,PennController,47,0,test_val,NULL,Selector,unnamed-Selector,Selection,positive,1732217787595,undefined,1251,eat,concrete-positive,negative,positive,A,negative;positive
1732218226,b105447023c41c3837c9a333146c15b7,PennController,47,0,test_val,NULL,PennController,58,_Trial_,End,1732217787598,undefined,1251,eat,concrete-positive,negative,positive,A,NULL
1732218226,b105447023c41c3837c9a333146c15b7,PennController,67,0,test_val,NULL,PennController,78,_Trial_,Start,1732217787600,undefined,755,exploit,abstract-negative,negative,positive,A,NULL
1732218226,b105447023c41c3837c9a333146c15b7,PennController,67,0,test_val,NULL,PennController,78,_Header_,Start,1732217787600,undefined,755,exploit,abstract-negative,negative,positive,A,NULL
1732218226,b105447023c41c3837c9a333146c15b7,PennController,67,0,test_val,NULL,PennController,78,_Header_,End,1732217787850,undefined,755,exploit,abstract-negative,negative,positive,A,NULL
1732218226,b105447023c41c3837c9a333146c15b7,PennController,67,0,test_val,NULL,Selector,unnamed-Selector,Selection,negative,1732217789107,undefined,755,exploit,abstract-negative,negative,positive,A,negative;positive
1732218226,b105447023c41c3837c9a333146c15b7,PennController,67,0,test_val,NULL,PennController,78,_Trial_,End,1732217789110,undefined,755,exploit,abstract-negative,negative,positive,A,NULL
1732218226,b105447023c41c3837c9a333146c15b7,PennController,53,0,test_val,NULL,PennController,64,_Trial_,Start,1732217789112,undefined,1135,swing,concrete-positive,negative,positive,A,NULL
1732218226,b105447023c41c3837c9a333146c15b7,PennController,53,0,test_val,NULL,PennController,64,_Header_,Start,1732217789112,undefined,1135,swing,concrete-positive,negative,positive,A,NULL
1732218226,b105447023c41c3837c9a333146c15b7,PennController,53,0,test_val,NULL,PennController,64,_Header_,End,1732217789364,undefined,1135,swing,concrete-positive,negative,positive,A,NULL
1732218226,b105447023c41c3837c9a333146c15b7,PennController,53,0,test_val,NULL,Selector,unnamed-Selector,Selection,negative,1732217791003,undefined,1135,swing,concrete-positive,negative,positive,A,negative;positive
1732218226,b105447023c41c3837c9a333146c15b7,PennController,53,0,test_val,NULL,PennController,64,_Trial_,End,1732217791005,undefined,1135,swing,concrete-positive,negative,positive,A,NULL
1732218226,b105447023c41c3837c9a333146c15b7,PennController,74,0,test_val,NULL,PennController,85,_Trial_,Start,1732217791007,undefined,1102,imagine,abstract-positive,negative,positive,A,NULL
1732218226,b105447023c41c3837c9a333146c15b7,PennController,74,0,test_val,NULL,PennController,85,_Header_,Start,1732217791007,undefined,1102,imagine,abstract-positive,negative,positive,A,NULL
1732218226,b105447023c41c3837c9a333146c15b7,PennController,74,0,test_val,NULL,PennController,85,_Header_,End,1732217791260,undefined,1102,imagine,abstract-positive,negative,positive,A,NULL
1732218226,b105447023c41c3837c9a333146c15b7,PennController,74,0,test_val,NULL,Selector,unnamed-Selector,Selection,positive,1732217792868,undefined,1102,imagine,abstract-positive,negative,positive,A,negative;positive
1732218226,b105447023c41c3837c9a333146c15b7,PennController,74,0,test_val,NULL,PennController,85,_Trial_,End,1732217792870,undefined,1102,imagine,abstract-positive,negative,positive,A,NULL
1732218226,b105447023c41c3837c9a333146c15b7,PennController,59,0,test_val,NULL,PennController,70,_Trial_,Start,1732217792873,undefined,613,slap,concrete-negative,negative,positive,A,NULL
1732218226,b105447023c41c3837c9a333146c15b7,PennController,59,0,test_val,NULL,PennController,70,_Header_,Start,1732217792873,undefined,613,slap,concrete-negative,negative,positive,A,NULL
1732218226,b105447023c41c3837c9a333146c15b7,PennController,59,0,test_val,NULL,PennController,70,_Header_,End,1732217793126,undefined,613,slap,concrete-negative,negative,positive,A,NULL
1732218226,b105447023c41c3837c9a333146c15b7,PennController,59,0,test_val,NULL,Selector,unnamed-Selector,Selection,negative,1732217794243,undefined,613,slap,concrete-negative,negative,positive,A,negative;positive
1732218226,b105447023c41c3837c9a333146c15b7,PennController,59,0,test_val,NULL,PennController,70,_Trial_,End,1732217794246,undefined,613,slap,concrete-negative,negative,positive,A,NULL
1732218226,b105447023c41c3837c9a333146c15b7,PennController,73,0,test_val,NULL,PennController,84,_Trial_,Start,1732217794248,undefined,517,worry,abstract-negative,negative,positive,A,NULL
1732218226,b105447023c41c3837c9a333146c15b7,PennController,73,0,test_val,NULL,PennController,84,_Header_,Start,1732217794248,undefined,517,worry,abstract-negative,negative,positive,A,NULL
1732218226,b105447023c41c3837c9a333146c15b7,PennController,73,0,test_val,NULL,PennController,84,_Header_,End,1732217794501,undefined,517,worry,abstract-negative,negative,positive,A,NULL
1732218226,b105447023c41c3837c9a333146c15b7,PennController,73,0,test_val,NULL,Selector,unnamed-Selector,Selection,negative,1732217795523,undefined,517,worry,abstract-negative,negative,positive,A,negative;positive
1732218226,b105447023c41c3837c9a333146c15b7,PennController,73,0,test_val,NULL,PennController,84,_Trial_,End,1732217795526,undefined,517,worry,abstract-negative,negative,positive,A,NULL
1732218226,b105447023c41c3837c9a333146c15b7,PennController,64,0,test_val,NULL,PennController,75,_Trial_,Start,1732217795528,undefined,565,annoy,abstract-negative,negative,positive,A,NULL
1732218226,b105447023c41c3837c9a333146c15b7,PennController,64,0,test_val,NULL,PennController,75,_Header_,Start,1732217795528,undefined,565,annoy,abstract-negative,negative,positive,A,NULL
1732218226,b105447023c41c3837c9a333146c15b7,PennController,64,0,test_val,NULL,PennController,75,_Header_,End,1732217795780,undefined,565,annoy,abstract-negative,negative,positive,A,NULL
1732218226,b105447023c41c3837c9a333146c15b7,PennController,64,0,test_val,NULL,Selector,unnamed-Selector,Selection,negative,1732217796851,undefined,565,annoy,abstract-negative,negative,positive,A,negative;positive
1732218226,b105447023c41c3837c9a333146c15b7,PennController,64,0,test_val,NULL,PennController,75,_Trial_,End,1732217796854,undefined,565,annoy,abstract-negative,negative,positive,A,NULL
1732218226,b105447023c41c3837c9a333146c15b7,PennController,58,0,test_val,NULL,PennController,69,_Trial_,Start,1732217796857,undefined,508,scratch,concrete-negative,negative,positive,A,NULL
1732218226,b105447023c41c3837c9a333146c15b7,PennController,58,0,test_val,NULL,PennController,69,_Header_,Start,1732217796857,undefined,508,scratch,concrete-negative,negative,positive,A,NULL
1732218226,b105447023c41c3837c9a333146c15b7,PennController,58,0,test_val,NULL,PennController,69,_Header_,End,1732217797108,undefined,508,scratch,concrete-negative,negative,positive,A,NULL
1732218226,b105447023c41c3837c9a333146c15b7,PennController,58,0,test_val,NULL,Selector,unnamed-Selector,Selection,negative,1732217798121,undefined,508,scratch,concrete-negative,negative,positive,A,negative;positive
1732218226,b105447023c41c3837c9a333146c15b7,PennController,58,0,test_val,NULL,PennController,69,_Trial_,End,1732217798122,undefined,508,scratch,concrete-negative,negative,positive,A,NULL
1732218226,b105447023c41c3837c9a333146c15b7,PennController,65,0,test_val,NULL,PennController,76,_Trial_,Start,1732217798122,undefined,537,befall,abstract-negative,negative,positive,A,NULL
1732218226,b105447023c41c3837c9a333146c15b7,PennController,65,0,test_val,NULL,PennController,76,_Header_,Start,1732217798122,undefined,537,befall,abstract-negative,negative,positive,A,NULL
1732218226,b105447023c41c3837c9a333146c15b7,PennController,65,0,test_val,NULL,PennController,76,_Header_,End,1732217798372,undefined,537,befall,abstract-negative,negative,positive,A,NULL
1732218226,b105447023c41c3837c9a333146c15b7,PennController,65,0,test_val,NULL,Selector,unnamed-Selector,Selection,negative,1732217799411,undefined,537,befall,abstract-negative,negative,positive,A,negative;positive
1732218226,b105447023c41c3837c9a333146c15b7,PennController,65,0,test_val,NULL,PennController,76,_Trial_,End,1732217799413,undefined,537,befall,abstract-negative,negative,positive,A,NULL
1732218226,b105447023c41c3837c9a333146c15b7,PennController,48,0,test_val,NULL,PennController,59,_Trial_,Start,1732217799415,undefined,611,hug,concrete-positive,negative,positive,A,NULL
1732218226,b105447023c41c3837c9a333146c15b7,PennController,48,0,test_val,NULL,PennController,59,_Header_,Start,1732217799415,undefined,611,hug,concrete-positive,negative,positive,A,NULL
1732218226,b105447023c41c3837c9a333146c15b7,PennController,48,0,test_val,NULL,PennController,59,_Header_,End,1732217799667,undefined,611,hug,concrete-positive,negative,positive,A,NULL
1732218226,b105447023c41c3837c9a333146c15b7,PennController,48,0,test_val,NULL,Selector,unnamed-Selector,Selection,positive,1732217800779,undefined,611,hug,concrete-positive,negative,positive,A,negative;positive
1732218226,b105447023c41c3837c9a333146c15b7,PennController,48,0,test_val,NULL,PennController,59,_Trial_,End,1732217800781,undefined,611,hug,concrete-positive,negative,positive,A,NULL
1732218226,b105447023c41c3837c9a333146c15b7,PennController,82,0,test_val,NULL,PennController,93,_Trial_,Start,1732217800783,undefined,806,justify,abstract-positive,negative,positive,A,NULL
1732218226,b105447023c41c3837c9a333146c15b7,PennController,82,0,test_val,NULL,PennController,93,_Header_,Start,1732217800783,undefined,806,justify,abstract-positive,negative,positive,A,NULL
1732218226,b105447023c41c3837c9a333146c15b7,PennController,82,0,test_val,NULL,PennController,93,_Header_,End,1732217801035,undefined,806,justify,abstract-positive,negative,positive,A,NULL
1732218226,b105447023c41c3837c9a333146c15b7,PennController,82,0,test_val,NULL,Selector,unnamed-Selector,Selection,positive,1732217802346,undefined,806,justify,abstract-positive,negative,positive,A,negative;positive
1732218226,b105447023c41c3837c9a333146c15b7,PennController,82,0,test_val,NULL,PennController,93,_Trial_,End,1732217802348,undefined,806,justify,abstract-positive,negative,positive,A,NULL
1732218226,b105447023c41c3837c9a333146c15b7,PennController,69,0,test_val,NULL,PennController,80,_Trial_,Start,1732217802350,undefined,686,obsess,abstract-negative,negative,positive,A,NULL
1732218226,b105447023c41c3837c9a333146c15b7,PennController,69,0,test_val,NULL,PennController,80,_Header_,Start,1732217802350,undefined,686,obsess,abstract-negative,negative,positive,A,NULL
1732218226,b105447023c41c3837c9a333146c15b7,PennController,69,0,test_val,NULL,PennController,80,_Header_,End,1732217802604,undefined,686,obsess,abstract-negative,negative,positive,A,NULL
1732218226,b105447023c41c3837c9a333146c15b7,PennController,69,0,test_val,NULL,Selector,unnamed-Selector,Selection,positive,1732217803795,undefined,686,obsess,abstract-negative,negative,positive,A,negative;positive
1732218226,b105447023c41c3837c9a333146c15b7,PennController,69,0,test_val,NULL,PennController,80,_Trial_,End,1732217803797,undefined,686,obsess,abstract-negative,negative,positive,A,NULL
1732218226,b105447023c41c3837c9a333146c15b7,PennController,45,0,test_val,NULL,PennController,56,_Trial_,Start,1732217803799,undefined,760,cook,concrete-positive,negative,positive,A,NULL
1732218226,b105447023c41c3837c9a333146c15b7,PennController,45,0,test_val,NULL,PennController,56,_Header_,Start,1732217803799,undefined,760,cook,concrete-positive,negative,positive,A,NULL
1732218226,b105447023c41c3837c9a333146c15b7,PennController,45,0,test_val,NULL,PennController,56,_Header_,End,1732217804052,undefined,760,cook,concrete-positive,negative,positive,A,NULL
1732218226,b105447023c41c3837c9a333146c15b7,PennController,45,0,test_val,NULL,Selector,unnamed-Selector,Selection,negative,1732217805315,undefined,760,cook,concrete-positive,negative,positive,A,negative;positive
1732218226,b105447023c41c3837c9a333146c15b7,PennController,45,0,test_val,NULL,PennController,56,_Trial_,End,1732217805316,undefined,760,cook,concrete-positive,negative,positive,A,NULL
1732218226,b105447023c41c3837c9a333146c15b7,PennController,61,0,test_val,NULL,PennController,72,_Trial_,Start,1732217805318,undefined,651,spit,concrete-negative,negative,positive,A,NULL
1732218226,b105447023c41c3837c9a333146c15b7,PennController,61,0,test_val,NULL,PennController,72,_Header_,Start,1732217805318,undefined,651,spit,concrete-negative,negative,positive,A,NULL
1732218226,b105447023c41c3837c9a333146c15b7,PennController,61,0,test_val,NULL,PennController,72,_Header_,End,1732217805571,undefined,651,spit,concrete-negative,negative,positive,A,NULL
1732218226,b105447023c41c3837c9a333146c15b7,PennController,61,0,test_val,NULL,Selector,unnamed-Selector,Selection,negative,1732217806723,undefined,651,spit,concrete-negative,negative,positive,A,negative;positive
1732218226,b105447023c41c3837c9a333146c15b7,PennController,61,0,test_val,NULL,PennController,72,_Trial_,End,1732217806725,undefined,651,spit,concrete-negative,negative,positive,A,NULL
1732218226,b105447023c41c3837c9a333146c15b7,PennController,49,0,test_val,NULL,PennController,60,_Trial_,Start,1732217806727,undefined,608,kiss,concrete-positive,negative,positive,A,NULL
1732218226,b105447023c41c3837c9a333146c15b7,PennController,49,0,test_val,NULL,PennController,60,_Header_,Start,1732217806727,undefined,608,kiss,concrete-positive,negative,positive,A,NULL
1732218226,b105447023c41c3837c9a333146c15b7,PennController,49,0,test_val,NULL,PennController,60,_Header_,End,1732217806979,undefined,608,kiss,concrete-positive,negative,positive,A,NULL
1732218226,b105447023c41c3837c9a333146c15b7,PennController,49,0,test_val,NULL,Selector,unnamed-Selector,Selection,positive,1732217808091,undefined,608,kiss,concrete-positive,negative,positive,A,negative;positive
1732218226,b105447023c41c3837c9a333146c15b7,PennController,49,0,test_val,NULL,PennController,60,_Trial_,End,1732217808094,undefined,608,kiss,concrete-positive,negative,positive,A,NULL
1732218226,b105447023c41c3837c9a333146c15b7,PennController,80,0,test_val,NULL,PennController,91,_Trial_,Start,1732217808096,undefined,717,fulfill,abstract-positive,negative,positive,A,NULL
1732218226,b105447023c41c3837c9a333146c15b7,PennController,80,0,test_val,NULL,PennController,91,_Header_,Start,1732217808096,undefined,717,fulfill,abstract-positive,negative,positive,A,NULL
1732218226,b105447023c41c3837c9a333146c15b7,PennController,80,0,test_val,NULL,PennController,91,_Header_,End,1732217808346,undefined,717,fulfill,abstract-positive,negative,positive,A,NULL
1732218226,b105447023c41c3837c9a333146c15b7,PennController,80,0,test_val,NULL,Selector,unnamed-Selector,Selection,positive,1732217809571,undefined,717,fulfill,abstract-positive,negative,positive,A,negative;positive
1732218226,b105447023c41c3837c9a333146c15b7,PennController,80,0,test_val,NULL,PennController,91,_Trial_,End,1732217809573,undefined,717,fulfill,abstract-positive,negative,positive,A,NULL
1732218226,b105447023c41c3837c9a333146c15b7,PennController,44,0,test_val,NULL,PennController,55,_Trial_,Start,1732217809575,undefined,778,build,concrete-positive,negative,positive,A,NULL
1732218226,b105447023c41c3837c9a333146c15b7,PennController,44,0,test_val,NULL,PennController,55,_Header_,Start,1732217809575,undefined,778,build,concrete-positive,negative,positive,A,NULL
1732218226,b105447023c41c3837c9a333146c15b7,PennController,44,0,test_val,NULL,PennController,55,_Header_,End,1732217809826,undefined,778,build,concrete-positive,negative,positive,A,NULL
1732218226,b105447023c41c3837c9a333146c15b7,PennController,44,0,test_val,NULL,Selector,unnamed-Selector,Selection,positive,1732217811107,undefined,778,build,concrete-positive,negative,positive,A,negative;positive
1732218226,b105447023c41c3837c9a333146c15b7,PennController,44,0,test_val,NULL,PennController,55,_Trial_,End,1732217811110,undefined,778,build,concrete-positive,negative,positive,A,NULL
1732218226,b105447023c41c3837c9a333146c15b7,PennController,57,0,test_val,NULL,PennController,68,_Trial_,Start,1732217811112,undefined,670,puke,concrete-negative,negative,positive,A,NULL
1732218226,b105447023c41c3837c9a333146c15b7,PennController,57,0,test_val,NULL,PennController,68,_Header_,Start,1732217811112,undefined,670,puke,concrete-negative,negative,positive,A,NULL
1732218226,b105447023c41c3837c9a333146c15b7,PennController,57,0,test_val,NULL,PennController,68,_Header_,End,1732217811362,undefined,670,puke,concrete-negative,negative,positive,A,NULL
1732218226,b105447023c41c3837c9a333146c15b7,PennController,57,0,test_val,NULL,Selector,unnamed-Selector,Selection,negative,1732217812535,undefined,670,puke,concrete-negative,negative,positive,A,negative;positive
1732218226,b105447023c41c3837c9a333146c15b7,PennController,57,0,test_val,NULL,PennController,68,_Trial_,End,1732217812537,undefined,670,puke,concrete-negative,negative,positive,A,NULL
1732218226,b105447023c41c3837c9a333146c15b7,PennController,47,0,test_val,NULL,PennController,58,_Trial_,Start,1732217812539,undefined,1383,eat,concrete-positive,negative,positive,A,NULL
1732218226,b105447023c41c3837c9a333146c15b7,PennController,47,0,test_val,NULL,PennController,58,_Header_,Start,1732217812539,undefined,1383,eat,concrete-positive,negative,positive,A,NULL
1732218226,b105447023c41c3837c9a333146c15b7,PennController,47,0,test_val,NULL,PennController,58,_Header_,End,1732217812792,undefined,1383,eat,concrete-positive,negative,positive,A,NULL
1732218226,b105447023c41c3837c9a333146c15b7,PennController,47,0,test_val,NULL,Selector,unnamed-Selector,Selection,positive,1732217814678,undefined,1383,eat,concrete-positive,negative,positive,A,negative;positive
1732218226,b105447023c41c3837c9a333146c15b7,PennController,47,0,test_val,NULL,PennController,58,_Trial_,End,1732217814680,undefined,1383,eat,concrete-positive,negative,positive,A,NULL
1732218226,b105447023c41c3837c9a333146c15b7,PennController,78,0,test_val,NULL,PennController,89,_Trial_,Start,1732217814682,undefined,677,hope,abstract-positive,negative,positive,A,NULL
1732218226,b105447023c41c3837c9a333146c15b7,PennController,78,0,test_val,NULL,PennController,89,_Header_,Start,1732217814682,undefined,677,hope,abstract-positive,negative,positive,A,NULL
1732218226,b105447023c41c3837c9a333146c15b7,PennController,78,0,test_val,NULL,PennController,89,_Header_,End,1732217814932,undefined,677,hope,abstract-positive,negative,positive,A,NULL
1732218226,b105447023c41c3837c9a333146c15b7,PennController,78,0,test_val,NULL,Selector,unnamed-Selector,Selection,positive,1732217816115,undefined,677,hope,abstract-positive,negative,positive,A,negative;positive
1732218226,b105447023c41c3837c9a333146c15b7,PennController,78,0,test_val,NULL,PennController,89,_Trial_,End,1732217816117,undefined,677,hope,abstract-positive,negative,positive,A,NULL
1732218226,b105447023c41c3837c9a333146c15b7,PennController,83,0,test_val,NULL,PennController,94,_Trial_,Start,1732217816119,undefined,612,respect,abstract-positive,negative,positive,A,NULL
1732218226,b105447023c41c3837c9a333146c15b7,PennController,83,0,test_val,NULL,PennController,94,_Header_,Start,1732217816119,undefined,612,respect,abstract-positive,negative,positive,A,NULL
1732218226,b105447023c41c3837c9a333146c15b7,PennController,83,0,test_val,NULL,PennController,94,_Header_,End,1732217816373,undefined,612,respect,abstract-positive,negative,positive,A,NULL
1732218226,b105447023c41c3837c9a333146c15b7,PennController,83,0,test_val,NULL,Selector,unnamed-Selector,Selection,positive,1732217817492,undefined,612,respect,abstract-positive,negative,positive,A,negative;positive
1732218226,b105447023c41c3837c9a333146c15b7,PennController,83,0,test_val,NULL,PennController,94,_Trial_,End,1732217817493,undefined,612,respect,abstract-positive,negative,positive,A,NULL
1732218226,b105447023c41c3837c9a333146c15b7,PennController,65,0,test_val,NULL,PennController,76,_Trial_,Start,1732217817494,undefined,656,befall,abstract-negative,negative,positive,A,NULL
1732218226,b105447023c41c3837c9a333146c15b7,PennController,65,0,test_val,NULL,PennController,76,_Header_,Start,1732217817494,undefined,656,befall,abstract-negative,negative,positive,A,NULL
1732218226,b105447023c41c3837c9a333146c15b7,PennController,65,0,test_val,NULL,PennController,76,_Header_,End,1732217817746,undefined,656,befall,abstract-negative,negative,positive,A,NULL
1732218226,b105447023c41c3837c9a333146c15b7,PennController,65,0,test_val,NULL,Selector,unnamed-Selector,Selection,negative,1732217818906,undefined,656,befall,abstract-negative,negative,positive,A,negative;positive
1732218226,b105447023c41c3837c9a333146c15b7,PennController,65,0,test_val,NULL,PennController,76,_Trial_,End,1732217818908,undefined,656,befall,abstract-negative,negative,positive,A,NULL
1732218226,b105447023c41c3837c9a333146c15b7,PennController,77,0,test_val,NULL,PennController,88,_Trial_,Start,1732217818909,undefined,651,cherish,abstract-positive,negative,positive,A,NULL
1732218226,b105447023c41c3837c9a333146c15b7,PennController,77,0,test_val,NULL,PennController,88,_Header_,Start,1732217818909,undefined,651,cherish,abstract-positive,negative,positive,A,NULL
1732218226,b105447023c41c3837c9a333146c15b7,PennController,77,0,test_val,NULL,PennController,88,_Header_,End,1732217819159,undefined,651,cherish,abstract-positive,negative,positive,A,NULL
1732218226,b105447023c41c3837c9a333146c15b7,PennController,77,0,test_val,NULL,Selector,unnamed-Selector,Selection,positive,1732217820315,undefined,651,cherish,abstract-positive,negative,positive,A,negative;positive
1732218226,b105447023c41c3837c9a333146c15b7,PennController,77,0,test_val,NULL,PennController,88,_Trial_,End,1732217820317,undefined,651,cherish,abstract-positive,negative,positive,A,NULL
1732218226,b105447023c41c3837c9a333146c15b7,PennController,58,0,test_val,NULL,PennController,69,_Trial_,Start,1732217820320,undefined,693,scratch,concrete-negative,negative,positive,A,NULL
1732218226,b105447023c41c3837c9a333146c15b7,PennController,58,0,test_val,NULL,PennController,69,_Header_,Start,1732217820320,undefined,693,scratch,concrete-negative,negative,positive,A,NULL
1732218226,b105447023c41c3837c9a333146c15b7,PennController,58,0,test_val,NULL,PennController,69,_Header_,End,1732217820573,undefined,693,scratch,concrete-negative,negative,positive,A,NULL
1732218226,b105447023c41c3837c9a333146c15b7,PennController,58,0,test_val,NULL,Selector,unnamed-Selector,Selection,negative,1732217821771,undefined,693,scratch,concrete-negative,negative,positive,A,negative;positive
1732218226,b105447023c41c3837c9a333146c15b7,PennController,58,0,test_val,NULL,PennController,69,_Trial_,End,1732217821774,undefined,693,scratch,concrete-negative,negative,positive,A,NULL
1732218226,b105447023c41c3837c9a333146c15b7,PennController,46,0,test_val,NULL,PennController,57,_Trial_,Start,1732217821776,undefined,633,cuddle,concrete-positive,negative,positive,A,NULL
1732218226,b105447023c41c3837c9a333146c15b7,PennController,46,0,test_val,NULL,PennController,57,_Header_,Start,1732217821776,undefined,633,cuddle,concrete-positive,negative,positive,A,NULL
1732218226,b105447023c41c3837c9a333146c15b7,PennController,46,0,test_val,NULL,PennController,57,_Header_,End,1732217822026,undefined,633,cuddle,concrete-positive,negative,positive,A,NULL
1732218226,b105447023c41c3837c9a333146c15b7,PennController,46,0,test_val,NULL,Selector,unnamed-Selector,Selection,positive,1732217823164,undefined,633,cuddle,concrete-positive,negative,positive,A,negative;positive
1732218226,b105447023c41c3837c9a333146c15b7,PennController,46,0,test_val,NULL,PennController,57,_Trial_,End,1732217823166,undefined,633,cuddle,concrete-positive,negative,positive,A,NULL
1732218226,b105447023c41c3837c9a333146c15b7,PennController,73,0,test_val,NULL,PennController,84,_Trial_,Start,1732217823169,undefined,686,worry,abstract-negative,negative,positive,A,NULL
1732218226,b105447023c41c3837c9a333146c15b7,PennController,73,0,test_val,NULL,PennController,84,_Header_,Start,1732217823169,undefined,686,worry,abstract-negative,negative,positive,A,NULL
1732218226,b105447023c41c3837c9a333146c15b7,PennController,73,0,test_val,NULL,PennController,84,_Header_,End,1732217823420,undefined,686,worry,abstract-negative,negative,positive,A,NULL
1732218226,b105447023c41c3837c9a333146c15b7,PennController,73,0,test_val,NULL,Selector,unnamed-Selector,Selection,negative,1732217824612,undefined,686,worry,abstract-negative,negative,positive,A,negative;positive
1732218226,b105447023c41c3837c9a333146c15b7,PennController,73,0,test_val,NULL,PennController,84,_Trial_,End,1732217824615,undefined,686,worry,abstract-negative,negative,positive,A,NULL
1732218226,b105447023c41c3837c9a333146c15b7,PennController,52,0,test_val,NULL,PennController,63,_Trial_,Start,1732217824617,undefined,540,smile,concrete-positive,negative,positive,A,NULL
1732218226,b105447023c41c3837c9a333146c15b7,PennController,52,0,test_val,NULL,PennController,63,_Header_,Start,1732217824617,undefined,540,smile,concrete-positive,negative,positive,A,NULL
1732218226,b105447023c41c3837c9a333146c15b7,PennController,52,0,test_val,NULL,PennController,63,_Header_,End,1732217824868,undefined,540,smile,concrete-positive,negative,positive,A,NULL
1732218226,b105447023c41c3837c9a333146c15b7,PennController,52,0,test_val,NULL,Selector,unnamed-Selector,Selection,positive,1732217825915,undefined,540,smile,concrete-positive,negative,positive,A,negative;positive
1732218226,b105447023c41c3837c9a333146c15b7,PennController,52,0,test_val,NULL,PennController,63,_Trial_,End,1732217825917,undefined,540,smile,concrete-positive,negative,positive,A,NULL
1732218226,b105447023c41c3837c9a333146c15b7,PennController,48,0,test_val,NULL,PennController,59,_Trial_,Start,1732217825919,undefined,489,hug,concrete-positive,negative,positive,A,NULL
1732218226,b105447023c41c3837c9a333146c15b7,PennController,48,0,test_val,NULL,PennController,59,_Header_,Start,1732217825919,undefined,489,hug,concrete-positive,negative,positive,A,NULL
1732218226,b105447023c41c3837c9a333146c15b7,PennController,48,0,test_val,NULL,PennController,59,_Header_,End,1732217826170,undefined,489,hug,concrete-positive,negative,positive,A,NULL
1732218226,b105447023c41c3837c9a333146c15b7,PennController,48,0,test_val,NULL,Selector,unnamed-Selector,Selection,positive,1732217827162,undefined,489,hug,concrete-positive,negative,positive,A,negative;positive
1732218226,b105447023c41c3837c9a333146c15b7,PennController,48,0,test_val,NULL,PennController,59,_Trial_,End,1732217827163,undefined,489,hug,concrete-positive,negative,positive,A,NULL
1732218226,b105447023c41c3837c9a333146c15b7,PennController,50,0,test_val,NULL,PennController,61,_Trial_,Start,1732217827165,undefined,788,running,concrete-positive,negative,positive,A,NULL
1732218226,b105447023c41c3837c9a333146c15b7,PennController,50,0,test_val,NULL,PennController,61,_Header_,Start,1732217827165,undefined,788,running,concrete-positive,negative,positive,A,NULL
1732218226,b105447023c41c3837c9a333146c15b7,PennController,50,0,test_val,NULL,PennController,61,_Header_,End,1732217827415,undefined,788,running,concrete-positive,negative,positive,A,NULL
1732218226,b105447023c41c3837c9a333146c15b7,PennController,50,0,test_val,NULL,Selector,unnamed-Selector,Selection,negative,1732217828707,undefined,788,running,concrete-positive,negative,positive,A,negative;positive
1732218226,b105447023c41c3837c9a333146c15b7,PennController,50,0,test_val,NULL,PennController,61,_Trial_,End,1732217828709,undefined,788,running,concrete-positive,negative,positive,A,NULL
1732218226,b105447023c41c3837c9a333146c15b7,PennController,55,0,test_val,NULL,PennController,66,_Trial_,Start,1732217828712,undefined,647,kill,concrete-negative,negative,positive,A,NULL
1732218226,b105447023c41c3837c9a333146c15b7,PennController,55,0,test_val,NULL,PennController,66,_Header_,Start,1732217828712,undefined,647,kill,concrete-negative,negative,positive,A,NULL
1732218226,b105447023c41c3837c9a333146c15b7,PennController,55,0,test_val,NULL,PennController,66,_Header_,End,1732217828964,undefined,647,kill,concrete-negative,negative,positive,A,NULL
1732218226,b105447023c41c3837c9a333146c15b7,PennController,55,0,test_val,NULL,Selector,unnamed-Selector,Selection,positive,1732217830113,undefined,647,kill,concrete-negative,negative,positive,A,negative;positive
1732218226,b105447023c41c3837c9a333146c15b7,PennController,55,0,test_val,NULL,PennController,66,_Trial_,End,1732217830114,undefined,647,kill,concrete-negative,negative,positive,A,NULL
1732218226,b105447023c41c3837c9a333146c15b7,PennController,60,0,test_val,NULL,PennController,71,_Trial_,Start,1732217830115,undefined,756,smack,concrete-negative,negative,positive,A,NULL
1732218226,b105447023c41c3837c9a333146c15b7,PennController,60,0,test_val,NULL,PennController,71,_Header_,Start,1732217830115,undefined,756,smack,concrete-negative,negative,positive,A,NULL
1732218226,b105447023c41c3837c9a333146c15b7,PennController,60,0,test_val,NULL,PennController,71,_Header_,End,1732217830365,undefined,756,smack,concrete-negative,negative,positive,A,NULL
1732218226,b105447023c41c3837c9a333146c15b7,PennController,60,0,test_val,NULL,Selector,unnamed-Selector,Selection,negative,1732217831627,undefined,756,smack,concrete-negative,negative,positive,A,negative;positive
1732218226,b105447023c41c3837c9a333146c15b7,PennController,60,0,test_val,NULL,PennController,71,_Trial_,End,1732217831629,undefined,756,smack,concrete-negative,negative,positive,A,NULL
1732218226,b105447023c41c3837c9a333146c15b7,PennController,62,0,test_val,NULL,PennController,73,_Trial_,Start,1732217831631,undefined,587,stab,concrete-negative,negative,positive,A,NULL
1732218226,b105447023c41c3837c9a333146c15b7,PennController,62,0,test_val,NULL,PennController,73,_Header_,Start,1732217831631,undefined,587,stab,concrete-negative,negative,positive,A,NULL
1732218226,b105447023c41c3837c9a333146c15b7,PennController,62,0,test_val,NULL,PennController,73,_Header_,End,1732217831882,undefined,587,stab,concrete-negative,negative,positive,A,NULL
1732218226,b105447023c41c3837c9a333146c15b7,PennController,62,0,test_val,NULL,Selector,unnamed-Selector,Selection,negative,1732217832971,undefined,587,stab,concrete-negative,negative,positive,A,negative;positive
1732218226,b105447023c41c3837c9a333146c15b7,PennController,62,0,test_val,NULL,PennController,73,_Trial_,End,1732217832974,undefined,587,stab,concrete-negative,negative,positive,A,NULL
1732218226,b105447023c41c3837c9a333146c15b7,PennController,59,0,test_val,NULL,PennController,70,_Trial_,Start,1732217832976,undefined,498,slap,concrete-negative,negative,positive,A,NULL
1732218226,b105447023c41c3837c9a333146c15b7,PennController,59,0,test_val,NULL,PennController,70,_Header_,Start,1732217832976,undefined,498,slap,concrete-negative,negative,positive,A,NULL
1732218226,b105447023c41c3837c9a333146c15b7,PennController,59,0,test_val,NULL,PennController,70,_Header_,End,1732217833230,undefined,498,slap,concrete-negative,negative,positive,A,NULL
1732218226,b105447023c41c3837c9a333146c15b7,PennController,59,0,test_val,NULL,Selector,unnamed-Selector,Selection,negative,1732217834233,undefined,498,slap,concrete-negative,negative,positive,A,negative;positive
1732218226,b105447023c41c3837c9a333146c15b7,PennController,59,0,test_val,NULL,PennController,70,_Trial_,End,1732217834234,undefined,498,slap,concrete-negative,negative,positive,A,NULL
1732218226,b105447023c41c3837c9a333146c15b7,PennController,76,0,test_val,NULL,PennController,87,_Trial_,Start,1732217834235,undefined,476,admired,abstract-positive,negative,positive,A,NULL
1732218226,b105447023c41c3837c9a333146c15b7,PennController,76,0,test_val,NULL,PennController,87,_Header_,Start,1732217834235,undefined,476,admired,abstract-positive,negative,positive,A,NULL
1732218226,b105447023c41c3837c9a333146c15b7,PennController,76,0,test_val,NULL,PennController,87,_Header_,End,1732217834485,undefined,476,admired,abstract-positive,negative,positive,A,NULL
1732218226,b105447023c41c3837c9a333146c15b7,PennController,76,0,test_val,NULL,Selector,unnamed-Selector,Selection,positive,1732217835467,undefined,476,admired,abstract-positive,negative,positive,A,negative;positive
1732218226,b105447023c41c3837c9a333146c15b7,PennController,76,0,test_val,NULL,PennController,87,_Trial_,End,1732217835469,undefined,476,admired,abstract-positive,negative,positive,A,NULL
1732218226,b105447023c41c3837c9a333146c15b7,PennController,64,0,test_val,NULL,PennController,75,_Trial_,Start,1732217835471,undefined,586,annoy,abstract-negative,negative,positive,A,NULL
1732218226,b105447023c41c3837c9a333146c15b7,PennController,64,0,test_val,NULL,PennController,75,_Header_,Start,1732217835471,undefined,586,annoy,abstract-negative,negative,positive,A,NULL
1732218226,b105447023c41c3837c9a333146c15b7,PennController,64,0,test_val,NULL,PennController,75,_Header_,End,1732217835724,undefined,586,annoy,abstract-negative,negative,positive,A,NULL
1732218226,b105447023c41c3837c9a333146c15b7,PennController,64,0,test_val,NULL,Selector,unnamed-Selector,Selection,negative,1732217836811,undefined,586,annoy,abstract-negative,negative,positive,A,negative;positive
1732218226,b105447023c41c3837c9a333146c15b7,PennController,64,0,test_val,NULL,PennController,75,_Trial_,End,1732217836812,undefined,586,annoy,abstract-negative,negative,positive,A,NULL
1732218226,b105447023c41c3837c9a333146c15b7,PennController,75,0,test_val,NULL,PennController,86,_Trial_,Start,1732217836814,undefined,653,enlighten,abstract-positive,negative,positive,A,NULL
1732218226,b105447023c41c3837c9a333146c15b7,PennController,75,0,test_val,NULL,PennController,86,_Header_,Start,1732217836814,undefined,653,enlighten,abstract-positive,negative,positive,A,NULL
1732218226,b105447023c41c3837c9a333146c15b7,PennController,75,0,test_val,NULL,PennController,86,_Header_,End,1732217837067,undefined,653,enlighten,abstract-positive,negative,positive,A,NULL
1732218226,b105447023c41c3837c9a333146c15b7,PennController,75,0,test_val,NULL,Selector,unnamed-Selector,Selection,positive,1732217838226,undefined,653,enlighten,abstract-positive,negative,positive,A,negative;positive
1732218226,b105447023c41c3837c9a333146c15b7,PennController,75,0,test_val,NULL,PennController,86,_Trial_,End,1732217838227,undefined,653,enlighten,abstract-positive,negative,positive,A,NULL
1732218226,b105447023c41c3837c9a333146c15b7,PennController,45,0,test_val,NULL,PennController,56,_Trial_,Start,1732217838229,undefined,683,cook,concrete-positive,negative,positive,A,NULL
1732218226,b105447023c41c3837c9a333146c15b7,PennController,45,0,test_val,NULL,PennController,56,_Header_,Start,1732217838229,undefined,683,cook,concrete-positive,negative,positive,A,NULL
1732218226,b105447023c41c3837c9a333146c15b7,PennController,45,0,test_val,NULL,PennController,56,_Header_,End,1732217838481,undefined,683,cook,concrete-positive,negative,positive,A,NULL
1732218226,b105447023c41c3837c9a333146c15b7,PennController,45,0,test_val,NULL,Selector,unnamed-Selector,Selection,negative,1732217839668,undefined,683,cook,concrete-positive,negative,positive,A,negative;positive
1732218226,b105447023c41c3837c9a333146c15b7,PennController,45,0,test_val,NULL,PennController,56,_Trial_,End,1732217839671,undefined,683,cook,concrete-positive,negative,positive,A,NULL
1732218226,b105447023c41c3837c9a333146c15b7,PennController,63,0,test_val,NULL,PennController,74,_Trial_,Start,1732217839673,undefined,519,vomit,concrete-negative,negative,positive,A,NULL
1732218226,b105447023c41c3837c9a333146c15b7,PennController,63,0,test_val,NULL,PennController,74,_Header_,Start,1732217839673,undefined,519,vomit,concrete-negative,negative,positive,A,NULL
1732218226,b105447023c41c3837c9a333146c15b7,PennController,63,0,test_val,NULL,PennController,74,_Header_,End,1732217839924,undefined,519,vomit,concrete-negative,negative,positive,A,NULL
1732218226,b105447023c41c3837c9a333146c15b7,PennController,63,0,test_val,NULL,Selector,unnamed-Selector,Selection,negative,1732217840946,undefined,519,vomit,concrete-negative,negative,positive,A,negative;positive
1732218226,b105447023c41c3837c9a333146c15b7,PennController,63,0,test_val,NULL,PennController,74,_Trial_,End,1732217840946,undefined,519,vomit,concrete-negative,negative,positive,A,NULL
1732218226,b105447023c41c3837c9a333146c15b7,PennController,71,0,test_val,NULL,PennController,82,_Trial_,Start,1732217840947,undefined,619,scorn,abstract-negative,negative,positive,A,NULL
1732218226,b105447023c41c3837c9a333146c15b7,PennController,71,0,test_val,NULL,PennController,82,_Header_,Start,1732217840947,undefined,619,scorn,abstract-negative,negative,positive,A,NULL
1732218226,b105447023c41c3837c9a333146c15b7,PennController,71,0,test_val,NULL,PennController,82,_Header_,End,1732217841199,undefined,619,scorn,abstract-negative,negative,positive,A,NULL
1732218226,b105447023c41c3837c9a333146c15b7,PennController,71,0,test_val,NULL,Selector,unnamed-Selector,Selection,negative,1732217842321,undefined,619,scorn,abstract-negative,negative,positive,A,negative;positive
1732218226,b105447023c41c3837c9a333146c15b7,PennController,71,0,test_val,NULL,PennController,82,_Trial_,End,1732217842322,undefined,619,scorn,abstract-negative,negative,positive,A,NULL
1732218226,b105447023c41c3837c9a333146c15b7,PennController,56,0,test_val,NULL,PennController,67,_Trial_,Start,1732217842323,undefined,637,murder,concrete-negative,negative,positive,A,NULL
1732218226,b105447023c41c3837c9a333146c15b7,PennController,56,0,test_val,NULL,PennController,67,_Header_,Start,1732217842323,undefined,637,murder,concrete-negative,negative,positive,A,NULL
1732218226,b105447023c41c3837c9a333146c15b7,PennController,56,0,test_val,NULL,PennController,67,_Header_,End,1732217842574,undefined,637,murder,concrete-negative,negative,positive,A,NULL
1732218226,b105447023c41c3837c9a333146c15b7,PennController,56,0,test_val,NULL,Selector,unnamed-Selector,Selection,negative,1732217843716,undefined,637,murder,concrete-negative,negative,positive,A,negative;positive
1732218226,b105447023c41c3837c9a333146c15b7,PennController,56,0,test_val,NULL,PennController,67,_Trial_,End,1732217843718,undefined,637,murder,concrete-negative,negative,positive,A,NULL
1732218226,b105447023c41c3837c9a333146c15b7,PennController,82,0,test_val,NULL,PennController,93,_Trial_,Start,1732217843720,undefined,629,justify,abstract-positive,negative,positive,A,NULL
1732218226,b105447023c41c3837c9a333146c15b7,PennController,82,0,test_val,NULL,PennController,93,_Header_,Start,1732217843720,undefined,629,justify,abstract-positive,negative,positive,A,NULL
1732218226,b105447023c41c3837c9a333146c15b7,PennController,82,0,test_val,NULL,PennController,93,_Header_,End,1732217843972,undefined,629,justify,abstract-positive,negative,positive,A,NULL
1732218226,b105447023c41c3837c9a333146c15b7,PennController,82,0,test_val,NULL,Selector,unnamed-Selector,Selection,positive,1732217845108,undefined,629,justify,abstract-positive,negative,positive,A,negative;positive
1732218226,b105447023c41c3837c9a333146c15b7,PennController,82,0,test_val,NULL,PennController,93,_Trial_,End,1732217845110,undefined,629,justify,abstract-positive,negative,positive,A,NULL
1732218226,b105447023c41c3837c9a333146c15b7,PennController,79,0,test_val,NULL,PennController,90,_Trial_,Start,1732217845112,undefined,575,believe,abstract-positive,negative,positive,A,NULL
1732218226,b105447023c41c3837c9a333146c15b7,PennController,79,0,test_val,NULL,PennController,90,_Header_,Start,1732217845112,undefined,575,believe,abstract-positive,negative,positive,A,NULL
1732218226,b105447023c41c3837c9a333146c15b7,PennController,79,0,test_val,NULL,PennController,90,_Header_,End,1732217845362,undefined,575,believe,abstract-positive,negative,positive,A,NULL
1732218226,b105447023c41c3837c9a333146c15b7,PennController,79,0,test_val,NULL,Selector,unnamed-Selector,Selection,positive,1732217846443,undefined,575,believe,abstract-positive,negative,positive,A,negative;positive
1732218226,b105447023c41c3837c9a333146c15b7,PennController,79,0,test_val,NULL,PennController,90,_Trial_,End,1732217846444,undefined,575,believe,abstract-positive,negative,positive,A,NULL
1732218226,b105447023c41c3837c9a333146c15b7,PennController,70,0,test_val,NULL,PennController,81,_Trial_,Start,1732217846447,undefined,677,resent,abstract-negative,negative,positive,A,NULL
1732218226,b105447023c41c3837c9a333146c15b7,PennController,70,0,test_val,NULL,PennController,81,_Header_,Start,1732217846447,undefined,677,resent,abstract-negative,negative,positive,A,NULL
1732218226,b105447023c41c3837c9a333146c15b7,PennController,70,0,test_val,NULL,PennController,81,_Header_,End,1732217846700,undefined,677,resent,abstract-negative,negative,positive,A,NULL
1732218226,b105447023c41c3837c9a333146c15b7,PennController,70,0,test_val,NULL,Selector,unnamed-Selector,Selection,negative,1732217847883,undefined,677,resent,abstract-negative,negative,positive,A,negative;positive
1732218226,b105447023c41c3837c9a333146c15b7,PennController,70,0,test_val,NULL,PennController,81,_Trial_,End,1732217847885,undefined,677,resent,abstract-negative,negative,positive,A,NULL
1732218226,b105447023c41c3837c9a333146c15b7,PennController,49,0,test_val,NULL,PennController,60,_Trial_,Start,1732217847888,undefined,575,kiss,concrete-positive,negative,positive,A,NULL
1732218226,b105447023c41c3837c9a333146c15b7,PennController,49,0,test_val,NULL,PennController,60,_Header_,Start,1732217847888,undefined,575,kiss,concrete-positive,negative,positive,A,NULL
1732218226,b105447023c41c3837c9a333146c15b7,PennController,49,0,test_val,NULL,PennController,60,_Header_,End,1732217848141,undefined,575,kiss,concrete-positive,negative,positive,A,NULL
1732218226,b105447023c41c3837c9a333146c15b7,PennController,49,0,test_val,NULL,Selector,unnamed-Selector,Selection,positive,1732217849219,undefined,575,kiss,concrete-positive,negative,positive,A,negative;positive
1732218226,b105447023c41c3837c9a333146c15b7,PennController,49,0,test_val,NULL,PennController,60,_Trial_,End,1732217849221,undefined,575,kiss,concrete-positive,negative,positive,A,NULL
1732218226,b105447023c41c3837c9a333146c15b7,PennController,72,0,test_val,NULL,PennController,83,_Trial_,Start,1732217849222,undefined,537,violate,abstract-negative,negative,positive,A,NULL
1732218226,b105447023c41c3837c9a333146c15b7,PennController,72,0,test_val,NULL,PennController,83,_Header_,Start,1732217849222,undefined,537,violate,abstract-negative,negative,positive,A,NULL
1732218226,b105447023c41c3837c9a333146c15b7,PennController,72,0,test_val,NULL,PennController,83,_Header_,End,1732217849475,undefined,537,violate,abstract-negative,negative,positive,A,NULL
1732218226,b105447023c41c3837c9a333146c15b7,PennController,72,0,test_val,NULL,Selector,unnamed-Selector,Selection,negative,1732217850515,undefined,537,violate,abstract-negative,negative,positive,A,negative;positive
1732218226,b105447023c41c3837c9a333146c15b7,PennController,72,0,test_val,NULL,PennController,83,_Trial_,End,1732217850517,undefined,537,violate,abstract-negative,negative,positive,A,NULL
1732218226,b105447023c41c3837c9a333146c15b7,PennController,68,0,test_val,NULL,PennController,79,_Trial_,Start,1732217850519,undefined,700,loathe,abstract-negative,negative,positive,A,NULL
1732218226,b105447023c41c3837c9a333146c15b7,PennController,68,0,test_val,NULL,PennController,79,_Header_,Start,1732217850519,undefined,700,loathe,abstract-negative,negative,positive,A,NULL
1732218226,b105447023c41c3837c9a333146c15b7,PennController,68,0,test_val,NULL,PennController,79,_Header_,End,1732217850772,undefined,700,loathe,abstract-negative,negative,positive,A,NULL
1732218226,b105447023c41c3837c9a333146c15b7,PennController,68,0,test_val,NULL,Selector,unnamed-Selector,Selection,negative,1732217851978,undefined,700,loathe,abstract-negative,negative,positive,A,negative;positive
1732218226,b105447023c41c3837c9a333146c15b7,PennController,68,0,test_val,NULL,PennController,79,_Trial_,End,1732217851980,undefined,700,loathe,abstract-negative,negative,positive,A,NULL
1732218226,b105447023c41c3837c9a333146c15b7,PennController,61,0,test_val,NULL,PennController,72,_Trial_,Start,1732217851982,undefined,519,spit,concrete-negative,negative,positive,A,NULL
1732218226,b105447023c41c3837c9a333146c15b7,PennController,61,0,test_val,NULL,PennController,72,_Header_,Start,1732217851982,undefined,519,spit,concrete-negative,negative,positive,A,NULL
1732218226,b105447023c41c3837c9a333146c15b7,PennController,61,0,test_val,NULL,PennController,72,_Header_,End,1732217852234,undefined,519,spit,concrete-negative,negative,positive,A,NULL
1732218226,b105447023c41c3837c9a333146c15b7,PennController,61,0,test_val,NULL,Selector,unnamed-Selector,Selection,negative,1732217853259,undefined,519,spit,concrete-negative,negative,positive,A,negative;positive
1732218226,b105447023c41c3837c9a333146c15b7,PennController,61,0,test_val,NULL,PennController,72,_Trial_,End,1732217853262,undefined,519,spit,concrete-negative,negative,positive,A,NULL
1732218226,b105447023c41c3837c9a333146c15b7,PennController,67,0,test_val,NULL,PennController,78,_Trial_,Start,1732217853264,undefined,600,exploit,abstract-negative,negative,positive,A,NULL
1732218226,b105447023c41c3837c9a333146c15b7,PennController,67,0,test_val,NULL,PennController,78,_Header_,Start,1732217853264,undefined,600,exploit,abstract-negative,negative,positive,A,NULL
1732218226,b105447023c41c3837c9a333146c15b7,PennController,67,0,test_val,NULL,PennController,78,_Header_,End,1732217853515,undefined,600,exploit,abstract-negative,negative,positive,A,NULL
1732218226,b105447023c41c3837c9a333146c15b7,PennController,67,0,test_val,NULL,Selector,unnamed-Selector,Selection,negative,1732217854619,undefined,600,exploit,abstract-negative,negative,positive,A,negative;positive
1732218226,b105447023c41c3837c9a333146c15b7,PennController,67,0,test_val,NULL,PennController,78,_Trial_,End,1732217854622,undefined,600,exploit,abstract-negative,negative,positive,A,NULL
1732218226,b105447023c41c3837c9a333146c15b7,PennController,51,0,test_val,NULL,PennController,62,_Trial_,Start,1732217854624,undefined,998,sail,concrete-positive,negative,positive,A,NULL
1732218226,b105447023c41c3837c9a333146c15b7,PennController,51,0,test_val,NULL,PennController,62,_Header_,Start,1732217854624,undefined,998,sail,concrete-positive,negative,positive,A,NULL
1732218226,b105447023c41c3837c9a333146c15b7,PennController,51,0,test_val,NULL,PennController,62,_Header_,End,1732217854877,undefined,998,sail,concrete-positive,negative,positive,A,NULL
1732218226,b105447023c41c3837c9a333146c15b7,PennController,51,0,test_val,NULL,Selector,unnamed-Selector,Selection,negative,1732217856379,undefined,998,sail,concrete-positive,negative,positive,A,negative;positive
1732218226,b105447023c41c3837c9a333146c15b7,PennController,51,0,test_val,NULL,PennController,62,_Trial_,End,1732217856380,undefined,998,sail,concrete-positive,negative,positive,A,NULL
1732218226,b105447023c41c3837c9a333146c15b7,PennController,54,0,test_val,NULL,PennController,65,_Trial_,Start,1732217856382,undefined,691,bleed,concrete-negative,negative,positive,A,NULL
1732218226,b105447023c41c3837c9a333146c15b7,PennController,54,0,test_val,NULL,PennController,65,_Header_,Start,1732217856382,undefined,691,bleed,concrete-negative,negative,positive,A,NULL
1732218226,b105447023c41c3837c9a333146c15b7,PennController,54,0,test_val,NULL,PennController,65,_Header_,End,1732217856634,undefined,691,bleed,concrete-negative,negative,positive,A,NULL
1732218226,b105447023c41c3837c9a333146c15b7,PennController,54,0,test_val,NULL,Selector,unnamed-Selector,Selection,negative,1732217857828,undefined,691,bleed,concrete-negative,negative,positive,A,negative;positive
1732218226,b105447023c41c3837c9a333146c15b7,PennController,54,0,test_val,NULL,PennController,65,_Trial_,End,1732217857830,undefined,691,bleed,concrete-negative,negative,positive,A,NULL
1732218226,b105447023c41c3837c9a333146c15b7,PennController,81,0,test_val,NULL,PennController,92,_Trial_,Start,1732217857832,undefined,1303,esteem,abstract-positive,negative,positive,A,NULL
1732218226,b105447023c41c3837c9a333146c15b7,PennController,81,0,test_val,NULL,PennController,92,_Header_,Start,1732217857832,undefined,1303,esteem,abstract-positive,negative,positive,A,NULL
1732218226,b105447023c41c3837c9a333146c15b7,PennController,81,0,test_val,NULL,PennController,92,_Header_,End,1732217858086,undefined,1303,esteem,abstract-positive,negative,positive,A,NULL
1732218226,b105447023c41c3837c9a333146c15b7,PennController,81,0,test_val,NULL,Selector,unnamed-Selector,Selection,negative,1732217859891,undefined,1303,esteem,abstract-positive,negative,positive,A,negative;positive
1732218226,b105447023c41c3837c9a333146c15b7,PennController,81,0,test_val,NULL,PennController,92,_Trial_,End,1732217859893,undefined,1303,esteem,abstract-positive,negative,positive,A,NULL
1732218226,b105447023c41c3837c9a333146c15b7,PennController,66,0,test_val,NULL,PennController,77,_Trial_,Start,1732217859896,undefined,854,criticize,abstract-negative,negative,positive,A,NULL
1732218226,b105447023c41c3837c9a333146c15b7,PennController,66,0,test_val,NULL,PennController,77,_Header_,Start,1732217859896,undefined,854,criticize,abstract-negative,negative,positive,A,NULL
1732218226,b105447023c41c3837c9a333146c15b7,PennController,66,0,test_val,NULL,PennController,77,_Header_,End,1732217860148,undefined,854,criticize,abstract-negative,negative,positive,A,NULL
1732218226,b105447023c41c3837c9a333146c15b7,PennController,66,0,test_val,NULL,Selector,unnamed-Selector,Selection,negative,1732217861508,undefined,854,criticize,abstract-negative,negative,positive,A,negative;positive
1732218226,b105447023c41c3837c9a333146c15b7,PennController,66,0,test_val,NULL,PennController,77,_Trial_,End,1732217861510,undefined,854,criticize,abstract-negative,negative,positive,A,NULL
1732218226,b105447023c41c3837c9a333146c15b7,PennController,74,0,test_val,NULL,PennController,85,_Trial_,Start,1732217861512,undefined,708,imagine,abstract-positive,negative,positive,A,NULL
1732218226,b105447023c41c3837c9a333146c15b7,PennController,74,0,test_val,NULL,PennController,85,_Header_,Start,1732217861512,undefined,708,imagine,abstract-positive,negative,positive,A,NULL
1732218226,b105447023c41c3837c9a333146c15b7,PennController,74,0,test_val,NULL,PennController,85,_Header_,End,1732217861765,undefined,708,imagine,abstract-positive,negative,positive,A,NULL
