#
# Results on Tue, 08 Apr 2025 12:15:25 GMT
# USER AGENT: Mozilla/5.0 (Windows NT 10.0; Win64; x64) AppleWebKit/537.36 (KHTML, like Gecko) Chrome/135.0.0.0 Safari/537.36 Edg/135.0.0.0
# Design number was non-random = 0
#
# Columns below this comment are as follows:
# 1. Results reception time.
# 2. MD5 hash of participant's IP address.
# 3. Controller name.
# 4. Order number of item.
# 5. Inner element number.
# 6. Label.
# 7. Latin Square Group.
# 8. PennElementType.
# 9. PennElementName.
# 10. Parameter.
# 11. Value.
# 12. EventTime.
# 13. Comments.
1744114525,dfb9b0c1d8974c9d8ca8567e8eeae240,PennController,1,0,welcome,NULL,PennController,0,_Trial_,Start,1744113831167,NULL
1744114525,dfb9b0c1d8974c9d8ca8567e8eeae240,PennController,1,0,welcome,NULL,PennController,0,_Header_,Start,1744113831167,NULL
1744114525,dfb9b0c1d8974c9d8ca8567e8eeae240,PennController,1,0,welcome,NULL,PennController,0,_Header_,End,1744113831422,NULL
1744114525,dfb9b0c1d8974c9d8ca8567e8eeae240,PennController,1,0,welcome,NULL,PennController,0,_Trial_,End,1744113834187,NULL
# 13. ID.
# 14. Comments.
1744114525,dfb9b0c1d8974c9d8ca8567e8eeae240,PennController,124,0,consent,NULL,PennController,2,_Trial_,Start,1744113834188,5c747b0f181ad300113363ed,NULL
1744114525,dfb9b0c1d8974c9d8ca8567e8eeae240,PennController,124,0,consent,NULL,PennController,2,_Header_,Start,1744113834188,5c747b0f181ad300113363ed,NULL
1744114525,dfb9b0c1d8974c9d8ca8567e8eeae240,PennController,124,0,consent,NULL,PennController,2,_Header_,End,1744113834440,5c747b0f181ad300113363ed,NULL
1744114525,dfb9b0c1d8974c9d8ca8567e8eeae240,PennController,124,0,consent,NULL,TextInput,ID,Final,5c747b0f181ad300113363ed,1744113843803,5c747b0f181ad300113363ed,NULL
1744114525,dfb9b0c1d8974c9d8ca8567e8eeae240,PennController,124,0,consent,NULL,PennController,2,_Trial_,End,1744113843803,5c747b0f181ad300113363ed,NULL
# 13. Comments.
1744114525,dfb9b0c1d8974c9d8ca8567e8eeae240,PennController,126,0,instructions1_val,NULL,PennController,4,_Trial_,Start,1744113843804,NULL
1744114525,dfb9b0c1d8974c9d8ca8567e8eeae240,PennController,126,0,instructions1_val,NULL,PennController,4,_Header_,Start,1744113843804,NULL
1744114525,dfb9b0c1d8974c9d8ca8567e8eeae240,PennController,126,0,instructions1_val,NULL,PennController,4,_Header_,End,1744113844056,NULL
1744114525,dfb9b0c1d8974c9d8ca8567e8eeae240,PennController,126,0,instructions1_val,NULL,PennController,4,_Trial_,End,1744113870017,NULL
1744114525,dfb9b0c1d8974c9d8ca8567e8eeae240,PennController,127,0,instructions2_val,NULL,PennController,5,_Trial_,Start,1744113870019,NULL
1744114525,dfb9b0c1d8974c9d8ca8567e8eeae240,PennController,127,0,instructions2_val,NULL,PennController,5,_Header_,Start,1744113870019,NULL
1744114525,dfb9b0c1d8974c9d8ca8567e8eeae240,PennController,127,0,instructions2_val,NULL,PennController,5,_Header_,End,1744113870271,NULL
1744114525,dfb9b0c1d8974c9d8ca8567e8eeae240,PennController,127,0,instructions2_val,NULL,PennController,5,_Trial_,End,1744113897073,NULL
1744114525,dfb9b0c1d8974c9d8ca8567e8eeae240,PennController,128,0,instructions3_hands,NULL,PennController,6,_Trial_,Start,1744113897074,NULL
1744114525,dfb9b0c1d8974c9d8ca8567e8eeae240,PennController,128,0,instructions3_hands,NULL,PennController,6,_Header_,Start,1744113897074,NULL
1744114525,dfb9b0c1d8974c9d8ca8567e8eeae240,PennController,128,0,instructions3_hands,NULL,PennController,6,_Header_,End,1744113897326,NULL
1744114525,dfb9b0c1d8974c9d8ca8567e8eeae240,PennController,128,0,instructions3_hands,NULL,PennController,6,_Trial_,End,1744113917694,NULL
1744114525,dfb9b0c1d8974c9d8ca8567e8eeae240,PennController,129,0,practice_intro_val,NULL,PennController,7,_Trial_,Start,1744113917695,NULL
1744114525,dfb9b0c1d8974c9d8ca8567e8eeae240,PennController,129,0,practice_intro_val,NULL,PennController,7,_Header_,Start,1744113917695,NULL
1744114525,dfb9b0c1d8974c9d8ca8567e8eeae240,PennController,129,0,practice_intro_val,NULL,PennController,7,_Header_,End,1744113917949,NULL
1744114525,dfb9b0c1d8974c9d8ca8567e8eeae240,PennController,129,0,practice_intro_val,NULL,PennController,7,_Trial_,End,1744113920104,NULL
# 13. ID.
# 14. ReactionTime.
# 15. Word.
# 16. selectedKey.
# 17. selectedValue.
# 18. Key_value_F.
# 19. Key_value_J.
# 20. Group.
# 21. Comments.
1744114525,dfb9b0c1d8974c9d8ca8567e8eeae240,PennController,109,0,calibrator_val_feedback,NULL,PennController,120,_Trial_,Start,1744113920105,undefined,2324,insecure,undefined,positive,negative,positive,B,NULL
1744114525,dfb9b0c1d8974c9d8ca8567e8eeae240,PennController,109,0,calibrator_val_feedback,NULL,PennController,120,_Header_,Start,1744113920105,undefined,2324,insecure,undefined,positive,negative,positive,B,NULL
1744114525,dfb9b0c1d8974c9d8ca8567e8eeae240,PennController,109,0,calibrator_val_feedback,NULL,PennController,120,_Header_,End,1744113920359,undefined,2324,insecure,undefined,positive,negative,positive,B,NULL
1744114525,dfb9b0c1d8974c9d8ca8567e8eeae240,PennController,109,0,calibrator_val_feedback,NULL,Selector,Selection,Selection,negative,1744113924106,undefined,2324,insecure,undefined,positive,negative,positive,B,negative;positive
1744114525,dfb9b0c1d8974c9d8ca8567e8eeae240,PennController,109,0,calibrator_val_feedback,NULL,PennController,120,_Trial_,End,1744113925190,undefined,2324,insecure,undefined,positive,negative,positive,B,NULL
1744114525,dfb9b0c1d8974c9d8ca8567e8eeae240,PennController,112,0,calibrator_val_feedback,NULL,PennController,123,_Trial_,Start,1744113925191,undefined,1792,joke,undefined,positive,negative,positive,B,NULL
1744114525,dfb9b0c1d8974c9d8ca8567e8eeae240,PennController,112,0,calibrator_val_feedback,NULL,PennController,123,_Header_,Start,1744113925191,undefined,1792,joke,undefined,positive,negative,positive,B,NULL
1744114525,dfb9b0c1d8974c9d8ca8567e8eeae240,PennController,112,0,calibrator_val_feedback,NULL,PennController,123,_Header_,End,1744113925442,undefined,1792,joke,undefined,positive,negative,positive,B,NULL
1744114525,dfb9b0c1d8974c9d8ca8567e8eeae240,PennController,112,0,calibrator_val_feedback,NULL,Selector,Selection,Selection,positive,1744113927737,undefined,1792,joke,undefined,positive,negative,positive,B,negative;positive
1744114525,dfb9b0c1d8974c9d8ca8567e8eeae240,PennController,112,0,calibrator_val_feedback,NULL,PennController,123,_Trial_,End,1744113929740,undefined,1792,joke,undefined,positive,negative,positive,B,NULL
1744114525,dfb9b0c1d8974c9d8ca8567e8eeae240,PennController,113,0,calibrator_val_feedback,NULL,PennController,124,_Trial_,Start,1744113929741,undefined,1398,kitten,undefined,positive,negative,positive,B,NULL
1744114525,dfb9b0c1d8974c9d8ca8567e8eeae240,PennController,113,0,calibrator_val_feedback,NULL,PennController,124,_Header_,Start,1744113929741,undefined,1398,kitten,undefined,positive,negative,positive,B,NULL
1744114525,dfb9b0c1d8974c9d8ca8567e8eeae240,PennController,113,0,calibrator_val_feedback,NULL,PennController,124,_Header_,End,1744113929992,undefined,1398,kitten,undefined,positive,negative,positive,B,NULL
1744114525,dfb9b0c1d8974c9d8ca8567e8eeae240,PennController,113,0,calibrator_val_feedback,NULL,Selector,Selection,Selection,positive,1744113931891,undefined,1398,kitten,undefined,positive,negative,positive,B,negative;positive
1744114525,dfb9b0c1d8974c9d8ca8567e8eeae240,PennController,113,0,calibrator_val_feedback,NULL,PennController,124,_Trial_,End,1744113933892,undefined,1398,kitten,undefined,positive,negative,positive,B,NULL
1744114525,dfb9b0c1d8974c9d8ca8567e8eeae240,PennController,105,0,calibrator_val_feedback,NULL,PennController,116,_Trial_,Start,1744113933893,undefined,958,grin,undefined,positive,negative,positive,B,NULL
1744114525,dfb9b0c1d8974c9d8ca8567e8eeae240,PennController,105,0,calibrator_val_feedback,NULL,PennController,116,_Header_,Start,1744113933893,undefined,958,grin,undefined,positive,negative,positive,B,NULL
1744114525,dfb9b0c1d8974c9d8ca8567e8eeae240,PennController,105,0,calibrator_val_feedback,NULL,PennController,116,_Header_,End,1744113934143,undefined,958,grin,undefined,positive,negative,positive,B,NULL
1744114525,dfb9b0c1d8974c9d8ca8567e8eeae240,PennController,105,0,calibrator_val_feedback,NULL,Selector,Selection,Selection,positive,1744113935602,undefined,958,grin,undefined,positive,negative,positive,B,negative;positive
1744114525,dfb9b0c1d8974c9d8ca8567e8eeae240,PennController,105,0,calibrator_val_feedback,NULL,PennController,116,_Trial_,End,1744113937606,undefined,958,grin,undefined,positive,negative,positive,B,NULL
1744114525,dfb9b0c1d8974c9d8ca8567e8eeae240,PennController,110,0,calibrator_val_feedback,NULL,PennController,121,_Trial_,Start,1744113937607,undefined,1151,invader,undefined,positive,negative,positive,B,NULL
1744114525,dfb9b0c1d8974c9d8ca8567e8eeae240,PennController,110,0,calibrator_val_feedback,NULL,PennController,121,_Header_,Start,1744113937607,undefined,1151,invader,undefined,positive,negative,positive,B,NULL
1744114525,dfb9b0c1d8974c9d8ca8567e8eeae240,PennController,110,0,calibrator_val_feedback,NULL,PennController,121,_Header_,End,1744113937858,undefined,1151,invader,undefined,positive,negative,positive,B,NULL
1744114525,dfb9b0c1d8974c9d8ca8567e8eeae240,PennController,110,0,calibrator_val_feedback,NULL,Selector,Selection,Selection,negative,1744113939512,undefined,1151,invader,undefined,positive,negative,positive,B,negative;positive
1744114525,dfb9b0c1d8974c9d8ca8567e8eeae240,PennController,110,0,calibrator_val_feedback,NULL,PennController,121,_Trial_,End,1744113941516,undefined,1151,invader,undefined,positive,negative,positive,B,NULL
1744114525,dfb9b0c1d8974c9d8ca8567e8eeae240,PennController,104,0,calibrator_val_feedback,NULL,PennController,115,_Trial_,Start,1744113941517,undefined,1560,free,undefined,positive,negative,positive,B,NULL
1744114525,dfb9b0c1d8974c9d8ca8567e8eeae240,PennController,104,0,calibrator_val_feedback,NULL,PennController,115,_Header_,Start,1744113941517,undefined,1560,free,undefined,positive,negative,positive,B,NULL
1744114525,dfb9b0c1d8974c9d8ca8567e8eeae240,PennController,104,0,calibrator_val_feedback,NULL,PennController,115,_Header_,End,1744113941768,undefined,1560,free,undefined,positive,negative,positive,B,NULL
1744114525,dfb9b0c1d8974c9d8ca8567e8eeae240,PennController,104,0,calibrator_val_feedback,NULL,Selector,Selection,Selection,positive,1744113943834,undefined,1560,free,undefined,positive,negative,positive,B,negative;positive
1744114525,dfb9b0c1d8974c9d8ca8567e8eeae240,PennController,104,0,calibrator_val_feedback,NULL,PennController,115,_Trial_,End,1744113945834,undefined,1560,free,undefined,positive,negative,positive,B,NULL
1744114525,dfb9b0c1d8974c9d8ca8567e8eeae240,PennController,111,0,calibrator_val_feedback,NULL,PennController,122,_Trial_,Start,1744113945835,undefined,1021,jail,undefined,positive,negative,positive,B,NULL
1744114525,dfb9b0c1d8974c9d8ca8567e8eeae240,PennController,111,0,calibrator_val_feedback,NULL,PennController,122,_Header_,Start,1744113945835,undefined,1021,jail,undefined,positive,negative,positive,B,NULL
1744114525,dfb9b0c1d8974c9d8ca8567e8eeae240,PennController,111,0,calibrator_val_feedback,NULL,PennController,122,_Header_,End,1744113946088,undefined,1021,jail,undefined,positive,negative,positive,B,NULL
1744114525,dfb9b0c1d8974c9d8ca8567e8eeae240,PennController,111,0,calibrator_val_feedback,NULL,Selector,Selection,Selection,negative,1744113947610,undefined,1021,jail,undefined,positive,negative,positive,B,negative;positive
1744114525,dfb9b0c1d8974c9d8ca8567e8eeae240,PennController,111,0,calibrator_val_feedback,NULL,PennController,122,_Trial_,End,1744113949617,undefined,1021,jail,undefined,positive,negative,positive,B,NULL
1744114525,dfb9b0c1d8974c9d8ca8567e8eeae240,PennController,106,0,calibrator_val_feedback,NULL,PennController,117,_Trial_,Start,1744113949619,undefined,1570,hat,undefined,positive,negative,positive,B,NULL
1744114525,dfb9b0c1d8974c9d8ca8567e8eeae240,PennController,106,0,calibrator_val_feedback,NULL,PennController,117,_Header_,Start,1744113949619,undefined,1570,hat,undefined,positive,negative,positive,B,NULL
1744114525,dfb9b0c1d8974c9d8ca8567e8eeae240,PennController,106,0,calibrator_val_feedback,NULL,PennController,117,_Header_,End,1744113949872,undefined,1570,hat,undefined,positive,negative,positive,B,NULL
1744114525,dfb9b0c1d8974c9d8ca8567e8eeae240,PennController,106,0,calibrator_val_feedback,NULL,Selector,Selection,Selection,positive,1744113951947,undefined,1570,hat,undefined,positive,negative,positive,B,negative;positive
1744114525,dfb9b0c1d8974c9d8ca8567e8eeae240,PennController,106,0,calibrator_val_feedback,NULL,PennController,117,_Trial_,End,1744113953950,undefined,1570,hat,undefined,positive,negative,positive,B,NULL
1744114525,dfb9b0c1d8974c9d8ca8567e8eeae240,PennController,108,0,calibrator_val_feedback,NULL,PennController,119,_Trial_,Start,1744113953951,undefined,1719,industry,undefined,positive,negative,positive,B,NULL
1744114525,dfb9b0c1d8974c9d8ca8567e8eeae240,PennController,108,0,calibrator_val_feedback,NULL,PennController,119,_Header_,Start,1744113953952,undefined,1719,industry,undefined,positive,negative,positive,B,NULL
1744114525,dfb9b0c1d8974c9d8ca8567e8eeae240,PennController,108,0,calibrator_val_feedback,NULL,PennController,119,_Header_,End,1744113954202,undefined,1719,industry,undefined,positive,negative,positive,B,NULL
1744114525,dfb9b0c1d8974c9d8ca8567e8eeae240,PennController,108,0,calibrator_val_feedback,NULL,Selector,Selection,Selection,negative,1744113956421,undefined,1719,industry,undefined,positive,negative,positive,B,negative;positive
1744114525,dfb9b0c1d8974c9d8ca8567e8eeae240,PennController,108,0,calibrator_val_feedback,NULL,PennController,119,_Trial_,End,1744113958423,undefined,1719,industry,undefined,positive,negative,positive,B,NULL
1744114525,dfb9b0c1d8974c9d8ca8567e8eeae240,PennController,107,0,calibrator_val_feedback,NULL,PennController,118,_Trial_,Start,1744113958424,undefined,1048,icebox,undefined,positive,negative,positive,B,NULL
1744114525,dfb9b0c1d8974c9d8ca8567e8eeae240,PennController,107,0,calibrator_val_feedback,NULL,PennController,118,_Header_,Start,1744113958424,undefined,1048,icebox,undefined,positive,negative,positive,B,NULL
1744114525,dfb9b0c1d8974c9d8ca8567e8eeae240,PennController,107,0,calibrator_val_feedback,NULL,PennController,118,_Header_,End,1744113958676,undefined,1048,icebox,undefined,positive,negative,positive,B,NULL
1744114525,dfb9b0c1d8974c9d8ca8567e8eeae240,PennController,107,0,calibrator_val_feedback,NULL,Selector,Selection,Selection,positive,1744113960223,undefined,1048,icebox,undefined,positive,negative,positive,B,negative;positive
1744114525,dfb9b0c1d8974c9d8ca8567e8eeae240,PennController,107,0,calibrator_val_feedback,NULL,PennController,118,_Trial_,End,1744113962229,undefined,1048,icebox,undefined,positive,negative,positive,B,NULL
# 16. Key_value_F.
# 17. Key_value_J.
# 18. Group.
# 19. Comments.
1744114525,dfb9b0c1d8974c9d8ca8567e8eeae240,PennController,116,0,calibrator_val_no_feedback,NULL,PennController,127,_Trial_,Start,1744113962230,undefined,1107,hat,negative,positive,B,NULL
1744114525,dfb9b0c1d8974c9d8ca8567e8eeae240,PennController,116,0,calibrator_val_no_feedback,NULL,PennController,127,_Header_,Start,1744113962230,undefined,1107,hat,negative,positive,B,NULL
1744114525,dfb9b0c1d8974c9d8ca8567e8eeae240,PennController,116,0,calibrator_val_no_feedback,NULL,PennController,127,_Header_,End,1744113962482,undefined,1107,hat,negative,positive,B,NULL
1744114525,dfb9b0c1d8974c9d8ca8567e8eeae240,PennController,116,0,calibrator_val_no_feedback,NULL,Selector,unnamed-Selector,Selection,positive,1744113964089,undefined,1107,hat,negative,positive,B,negative;positive
1744114525,dfb9b0c1d8974c9d8ca8567e8eeae240,PennController,116,0,calibrator_val_no_feedback,NULL,PennController,127,_Trial_,End,1744113964090,undefined,1107,hat,negative,positive,B,NULL
1744114525,dfb9b0c1d8974c9d8ca8567e8eeae240,PennController,121,0,calibrator_val_no_feedback,NULL,PennController,132,_Trial_,Start,1744113964091,undefined,924,jail,negative,positive,B,NULL
1744114525,dfb9b0c1d8974c9d8ca8567e8eeae240,PennController,121,0,calibrator_val_no_feedback,NULL,PennController,132,_Header_,Start,1744113964091,undefined,924,jail,negative,positive,B,NULL
1744114525,dfb9b0c1d8974c9d8ca8567e8eeae240,PennController,121,0,calibrator_val_no_feedback,NULL,PennController,132,_Header_,End,1744113964342,undefined,924,jail,negative,positive,B,NULL
1744114525,dfb9b0c1d8974c9d8ca8567e8eeae240,PennController,121,0,calibrator_val_no_feedback,NULL,Selector,unnamed-Selector,Selection,negative,1744113965767,undefined,924,jail,negative,positive,B,negative;positive
1744114525,dfb9b0c1d8974c9d8ca8567e8eeae240,PennController,121,0,calibrator_val_no_feedback,NULL,PennController,132,_Trial_,End,1744113965768,undefined,924,jail,negative,positive,B,NULL
1744114525,dfb9b0c1d8974c9d8ca8567e8eeae240,PennController,120,0,calibrator_val_no_feedback,NULL,PennController,131,_Trial_,Start,1744113965769,undefined,746,invader,negative,positive,B,NULL
1744114525,dfb9b0c1d8974c9d8ca8567e8eeae240,PennController,120,0,calibrator_val_no_feedback,NULL,PennController,131,_Header_,Start,1744113965769,undefined,746,invader,negative,positive,B,NULL
1744114525,dfb9b0c1d8974c9d8ca8567e8eeae240,PennController,120,0,calibrator_val_no_feedback,NULL,PennController,131,_Header_,End,1744113966019,undefined,746,invader,negative,positive,B,NULL
1744114525,dfb9b0c1d8974c9d8ca8567e8eeae240,PennController,120,0,calibrator_val_no_feedback,NULL,Selector,unnamed-Selector,Selection,negative,1744113967267,undefined,746,invader,negative,positive,B,negative;positive
1744114525,dfb9b0c1d8974c9d8ca8567e8eeae240,PennController,120,0,calibrator_val_no_feedback,NULL,PennController,131,_Trial_,End,1744113967267,undefined,746,invader,negative,positive,B,NULL
1744114525,dfb9b0c1d8974c9d8ca8567e8eeae240,PennController,115,0,calibrator_val_no_feedback,NULL,PennController,126,_Trial_,Start,1744113967268,undefined,907,grin,negative,positive,B,NULL
1744114525,dfb9b0c1d8974c9d8ca8567e8eeae240,PennController,115,0,calibrator_val_no_feedback,NULL,PennController,126,_Header_,Start,1744113967268,undefined,907,grin,negative,positive,B,NULL
1744114525,dfb9b0c1d8974c9d8ca8567e8eeae240,PennController,115,0,calibrator_val_no_feedback,NULL,PennController,126,_Header_,End,1744113967520,undefined,907,grin,negative,positive,B,NULL
1744114525,dfb9b0c1d8974c9d8ca8567e8eeae240,PennController,115,0,calibrator_val_no_feedback,NULL,Selector,unnamed-Selector,Selection,positive,1744113968932,undefined,907,grin,negative,positive,B,negative;positive
1744114525,dfb9b0c1d8974c9d8ca8567e8eeae240,PennController,115,0,calibrator_val_no_feedback,NULL,PennController,126,_Trial_,End,1744113968933,undefined,907,grin,negative,positive,B,NULL
1744114525,dfb9b0c1d8974c9d8ca8567e8eeae240,PennController,122,0,calibrator_val_no_feedback,NULL,PennController,133,_Trial_,Start,1744113968934,undefined,826,joke,negative,positive,B,NULL
1744114525,dfb9b0c1d8974c9d8ca8567e8eeae240,PennController,122,0,calibrator_val_no_feedback,NULL,PennController,133,_Header_,Start,1744113968934,undefined,826,joke,negative,positive,B,NULL
1744114525,dfb9b0c1d8974c9d8ca8567e8eeae240,PennController,122,0,calibrator_val_no_feedback,NULL,PennController,133,_Header_,End,1744113969188,undefined,826,joke,negative,positive,B,NULL
1744114525,dfb9b0c1d8974c9d8ca8567e8eeae240,PennController,122,0,calibrator_val_no_feedback,NULL,Selector,unnamed-Selector,Selection,positive,1744113970516,undefined,826,joke,negative,positive,B,negative;positive
1744114525,dfb9b0c1d8974c9d8ca8567e8eeae240,PennController,122,0,calibrator_val_no_feedback,NULL,PennController,133,_Trial_,End,1744113970517,undefined,826,joke,negative,positive,B,NULL
1744114525,dfb9b0c1d8974c9d8ca8567e8eeae240,PennController,123,0,calibrator_val_no_feedback,NULL,PennController,134,_Trial_,Start,1744113970517,undefined,646,kitten,negative,positive,B,NULL
1744114525,dfb9b0c1d8974c9d8ca8567e8eeae240,PennController,123,0,calibrator_val_no_feedback,NULL,PennController,134,_Header_,Start,1744113970517,undefined,646,kitten,negative,positive,B,NULL
1744114525,dfb9b0c1d8974c9d8ca8567e8eeae240,PennController,123,0,calibrator_val_no_feedback,NULL,PennController,134,_Header_,End,1744113970771,undefined,646,kitten,negative,positive,B,NULL
1744114525,dfb9b0c1d8974c9d8ca8567e8eeae240,PennController,123,0,calibrator_val_no_feedback,NULL,Selector,unnamed-Selector,Selection,positive,1744113971918,undefined,646,kitten,negative,positive,B,negative;positive
1744114525,dfb9b0c1d8974c9d8ca8567e8eeae240,PennController,123,0,calibrator_val_no_feedback,NULL,PennController,134,_Trial_,End,1744113971919,undefined,646,kitten,negative,positive,B,NULL
1744114525,dfb9b0c1d8974c9d8ca8567e8eeae240,PennController,117,0,calibrator_val_no_feedback,NULL,PennController,128,_Trial_,Start,1744113971920,undefined,623,icebox,negative,positive,B,NULL
1744114525,dfb9b0c1d8974c9d8ca8567e8eeae240,PennController,117,0,calibrator_val_no_feedback,NULL,PennController,128,_Header_,Start,1744113971920,undefined,623,icebox,negative,positive,B,NULL
1744114525,dfb9b0c1d8974c9d8ca8567e8eeae240,PennController,117,0,calibrator_val_no_feedback,NULL,PennController,128,_Header_,End,1744113972170,undefined,623,icebox,negative,positive,B,NULL
1744114525,dfb9b0c1d8974c9d8ca8567e8eeae240,PennController,117,0,calibrator_val_no_feedback,NULL,Selector,unnamed-Selector,Selection,positive,1744113973295,undefined,623,icebox,negative,positive,B,negative;positive
1744114525,dfb9b0c1d8974c9d8ca8567e8eeae240,PennController,117,0,calibrator_val_no_feedback,NULL,PennController,128,_Trial_,End,1744113973296,undefined,623,icebox,negative,positive,B,NULL
1744114525,dfb9b0c1d8974c9d8ca8567e8eeae240,PennController,118,0,calibrator_val_no_feedback,NULL,PennController,129,_Trial_,Start,1744113973297,undefined,703,industry,negative,positive,B,NULL
1744114525,dfb9b0c1d8974c9d8ca8567e8eeae240,PennController,118,0,calibrator_val_no_feedback,NULL,PennController,129,_Header_,Start,1744113973297,undefined,703,industry,negative,positive,B,NULL
1744114525,dfb9b0c1d8974c9d8ca8567e8eeae240,PennController,118,0,calibrator_val_no_feedback,NULL,PennController,129,_Header_,End,1744113973550,undefined,703,industry,negative,positive,B,NULL
1744114525,dfb9b0c1d8974c9d8ca8567e8eeae240,PennController,118,0,calibrator_val_no_feedback,NULL,Selector,unnamed-Selector,Selection,negative,1744113974754,undefined,703,industry,negative,positive,B,negative;positive
1744114525,dfb9b0c1d8974c9d8ca8567e8eeae240,PennController,118,0,calibrator_val_no_feedback,NULL,PennController,129,_Trial_,End,1744113974755,undefined,703,industry,negative,positive,B,NULL
1744114525,dfb9b0c1d8974c9d8ca8567e8eeae240,PennController,119,0,calibrator_val_no_feedback,NULL,PennController,130,_Trial_,Start,1744113974756,undefined,908,insecure,negative,positive,B,NULL
1744114525,dfb9b0c1d8974c9d8ca8567e8eeae240,PennController,119,0,calibrator_val_no_feedback,NULL,PennController,130,_Header_,Start,1744113974756,undefined,908,insecure,negative,positive,B,NULL
1744114525,dfb9b0c1d8974c9d8ca8567e8eeae240,PennController,119,0,calibrator_val_no_feedback,NULL,PennController,130,_Header_,End,1744113975008,undefined,908,insecure,negative,positive,B,NULL
1744114525,dfb9b0c1d8974c9d8ca8567e8eeae240,PennController,119,0,calibrator_val_no_feedback,NULL,Selector,unnamed-Selector,Selection,negative,1744113976417,undefined,908,insecure,negative,positive,B,negative;positive
1744114525,dfb9b0c1d8974c9d8ca8567e8eeae240,PennController,119,0,calibrator_val_no_feedback,NULL,PennController,130,_Trial_,End,1744113976418,undefined,908,insecure,negative,positive,B,NULL
1744114525,dfb9b0c1d8974c9d8ca8567e8eeae240,PennController,114,0,calibrator_val_no_feedback,NULL,PennController,125,_Trial_,Start,1744113976419,undefined,667,free,negative,positive,B,NULL
1744114525,dfb9b0c1d8974c9d8ca8567e8eeae240,PennController,114,0,calibrator_val_no_feedback,NULL,PennController,125,_Header_,Start,1744113976419,undefined,667,free,negative,positive,B,NULL
1744114525,dfb9b0c1d8974c9d8ca8567e8eeae240,PennController,114,0,calibrator_val_no_feedback,NULL,PennController,125,_Header_,End,1744113976671,undefined,667,free,negative,positive,B,NULL
1744114525,dfb9b0c1d8974c9d8ca8567e8eeae240,PennController,114,0,calibrator_val_no_feedback,NULL,Selector,unnamed-Selector,Selection,positive,1744113977840,undefined,667,free,negative,positive,B,negative;positive
1744114525,dfb9b0c1d8974c9d8ca8567e8eeae240,PennController,114,0,calibrator_val_no_feedback,NULL,PennController,125,_Trial_,End,1744113977840,undefined,667,free,negative,positive,B,NULL
# 13. Comments.
1744114525,dfb9b0c1d8974c9d8ca8567e8eeae240,PennController,130,0,endinstructions_val,NULL,PennController,8,_Trial_,Start,1744113977841,NULL
1744114525,dfb9b0c1d8974c9d8ca8567e8eeae240,PennController,130,0,endinstructions_val,NULL,PennController,8,_Header_,Start,1744113977841,NULL
1744114525,dfb9b0c1d8974c9d8ca8567e8eeae240,PennController,130,0,endinstructions_val,NULL,PennController,8,_Header_,End,1744113978091,NULL
1744114525,dfb9b0c1d8974c9d8ca8567e8eeae240,PennController,130,0,endinstructions_val,NULL,PennController,8,_Trial_,End,1744113994363,NULL
# 13. ID.
# 14. ReactionTime.
# 15. Word.
# 16. ConcValCombo.
# 17. Key_value_F.
# 18. Key_value_J.
# 19. Group.
# 20. Comments.
1744114525,dfb9b0c1d8974c9d8ca8567e8eeae240,PennController,51,0,test_val,NULL,PennController,62,_Trial_,Start,1744113994364,undefined,760,incurable,objective-negative,negative,positive,B,NULL
1744114525,dfb9b0c1d8974c9d8ca8567e8eeae240,PennController,51,0,test_val,NULL,PennController,62,_Header_,Start,1744113994364,undefined,760,incurable,objective-negative,negative,positive,B,NULL
1744114525,dfb9b0c1d8974c9d8ca8567e8eeae240,PennController,51,0,test_val,NULL,PennController,62,_Header_,End,1744113994614,undefined,760,incurable,objective-negative,negative,positive,B,NULL
1744114525,dfb9b0c1d8974c9d8ca8567e8eeae240,PennController,51,0,test_val,NULL,Selector,unnamed-Selector,Selection,negative,1744113995878,undefined,760,incurable,objective-negative,negative,positive,B,negative;positive
1744114525,dfb9b0c1d8974c9d8ca8567e8eeae240,PennController,51,0,test_val,NULL,PennController,62,_Trial_,End,1744113995878,undefined,760,incurable,objective-negative,negative,positive,B,NULL
1744114525,dfb9b0c1d8974c9d8ca8567e8eeae240,PennController,64,0,test_val,NULL,PennController,75,_Trial_,Start,1744113995879,undefined,607,annoying,subjective-negative,negative,positive,B,NULL
1744114525,dfb9b0c1d8974c9d8ca8567e8eeae240,PennController,64,0,test_val,NULL,PennController,75,_Header_,Start,1744113995879,undefined,607,annoying,subjective-negative,negative,positive,B,NULL
1744114525,dfb9b0c1d8974c9d8ca8567e8eeae240,PennController,64,0,test_val,NULL,PennController,75,_Header_,End,1744113996131,undefined,607,annoying,subjective-negative,negative,positive,B,NULL
1744114525,dfb9b0c1d8974c9d8ca8567e8eeae240,PennController,64,0,test_val,NULL,Selector,unnamed-Selector,Selection,negative,1744113997240,undefined,607,annoying,subjective-negative,negative,positive,B,negative;positive
1744114525,dfb9b0c1d8974c9d8ca8567e8eeae240,PennController,64,0,test_val,NULL,PennController,75,_Trial_,End,1744113997241,undefined,607,annoying,subjective-negative,negative,positive,B,NULL
1744114525,dfb9b0c1d8974c9d8ca8567e8eeae240,PennController,62,0,test_val,NULL,PennController,73,_Trial_,Start,1744113997242,undefined,551,profitable,objective-positive,negative,positive,B,NULL
1744114525,dfb9b0c1d8974c9d8ca8567e8eeae240,PennController,62,0,test_val,NULL,PennController,73,_Header_,Start,1744113997242,undefined,551,profitable,objective-positive,negative,positive,B,NULL
1744114525,dfb9b0c1d8974c9d8ca8567e8eeae240,PennController,62,0,test_val,NULL,PennController,73,_Header_,End,1744113997496,undefined,551,profitable,objective-positive,negative,positive,B,NULL
1744114525,dfb9b0c1d8974c9d8ca8567e8eeae240,PennController,62,0,test_val,NULL,Selector,unnamed-Selector,Selection,positive,1744113998549,undefined,551,profitable,objective-positive,negative,positive,B,negative;positive
1744114525,dfb9b0c1d8974c9d8ca8567e8eeae240,PennController,62,0,test_val,NULL,PennController,73,_Trial_,End,1744113998550,undefined,551,profitable,objective-positive,negative,positive,B,NULL
1744114525,dfb9b0c1d8974c9d8ca8567e8eeae240,PennController,71,0,test_val,NULL,PennController,82,_Trial_,Start,1744113998551,undefined,672,selfish,subjective-negative,negative,positive,B,NULL
1744114525,dfb9b0c1d8974c9d8ca8567e8eeae240,PennController,71,0,test_val,NULL,PennController,82,_Header_,Start,1744113998551,undefined,672,selfish,subjective-negative,negative,positive,B,NULL
1744114525,dfb9b0c1d8974c9d8ca8567e8eeae240,PennController,71,0,test_val,NULL,PennController,82,_Header_,End,1744113998804,undefined,672,selfish,subjective-negative,negative,positive,B,NULL
1744114525,dfb9b0c1d8974c9d8ca8567e8eeae240,PennController,71,0,test_val,NULL,Selector,unnamed-Selector,Selection,negative,1744113999976,undefined,672,selfish,subjective-negative,negative,positive,B,negative;positive
1744114525,dfb9b0c1d8974c9d8ca8567e8eeae240,PennController,71,0,test_val,NULL,PennController,82,_Trial_,End,1744113999977,undefined,672,selfish,subjective-negative,negative,positive,B,NULL
1744114525,dfb9b0c1d8974c9d8ca8567e8eeae240,PennController,46,0,test_val,NULL,PennController,57,_Trial_,Start,1744113999978,undefined,983,bankrupt,objective-negative,negative,positive,B,NULL
1744114525,dfb9b0c1d8974c9d8ca8567e8eeae240,PennController,46,0,test_val,NULL,PennController,57,_Header_,Start,1744113999978,undefined,983,bankrupt,objective-negative,negative,positive,B,NULL
1744114525,dfb9b0c1d8974c9d8ca8567e8eeae240,PennController,46,0,test_val,NULL,PennController,57,_Header_,End,1744114000228,undefined,983,bankrupt,objective-negative,negative,positive,B,NULL
1744114525,dfb9b0c1d8974c9d8ca8567e8eeae240,PennController,46,0,test_val,NULL,Selector,unnamed-Selector,Selection,negative,1744114001715,undefined,983,bankrupt,objective-negative,negative,positive,B,negative;positive
1744114525,dfb9b0c1d8974c9d8ca8567e8eeae240,PennController,46,0,test_val,NULL,PennController,57,_Trial_,End,1744114001716,undefined,983,bankrupt,objective-negative,negative,positive,B,NULL
1744114525,dfb9b0c1d8974c9d8ca8567e8eeae240,PennController,59,0,test_val,NULL,PennController,70,_Trial_,Start,1744114001717,undefined,710,efficient,objective-positive,negative,positive,B,NULL
1744114525,dfb9b0c1d8974c9d8ca8567e8eeae240,PennController,59,0,test_val,NULL,PennController,70,_Header_,Start,1744114001717,undefined,710,efficient,objective-positive,negative,positive,B,NULL
1744114525,dfb9b0c1d8974c9d8ca8567e8eeae240,PennController,59,0,test_val,NULL,PennController,70,_Header_,End,1744114001969,undefined,710,efficient,objective-positive,negative,positive,B,NULL
1744114525,dfb9b0c1d8974c9d8ca8567e8eeae240,PennController,59,0,test_val,NULL,Selector,unnamed-Selector,Selection,positive,1744114003182,undefined,710,efficient,objective-positive,negative,positive,B,negative;positive
1744114525,dfb9b0c1d8974c9d8ca8567e8eeae240,PennController,59,0,test_val,NULL,PennController,70,_Trial_,End,1744114003183,undefined,710,efficient,objective-positive,negative,positive,B,NULL
1744114525,dfb9b0c1d8974c9d8ca8567e8eeae240,PennController,80,0,test_val,NULL,PennController,91,_Trial_,Start,1744114003184,undefined,610,harmonious,subjective-positive,negative,positive,B,NULL
1744114525,dfb9b0c1d8974c9d8ca8567e8eeae240,PennController,80,0,test_val,NULL,PennController,91,_Header_,Start,1744114003184,undefined,610,harmonious,subjective-positive,negative,positive,B,NULL
1744114525,dfb9b0c1d8974c9d8ca8567e8eeae240,PennController,80,0,test_val,NULL,PennController,91,_Header_,End,1744114003434,undefined,610,harmonious,subjective-positive,negative,positive,B,NULL
1744114525,dfb9b0c1d8974c9d8ca8567e8eeae240,PennController,80,0,test_val,NULL,Selector,unnamed-Selector,Selection,positive,1744114004547,undefined,610,harmonious,subjective-positive,negative,positive,B,negative;positive
1744114525,dfb9b0c1d8974c9d8ca8567e8eeae240,PennController,80,0,test_val,NULL,PennController,91,_Trial_,End,1744114004548,undefined,610,harmonious,subjective-positive,negative,positive,B,NULL
1744114525,dfb9b0c1d8974c9d8ca8567e8eeae240,PennController,60,0,test_val,NULL,PennController,71,_Trial_,Start,1744114004549,undefined,506,efficient,objective-positive,negative,positive,B,NULL
1744114525,dfb9b0c1d8974c9d8ca8567e8eeae240,PennController,60,0,test_val,NULL,PennController,71,_Header_,Start,1744114004549,undefined,506,efficient,objective-positive,negative,positive,B,NULL
1744114525,dfb9b0c1d8974c9d8ca8567e8eeae240,PennController,60,0,test_val,NULL,PennController,71,_Header_,End,1744114004803,undefined,506,efficient,objective-positive,negative,positive,B,NULL
1744114525,dfb9b0c1d8974c9d8ca8567e8eeae240,PennController,60,0,test_val,NULL,Selector,unnamed-Selector,Selection,positive,1744114005813,undefined,506,efficient,objective-positive,negative,positive,B,negative;positive
1744114525,dfb9b0c1d8974c9d8ca8567e8eeae240,PennController,60,0,test_val,NULL,PennController,71,_Trial_,End,1744114005814,undefined,506,efficient,objective-positive,negative,positive,B,NULL
1744114525,dfb9b0c1d8974c9d8ca8567e8eeae240,PennController,48,0,test_val,NULL,PennController,59,_Trial_,Start,1744114005815,undefined,509,deadly,objective-negative,negative,positive,B,NULL
1744114525,dfb9b0c1d8974c9d8ca8567e8eeae240,PennController,48,0,test_val,NULL,PennController,59,_Header_,Start,1744114005815,undefined,509,deadly,objective-negative,negative,positive,B,NULL
1744114525,dfb9b0c1d8974c9d8ca8567e8eeae240,PennController,48,0,test_val,NULL,PennController,59,_Header_,End,1744114006068,undefined,509,deadly,objective-negative,negative,positive,B,NULL
1744114525,dfb9b0c1d8974c9d8ca8567e8eeae240,PennController,48,0,test_val,NULL,Selector,unnamed-Selector,Selection,negative,1744114007078,undefined,509,deadly,objective-negative,negative,positive,B,negative;positive
1744114525,dfb9b0c1d8974c9d8ca8567e8eeae240,PennController,48,0,test_val,NULL,PennController,59,_Trial_,End,1744114007079,undefined,509,deadly,objective-negative,negative,positive,B,NULL
1744114525,dfb9b0c1d8974c9d8ca8567e8eeae240,PennController,83,0,test_val,NULL,PennController,94,_Trial_,Start,1744114007080,undefined,490,passionate,subjective-positive,negative,positive,B,NULL
1744114525,dfb9b0c1d8974c9d8ca8567e8eeae240,PennController,83,0,test_val,NULL,PennController,94,_Header_,Start,1744114007080,undefined,490,passionate,subjective-positive,negative,positive,B,NULL
1744114525,dfb9b0c1d8974c9d8ca8567e8eeae240,PennController,83,0,test_val,NULL,PennController,94,_Header_,End,1744114007332,undefined,490,passionate,subjective-positive,negative,positive,B,NULL
1744114525,dfb9b0c1d8974c9d8ca8567e8eeae240,PennController,83,0,test_val,NULL,Selector,unnamed-Selector,Selection,positive,1744114008325,undefined,490,passionate,subjective-positive,negative,positive,B,negative;positive
1744114525,dfb9b0c1d8974c9d8ca8567e8eeae240,PennController,83,0,test_val,NULL,PennController,94,_Trial_,End,1744114008326,undefined,490,passionate,subjective-positive,negative,positive,B,NULL
1744114525,dfb9b0c1d8974c9d8ca8567e8eeae240,PennController,56,0,test_val,NULL,PennController,67,_Trial_,Start,1744114008327,undefined,517,accurate,objective-positive,negative,positive,B,NULL
1744114525,dfb9b0c1d8974c9d8ca8567e8eeae240,PennController,56,0,test_val,NULL,PennController,67,_Header_,Start,1744114008327,undefined,517,accurate,objective-positive,negative,positive,B,NULL
1744114525,dfb9b0c1d8974c9d8ca8567e8eeae240,PennController,56,0,test_val,NULL,PennController,67,_Header_,End,1744114008580,undefined,517,accurate,objective-positive,negative,positive,B,NULL
1744114525,dfb9b0c1d8974c9d8ca8567e8eeae240,PennController,56,0,test_val,NULL,Selector,unnamed-Selector,Selection,positive,1744114009599,undefined,517,accurate,objective-positive,negative,positive,B,negative;positive
1744114525,dfb9b0c1d8974c9d8ca8567e8eeae240,PennController,56,0,test_val,NULL,PennController,67,_Trial_,End,1744114009600,undefined,517,accurate,objective-positive,negative,positive,B,NULL
1744114525,dfb9b0c1d8974c9d8ca8567e8eeae240,PennController,44,0,test_val,NULL,PennController,55,_Trial_,Start,1744114009600,undefined,560,adverse,objective-negative,negative,positive,B,NULL
1744114525,dfb9b0c1d8974c9d8ca8567e8eeae240,PennController,44,0,test_val,NULL,PennController,55,_Header_,Start,1744114009600,undefined,560,adverse,objective-negative,negative,positive,B,NULL
1744114525,dfb9b0c1d8974c9d8ca8567e8eeae240,PennController,44,0,test_val,NULL,PennController,55,_Header_,End,1744114009850,undefined,560,adverse,objective-negative,negative,positive,B,NULL
1744114525,dfb9b0c1d8974c9d8ca8567e8eeae240,PennController,44,0,test_val,NULL,Selector,unnamed-Selector,Selection,negative,1744114010914,undefined,560,adverse,objective-negative,negative,positive,B,negative;positive
1744114525,dfb9b0c1d8974c9d8ca8567e8eeae240,PennController,44,0,test_val,NULL,PennController,55,_Trial_,End,1744114010915,undefined,560,adverse,objective-negative,negative,positive,B,NULL
1744114525,dfb9b0c1d8974c9d8ca8567e8eeae240,PennController,57,0,test_val,NULL,PennController,68,_Trial_,Start,1744114010916,undefined,646,reliable,objective-positive,negative,positive,B,NULL
1744114525,dfb9b0c1d8974c9d8ca8567e8eeae240,PennController,57,0,test_val,NULL,PennController,68,_Header_,Start,1744114010916,undefined,646,reliable,objective-positive,negative,positive,B,NULL
1744114525,dfb9b0c1d8974c9d8ca8567e8eeae240,PennController,57,0,test_val,NULL,PennController,68,_Header_,End,1744114011167,undefined,646,reliable,objective-positive,negative,positive,B,NULL
1744114525,dfb9b0c1d8974c9d8ca8567e8eeae240,PennController,57,0,test_val,NULL,Selector,unnamed-Selector,Selection,positive,1744114012316,undefined,646,reliable,objective-positive,negative,positive,B,negative;positive
1744114525,dfb9b0c1d8974c9d8ca8567e8eeae240,PennController,57,0,test_val,NULL,PennController,68,_Trial_,End,1744114012317,undefined,646,reliable,objective-positive,negative,positive,B,NULL
1744114525,dfb9b0c1d8974c9d8ca8567e8eeae240,PennController,47,0,test_val,NULL,PennController,58,_Trial_,Start,1744114012318,undefined,583,unstable,objective-negative,negative,positive,B,NULL
1744114525,dfb9b0c1d8974c9d8ca8567e8eeae240,PennController,47,0,test_val,NULL,PennController,58,_Header_,Start,1744114012318,undefined,583,unstable,objective-negative,negative,positive,B,NULL
1744114525,dfb9b0c1d8974c9d8ca8567e8eeae240,PennController,47,0,test_val,NULL,PennController,58,_Header_,End,1744114012568,undefined,583,unstable,objective-negative,negative,positive,B,NULL
1744114525,dfb9b0c1d8974c9d8ca8567e8eeae240,PennController,47,0,test_val,NULL,Selector,unnamed-Selector,Selection,negative,1744114013654,undefined,583,unstable,objective-negative,negative,positive,B,negative;positive
1744114525,dfb9b0c1d8974c9d8ca8567e8eeae240,PennController,47,0,test_val,NULL,PennController,58,_Trial_,End,1744114013654,undefined,583,unstable,objective-negative,negative,positive,B,NULL
1744114525,dfb9b0c1d8974c9d8ca8567e8eeae240,PennController,77,0,test_val,NULL,PennController,88,_Trial_,Start,1744114013654,undefined,625,authentic,subjective-positive,negative,positive,B,NULL
1744114525,dfb9b0c1d8974c9d8ca8567e8eeae240,PennController,77,0,test_val,NULL,PennController,88,_Header_,Start,1744114013654,undefined,625,authentic,subjective-positive,negative,positive,B,NULL
1744114525,dfb9b0c1d8974c9d8ca8567e8eeae240,PennController,77,0,test_val,NULL,PennController,88,_Header_,End,1744114013906,undefined,625,authentic,subjective-positive,negative,positive,B,NULL
1744114525,dfb9b0c1d8974c9d8ca8567e8eeae240,PennController,77,0,test_val,NULL,Selector,unnamed-Selector,Selection,positive,1744114015034,undefined,625,authentic,subjective-positive,negative,positive,B,negative;positive
1744114525,dfb9b0c1d8974c9d8ca8567e8eeae240,PennController,77,0,test_val,NULL,PennController,88,_Trial_,End,1744114015035,undefined,625,authentic,subjective-positive,negative,positive,B,NULL
1744114525,dfb9b0c1d8974c9d8ca8567e8eeae240,PennController,63,0,test_val,NULL,PennController,74,_Trial_,Start,1744114015036,undefined,539,successful,objective-positive,negative,positive,B,NULL
1744114525,dfb9b0c1d8974c9d8ca8567e8eeae240,PennController,63,0,test_val,NULL,PennController,74,_Header_,Start,1744114015036,undefined,539,successful,objective-positive,negative,positive,B,NULL
1744114525,dfb9b0c1d8974c9d8ca8567e8eeae240,PennController,63,0,test_val,NULL,PennController,74,_Header_,End,1744114015288,undefined,539,successful,objective-positive,negative,positive,B,NULL
1744114525,dfb9b0c1d8974c9d8ca8567e8eeae240,PennController,63,0,test_val,NULL,Selector,unnamed-Selector,Selection,positive,1744114016332,undefined,539,successful,objective-positive,negative,positive,B,negative;positive
1744114525,dfb9b0c1d8974c9d8ca8567e8eeae240,PennController,63,0,test_val,NULL,PennController,74,_Trial_,End,1744114016333,undefined,539,successful,objective-positive,negative,positive,B,NULL
1744114525,dfb9b0c1d8974c9d8ca8567e8eeae240,PennController,72,0,test_val,NULL,PennController,83,_Trial_,Start,1744114016334,undefined,592,cynical,subjective-negative,negative,positive,B,NULL
1744114525,dfb9b0c1d8974c9d8ca8567e8eeae240,PennController,72,0,test_val,NULL,PennController,83,_Header_,Start,1744114016334,undefined,592,cynical,subjective-negative,negative,positive,B,NULL
1744114525,dfb9b0c1d8974c9d8ca8567e8eeae240,PennController,72,0,test_val,NULL,PennController,83,_Header_,End,1744114016588,undefined,592,cynical,subjective-negative,negative,positive,B,NULL
1744114525,dfb9b0c1d8974c9d8ca8567e8eeae240,PennController,72,0,test_val,NULL,Selector,unnamed-Selector,Selection,negative,1744114017684,undefined,592,cynical,subjective-negative,negative,positive,B,negative;positive
1744114525,dfb9b0c1d8974c9d8ca8567e8eeae240,PennController,72,0,test_val,NULL,PennController,83,_Trial_,End,1744114017685,undefined,592,cynical,subjective-negative,negative,positive,B,NULL
1744114525,dfb9b0c1d8974c9d8ca8567e8eeae240,PennController,45,0,test_val,NULL,PennController,56,_Trial_,Start,1744114017686,undefined,593,corrupt,objective-negative,negative,positive,B,NULL
1744114525,dfb9b0c1d8974c9d8ca8567e8eeae240,PennController,45,0,test_val,NULL,PennController,56,_Header_,Start,1744114017686,undefined,593,corrupt,objective-negative,negative,positive,B,NULL
1744114525,dfb9b0c1d8974c9d8ca8567e8eeae240,PennController,45,0,test_val,NULL,PennController,56,_Header_,End,1744114017939,undefined,593,corrupt,objective-negative,negative,positive,B,NULL
1744114525,dfb9b0c1d8974c9d8ca8567e8eeae240,PennController,45,0,test_val,NULL,Selector,unnamed-Selector,Selection,negative,1744114019037,undefined,593,corrupt,objective-negative,negative,positive,B,negative;positive
1744114525,dfb9b0c1d8974c9d8ca8567e8eeae240,PennController,45,0,test_val,NULL,PennController,56,_Trial_,End,1744114019038,undefined,593,corrupt,objective-negative,negative,positive,B,NULL
1744114525,dfb9b0c1d8974c9d8ca8567e8eeae240,PennController,61,0,test_val,NULL,PennController,72,_Trial_,Start,1744114019038,undefined,526,healthy,objective-positive,negative,positive,B,NULL
1744114525,dfb9b0c1d8974c9d8ca8567e8eeae240,PennController,61,0,test_val,NULL,PennController,72,_Header_,Start,1744114019038,undefined,526,healthy,objective-positive,negative,positive,B,NULL
1744114525,dfb9b0c1d8974c9d8ca8567e8eeae240,PennController,61,0,test_val,NULL,PennController,72,_Header_,End,1744114019289,undefined,526,healthy,objective-positive,negative,positive,B,NULL
1744114525,dfb9b0c1d8974c9d8ca8567e8eeae240,PennController,61,0,test_val,NULL,Selector,unnamed-Selector,Selection,positive,1744114020318,undefined,526,healthy,objective-positive,negative,positive,B,negative;positive
1744114525,dfb9b0c1d8974c9d8ca8567e8eeae240,PennController,61,0,test_val,NULL,PennController,72,_Trial_,End,1744114020319,undefined,526,healthy,objective-positive,negative,positive,B,NULL
1744114525,dfb9b0c1d8974c9d8ca8567e8eeae240,PennController,81,0,test_val,NULL,PennController,92,_Trial_,Start,1744114020319,undefined,549,optimistic,subjective-positive,negative,positive,B,NULL
1744114525,dfb9b0c1d8974c9d8ca8567e8eeae240,PennController,81,0,test_val,NULL,PennController,92,_Header_,Start,1744114020319,undefined,549,optimistic,subjective-positive,negative,positive,B,NULL
1744114525,dfb9b0c1d8974c9d8ca8567e8eeae240,PennController,81,0,test_val,NULL,PennController,92,_Header_,End,1744114020571,undefined,549,optimistic,subjective-positive,negative,positive,B,NULL
1744114525,dfb9b0c1d8974c9d8ca8567e8eeae240,PennController,81,0,test_val,NULL,Selector,unnamed-Selector,Selection,positive,1744114021623,undefined,549,optimistic,subjective-positive,negative,positive,B,negative;positive
1744114525,dfb9b0c1d8974c9d8ca8567e8eeae240,PennController,81,0,test_val,NULL,PennController,92,_Trial_,End,1744114021623,undefined,549,optimistic,subjective-positive,negative,positive,B,NULL
1744114525,dfb9b0c1d8974c9d8ca8567e8eeae240,PennController,78,0,test_val,NULL,PennController,89,_Trial_,Start,1744114021624,undefined,519,admirable,subjective-positive,negative,positive,B,NULL
1744114525,dfb9b0c1d8974c9d8ca8567e8eeae240,PennController,78,0,test_val,NULL,PennController,89,_Header_,Start,1744114021624,undefined,519,admirable,subjective-positive,negative,positive,B,NULL
1744114525,dfb9b0c1d8974c9d8ca8567e8eeae240,PennController,78,0,test_val,NULL,PennController,89,_Header_,End,1744114021876,undefined,519,admirable,subjective-positive,negative,positive,B,NULL
1744114525,dfb9b0c1d8974c9d8ca8567e8eeae240,PennController,78,0,test_val,NULL,Selector,unnamed-Selector,Selection,positive,1744114022896,undefined,519,admirable,subjective-positive,negative,positive,B,negative;positive
1744114525,dfb9b0c1d8974c9d8ca8567e8eeae240,PennController,78,0,test_val,NULL,PennController,89,_Trial_,End,1744114022896,undefined,519,admirable,subjective-positive,negative,positive,B,NULL
1744114525,dfb9b0c1d8974c9d8ca8567e8eeae240,PennController,55,0,test_val,NULL,PennController,66,_Trial_,Start,1744114022897,undefined,495,accurate,objective-positive,negative,positive,B,NULL
1744114525,dfb9b0c1d8974c9d8ca8567e8eeae240,PennController,55,0,test_val,NULL,PennController,66,_Header_,Start,1744114022897,undefined,495,accurate,objective-positive,negative,positive,B,NULL
1744114525,dfb9b0c1d8974c9d8ca8567e8eeae240,PennController,55,0,test_val,NULL,PennController,66,_Header_,End,1744114023149,undefined,495,accurate,objective-positive,negative,positive,B,NULL
1744114525,dfb9b0c1d8974c9d8ca8567e8eeae240,PennController,55,0,test_val,NULL,Selector,unnamed-Selector,Selection,positive,1744114024148,undefined,495,accurate,objective-positive,negative,positive,B,negative;positive
1744114525,dfb9b0c1d8974c9d8ca8567e8eeae240,PennController,55,0,test_val,NULL,PennController,66,_Trial_,End,1744114024149,undefined,495,accurate,objective-positive,negative,positive,B,NULL
1744114525,dfb9b0c1d8974c9d8ca8567e8eeae240,PennController,69,0,test_val,NULL,PennController,80,_Trial_,Start,1744114024149,undefined,668,impatient,subjective-negative,negative,positive,B,NULL
1744114525,dfb9b0c1d8974c9d8ca8567e8eeae240,PennController,69,0,test_val,NULL,PennController,80,_Header_,Start,1744114024149,undefined,668,impatient,subjective-negative,negative,positive,B,NULL
1744114525,dfb9b0c1d8974c9d8ca8567e8eeae240,PennController,69,0,test_val,NULL,PennController,80,_Header_,End,1744114024400,undefined,668,impatient,subjective-negative,negative,positive,B,NULL
1744114525,dfb9b0c1d8974c9d8ca8567e8eeae240,PennController,69,0,test_val,NULL,Selector,unnamed-Selector,Selection,negative,1744114025570,undefined,668,impatient,subjective-negative,negative,positive,B,negative;positive
1744114525,dfb9b0c1d8974c9d8ca8567e8eeae240,PennController,69,0,test_val,NULL,PennController,80,_Trial_,End,1744114025570,undefined,668,impatient,subjective-negative,negative,positive,B,NULL
1744114525,dfb9b0c1d8974c9d8ca8567e8eeae240,PennController,53,0,test_val,NULL,PennController,64,_Trial_,Start,1744114025571,undefined,545,unfit,objective-negative,negative,positive,B,NULL
1744114525,dfb9b0c1d8974c9d8ca8567e8eeae240,PennController,53,0,test_val,NULL,PennController,64,_Header_,Start,1744114025571,undefined,545,unfit,objective-negative,negative,positive,B,NULL
1744114525,dfb9b0c1d8974c9d8ca8567e8eeae240,PennController,53,0,test_val,NULL,PennController,64,_Header_,End,1744114025824,undefined,545,unfit,objective-negative,negative,positive,B,NULL
1744114525,dfb9b0c1d8974c9d8ca8567e8eeae240,PennController,53,0,test_val,NULL,Selector,unnamed-Selector,Selection,negative,1744114026874,undefined,545,unfit,objective-negative,negative,positive,B,negative;positive
1744114525,dfb9b0c1d8974c9d8ca8567e8eeae240,PennController,53,0,test_val,NULL,PennController,64,_Trial_,End,1744114026875,undefined,545,unfit,objective-negative,negative,positive,B,NULL
1744114525,dfb9b0c1d8974c9d8ca8567e8eeae240,PennController,67,0,test_val,NULL,PennController,78,_Trial_,Start,1744114026875,undefined,519,arrogant,subjective-negative,negative,positive,B,NULL
1744114525,dfb9b0c1d8974c9d8ca8567e8eeae240,PennController,67,0,test_val,NULL,PennController,78,_Header_,Start,1744114026875,undefined,519,arrogant,subjective-negative,negative,positive,B,NULL
1744114525,dfb9b0c1d8974c9d8ca8567e8eeae240,PennController,67,0,test_val,NULL,PennController,78,_Header_,End,1744114027126,undefined,519,arrogant,subjective-negative,negative,positive,B,NULL
1744114525,dfb9b0c1d8974c9d8ca8567e8eeae240,PennController,67,0,test_val,NULL,Selector,unnamed-Selector,Selection,negative,1744114028148,undefined,519,arrogant,subjective-negative,negative,positive,B,negative;positive
1744114525,dfb9b0c1d8974c9d8ca8567e8eeae240,PennController,67,0,test_val,NULL,PennController,78,_Trial_,End,1744114028150,undefined,519,arrogant,subjective-negative,negative,positive,B,NULL
1744114525,dfb9b0c1d8974c9d8ca8567e8eeae240,PennController,58,0,test_val,NULL,PennController,69,_Trial_,Start,1744114028151,undefined,523,effective,objective-positive,negative,positive,B,NULL
1744114525,dfb9b0c1d8974c9d8ca8567e8eeae240,PennController,58,0,test_val,NULL,PennController,69,_Header_,Start,1744114028151,undefined,523,effective,objective-positive,negative,positive,B,NULL
1744114525,dfb9b0c1d8974c9d8ca8567e8eeae240,PennController,58,0,test_val,NULL,PennController,69,_Header_,End,1744114028404,undefined,523,effective,objective-positive,negative,positive,B,NULL
1744114525,dfb9b0c1d8974c9d8ca8567e8eeae240,PennController,58,0,test_val,NULL,Selector,unnamed-Selector,Selection,positive,1744114029431,undefined,523,effective,objective-positive,negative,positive,B,negative;positive
1744114525,dfb9b0c1d8974c9d8ca8567e8eeae240,PennController,58,0,test_val,NULL,PennController,69,_Trial_,End,1744114029432,undefined,523,effective,objective-positive,negative,positive,B,NULL
1744114525,dfb9b0c1d8974c9d8ca8567e8eeae240,PennController,68,0,test_val,NULL,PennController,79,_Trial_,Start,1744114029433,undefined,661,pointless,subjective-negative,negative,positive,B,NULL
1744114525,dfb9b0c1d8974c9d8ca8567e8eeae240,PennController,68,0,test_val,NULL,PennController,79,_Header_,Start,1744114029433,undefined,661,pointless,subjective-negative,negative,positive,B,NULL
1744114525,dfb9b0c1d8974c9d8ca8567e8eeae240,PennController,68,0,test_val,NULL,PennController,79,_Header_,End,1744114029685,undefined,661,pointless,subjective-negative,negative,positive,B,NULL
1744114525,dfb9b0c1d8974c9d8ca8567e8eeae240,PennController,68,0,test_val,NULL,Selector,unnamed-Selector,Selection,negative,1744114030849,undefined,661,pointless,subjective-negative,negative,positive,B,negative;positive
1744114525,dfb9b0c1d8974c9d8ca8567e8eeae240,PennController,68,0,test_val,NULL,PennController,79,_Trial_,End,1744114030850,undefined,661,pointless,subjective-negative,negative,positive,B,NULL
1744114525,dfb9b0c1d8974c9d8ca8567e8eeae240,PennController,73,0,test_val,NULL,PennController,84,_Trial_,Start,1744114030852,undefined,560,disgusting,subjective-negative,negative,positive,B,NULL
1744114525,dfb9b0c1d8974c9d8ca8567e8eeae240,PennController,73,0,test_val,NULL,PennController,84,_Header_,Start,1744114030852,undefined,560,disgusting,subjective-negative,negative,positive,B,NULL
1744114525,dfb9b0c1d8974c9d8ca8567e8eeae240,PennController,73,0,test_val,NULL,PennController,84,_Header_,End,1744114031105,undefined,560,disgusting,subjective-negative,negative,positive,B,NULL
1744114525,dfb9b0c1d8974c9d8ca8567e8eeae240,PennController,73,0,test_val,NULL,Selector,unnamed-Selector,Selection,negative,1744114032166,undefined,560,disgusting,subjective-negative,negative,positive,B,negative;positive
1744114525,dfb9b0c1d8974c9d8ca8567e8eeae240,PennController,73,0,test_val,NULL,PennController,84,_Trial_,End,1744114032167,undefined,560,disgusting,subjective-negative,negative,positive,B,NULL
1744114525,dfb9b0c1d8974c9d8ca8567e8eeae240,PennController,54,0,test_val,NULL,PennController,65,_Trial_,Start,1744114032168,undefined,589,valuable,objective-positive,negative,positive,B,NULL
1744114525,dfb9b0c1d8974c9d8ca8567e8eeae240,PennController,54,0,test_val,NULL,PennController,65,_Header_,Start,1744114032168,undefined,589,valuable,objective-positive,negative,positive,B,NULL
1744114525,dfb9b0c1d8974c9d8ca8567e8eeae240,PennController,54,0,test_val,NULL,PennController,65,_Header_,End,1744114032423,undefined,589,valuable,objective-positive,negative,positive,B,NULL
1744114525,dfb9b0c1d8974c9d8ca8567e8eeae240,PennController,54,0,test_val,NULL,Selector,unnamed-Selector,Selection,positive,1744114033516,undefined,589,valuable,objective-positive,negative,positive,B,negative;positive
1744114525,dfb9b0c1d8974c9d8ca8567e8eeae240,PennController,54,0,test_val,NULL,PennController,65,_Trial_,End,1744114033516,undefined,589,valuable,objective-positive,negative,positive,B,NULL
1744114525,dfb9b0c1d8974c9d8ca8567e8eeae240,PennController,76,0,test_val,NULL,PennController,87,_Trial_,Start,1744114033517,undefined,515,brilliant,subjective-positive,negative,positive,B,NULL
1744114525,dfb9b0c1d8974c9d8ca8567e8eeae240,PennController,76,0,test_val,NULL,PennController,87,_Header_,Start,1744114033517,undefined,515,brilliant,subjective-positive,negative,positive,B,NULL
1744114525,dfb9b0c1d8974c9d8ca8567e8eeae240,PennController,76,0,test_val,NULL,PennController,87,_Header_,End,1744114033768,undefined,515,brilliant,subjective-positive,negative,positive,B,NULL
1744114525,dfb9b0c1d8974c9d8ca8567e8eeae240,PennController,76,0,test_val,NULL,Selector,unnamed-Selector,Selection,positive,1744114034787,undefined,515,brilliant,subjective-positive,negative,positive,B,negative;positive
1744114525,dfb9b0c1d8974c9d8ca8567e8eeae240,PennController,76,0,test_val,NULL,PennController,87,_Trial_,End,1744114034788,undefined,515,brilliant,subjective-positive,negative,positive,B,NULL
1744114525,dfb9b0c1d8974c9d8ca8567e8eeae240,PennController,49,0,test_val,NULL,PennController,60,_Trial_,Start,1744114034788,undefined,628,faulty,objective-negative,negative,positive,B,NULL
1744114525,dfb9b0c1d8974c9d8ca8567e8eeae240,PennController,49,0,test_val,NULL,PennController,60,_Header_,Start,1744114034788,undefined,628,faulty,objective-negative,negative,positive,B,NULL
1744114525,dfb9b0c1d8974c9d8ca8567e8eeae240,PennController,49,0,test_val,NULL,PennController,60,_Header_,End,1744114035041,undefined,628,faulty,objective-negative,negative,positive,B,NULL
1744114525,dfb9b0c1d8974c9d8ca8567e8eeae240,PennController,49,0,test_val,NULL,Selector,unnamed-Selector,Selection,negative,1744114036171,undefined,628,faulty,objective-negative,negative,positive,B,negative;positive
1744114525,dfb9b0c1d8974c9d8ca8567e8eeae240,PennController,49,0,test_val,NULL,PennController,60,_Trial_,End,1744114036172,undefined,628,faulty,objective-negative,negative,positive,B,NULL
1744114525,dfb9b0c1d8974c9d8ca8567e8eeae240,PennController,52,0,test_val,NULL,PennController,63,_Trial_,Start,1744114036173,undefined,708,toxic,objective-negative,negative,positive,B,NULL
1744114525,dfb9b0c1d8974c9d8ca8567e8eeae240,PennController,52,0,test_val,NULL,PennController,63,_Header_,Start,1744114036173,undefined,708,toxic,objective-negative,negative,positive,B,NULL
1744114525,dfb9b0c1d8974c9d8ca8567e8eeae240,PennController,52,0,test_val,NULL,PennController,63,_Header_,End,1744114036423,undefined,708,toxic,objective-negative,negative,positive,B,NULL
1744114525,dfb9b0c1d8974c9d8ca8567e8eeae240,PennController,52,0,test_val,NULL,Selector,unnamed-Selector,Selection,negative,1744114037634,undefined,708,toxic,objective-negative,negative,positive,B,negative;positive
1744114525,dfb9b0c1d8974c9d8ca8567e8eeae240,PennController,52,0,test_val,NULL,PennController,63,_Trial_,End,1744114037635,undefined,708,toxic,objective-negative,negative,positive,B,NULL
1744114525,dfb9b0c1d8974c9d8ca8567e8eeae240,PennController,70,0,test_val,NULL,PennController,81,_Trial_,Start,1744114037636,undefined,579,hostile,subjective-negative,negative,positive,B,NULL
1744114525,dfb9b0c1d8974c9d8ca8567e8eeae240,PennController,70,0,test_val,NULL,PennController,81,_Header_,Start,1744114037636,undefined,579,hostile,subjective-negative,negative,positive,B,NULL
1744114525,dfb9b0c1d8974c9d8ca8567e8eeae240,PennController,70,0,test_val,NULL,PennController,81,_Header_,End,1744114037890,undefined,579,hostile,subjective-negative,negative,positive,B,NULL
1744114525,dfb9b0c1d8974c9d8ca8567e8eeae240,PennController,70,0,test_val,NULL,Selector,unnamed-Selector,Selection,negative,1744114038969,undefined,579,hostile,subjective-negative,negative,positive,B,negative;positive
1744114525,dfb9b0c1d8974c9d8ca8567e8eeae240,PennController,70,0,test_val,NULL,PennController,81,_Trial_,End,1744114038970,undefined,579,hostile,subjective-negative,negative,positive,B,NULL
1744114525,dfb9b0c1d8974c9d8ca8567e8eeae240,PennController,75,0,test_val,NULL,PennController,86,_Trial_,Start,1744114038971,undefined,496,beautiful,subjective-positive,negative,positive,B,NULL
1744114525,dfb9b0c1d8974c9d8ca8567e8eeae240,PennController,75,0,test_val,NULL,PennController,86,_Header_,Start,1744114038971,undefined,496,beautiful,subjective-positive,negative,positive,B,NULL
1744114525,dfb9b0c1d8974c9d8ca8567e8eeae240,PennController,75,0,test_val,NULL,PennController,86,_Header_,End,1744114039221,undefined,496,beautiful,subjective-positive,negative,positive,B,NULL
1744114525,dfb9b0c1d8974c9d8ca8567e8eeae240,PennController,75,0,test_val,NULL,Selector,unnamed-Selector,Selection,positive,1744114040222,undefined,496,beautiful,subjective-positive,negative,positive,B,negative;positive
1744114525,dfb9b0c1d8974c9d8ca8567e8eeae240,PennController,75,0,test_val,NULL,PennController,86,_Trial_,End,1744114040223,undefined,496,beautiful,subjective-positive,negative,positive,B,NULL
1744114525,dfb9b0c1d8974c9d8ca8567e8eeae240,PennController,50,0,test_val,NULL,PennController,61,_Trial_,Start,1744114040224,undefined,524,defective,objective-negative,negative,positive,B,NULL
1744114525,dfb9b0c1d8974c9d8ca8567e8eeae240,PennController,50,0,test_val,NULL,PennController,61,_Header_,Start,1744114040224,undefined,524,defective,objective-negative,negative,positive,B,NULL
1744114525,dfb9b0c1d8974c9d8ca8567e8eeae240,PennController,50,0,test_val,NULL,PennController,61,_Header_,End,1744114040476,undefined,524,defective,objective-negative,negative,positive,B,NULL
1744114525,dfb9b0c1d8974c9d8ca8567e8eeae240,PennController,50,0,test_val,NULL,Selector,unnamed-Selector,Selection,negative,1744114041501,undefined,524,defective,objective-negative,negative,positive,B,negative;positive
1744114525,dfb9b0c1d8974c9d8ca8567e8eeae240,PennController,50,0,test_val,NULL,PennController,61,_Trial_,End,1744114041502,undefined,524,defective,objective-negative,negative,positive,B,NULL
1744114525,dfb9b0c1d8974c9d8ca8567e8eeae240,PennController,74,0,test_val,NULL,PennController,85,_Trial_,Start,1744114041503,undefined,604,delicious,subjective-positive,negative,positive,B,NULL
1744114525,dfb9b0c1d8974c9d8ca8567e8eeae240,PennController,74,0,test_val,NULL,PennController,85,_Header_,Start,1744114041503,undefined,604,delicious,subjective-positive,negative,positive,B,NULL
1744114525,dfb9b0c1d8974c9d8ca8567e8eeae240,PennController,74,0,test_val,NULL,PennController,85,_Header_,End,1744114041755,undefined,604,delicious,subjective-positive,negative,positive,B,NULL
1744114525,dfb9b0c1d8974c9d8ca8567e8eeae240,PennController,74,0,test_val,NULL,Selector,unnamed-Selector,Selection,positive,1744114042862,undefined,604,delicious,subjective-positive,negative,positive,B,negative;positive
1744114525,dfb9b0c1d8974c9d8ca8567e8eeae240,PennController,74,0,test_val,NULL,PennController,85,_Trial_,End,1744114042863,undefined,604,delicious,subjective-positive,negative,positive,B,NULL
1744114525,dfb9b0c1d8974c9d8ca8567e8eeae240,PennController,65,0,test_val,NULL,PennController,76,_Trial_,Start,1744114042864,undefined,558,pathetic,subjective-negative,negative,positive,B,NULL
1744114525,dfb9b0c1d8974c9d8ca8567e8eeae240,PennController,65,0,test_val,NULL,PennController,76,_Header_,Start,1744114042864,undefined,558,pathetic,subjective-negative,negative,positive,B,NULL
1744114525,dfb9b0c1d8974c9d8ca8567e8eeae240,PennController,65,0,test_val,NULL,PennController,76,_Header_,End,1744114043116,undefined,558,pathetic,subjective-negative,negative,positive,B,NULL
1744114525,dfb9b0c1d8974c9d8ca8567e8eeae240,PennController,65,0,test_val,NULL,Selector,unnamed-Selector,Selection,negative,1744114044175,undefined,558,pathetic,subjective-negative,negative,positive,B,negative;positive
1744114525,dfb9b0c1d8974c9d8ca8567e8eeae240,PennController,65,0,test_val,NULL,PennController,76,_Trial_,End,1744114044176,undefined,558,pathetic,subjective-negative,negative,positive,B,NULL
1744114525,dfb9b0c1d8974c9d8ca8567e8eeae240,PennController,82,0,test_val,NULL,PennController,93,_Trial_,Start,1744114044177,undefined,655,thoughtful,subjective-positive,negative,positive,B,NULL
1744114525,dfb9b0c1d8974c9d8ca8567e8eeae240,PennController,82,0,test_val,NULL,PennController,93,_Header_,Start,1744114044177,undefined,655,thoughtful,subjective-positive,negative,positive,B,NULL
1744114525,dfb9b0c1d8974c9d8ca8567e8eeae240,PennController,82,0,test_val,NULL,PennController,93,_Header_,End,1744114044427,undefined,655,thoughtful,subjective-positive,negative,positive,B,NULL
1744114525,dfb9b0c1d8974c9d8ca8567e8eeae240,PennController,82,0,test_val,NULL,Selector,unnamed-Selector,Selection,positive,1744114045584,undefined,655,thoughtful,subjective-positive,negative,positive,B,negative;positive
1744114525,dfb9b0c1d8974c9d8ca8567e8eeae240,PennController,82,0,test_val,NULL,PennController,93,_Trial_,End,1744114045584,undefined,655,thoughtful,subjective-positive,negative,positive,B,NULL
1744114525,dfb9b0c1d8974c9d8ca8567e8eeae240,PennController,79,0,test_val,NULL,PennController,90,_Trial_,Start,1744114045585,undefined,578,refreshing,subjective-positive,negative,positive,B,NULL
1744114525,dfb9b0c1d8974c9d8ca8567e8eeae240,PennController,79,0,test_val,NULL,PennController,90,_Header_,Start,1744114045585,undefined,578,refreshing,subjective-positive,negative,positive,B,NULL
1744114525,dfb9b0c1d8974c9d8ca8567e8eeae240,PennController,79,0,test_val,NULL,PennController,90,_Header_,End,1744114045836,undefined,578,refreshing,subjective-positive,negative,positive,B,NULL
1744114525,dfb9b0c1d8974c9d8ca8567e8eeae240,PennController,79,0,test_val,NULL,Selector,unnamed-Selector,Selection,positive,1744114046918,undefined,578,refreshing,subjective-positive,negative,positive,B,negative;positive
1744114525,dfb9b0c1d8974c9d8ca8567e8eeae240,PennController,79,0,test_val,NULL,PennController,90,_Trial_,End,1744114046919,undefined,578,refreshing,subjective-positive,negative,positive,B,NULL
1744114525,dfb9b0c1d8974c9d8ca8567e8eeae240,PennController,66,0,test_val,NULL,PennController,77,_Trial_,Start,1744114046920,undefined,497,hopeless,subjective-negative,negative,positive,B,NULL
1744114525,dfb9b0c1d8974c9d8ca8567e8eeae240,PennController,66,0,test_val,NULL,PennController,77,_Header_,Start,1744114046920,undefined,497,hopeless,subjective-negative,negative,positive,B,NULL
1744114525,dfb9b0c1d8974c9d8ca8567e8eeae240,PennController,66,0,test_val,NULL,PennController,77,_Header_,End,1744114047170,undefined,497,hopeless,subjective-negative,negative,positive,B,NULL
1744114525,dfb9b0c1d8974c9d8ca8567e8eeae240,PennController,66,0,test_val,NULL,Selector,unnamed-Selector,Selection,positive,1744114048170,undefined,497,hopeless,subjective-negative,negative,positive,B,negative;positive
1744114525,dfb9b0c1d8974c9d8ca8567e8eeae240,PennController,66,0,test_val,NULL,PennController,77,_Trial_,End,1744114048171,undefined,497,hopeless,subjective-negative,negative,positive,B,NULL
1744114525,dfb9b0c1d8974c9d8ca8567e8eeae240,PennController,81,0,test_val,NULL,PennController,92,_Trial_,Start,1744114048172,undefined,653,optimistic,subjective-positive,negative,positive,B,NULL
1744114525,dfb9b0c1d8974c9d8ca8567e8eeae240,PennController,81,0,test_val,NULL,PennController,92,_Header_,Start,1744114048172,undefined,653,optimistic,subjective-positive,negative,positive,B,NULL
1744114525,dfb9b0c1d8974c9d8ca8567e8eeae240,PennController,81,0,test_val,NULL,PennController,92,_Header_,End,1744114048422,undefined,653,optimistic,subjective-positive,negative,positive,B,NULL
1744114525,dfb9b0c1d8974c9d8ca8567e8eeae240,PennController,81,0,test_val,NULL,Selector,unnamed-Selector,Selection,positive,1744114049575,undefined,653,optimistic,subjective-positive,negative,positive,B,negative;positive
1744114525,dfb9b0c1d8974c9d8ca8567e8eeae240,PennController,81,0,test_val,NULL,PennController,92,_Trial_,End,1744114049575,undefined,653,optimistic,subjective-positive,negative,positive,B,NULL
1744114525,dfb9b0c1d8974c9d8ca8567e8eeae240,PennController,70,0,test_val,NULL,PennController,81,_Trial_,Start,1744114049576,undefined,970,hostile,subjective-negative,negative,positive,B,NULL
1744114525,dfb9b0c1d8974c9d8ca8567e8eeae240,PennController,70,0,test_val,NULL,PennController,81,_Header_,Start,1744114049576,undefined,970,hostile,subjective-negative,negative,positive,B,NULL
1744114525,dfb9b0c1d8974c9d8ca8567e8eeae240,PennController,70,0,test_val,NULL,PennController,81,_Header_,End,1744114049827,undefined,970,hostile,subjective-negative,negative,positive,B,NULL
1744114525,dfb9b0c1d8974c9d8ca8567e8eeae240,PennController,70,0,test_val,NULL,Selector,unnamed-Selector,Selection,negative,1744114051299,undefined,970,hostile,subjective-negative,negative,positive,B,negative;positive
1744114525,dfb9b0c1d8974c9d8ca8567e8eeae240,PennController,70,0,test_val,NULL,PennController,81,_Trial_,End,1744114051300,undefined,970,hostile,subjective-negative,negative,positive,B,NULL
1744114525,dfb9b0c1d8974c9d8ca8567e8eeae240,PennController,51,0,test_val,NULL,PennController,62,_Trial_,Start,1744114051301,undefined,568,incurable,objective-negative,negative,positive,B,NULL
1744114525,dfb9b0c1d8974c9d8ca8567e8eeae240,PennController,51,0,test_val,NULL,PennController,62,_Header_,Start,1744114051301,undefined,568,incurable,objective-negative,negative,positive,B,NULL
1744114525,dfb9b0c1d8974c9d8ca8567e8eeae240,PennController,51,0,test_val,NULL,PennController,62,_Header_,End,1744114051554,undefined,568,incurable,objective-negative,negative,positive,B,NULL
1744114525,dfb9b0c1d8974c9d8ca8567e8eeae240,PennController,51,0,test_val,NULL,Selector,unnamed-Selector,Selection,negative,1744114052623,undefined,568,incurable,objective-negative,negative,positive,B,negative;positive
1744114525,dfb9b0c1d8974c9d8ca8567e8eeae240,PennController,51,0,test_val,NULL,PennController,62,_Trial_,End,1744114052624,undefined,568,incurable,objective-negative,negative,positive,B,NULL
1744114525,dfb9b0c1d8974c9d8ca8567e8eeae240,PennController,48,0,test_val,NULL,PennController,59,_Trial_,Start,1744114052625,undefined,589,deadly,objective-negative,negative,positive,B,NULL
1744114525,dfb9b0c1d8974c9d8ca8567e8eeae240,PennController,48,0,test_val,NULL,PennController,59,_Header_,Start,1744114052625,undefined,589,deadly,objective-negative,negative,positive,B,NULL
1744114525,dfb9b0c1d8974c9d8ca8567e8eeae240,PennController,48,0,test_val,NULL,PennController,59,_Header_,End,1744114052876,undefined,589,deadly,objective-negative,negative,positive,B,NULL
1744114525,dfb9b0c1d8974c9d8ca8567e8eeae240,PennController,48,0,test_val,NULL,Selector,unnamed-Selector,Selection,negative,1744114053967,undefined,589,deadly,objective-negative,negative,positive,B,negative;positive
1744114525,dfb9b0c1d8974c9d8ca8567e8eeae240,PennController,48,0,test_val,NULL,PennController,59,_Trial_,End,1744114053968,undefined,589,deadly,objective-negative,negative,positive,B,NULL
1744114525,dfb9b0c1d8974c9d8ca8567e8eeae240,PennController,71,0,test_val,NULL,PennController,82,_Trial_,Start,1744114053968,undefined,803,selfish,subjective-negative,negative,positive,B,NULL
1744114525,dfb9b0c1d8974c9d8ca8567e8eeae240,PennController,71,0,test_val,NULL,PennController,82,_Header_,Start,1744114053968,undefined,803,selfish,subjective-negative,negative,positive,B,NULL
1744114525,dfb9b0c1d8974c9d8ca8567e8eeae240,PennController,71,0,test_val,NULL,PennController,82,_Header_,End,1744114054221,undefined,803,selfish,subjective-negative,negative,positive,B,NULL
1744114525,dfb9b0c1d8974c9d8ca8567e8eeae240,PennController,71,0,test_val,NULL,Selector,unnamed-Selector,Selection,negative,1744114055526,undefined,803,selfish,subjective-negative,negative,positive,B,negative;positive
1744114525,dfb9b0c1d8974c9d8ca8567e8eeae240,PennController,71,0,test_val,NULL,PennController,82,_Trial_,End,1744114055527,undefined,803,selfish,subjective-negative,negative,positive,B,NULL
1744114525,dfb9b0c1d8974c9d8ca8567e8eeae240,PennController,62,0,test_val,NULL,PennController,73,_Trial_,Start,1744114055528,undefined,621,profitable,objective-positive,negative,positive,B,NULL
1744114525,dfb9b0c1d8974c9d8ca8567e8eeae240,PennController,62,0,test_val,NULL,PennController,73,_Header_,Start,1744114055528,undefined,621,profitable,objective-positive,negative,positive,B,NULL
1744114525,dfb9b0c1d8974c9d8ca8567e8eeae240,PennController,62,0,test_val,NULL,PennController,73,_Header_,End,1744114055780,undefined,621,profitable,objective-positive,negative,positive,B,NULL
1744114525,dfb9b0c1d8974c9d8ca8567e8eeae240,PennController,62,0,test_val,NULL,Selector,unnamed-Selector,Selection,positive,1744114056904,undefined,621,profitable,objective-positive,negative,positive,B,negative;positive
1744114525,dfb9b0c1d8974c9d8ca8567e8eeae240,PennController,62,0,test_val,NULL,PennController,73,_Trial_,End,1744114056905,undefined,621,profitable,objective-positive,negative,positive,B,NULL
1744114525,dfb9b0c1d8974c9d8ca8567e8eeae240,PennController,77,0,test_val,NULL,PennController,88,_Trial_,Start,1744114056906,undefined,561,authentic,subjective-positive,negative,positive,B,NULL
1744114525,dfb9b0c1d8974c9d8ca8567e8eeae240,PennController,77,0,test_val,NULL,PennController,88,_Header_,Start,1744114056906,undefined,561,authentic,subjective-positive,negative,positive,B,NULL
1744114525,dfb9b0c1d8974c9d8ca8567e8eeae240,PennController,77,0,test_val,NULL,PennController,88,_Header_,End,1744114057158,undefined,561,authentic,subjective-positive,negative,positive,B,NULL
1744114525,dfb9b0c1d8974c9d8ca8567e8eeae240,PennController,77,0,test_val,NULL,Selector,unnamed-Selector,Selection,positive,1744114058224,undefined,561,authentic,subjective-positive,negative,positive,B,negative;positive
1744114525,dfb9b0c1d8974c9d8ca8567e8eeae240,PennController,77,0,test_val,NULL,PennController,88,_Trial_,End,1744114058225,undefined,561,authentic,subjective-positive,negative,positive,B,NULL
1744114525,dfb9b0c1d8974c9d8ca8567e8eeae240,PennController,76,0,test_val,NULL,PennController,87,_Trial_,Start,1744114058226,undefined,544,brilliant,subjective-positive,negative,positive,B,NULL
1744114525,dfb9b0c1d8974c9d8ca8567e8eeae240,PennController,76,0,test_val,NULL,PennController,87,_Header_,Start,1744114058226,undefined,544,brilliant,subjective-positive,negative,positive,B,NULL
1744114525,dfb9b0c1d8974c9d8ca8567e8eeae240,PennController,76,0,test_val,NULL,PennController,87,_Header_,End,1744114058479,undefined,544,brilliant,subjective-positive,negative,positive,B,NULL
1744114525,dfb9b0c1d8974c9d8ca8567e8eeae240,PennController,76,0,test_val,NULL,Selector,unnamed-Selector,Selection,positive,1744114059525,undefined,544,brilliant,subjective-positive,negative,positive,B,negative;positive
1744114525,dfb9b0c1d8974c9d8ca8567e8eeae240,PennController,76,0,test_val,NULL,PennController,87,_Trial_,End,1744114059526,undefined,544,brilliant,subjective-positive,negative,positive,B,NULL
1744114525,dfb9b0c1d8974c9d8ca8567e8eeae240,PennController,83,0,test_val,NULL,PennController,94,_Trial_,Start,1744114059527,undefined,511,passionate,subjective-positive,negative,positive,B,NULL
1744114525,dfb9b0c1d8974c9d8ca8567e8eeae240,PennController,83,0,test_val,NULL,PennController,94,_Header_,Start,1744114059527,undefined,511,passionate,subjective-positive,negative,positive,B,NULL
1744114525,dfb9b0c1d8974c9d8ca8567e8eeae240,PennController,83,0,test_val,NULL,PennController,94,_Header_,End,1744114059779,undefined,511,passionate,subjective-positive,negative,positive,B,NULL
1744114525,dfb9b0c1d8974c9d8ca8567e8eeae240,PennController,83,0,test_val,NULL,Selector,unnamed-Selector,Selection,positive,1744114060792,undefined,511,passionate,subjective-positive,negative,positive,B,negative;positive
1744114525,dfb9b0c1d8974c9d8ca8567e8eeae240,PennController,83,0,test_val,NULL,PennController,94,_Trial_,End,1744114060793,undefined,511,passionate,subjective-positive,negative,positive,B,NULL
1744114525,dfb9b0c1d8974c9d8ca8567e8eeae240,PennController,74,0,test_val,NULL,PennController,85,_Trial_,Start,1744114060793,undefined,535,delicious,subjective-positive,negative,positive,B,NULL
1744114525,dfb9b0c1d8974c9d8ca8567e8eeae240,PennController,74,0,test_val,NULL,PennController,85,_Header_,Start,1744114060793,undefined,535,delicious,subjective-positive,negative,positive,B,NULL
1744114525,dfb9b0c1d8974c9d8ca8567e8eeae240,PennController,74,0,test_val,NULL,PennController,85,_Header_,End,1744114061044,undefined,535,delicious,subjective-positive,negative,positive,B,NULL
1744114525,dfb9b0c1d8974c9d8ca8567e8eeae240,PennController,74,0,test_val,NULL,Selector,unnamed-Selector,Selection,positive,1744114062083,undefined,535,delicious,subjective-positive,negative,positive,B,negative;positive
1744114525,dfb9b0c1d8974c9d8ca8567e8eeae240,PennController,74,0,test_val,NULL,PennController,85,_Trial_,End,1744114062084,undefined,535,delicious,subjective-positive,negative,positive,B,NULL
1744114525,dfb9b0c1d8974c9d8ca8567e8eeae240,PennController,69,0,test_val,NULL,PennController,80,_Trial_,Start,1744114062085,undefined,636,impatient,subjective-negative,negative,positive,B,NULL
1744114525,dfb9b0c1d8974c9d8ca8567e8eeae240,PennController,69,0,test_val,NULL,PennController,80,_Header_,Start,1744114062085,undefined,636,impatient,subjective-negative,negative,positive,B,NULL
1744114525,dfb9b0c1d8974c9d8ca8567e8eeae240,PennController,69,0,test_val,NULL,PennController,80,_Header_,End,1744114062338,undefined,636,impatient,subjective-negative,negative,positive,B,NULL
1744114525,dfb9b0c1d8974c9d8ca8567e8eeae240,PennController,69,0,test_val,NULL,Selector,unnamed-Selector,Selection,negative,1744114063479,undefined,636,impatient,subjective-negative,negative,positive,B,negative;positive
1744114525,dfb9b0c1d8974c9d8ca8567e8eeae240,PennController,69,0,test_val,NULL,PennController,80,_Trial_,End,1744114063479,undefined,636,impatient,subjective-negative,negative,positive,B,NULL
1744114525,dfb9b0c1d8974c9d8ca8567e8eeae240,PennController,52,0,test_val,NULL,PennController,63,_Trial_,Start,1744114063480,undefined,577,toxic,objective-negative,negative,positive,B,NULL
1744114525,dfb9b0c1d8974c9d8ca8567e8eeae240,PennController,52,0,test_val,NULL,PennController,63,_Header_,Start,1744114063480,undefined,577,toxic,objective-negative,negative,positive,B,NULL
1744114525,dfb9b0c1d8974c9d8ca8567e8eeae240,PennController,52,0,test_val,NULL,PennController,63,_Header_,End,1744114063730,undefined,577,toxic,objective-negative,negative,positive,B,NULL
1744114525,dfb9b0c1d8974c9d8ca8567e8eeae240,PennController,52,0,test_val,NULL,Selector,unnamed-Selector,Selection,negative,1744114064812,undefined,577,toxic,objective-negative,negative,positive,B,negative;positive
1744114525,dfb9b0c1d8974c9d8ca8567e8eeae240,PennController,52,0,test_val,NULL,PennController,63,_Trial_,End,1744114064813,undefined,577,toxic,objective-negative,negative,positive,B,NULL
1744114525,dfb9b0c1d8974c9d8ca8567e8eeae240,PennController,44,0,test_val,NULL,PennController,55,_Trial_,Start,1744114064814,undefined,624,adverse,objective-negative,negative,positive,B,NULL
1744114525,dfb9b0c1d8974c9d8ca8567e8eeae240,PennController,44,0,test_val,NULL,PennController,55,_Header_,Start,1744114064814,undefined,624,adverse,objective-negative,negative,positive,B,NULL
1744114525,dfb9b0c1d8974c9d8ca8567e8eeae240,PennController,44,0,test_val,NULL,PennController,55,_Header_,End,1744114065064,undefined,624,adverse,objective-negative,negative,positive,B,NULL
1744114525,dfb9b0c1d8974c9d8ca8567e8eeae240,PennController,44,0,test_val,NULL,Selector,unnamed-Selector,Selection,negative,1744114066191,undefined,624,adverse,objective-negative,negative,positive,B,negative;positive
1744114525,dfb9b0c1d8974c9d8ca8567e8eeae240,PennController,44,0,test_val,NULL,PennController,55,_Trial_,End,1744114066192,undefined,624,adverse,objective-negative,negative,positive,B,NULL
1744114525,dfb9b0c1d8974c9d8ca8567e8eeae240,PennController,65,0,test_val,NULL,PennController,76,_Trial_,Start,1744114066193,undefined,759,pathetic,subjective-negative,negative,positive,B,NULL
1744114525,dfb9b0c1d8974c9d8ca8567e8eeae240,PennController,65,0,test_val,NULL,PennController,76,_Header_,Start,1744114066193,undefined,759,pathetic,subjective-negative,negative,positive,B,NULL
1744114525,dfb9b0c1d8974c9d8ca8567e8eeae240,PennController,65,0,test_val,NULL,PennController,76,_Header_,End,1744114066445,undefined,759,pathetic,subjective-negative,negative,positive,B,NULL
1744114525,dfb9b0c1d8974c9d8ca8567e8eeae240,PennController,65,0,test_val,NULL,Selector,unnamed-Selector,Selection,negative,1744114067706,undefined,759,pathetic,subjective-negative,negative,positive,B,negative;positive
1744114525,dfb9b0c1d8974c9d8ca8567e8eeae240,PennController,65,0,test_val,NULL,PennController,76,_Trial_,End,1744114067707,undefined,759,pathetic,subjective-negative,negative,positive,B,NULL
1744114525,dfb9b0c1d8974c9d8ca8567e8eeae240,PennController,50,0,test_val,NULL,PennController,61,_Trial_,Start,1744114067708,undefined,526,defective,objective-negative,negative,positive,B,NULL
1744114525,dfb9b0c1d8974c9d8ca8567e8eeae240,PennController,50,0,test_val,NULL,PennController,61,_Header_,Start,1744114067708,undefined,526,defective,objective-negative,negative,positive,B,NULL
1744114525,dfb9b0c1d8974c9d8ca8567e8eeae240,PennController,50,0,test_val,NULL,PennController,61,_Header_,End,1744114067959,undefined,526,defective,objective-negative,negative,positive,B,NULL
1744114525,dfb9b0c1d8974c9d8ca8567e8eeae240,PennController,50,0,test_val,NULL,Selector,unnamed-Selector,Selection,negative,1744114068989,undefined,526,defective,objective-negative,negative,positive,B,negative;positive
1744114525,dfb9b0c1d8974c9d8ca8567e8eeae240,PennController,50,0,test_val,NULL,PennController,61,_Trial_,End,1744114068990,undefined,526,defective,objective-negative,negative,positive,B,NULL
1744114525,dfb9b0c1d8974c9d8ca8567e8eeae240,PennController,66,0,test_val,NULL,PennController,77,_Trial_,Start,1744114068991,undefined,903,hopeless,subjective-negative,negative,positive,B,NULL
1744114525,dfb9b0c1d8974c9d8ca8567e8eeae240,PennController,66,0,test_val,NULL,PennController,77,_Header_,Start,1744114068991,undefined,903,hopeless,subjective-negative,negative,positive,B,NULL
1744114525,dfb9b0c1d8974c9d8ca8567e8eeae240,PennController,66,0,test_val,NULL,PennController,77,_Header_,End,1744114069241,undefined,903,hopeless,subjective-negative,negative,positive,B,NULL
1744114525,dfb9b0c1d8974c9d8ca8567e8eeae240,PennController,66,0,test_val,NULL,Selector,unnamed-Selector,Selection,negative,1744114070645,undefined,903,hopeless,subjective-negative,negative,positive,B,negative;positive
1744114525,dfb9b0c1d8974c9d8ca8567e8eeae240,PennController,66,0,test_val,NULL,PennController,77,_Trial_,End,1744114070645,undefined,903,hopeless,subjective-negative,negative,positive,B,NULL
1744114525,dfb9b0c1d8974c9d8ca8567e8eeae240,PennController,57,0,test_val,NULL,PennController,68,_Trial_,Start,1744114070646,undefined,901,reliable,objective-positive,negative,positive,B,NULL
1744114525,dfb9b0c1d8974c9d8ca8567e8eeae240,PennController,57,0,test_val,NULL,PennController,68,_Header_,Start,1744114070646,undefined,901,reliable,objective-positive,negative,positive,B,NULL
1744114525,dfb9b0c1d8974c9d8ca8567e8eeae240,PennController,57,0,test_val,NULL,PennController,68,_Header_,End,1744114070896,undefined,901,reliable,objective-positive,negative,positive,B,NULL
1744114525,dfb9b0c1d8974c9d8ca8567e8eeae240,PennController,57,0,test_val,NULL,Selector,unnamed-Selector,Selection,positive,1744114072302,undefined,901,reliable,objective-positive,negative,positive,B,negative;positive
1744114525,dfb9b0c1d8974c9d8ca8567e8eeae240,PennController,57,0,test_val,NULL,PennController,68,_Trial_,End,1744114072303,undefined,901,reliable,objective-positive,negative,positive,B,NULL
1744114525,dfb9b0c1d8974c9d8ca8567e8eeae240,PennController,67,0,test_val,NULL,PennController,78,_Trial_,Start,1744114072303,undefined,1169,arrogant,subjective-negative,negative,positive,B,NULL
1744114525,dfb9b0c1d8974c9d8ca8567e8eeae240,PennController,67,0,test_val,NULL,PennController,78,_Header_,Start,1744114072303,undefined,1169,arrogant,subjective-negative,negative,positive,B,NULL
1744114525,dfb9b0c1d8974c9d8ca8567e8eeae240,PennController,67,0,test_val,NULL,PennController,78,_Header_,End,1744114072555,undefined,1169,arrogant,subjective-negative,negative,positive,B,NULL
1744114525,dfb9b0c1d8974c9d8ca8567e8eeae240,PennController,67,0,test_val,NULL,Selector,unnamed-Selector,Selection,negative,1744114074225,undefined,1169,arrogant,subjective-negative,negative,positive,B,negative;positive
1744114525,dfb9b0c1d8974c9d8ca8567e8eeae240,PennController,67,0,test_val,NULL,PennController,78,_Trial_,End,1744114074226,undefined,1169,arrogant,subjective-negative,negative,positive,B,NULL
1744114525,dfb9b0c1d8974c9d8ca8567e8eeae240,PennController,58,0,test_val,NULL,PennController,69,_Trial_,Start,1744114074226,undefined,707,effective,objective-positive,negative,positive,B,NULL
1744114525,dfb9b0c1d8974c9d8ca8567e8eeae240,PennController,58,0,test_val,NULL,PennController,69,_Header_,Start,1744114074226,undefined,707,effective,objective-positive,negative,positive,B,NULL
1744114525,dfb9b0c1d8974c9d8ca8567e8eeae240,PennController,58,0,test_val,NULL,PennController,69,_Header_,End,1744114074477,undefined,707,effective,objective-positive,negative,positive,B,NULL
1744114525,dfb9b0c1d8974c9d8ca8567e8eeae240,PennController,58,0,test_val,NULL,Selector,unnamed-Selector,Selection,positive,1744114075685,undefined,707,effective,objective-positive,negative,positive,B,negative;positive
1744114525,dfb9b0c1d8974c9d8ca8567e8eeae240,PennController,58,0,test_val,NULL,PennController,69,_Trial_,End,1744114075685,undefined,707,effective,objective-positive,negative,positive,B,NULL
1744114525,dfb9b0c1d8974c9d8ca8567e8eeae240,PennController,61,0,test_val,NULL,PennController,72,_Trial_,Start,1744114075686,undefined,641,healthy,objective-positive,negative,positive,B,NULL
1744114525,dfb9b0c1d8974c9d8ca8567e8eeae240,PennController,61,0,test_val,NULL,PennController,72,_Header_,Start,1744114075686,undefined,641,healthy,objective-positive,negative,positive,B,NULL
1744114525,dfb9b0c1d8974c9d8ca8567e8eeae240,PennController,61,0,test_val,NULL,PennController,72,_Header_,End,1744114075936,undefined,641,healthy,objective-positive,negative,positive,B,NULL
1744114525,dfb9b0c1d8974c9d8ca8567e8eeae240,PennController,61,0,test_val,NULL,Selector,unnamed-Selector,Selection,positive,1744114077079,undefined,641,healthy,objective-positive,negative,positive,B,negative;positive
1744114525,dfb9b0c1d8974c9d8ca8567e8eeae240,PennController,61,0,test_val,NULL,PennController,72,_Trial_,End,1744114077080,undefined,641,healthy,objective-positive,negative,positive,B,NULL
1744114525,dfb9b0c1d8974c9d8ca8567e8eeae240,PennController,64,0,test_val,NULL,PennController,75,_Trial_,Start,1744114077081,undefined,726,annoying,subjective-negative,negative,positive,B,NULL
1744114525,dfb9b0c1d8974c9d8ca8567e8eeae240,PennController,64,0,test_val,NULL,PennController,75,_Header_,Start,1744114077081,undefined,726,annoying,subjective-negative,negative,positive,B,NULL
1744114525,dfb9b0c1d8974c9d8ca8567e8eeae240,PennController,64,0,test_val,NULL,PennController,75,_Header_,End,1744114077331,undefined,726,annoying,subjective-negative,negative,positive,B,NULL
1744114525,dfb9b0c1d8974c9d8ca8567e8eeae240,PennController,64,0,test_val,NULL,Selector,unnamed-Selector,Selection,negative,1744114078561,undefined,726,annoying,subjective-negative,negative,positive,B,negative;positive
1744114525,dfb9b0c1d8974c9d8ca8567e8eeae240,PennController,64,0,test_val,NULL,PennController,75,_Trial_,End,1744114078562,undefined,726,annoying,subjective-negative,negative,positive,B,NULL
1744114525,dfb9b0c1d8974c9d8ca8567e8eeae240,PennController,63,0,test_val,NULL,PennController,74,_Trial_,Start,1744114078563,undefined,649,successful,objective-positive,negative,positive,B,NULL
1744114525,dfb9b0c1d8974c9d8ca8567e8eeae240,PennController,63,0,test_val,NULL,PennController,74,_Header_,Start,1744114078563,undefined,649,successful,objective-positive,negative,positive,B,NULL
1744114525,dfb9b0c1d8974c9d8ca8567e8eeae240,PennController,63,0,test_val,NULL,PennController,74,_Header_,End,1744114078815,undefined,649,successful,objective-positive,negative,positive,B,NULL
1744114525,dfb9b0c1d8974c9d8ca8567e8eeae240,PennController,63,0,test_val,NULL,Selector,unnamed-Selector,Selection,positive,1744114079967,undefined,649,successful,objective-positive,negative,positive,B,negative;positive
1744114525,dfb9b0c1d8974c9d8ca8567e8eeae240,PennController,63,0,test_val,NULL,PennController,74,_Trial_,End,1744114079968,undefined,649,successful,objective-positive,negative,positive,B,NULL
1744114525,dfb9b0c1d8974c9d8ca8567e8eeae240,PennController,60,0,test_val,NULL,PennController,71,_Trial_,Start,1744114079969,undefined,632,efficient,objective-positive,negative,positive,B,NULL
1744114525,dfb9b0c1d8974c9d8ca8567e8eeae240,PennController,60,0,test_val,NULL,PennController,71,_Header_,Start,1744114079969,undefined,632,efficient,objective-positive,negative,positive,B,NULL
1744114525,dfb9b0c1d8974c9d8ca8567e8eeae240,PennController,60,0,test_val,NULL,PennController,71,_Header_,End,1744114080223,undefined,632,efficient,objective-positive,negative,positive,B,NULL
1744114525,dfb9b0c1d8974c9d8ca8567e8eeae240,PennController,60,0,test_val,NULL,Selector,unnamed-Selector,Selection,positive,1744114081356,undefined,632,efficient,objective-positive,negative,positive,B,negative;positive
1744114525,dfb9b0c1d8974c9d8ca8567e8eeae240,PennController,60,0,test_val,NULL,PennController,71,_Trial_,End,1744114081357,undefined,632,efficient,objective-positive,negative,positive,B,NULL
1744114525,dfb9b0c1d8974c9d8ca8567e8eeae240,PennController,80,0,test_val,NULL,PennController,91,_Trial_,Start,1744114081358,undefined,594,harmonious,subjective-positive,negative,positive,B,NULL
1744114525,dfb9b0c1d8974c9d8ca8567e8eeae240,PennController,80,0,test_val,NULL,PennController,91,_Header_,Start,1744114081358,undefined,594,harmonious,subjective-positive,negative,positive,B,NULL
1744114525,dfb9b0c1d8974c9d8ca8567e8eeae240,PennController,80,0,test_val,NULL,PennController,91,_Header_,End,1744114081609,undefined,594,harmonious,subjective-positive,negative,positive,B,NULL
1744114525,dfb9b0c1d8974c9d8ca8567e8eeae240,PennController,80,0,test_val,NULL,Selector,unnamed-Selector,Selection,positive,1744114082704,undefined,594,harmonious,subjective-positive,negative,positive,B,negative;positive
1744114525,dfb9b0c1d8974c9d8ca8567e8eeae240,PennController,80,0,test_val,NULL,PennController,91,_Trial_,End,1744114082705,undefined,594,harmonious,subjective-positive,negative,positive,B,NULL
1744114525,dfb9b0c1d8974c9d8ca8567e8eeae240,PennController,46,0,test_val,NULL,PennController,57,_Trial_,Start,1744114082706,undefined,757,bankrupt,objective-negative,negative,positive,B,NULL
1744114525,dfb9b0c1d8974c9d8ca8567e8eeae240,PennController,46,0,test_val,NULL,PennController,57,_Header_,Start,1744114082706,undefined,757,bankrupt,objective-negative,negative,positive,B,NULL
1744114525,dfb9b0c1d8974c9d8ca8567e8eeae240,PennController,46,0,test_val,NULL,PennController,57,_Header_,End,1744114082957,undefined,757,bankrupt,objective-negative,negative,positive,B,NULL
1744114525,dfb9b0c1d8974c9d8ca8567e8eeae240,PennController,46,0,test_val,NULL,Selector,unnamed-Selector,Selection,negative,1744114084218,undefined,757,bankrupt,objective-negative,negative,positive,B,negative;positive
1744114525,dfb9b0c1d8974c9d8ca8567e8eeae240,PennController,46,0,test_val,NULL,PennController,57,_Trial_,End,1744114084218,undefined,757,bankrupt,objective-negative,negative,positive,B,NULL
1744114525,dfb9b0c1d8974c9d8ca8567e8eeae240,PennController,75,0,test_val,NULL,PennController,86,_Trial_,Start,1744114084219,undefined,584,beautiful,subjective-positive,negative,positive,B,NULL
1744114525,dfb9b0c1d8974c9d8ca8567e8eeae240,PennController,75,0,test_val,NULL,PennController,86,_Header_,Start,1744114084219,undefined,584,beautiful,subjective-positive,negative,positive,B,NULL
1744114525,dfb9b0c1d8974c9d8ca8567e8eeae240,PennController,75,0,test_val,NULL,PennController,86,_Header_,End,1744114084471,undefined,584,beautiful,subjective-positive,negative,positive,B,NULL
1744114525,dfb9b0c1d8974c9d8ca8567e8eeae240,PennController,75,0,test_val,NULL,Selector,unnamed-Selector,Selection,positive,1744114085560,undefined,584,beautiful,subjective-positive,negative,positive,B,negative;positive
1744114525,dfb9b0c1d8974c9d8ca8567e8eeae240,PennController,75,0,test_val,NULL,PennController,86,_Trial_,End,1744114085560,undefined,584,beautiful,subjective-positive,negative,positive,B,NULL
1744114525,dfb9b0c1d8974c9d8ca8567e8eeae240,PennController,82,0,test_val,NULL,PennController,93,_Trial_,Start,1744114085561,undefined,610,thoughtful,subjective-positive,negative,positive,B,NULL
1744114525,dfb9b0c1d8974c9d8ca8567e8eeae240,PennController,82,0,test_val,NULL,PennController,93,_Header_,Start,1744114085561,undefined,610,thoughtful,subjective-positive,negative,positive,B,NULL
1744114525,dfb9b0c1d8974c9d8ca8567e8eeae240,PennController,82,0,test_val,NULL,PennController,93,_Header_,End,1744114085814,undefined,610,thoughtful,subjective-positive,negative,positive,B,NULL
1744114525,dfb9b0c1d8974c9d8ca8567e8eeae240,PennController,82,0,test_val,NULL,Selector,unnamed-Selector,Selection,positive,1744114086926,undefined,610,thoughtful,subjective-positive,negative,positive,B,negative;positive
1744114525,dfb9b0c1d8974c9d8ca8567e8eeae240,PennController,82,0,test_val,NULL,PennController,93,_Trial_,End,1744114086927,undefined,610,thoughtful,subjective-positive,negative,positive,B,NULL
1744114525,dfb9b0c1d8974c9d8ca8567e8eeae240,PennController,72,0,test_val,NULL,PennController,83,_Trial_,Start,1744114086928,undefined,560,cynical,subjective-negative,negative,positive,B,NULL
1744114525,dfb9b0c1d8974c9d8ca8567e8eeae240,PennController,72,0,test_val,NULL,PennController,83,_Header_,Start,1744114086928,undefined,560,cynical,subjective-negative,negative,positive,B,NULL
1744114525,dfb9b0c1d8974c9d8ca8567e8eeae240,PennController,72,0,test_val,NULL,PennController,83,_Header_,End,1744114087180,undefined,560,cynical,subjective-negative,negative,positive,B,NULL
1744114525,dfb9b0c1d8974c9d8ca8567e8eeae240,PennController,72,0,test_val,NULL,Selector,unnamed-Selector,Selection,negative,1744114088244,undefined,560,cynical,subjective-negative,negative,positive,B,negative;positive
1744114525,dfb9b0c1d8974c9d8ca8567e8eeae240,PennController,72,0,test_val,NULL,PennController,83,_Trial_,End,1744114088245,undefined,560,cynical,subjective-negative,negative,positive,B,NULL
1744114525,dfb9b0c1d8974c9d8ca8567e8eeae240,PennController,47,0,test_val,NULL,PennController,58,_Trial_,Start,1744114088245,undefined,584,unstable,objective-negative,negative,positive,B,NULL
1744114525,dfb9b0c1d8974c9d8ca8567e8eeae240,PennController,47,0,test_val,NULL,PennController,58,_Header_,Start,1744114088245,undefined,584,unstable,objective-negative,negative,positive,B,NULL
1744114525,dfb9b0c1d8974c9d8ca8567e8eeae240,PennController,47,0,test_val,NULL,PennController,58,_Header_,End,1744114088499,undefined,584,unstable,objective-negative,negative,positive,B,NULL
1744114525,dfb9b0c1d8974c9d8ca8567e8eeae240,PennController,47,0,test_val,NULL,Selector,unnamed-Selector,Selection,negative,1744114089585,undefined,584,unstable,objective-negative,negative,positive,B,negative;positive
1744114525,dfb9b0c1d8974c9d8ca8567e8eeae240,PennController,47,0,test_val,NULL,PennController,58,_Trial_,End,1744114089586,undefined,584,unstable,objective-negative,negative,positive,B,NULL
1744114525,dfb9b0c1d8974c9d8ca8567e8eeae240,PennController,56,0,test_val,NULL,PennController,67,_Trial_,Start,1744114089586,undefined,633,accurate,objective-positive,negative,positive,B,NULL
1744114525,dfb9b0c1d8974c9d8ca8567e8eeae240,PennController,56,0,test_val,NULL,PennController,67,_Header_,Start,1744114089586,undefined,633,accurate,objective-positive,negative,positive,B,NULL
1744114525,dfb9b0c1d8974c9d8ca8567e8eeae240,PennController,56,0,test_val,NULL,PennController,67,_Header_,End,1744114089841,undefined,633,accurate,objective-positive,negative,positive,B,NULL
1744114525,dfb9b0c1d8974c9d8ca8567e8eeae240,PennController,56,0,test_val,NULL,Selector,unnamed-Selector,Selection,positive,1744114090974,undefined,633,accurate,objective-positive,negative,positive,B,negative;positive
1744114525,dfb9b0c1d8974c9d8ca8567e8eeae240,PennController,56,0,test_val,NULL,PennController,67,_Trial_,End,1744114090974,undefined,633,accurate,objective-positive,negative,positive,B,NULL
1744114525,dfb9b0c1d8974c9d8ca8567e8eeae240,PennController,68,0,test_val,NULL,PennController,79,_Trial_,Start,1744114090975,undefined,883,pointless,subjective-negative,negative,positive,B,NULL
1744114525,dfb9b0c1d8974c9d8ca8567e8eeae240,PennController,68,0,test_val,NULL,PennController,79,_Header_,Start,1744114090975,undefined,883,pointless,subjective-negative,negative,positive,B,NULL
1744114525,dfb9b0c1d8974c9d8ca8567e8eeae240,PennController,68,0,test_val,NULL,PennController,79,_Header_,End,1744114091228,undefined,883,pointless,subjective-negative,negative,positive,B,NULL
1744114525,dfb9b0c1d8974c9d8ca8567e8eeae240,PennController,68,0,test_val,NULL,Selector,unnamed-Selector,Selection,negative,1744114092611,undefined,883,pointless,subjective-negative,negative,positive,B,negative;positive
1744114525,dfb9b0c1d8974c9d8ca8567e8eeae240,PennController,68,0,test_val,NULL,PennController,79,_Trial_,End,1744114092612,undefined,883,pointless,subjective-negative,negative,positive,B,NULL
1744114525,dfb9b0c1d8974c9d8ca8567e8eeae240,PennController,73,0,test_val,NULL,PennController,84,_Trial_,Start,1744114092613,undefined,620,disgusting,subjective-negative,negative,positive,B,NULL
1744114525,dfb9b0c1d8974c9d8ca8567e8eeae240,PennController,73,0,test_val,NULL,PennController,84,_Header_,Start,1744114092613,undefined,620,disgusting,subjective-negative,negative,positive,B,NULL
1744114525,dfb9b0c1d8974c9d8ca8567e8eeae240,PennController,73,0,test_val,NULL,PennController,84,_Header_,End,1744114092866,undefined,620,disgusting,subjective-negative,negative,positive,B,NULL
1744114525,dfb9b0c1d8974c9d8ca8567e8eeae240,PennController,73,0,test_val,NULL,Selector,unnamed-Selector,Selection,negative,1744114093988,undefined,620,disgusting,subjective-negative,negative,positive,B,negative;positive
1744114525,dfb9b0c1d8974c9d8ca8567e8eeae240,PennController,73,0,test_val,NULL,PennController,84,_Trial_,End,1744114093989,undefined,620,disgusting,subjective-negative,negative,positive,B,NULL
1744114525,dfb9b0c1d8974c9d8ca8567e8eeae240,PennController,78,0,test_val,NULL,PennController,89,_Trial_,Start,1744114093990,undefined,672,admirable,subjective-positive,negative,positive,B,NULL
1744114525,dfb9b0c1d8974c9d8ca8567e8eeae240,PennController,78,0,test_val,NULL,PennController,89,_Header_,Start,1744114093990,undefined,672,admirable,subjective-positive,negative,positive,B,NULL
1744114525,dfb9b0c1d8974c9d8ca8567e8eeae240,PennController,78,0,test_val,NULL,PennController,89,_Header_,End,1744114094242,undefined,672,admirable,subjective-positive,negative,positive,B,NULL
1744114525,dfb9b0c1d8974c9d8ca8567e8eeae240,PennController,78,0,test_val,NULL,Selector,unnamed-Selector,Selection,positive,1744114095415,undefined,672,admirable,subjective-positive,negative,positive,B,negative;positive
1744114525,dfb9b0c1d8974c9d8ca8567e8eeae240,PennController,78,0,test_val,NULL,PennController,89,_Trial_,End,1744114095416,undefined,672,admirable,subjective-positive,negative,positive,B,NULL
1744114525,dfb9b0c1d8974c9d8ca8567e8eeae240,PennController,53,0,test_val,NULL,PennController,64,_Trial_,Start,1744114095417,undefined,574,unfit,objective-negative,negative,positive,B,NULL
1744114525,dfb9b0c1d8974c9d8ca8567e8eeae240,PennController,53,0,test_val,NULL,PennController,64,_Header_,Start,1744114095417,undefined,574,unfit,objective-negative,negative,positive,B,NULL
1744114525,dfb9b0c1d8974c9d8ca8567e8eeae240,PennController,53,0,test_val,NULL,PennController,64,_Header_,End,1744114095668,undefined,574,unfit,objective-negative,negative,positive,B,NULL
1744114525,dfb9b0c1d8974c9d8ca8567e8eeae240,PennController,53,0,test_val,NULL,Selector,unnamed-Selector,Selection,negative,1744114096742,undefined,574,unfit,objective-negative,negative,positive,B,negative;positive
1744114525,dfb9b0c1d8974c9d8ca8567e8eeae240,PennController,53,0,test_val,NULL,PennController,64,_Trial_,End,1744114096742,undefined,574,unfit,objective-negative,negative,positive,B,NULL
1744114525,dfb9b0c1d8974c9d8ca8567e8eeae240,PennController,79,0,test_val,NULL,PennController,90,_Trial_,Start,1744114096743,undefined,601,refreshing,subjective-positive,negative,positive,B,NULL
1744114525,dfb9b0c1d8974c9d8ca8567e8eeae240,PennController,79,0,test_val,NULL,PennController,90,_Header_,Start,1744114096743,undefined,601,refreshing,subjective-positive,negative,positive,B,NULL
1744114525,dfb9b0c1d8974c9d8ca8567e8eeae240,PennController,79,0,test_val,NULL,PennController,90,_Header_,End,1744114096993,undefined,601,refreshing,subjective-positive,negative,positive,B,NULL
1744114525,dfb9b0c1d8974c9d8ca8567e8eeae240,PennController,79,0,test_val,NULL,Selector,unnamed-Selector,Selection,positive,1744114098095,undefined,601,refreshing,subjective-positive,negative,positive,B,negative;positive
1744114525,dfb9b0c1d8974c9d8ca8567e8eeae240,PennController,79,0,test_val,NULL,PennController,90,_Trial_,End,1744114098096,undefined,601,refreshing,subjective-positive,negative,positive,B,NULL
1744114525,dfb9b0c1d8974c9d8ca8567e8eeae240,PennController,49,0,test_val,NULL,PennController,60,_Trial_,Start,1744114098097,undefined,577,faulty,objective-negative,negative,positive,B,NULL
1744114525,dfb9b0c1d8974c9d8ca8567e8eeae240,PennController,49,0,test_val,NULL,PennController,60,_Header_,Start,1744114098097,undefined,577,faulty,objective-negative,negative,positive,B,NULL
1744114525,dfb9b0c1d8974c9d8ca8567e8eeae240,PennController,49,0,test_val,NULL,PennController,60,_Header_,End,1744114098349,undefined,577,faulty,objective-negative,negative,positive,B,NULL
1744114525,dfb9b0c1d8974c9d8ca8567e8eeae240,PennController,49,0,test_val,NULL,Selector,unnamed-Selector,Selection,negative,1744114099428,undefined,577,faulty,objective-negative,negative,positive,B,negative;positive
1744114525,dfb9b0c1d8974c9d8ca8567e8eeae240,PennController,49,0,test_val,NULL,PennController,60,_Trial_,End,1744114099428,undefined,577,faulty,objective-negative,negative,positive,B,NULL
