"","X","ID.true","Word","Label","ConcValCombo","Task","Group","Response","Accuracy","EventTime","Value","RT","ReactionTime","Key_value_F","Key_value_J","Comments","LogReactionTime","LogRT","TrialNumber","Version","WhoseList","X.1","BlockOrder","Switch","Response.n","CorrectedResponse","Difference","Concrete","Valence","MeanAccuracy"
"1",7,"5fb9eb323531776e460fe5e0","sail","test","abstract-positive","Valence","positive","positive",1,1727876677299,"positive",2507,1744,"abstract-positive","negative","negative;positive",7.46393660446893,7.82684209815829,7,"Pilot1","Morgan1",NA,NA,NA,NA,NA,0.1,0.85,0.95,0.9
"2",14,"5fb9eb323531776e460fe5e0","running","test","abstract-positive","Valence","positive","negative",0,1727876691362,"negative",2079,1310,"abstract-positive","negative","negative;positive",7.1777824161952,7.63964228785801,14,"Pilot1","Morgan1",NA,NA,NA,NA,NA,0,0.9,0.9,0.9
"3",15,"5fb9eb323531776e460fe5e0","distrust","test","concrete-negative","Valence","positive","negative",1,1727876693344,"negative",1979,1220,"concrete-negative","negative","negative;positive",7.1066061377273,7.59034694560257,15,"Pilot1","Morgan1",NA,NA,NA,NA,NA,0.0326446280991735,0.95,0.917355371900826,0.933677685950413
"4",16,"5fb9eb323531776e460fe5e0","discourage","test","concrete-negative","Valence","positive","negative",1,1727876694841,"negative",1493,722,"concrete-negative","negative","negative;positive",6.58202513889283,7.30854279753919,16,"Pilot1","Morgan1",NA,NA,NA,NA,NA,0.0499999999999999,0.95,0.9,0.925
"5",26,"5fb9eb323531776e460fe5e0","exploit","test","concrete-negative","Valence","positive","negative",1,1727876713361,"negative",1876,1109,"concrete-negative","negative","negative;positive",7.01121398735037,7.53689712956617,26,"Pilot1","Morgan1",NA,NA,NA,NA,NA,0.1,0.85,0.95,0.9
"6",27,"5fb9eb323531776e460fe5e0","consider","test","concrete-positive","Valence","positive","positive",1,1727876715347,"positive",1983,1228,"concrete-positive","negative","negative;positive",7.11314210870709,7.5923661285198,27,"Pilot1","Morgan1",NA,NA,NA,NA,NA,0,0.9,0.9,0.9
"7",28,"5fb9eb323531776e460fe5e0","beware","test","concrete-negative","Valence","positive","negative",1,1727876716843,"negative",1494,725,"concrete-negative","negative","negative;positive",6.58617165485467,7.30921236569276,28,"Pilot1","Morgan1",NA,NA,NA,NA,NA,0.05,0.9,0.85,0.875
"8",32,"5fb9eb323531776e460fe5e0","behold","test","concrete-positive","Valence","positive","positive",1,1727876725424,"positive",2485,1715,"concrete-positive","negative","negative;positive",7.44716835960004,7.81802793853073,32,"Pilot1","Morgan1",NA,NA,NA,NA,NA,0.15,0.8,0.95,0.875
"9",35,"5fb9eb323531776e460fe5e0","qualify","test","concrete-positive","Valence","positive","positive",1,1727876731252,"positive",1963,1193,"concrete-positive","negative","negative;positive",7.08422642209792,7.58222919427646,35,"Pilot1","Morgan1",NA,NA,NA,NA,NA,0.0499999999999999,0.9,0.95,0.925
"10",37,"5fb9eb323531776e460fe5e0","hope","test","concrete-positive","Valence","positive","positive",1,1727876734693,"positive",1504,746,"concrete-positive","negative","negative;positive",6.61472560020376,7.31588350450979,37,"Pilot1","Morgan1",NA,NA,NA,NA,NA,0.0475409836065575,0.9,0.852459016393443,0.876229508196721
"11",40,"5fb9eb323531776e460fe5e0","feeling","test","concrete-positive","Valence","positive","positive",1,1727876740457,"positive",1839,1076,"concrete-positive","negative","negative;positive",6.98100574072173,7.51697722460432,40,"Pilot1","Morgan1",NA,NA,NA,NA,NA,0.15,0.8,0.95,0.875
"12",41,"5c205371da51990001e17313","feeling","test","concrete-positive","Valence","positive","positive",1,1727875885400,"positive",1796,1038,"concrete-positive","negative","negative;positive",6.94505106372583,7.49331724886215,1,"Pilot1","Morgan1",NA,NA,NA,NA,NA,0.15,0.8,0.95,0.875
"13",46,"5c205371da51990001e17313","behold","test","concrete-positive","Valence","positive","positive",1,1727875892895,"positive",1914,1149,"concrete-positive","negative","negative;positive",7.04664727784876,7.5569505720129,6,"Pilot1","Morgan1",NA,NA,NA,NA,NA,0.15,0.8,0.95,0.875
"14",47,"5c205371da51990001e17313","consider","test","concrete-positive","Valence","positive","positive",1,1727875896204,"positive",3303,2545,"concrete-positive","negative","negative;positive",7.84188592898462,8.10258642539079,7,"Pilot1","Morgan1",NA,NA,NA,NA,NA,0,0.9,0.9,0.9
"15",54,"5c205371da51990001e17313","hope","test","concrete-positive","Valence","positive","positive",1,1727875907037,"positive",1460,703,"concrete-positive","negative","negative;positive",6.55535689181067,7.28619171470238,14,"Pilot1","Morgan1",NA,NA,NA,NA,NA,0.0475409836065575,0.9,0.852459016393443,0.876229508196721
"16",59,"5c205371da51990001e17313","beware","test","concrete-negative","Valence","positive","negative",1,1727875914059,"negative",1335,571,"concrete-negative","negative","negative;positive",6.34738920965601,7.19668657083435,19,"Pilot1","Morgan1",NA,NA,NA,NA,NA,0.05,0.9,0.85,0.875
"17",62,"5c205371da51990001e17313","exploit","test","concrete-negative","Valence","positive","negative",1,1727875919064,"negative",1563,801,"concrete-negative","negative","negative;positive",6.68586094706836,7.35436233042148,22,"Pilot1","Morgan1",NA,NA,NA,NA,NA,0.1,0.85,0.95,0.9
"18",63,"5c205371da51990001e17313","qualify","test","concrete-positive","Valence","positive","positive",1,1727875920696,"positive",1627,873,"concrete-positive","negative","negative;positive",6.7719355558396,7.39449310721904,23,"Pilot1","Morgan1",NA,NA,NA,NA,NA,0.0499999999999999,0.9,0.95,0.925
"19",70,"5c205371da51990001e17313","running","test","abstract-positive","Valence","positive","positive",1,1727875931635,"positive",1434,676,"abstract-positive","negative","negative;positive",6.51619307604296,7.26822302115957,30,"Pilot1","Morgan1",NA,NA,NA,NA,NA,0,0.9,0.9,0.9
"20",73,"5c205371da51990001e17313","discourage","test","concrete-negative","Valence","positive","negative",1,1727875935720,"negative",1260,498,"concrete-negative","negative","negative;positive",6.21060007702465,7.13886699994552,33,"Pilot1","Morgan1",NA,NA,NA,NA,NA,0.0499999999999999,0.95,0.9,0.925
"21",77,"5c205371da51990001e17313","distrust","test","concrete-negative","Valence","positive","negative",1,1727875941666,"negative",1344,585,"concrete-negative","negative","negative;positive",6.37161184723186,7.20340552108309,37,"Pilot1","Morgan1",NA,NA,NA,NA,NA,0.0326446280991735,0.95,0.917355371900826,0.933677685950413
"22",79,"5c205371da51990001e17313","sail","test","abstract-positive","Valence","positive","positive",1,1727875944637,"positive",1603,839,"abstract-positive","negative","negative;positive",6.73221070646721,7.37963215260955,39,"Pilot1","Morgan1",NA,NA,NA,NA,NA,0.1,0.85,0.95,0.9
"23",82,"63f779382e81070cd6f77b5e","qualify","test","concrete-positive","Valence","positive","positive",1,1727879478935,"positive",1598,839,"concrete-positive","negative","negative;positive",6.73221070646721,7.37650812632622,2,"Pilot1","Morgan1",NA,NA,NA,NA,NA,0.0499999999999999,0.9,0.95,0.925
"24",92,"63f779382e81070cd6f77b5e","distrust","test","concrete-negative","Valence","positive","negative",1,1727879495145,"negative",1581,828,"concrete-negative","negative","negative;positive",6.71901315438526,7.36581283720947,12,"Pilot1","Morgan1",NA,NA,NA,NA,NA,0.0326446280991735,0.95,0.917355371900826,0.933677685950413
"25",94,"63f779382e81070cd6f77b5e","hope","test","concrete-positive","Valence","positive","positive",1,1727879498398,"positive",1302,547,"concrete-positive","negative","negative;positive",6.30444880242198,7.17165682276851,14,"Pilot1","Morgan1",NA,NA,NA,NA,NA,0.0475409836065575,0.9,0.852459016393443,0.876229508196721
"26",96,"63f779382e81070cd6f77b5e","sail","test","abstract-positive","Valence","positive","positive",1,1727879501673,"positive",1837,1081,"abstract-positive","negative","negative;positive",6.98564181763921,7.51588908521513,16,"Pilot1","Morgan1",NA,NA,NA,NA,NA,0.1,0.85,0.95,0.9
"27",102,"63f779382e81070cd6f77b5e","beware","test","concrete-negative","Valence","positive","negative",1,1727879512235,"negative",1398,636,"concrete-negative","negative","negative;positive",6.45519856334012,7.24279792279376,22,"Pilot1","Morgan1",NA,NA,NA,NA,NA,0.05,0.9,0.85,0.875
"28",104,"63f779382e81070cd6f77b5e","discourage","test","concrete-negative","Valence","positive","negative",1,1727879514682,"negative",1198,440,"concrete-negative","negative","negative;positive",6.08677472691231,7.08840877867539,24,"Pilot1","Morgan1",NA,NA,NA,NA,NA,0.0499999999999999,0.95,0.9,0.925
"29",107,"63f779382e81070cd6f77b5e","behold","test","concrete-positive","Valence","positive","positive",1,1727879519207,"positive",1804,1052,"concrete-positive","negative","negative;positive",6.95844839329766,7.49776170062257,27,"Pilot1","Morgan1",NA,NA,NA,NA,NA,0.15,0.8,0.95,0.875
"30",110,"63f779382e81070cd6f77b5e","running","test","abstract-positive","Valence","positive","positive",1,1727879523480,"positive",1328,573,"abstract-positive","negative","negative;positive",6.35088571671474,7.19142933003638,30,"Pilot1","Morgan1",NA,NA,NA,NA,NA,0,0.9,0.9,0.9
"31",112,"63f779382e81070cd6f77b5e","consider","test","concrete-positive","Valence","positive","positive",1,1727879526712,"positive",1666,907,"concrete-positive","negative","negative;positive",6.81014245011514,7.41818082272679,32,"Pilot1","Morgan1",NA,NA,NA,NA,NA,0,0.9,0.9,0.9
"32",114,"63f779382e81070cd6f77b5e","feeling","test","concrete-positive","Valence","positive","positive",1,1727879529977,"positive",1867,1107,"concrete-positive","negative","negative;positive",7.00940893270864,7.53208814354172,34,"Pilot1","Morgan1",NA,NA,NA,NA,NA,0.15,0.8,0.95,0.875
"33",118,"63f779382e81070cd6f77b5e","exploit","test","concrete-negative","Valence","positive","negative",1,1727879536896,"negative",1353,596,"concrete-negative","negative","negative;positive",6.39024066706535,7.21007962817079,38,"Pilot1","Morgan1",NA,NA,NA,NA,NA,0.1,0.85,0.95,0.9
"34",123,"5de985cf1be52f0a75357332","consider","test","concrete-positive","Concrete","concrete","concrete",1,1727861660400,"concrete",1673,915,"concrete-positive","abstract","concrete;abstract",6.81892406527552,7.42237370098682,3,"Pilot1","Morgan1",NA,NA,NA,NA,NA,0,0.9,0.9,0.9
"35",124,"5de985cf1be52f0a75357332","discourage","test","concrete-negative","Concrete","concrete","concrete",1,1727861662401,"concrete",1999,1242,"concrete-negative","abstract","concrete;abstract",7.12447826249342,7.6004023345004,4,"Pilot1","Morgan1",NA,NA,NA,NA,NA,0.0499999999999999,0.95,0.9,0.925
"36",129,"5de985cf1be52f0a75357332","exploit","test","concrete-negative","Concrete","concrete","concrete",1,1727861673796,"concrete",2743,1988,"concrete-negative","abstract","concrete;abstract",7.59488438721652,7.9168074909376,9,"Pilot1","Morgan1",NA,NA,NA,NA,NA,0.1,0.85,0.95,0.9
"37",136,"5de985cf1be52f0a75357332","sail","test","abstract-positive","Concrete","concrete","abstract",1,1727861687899,"abstract",1943,1188,"abstract-positive","abstract","concrete;abstract",7.08002649992259,7.57198844937744,16,"Pilot1","Morgan1",NA,NA,NA,NA,NA,0.1,0.85,0.95,0.9
"38",139,"5de985cf1be52f0a75357332","feeling","test","concrete-positive","Concrete","concrete","concrete",1,1727861694006,"concrete",1557,801,"concrete-positive","abstract","concrete;abstract",6.68586094706836,7.350516171834,19,"Pilot1","Morgan1",NA,NA,NA,NA,NA,0.15,0.8,0.95,0.875
"39",140,"5de985cf1be52f0a75357332","hope","test","concrete-positive","Concrete","concrete","concrete",1,1727861695834,"concrete",1827,1072,"concrete-positive","abstract","concrete;abstract",6.97728134163075,7.51043055637801,20,"Pilot1","Morgan1",NA,NA,NA,NA,NA,0.0475409836065575,0.9,0.852459016393443,0.876229508196721
"40",143,"5de985cf1be52f0a75357332","running","test","abstract-positive","Concrete","concrete","abstract",1,1727861701332,"abstract",1812,1056,"abstract-positive","abstract","concrete;abstract",6.96224346426621,7.50218648660292,23,"Pilot1","Morgan1",NA,NA,NA,NA,NA,0,0.9,0.9,0.9
"41",146,"5de985cf1be52f0a75357332","beware","test","concrete-negative","Concrete","concrete","concrete",1,1727861706925,"concrete",1798,1046,"concrete-negative","abstract","concrete;abstract",6.95272864462487,7.49443021503157,26,"Pilot1","Morgan1",NA,NA,NA,NA,NA,0.05,0.9,0.85,0.875
"42",147,"5de985cf1be52f0a75357332","behold","test","concrete-positive","Concrete","concrete","abstract",0,1727861708823,"abstract",1897,1143,"concrete-positive","abstract","concrete;abstract",7.04141166379481,7.54802896993501,27,"Pilot1","Morgan1",NA,NA,NA,NA,NA,0.15,0.8,0.95,0.875
"43",153,"5de985cf1be52f0a75357332","distrust","test","concrete-negative","Concrete","concrete","concrete",1,1727861720949,"concrete",1628,874,"concrete-negative","abstract","concrete;abstract",6.77308037565554,7.39510754656249,33,"Pilot1","Morgan1",NA,NA,NA,NA,NA,0.0326446280991735,0.95,0.917355371900826,0.933677685950413
"44",154,"5de985cf1be52f0a75357332","qualify","test","concrete-positive","Concrete","concrete","concrete",1,1727861722693,"concrete",1743,987,"concrete-positive","abstract","concrete;abstract",6.89467003943348,7.46336304552002,34,"Pilot1","Morgan1",NA,NA,NA,NA,NA,0.0499999999999999,0.9,0.95,0.925
"45",168,"66c9eb78c1a775cf07bbe72c","beware","test","concrete-negative","Valence","positive","positive",0,1727876031671,"positive",1534,779,"concrete-negative","negative","negative;positive",6.65801104587075,7.3356339819272,8,"Pilot1","Morgan1",NA,NA,NA,NA,NA,0.05,0.9,0.85,0.875
"46",173,"66c9eb78c1a775cf07bbe72c","discourage","test","concrete-negative","Valence","positive","positive",0,1727876039928,"positive",1456,700,"concrete-negative","negative","negative;positive",6.5510803350434,7.28344822875663,13,"Pilot1","Morgan1",NA,NA,NA,NA,NA,0.0499999999999999,0.95,0.9,0.925
"47",175,"66c9eb78c1a775cf07bbe72c","hope","test","concrete-positive","Valence","positive","positive",1,1727876042872,"positive",1511,760,"concrete-positive","negative","negative;positive",6.63331843328038,7.32052696227274,15,"Pilot1","Morgan1",NA,NA,NA,NA,NA,0.0475409836065575,0.9,0.852459016393443,0.876229508196721
"48",178,"66c9eb78c1a775cf07bbe72c","feeling","test","concrete-positive","Valence","positive","negative",0,1727876048040,"negative",1527,768,"concrete-positive","negative","negative;positive",6.64378973314767,7.33106030521863,18,"Pilot1","Morgan1",NA,NA,NA,NA,NA,0.15,0.8,0.95,0.875
"49",179,"66c9eb78c1a775cf07bbe72c","sail","test","abstract-positive","Valence","positive","negative",0,1727876049976,"negative",1934,1182,"abstract-positive","negative","negative;positive",7.07496319796604,7.56734567601324,19,"Pilot1","Morgan1",NA,NA,NA,NA,NA,0.1,0.85,0.95,0.9
"50",183,"66c9eb78c1a775cf07bbe72c","consider","test","concrete-positive","Valence","positive","negative",0,1727876056880,"negative",1655,901,"concrete-positive","negative","negative;positive",6.80350525760834,7.41155628781116,23,"Pilot1","Morgan1",NA,NA,NA,NA,NA,0,0.9,0.9,0.9
"51",187,"66c9eb78c1a775cf07bbe72c","qualify","test","concrete-positive","Valence","positive","negative",0,1727876063096,"negative",1558,803,"concrete-positive","negative","negative;positive",6.68835471394676,7.35115822643069,27,"Pilot1","Morgan1",NA,NA,NA,NA,NA,0.0499999999999999,0.9,0.95,0.925
"52",189,"66c9eb78c1a775cf07bbe72c","distrust","test","concrete-negative","Valence","positive","positive",0,1727876066465,"positive",1560,807,"concrete-negative","negative","negative;positive",6.69332366826995,7.35244110024358,29,"Pilot1","Morgan1",NA,NA,NA,NA,NA,0.0326446280991735,0.95,0.917355371900826,0.933677685950413
"53",193,"66c9eb78c1a775cf07bbe72c","exploit","test","concrete-negative","Valence","positive","positive",0,1727876072625,"positive",1455,699,"concrete-negative","negative","negative;positive",6.54965074223381,7.28276117960559,33,"Pilot1","Morgan1",NA,NA,NA,NA,NA,0.1,0.85,0.95,0.9
"54",198,"66c9eb78c1a775cf07bbe72c","behold","test","concrete-positive","Valence","positive","negative",0,1727876080816,"negative",1542,787,"concrete-positive","negative","negative;positive",6.6682282484174,7.34083555412327,38,"Pilot1","Morgan1",NA,NA,NA,NA,NA,0.15,0.8,0.95,0.875
"55",200,"66c9eb78c1a775cf07bbe72c","running","test","abstract-positive","Valence","positive","negative",0,1727876085137,"negative",1638,881,"abstract-positive","negative","negative;positive",6.78105762593618,7.40123126441302,40,"Pilot1","Morgan1",NA,NA,NA,NA,NA,0,0.9,0.9,0.9
"56",201,"66ec2ab8b6d500411685ac15","exploit","test","concrete-negative","Concrete","concrete","concrete",1,1727862554633,"concrete",2175,1416,"concrete-negative","abstract","concrete;abstract",7.25559127425367,7.68478394352278,1,"Pilot1","Morgan1",NA,NA,NA,NA,NA,0.1,0.85,0.95,0.9
"57",202,"66ec2ab8b6d500411685ac15","consider","test","concrete-positive","Concrete","concrete","concrete",1,1727862556652,"concrete",2013,1257,"concrete-positive","abstract","concrete;abstract",7.13648320859025,7.60738142563979,2,"Pilot1","Morgan1",NA,NA,NA,NA,NA,0,0.9,0.9,0.9
"58",208,"66ec2ab8b6d500411685ac15","distrust","test","concrete-negative","Concrete","concrete","concrete",1,1727862570337,"concrete",3703,2938,"concrete-negative","abstract","concrete;abstract",7.98548435673382,8.21689858091361,8,"Pilot1","Morgan1",NA,NA,NA,NA,NA,0.0326446280991735,0.95,0.917355371900826,0.933677685950413
"59",215,"66ec2ab8b6d500411685ac15","qualify","test","concrete-positive","Concrete","concrete","concrete",1,1727862590873,"concrete",1697,943,"concrete-positive","abstract","concrete;abstract",6.84906628263346,7.43661726523423,15,"Pilot1","Morgan1",NA,NA,NA,NA,NA,0.0499999999999999,0.9,0.95,0.925
"60",216,"66ec2ab8b6d500411685ac15","behold","test","concrete-positive","Concrete","concrete","concrete",1,1727862592819,"concrete",1942,1184,"concrete-positive","abstract","concrete;abstract",7.07665381544395,7.57147364885127,16,"Pilot1","Morgan1",NA,NA,NA,NA,NA,0.15,0.8,0.95,0.875
"61",223,"66ec2ab8b6d500411685ac15","sail","test","abstract-positive","Concrete","concrete","abstract",1,1727862606176,"abstract",2155,1387,"abstract-positive","abstract","concrete;abstract",7.23489842031483,7.67554600253785,23,"Pilot1","Morgan1",NA,NA,NA,NA,NA,0.1,0.85,0.95,0.9
"62",224,"66ec2ab8b6d500411685ac15","running","test","abstract-positive","Concrete","concrete","abstract",1,1727862607745,"abstract",1564,794,"abstract-positive","abstract","concrete;abstract",6.67708346124714,7.35500192110526,24,"Pilot1","Morgan1",NA,NA,NA,NA,NA,0,0.9,0.9,0.9
"63",229,"66ec2ab8b6d500411685ac15","hope","test","concrete-positive","Concrete","concrete","concrete",1,1727862619553,"concrete",2836,2072,"concrete-positive","abstract","concrete;abstract",7.63626960337937,7.95014988765202,29,"Pilot1","Morgan1",NA,NA,NA,NA,NA,0.0475409836065575,0.9,0.852459016393443,0.876229508196721
"64",231,"66ec2ab8b6d500411685ac15","beware","test","concrete-negative","Concrete","concrete","concrete",1,1727862624633,"concrete",2813,2051,"concrete-negative","abstract","concrete;abstract",7.62608275807238,7.94200680848986,31,"Pilot1","Morgan1",NA,NA,NA,NA,NA,0.05,0.9,0.85,0.875
"65",234,"66ec2ab8b6d500411685ac15","discourage","test","concrete-negative","Concrete","concrete","concrete",1,1727862632975,"concrete",2310,1552,"concrete-negative","abstract","concrete;abstract",7.34729970074316,7.74500280351584,34,"Pilot1","Morgan1",NA,NA,NA,NA,NA,0.0499999999999999,0.95,0.9,0.925
"66",235,"66ec2ab8b6d500411685ac15","feeling","test","concrete-positive","Concrete","concrete","concrete",1,1727862634656,"concrete",1676,910,"concrete-positive","abstract","concrete;abstract",6.8134445995109,7.42416528104203,35,"Pilot1","Morgan1",NA,NA,NA,NA,NA,0.15,0.8,0.95,0.875
"67",246,"62a0294e78bac60d6f9c49df","consider","test","concrete-positive","Concrete","concrete","concrete",1,1727862638990,"concrete",1499,735,"concrete-positive","abstract","concrete;abstract",6.59987049921284,7.3125534981026,6,"Pilot1","Morgan1",NA,NA,NA,NA,NA,0,0.9,0.9,0.9
"68",248,"62a0294e78bac60d6f9c49df","feeling","test","concrete-positive","Concrete","concrete","concrete",1,1727862641901,"concrete",1313,559,"concrete-positive","abstract","concrete;abstract",6.3261494731551,7.1800698743028,8,"Pilot1","Morgan1",NA,NA,NA,NA,NA,0.15,0.8,0.95,0.875
"69",249,"62a0294e78bac60d6f9c49df","distrust","test","concrete-negative","Concrete","concrete","concrete",1,1727862643264,"concrete",1360,597,"concrete-negative","abstract","concrete;abstract",6.3919171133926,7.2152399787301,9,"Pilot1","Morgan1",NA,NA,NA,NA,NA,0.0326446280991735,0.95,0.917355371900826,0.933677685950413
"70",250,"62a0294e78bac60d6f9c49df","sail","test","abstract-positive","Concrete","concrete","abstract",1,1727862644622,"abstract",1355,595,"abstract-positive","abstract","concrete;abstract",6.38856140554563,7.2115567333138,10,"Pilot1","Morgan1",NA,NA,NA,NA,NA,0.1,0.85,0.95,0.9
"71",257,"62a0294e78bac60d6f9c49df","running","test","abstract-positive","Concrete","concrete","abstract",1,1727862655802,"abstract",1220,463,"abstract-positive","abstract","concrete;abstract",6.13772705408623,7.1066061377273,17,"Pilot1","Morgan1",NA,NA,NA,NA,NA,0,0.9,0.9,0.9
"72",261,"62a0294e78bac60d6f9c49df","exploit","test","concrete-negative","Concrete","concrete","concrete",1,1727862661899,"concrete",1300,542,"concrete-negative","abstract","concrete;abstract",6.29526600143965,7.17011954344963,21,"Pilot1","Morgan1",NA,NA,NA,NA,NA,0.1,0.85,0.95,0.9
"73",264,"62a0294e78bac60d6f9c49df","behold","test","concrete-positive","Concrete","concrete","concrete",1,1727862666213,"concrete",1270,516,"concrete-positive","abstract","concrete;abstract",6.24610676548156,7.14677217945264,24,"Pilot1","Morgan1",NA,NA,NA,NA,NA,0.15,0.8,0.95,0.875
"74",266,"62a0294e78bac60d6f9c49df","hope","test","concrete-positive","Concrete","concrete","concrete",1,1727862669121,"concrete",1451,695,"concrete-positive","abstract","concrete;abstract",6.54391184556479,7.28000825288419,26,"Pilot1","Morgan1",NA,NA,NA,NA,NA,0.0475409836065575,0.9,0.852459016393443,0.876229508196721
"75",272,"62a0294e78bac60d6f9c49df","qualify","test","concrete-positive","Concrete","concrete","concrete",1,1727862677984,"concrete",1230,475,"concrete-positive","abstract","concrete;abstract",6.16331480403464,7.11476944836646,32,"Pilot1","Morgan1",NA,NA,NA,NA,NA,0.0499999999999999,0.9,0.95,0.925
"76",276,"62a0294e78bac60d6f9c49df","beware","test","concrete-negative","Concrete","concrete","concrete",1,1727862683076,"concrete",1437,677,"concrete-negative","abstract","concrete;abstract",6.51767127291227,7.27031288607902,36,"Pilot1","Morgan1",NA,NA,NA,NA,NA,0.05,0.9,0.85,0.875
"77",280,"62a0294e78bac60d6f9c49df","discourage","test","concrete-negative","Concrete","concrete","concrete",1,1727862688421,"concrete",1305,547,"concrete-negative","abstract","concrete;abstract",6.30444880242198,7.17395831975679,40,"Pilot1","Morgan1",NA,NA,NA,NA,NA,0.0499999999999999,0.95,0.9,0.925
"78",281,"663c8bf2f8c29a144dc191de","feeling","test","concrete-positive","Concrete","concrete","concrete",1,1727861805229,"concrete",1655,902,"concrete-positive","abstract","concrete;abstract",6.80461452006262,7.41155628781116,1,"Pilot1","Morgan1",NA,NA,NA,NA,NA,0.15,0.8,0.95,0.875
"79",282,"663c8bf2f8c29a144dc191de","hope","test","concrete-positive","Concrete","concrete","concrete",1,1727861806644,"concrete",1414,664,"concrete-positive","abstract","concrete;abstract",6.49828214947643,7.25417784645652,2,"Pilot1","Morgan1",NA,NA,NA,NA,NA,0.0475409836065575,0.9,0.852459016393443,0.876229508196721
"80",286,"663c8bf2f8c29a144dc191de","consider","test","concrete-positive","Concrete","concrete","concrete",1,1727861813012,"concrete",1342,582,"concrete-positive","abstract","concrete;abstract",6.36647044773144,7.20191631753163,6,"Pilot1","Morgan1",NA,NA,NA,NA,NA,0,0.9,0.9,0.9
"81",290,"663c8bf2f8c29a144dc191de","beware","test","concrete-negative","Concrete","concrete","concrete",1,1727861820748,"concrete",1494,741,"concrete-negative","abstract","concrete;abstract",6.60800062529609,7.30921236569276,10,"Pilot1","Morgan1",NA,NA,NA,NA,NA,0.05,0.9,0.85,0.875
"82",291,"663c8bf2f8c29a144dc191de","exploit","test","concrete-negative","Concrete","concrete","concrete",1,1727861822084,"concrete",1335,580,"concrete-negative","abstract","concrete;abstract",6.36302810354046,7.19668657083435,11,"Pilot1","Morgan1",NA,NA,NA,NA,NA,0.1,0.85,0.95,0.9
"83",295,"663c8bf2f8c29a144dc191de","running","test","abstract-positive","Concrete","concrete","abstract",1,1727861830492,"abstract",1838,1087,"abstract-positive","abstract","concrete;abstract",6.99117688712121,7.51643330291563,15,"Pilot1","Morgan1",NA,NA,NA,NA,NA,0,0.9,0.9,0.9
"84",303,"663c8bf2f8c29a144dc191de","sail","test","abstract-positive","Concrete","concrete","abstract",1,1727861845628,"abstract",2318,1562,"abstract-positive","abstract","concrete;abstract",7.35372233039963,7.7484600238997,23,"Pilot1","Morgan1",NA,NA,NA,NA,NA,0.1,0.85,0.95,0.9
"85",308,"663c8bf2f8c29a144dc191de","behold","test","concrete-positive","Concrete","concrete","concrete",1,1727861853804,"concrete",1447,692,"concrete-positive","abstract","concrete;abstract",6.53958595561767,7.27724772663148,28,"Pilot1","Morgan1",NA,NA,NA,NA,NA,0.15,0.8,0.95,0.875
"86",312,"663c8bf2f8c29a144dc191de","qualify","test","concrete-positive","Concrete","concrete","concrete",1,1727861860860,"concrete",1470,716,"concrete-positive","abstract","concrete;abstract",6.57368016696065,7.29301767977278,32,"Pilot1","Morgan1",NA,NA,NA,NA,NA,0.0499999999999999,0.9,0.95,0.925
"87",316,"663c8bf2f8c29a144dc191de","distrust","test","concrete-negative","Concrete","concrete","concrete",1,1727861867868,"concrete",1357,599,"concrete-negative","abstract","concrete;abstract",6.39526159811545,7.21303165983487,36,"Pilot1","Morgan1",NA,NA,NA,NA,NA,0.0326446280991735,0.95,0.917355371900826,0.933677685950413
"88",320,"663c8bf2f8c29a144dc191de","discourage","test","concrete-negative","Concrete","concrete","concrete",1,1727861873805,"concrete",1504,746,"concrete-negative","abstract","concrete;abstract",6.61472560020376,7.31588350450979,40,"Pilot1","Morgan1",NA,NA,NA,NA,NA,0.0499999999999999,0.95,0.9,0.925
"89",325,"66e1a750e31b6003841c5472","behold","test","concrete-positive","Concrete","concrete","concrete",1,1727861896836,"concrete",1782,1022,"concrete-positive","abstract","concrete;abstract",6.92951677076365,7.48549160803075,5,"Pilot1","Morgan1",NA,NA,NA,NA,NA,0.15,0.8,0.95,0.875
"90",328,"66e1a750e31b6003841c5472","beware","test","concrete-negative","Concrete","concrete","concrete",1,1727861902141,"concrete",1778,1021,"concrete-negative","abstract","concrete;abstract",6.92853781816467,7.48324441607385,8,"Pilot1","Morgan1",NA,NA,NA,NA,NA,0.05,0.9,0.85,0.875
"91",332,"66e1a750e31b6003841c5472","running","test","abstract-positive","Concrete","concrete","concrete",0,1727861908931,"concrete",1975,1219,"abstract-positive","abstract","concrete;abstract",7.10578612948127,7.58832367733522,12,"Pilot1","Morgan1",NA,NA,NA,NA,NA,0,0.9,0.9,0.9
"92",338,"66e1a750e31b6003841c5472","hope","test","concrete-positive","Concrete","concrete","concrete",1,1727861921340,"concrete",1824,1067,"concrete-positive","abstract","concrete;abstract",6.97260625130175,7.50878717063428,18,"Pilot1","Morgan1",NA,NA,NA,NA,NA,0.0475409836065575,0.9,0.852459016393443,0.876229508196721
"93",339,"66e1a750e31b6003841c5472","consider","test","concrete-positive","Concrete","concrete","concrete",1,1727861923217,"concrete",1874,1118,"concrete-positive","abstract","concrete;abstract",7.01929665371504,7.53583046279837,19,"Pilot1","Morgan1",NA,NA,NA,NA,NA,0,0.9,0.9,0.9
"94",341,"66e1a750e31b6003841c5472","exploit","test","concrete-negative","Concrete","concrete","concrete",1,1727861927197,"concrete",1847,1090,"concrete-negative","abstract","concrete;abstract",6.99393297522319,7.52131798019924,21,"Pilot1","Morgan1",NA,NA,NA,NA,NA,0.1,0.85,0.95,0.9
"95",344,"66e1a750e31b6003841c5472","feeling","test","concrete-positive","Concrete","concrete","abstract",0,1727861933266,"abstract",1754,997,"concrete-positive","abstract","concrete;abstract",6.90475076996184,7.46965417293213,24,"Pilot1","Morgan1",NA,NA,NA,NA,NA,0.15,0.8,0.95,0.875
"96",345,"66e1a750e31b6003841c5472","sail","test","abstract-positive","Concrete","concrete","abstract",1,1727861935156,"abstract",1888,1131,"abstract-positive","abstract","concrete;abstract",7.03085747611612,7.54327334670545,25,"Pilot1","Morgan1",NA,NA,NA,NA,NA,0.1,0.85,0.95,0.9
"97",351,"66e1a750e31b6003841c5472","discourage","test","concrete-negative","Concrete","concrete","concrete",1,1727861945123,"concrete",1567,808,"concrete-negative","abstract","concrete;abstract",6.69456205852109,7.35691824235602,31,"Pilot1","Morgan1",NA,NA,NA,NA,NA,0.0499999999999999,0.95,0.9,0.925
"98",352,"66e1a750e31b6003841c5472","distrust","test","concrete-negative","Concrete","concrete","concrete",1,1727861946737,"concrete",1613,852,"concrete-negative","abstract","concrete;abstract",6.74758652682932,7.38585107812521,32,"Pilot1","Morgan1",NA,NA,NA,NA,NA,0.0326446280991735,0.95,0.917355371900826,0.933677685950413
"99",358,"66e1a750e31b6003841c5472","qualify","test","concrete-positive","Concrete","concrete","concrete",1,1727861958215,"concrete",2247,1492,"concrete-positive","abstract","concrete;abstract",7.30787278076371,7.71735127218533,38,"Pilot1","Morgan1",NA,NA,NA,NA,NA,0.0499999999999999,0.9,0.95,0.925
"100",368,"66fbab0373b325bac2693590","consider","test","concrete-positive","Concrete","concrete","concrete",1,1727861732390,"concrete",2200,1444,"concrete-positive","abstract","concrete;abstract",7.27517231945277,7.69621263934641,8,"Pilot1","Morgan1",NA,NA,NA,NA,NA,0,0.9,0.9,0.9
"101",370,"66fbab0373b325bac2693590","beware","test","concrete-negative","Concrete","concrete","concrete",1,1727861736574,"concrete",2512,1757,"concrete-negative","abstract","concrete;abstract",7.4713630881871,7.82883452758809,10,"Pilot1","Morgan1",NA,NA,NA,NA,NA,0.05,0.9,0.85,0.875
"102",372,"66fbab0373b325bac2693590","hope","test","concrete-positive","Concrete","concrete","concrete",1,1727861740950,"concrete",1744,989,"concrete-positive","abstract","concrete;abstract",6.89669433162271,7.46393660446893,12,"Pilot1","Morgan1",NA,NA,NA,NA,NA,0.0475409836065575,0.9,0.852459016393443,0.876229508196721
"103",375,"66fbab0373b325bac2693590","sail","test","abstract-positive","Concrete","concrete","concrete",0,1727861748654,"concrete",3159,2407,"abstract-positive","abstract","concrete;abstract",7.78613643778307,8.05801080080209,15,"Pilot1","Morgan1",NA,NA,NA,NA,NA,0.1,0.85,0.95,0.9
"104",383,"66fbab0373b325bac2693590","qualify","test","concrete-positive","Concrete","concrete","concrete",1,1727861763366,"concrete",2143,1389,"concrete-positive","abstract","concrete;abstract",7.23633934275434,7.66996199547358,23,"Pilot1","Morgan1",NA,NA,NA,NA,NA,0.0499999999999999,0.9,0.95,0.925
"105",385,"66fbab0373b325bac2693590","running","test","abstract-positive","Concrete","concrete","abstract",1,1727861766678,"abstract",1703,951,"abstract-positive","abstract","concrete;abstract",6.85751406254539,7.44014668066269,25,"Pilot1","Morgan1",NA,NA,NA,NA,NA,0,0.9,0.9,0.9
"106",386,"66fbab0373b325bac2693590","distrust","test","concrete-negative","Concrete","concrete","concrete",1,1727861768406,"concrete",1728,973,"concrete-negative","abstract","concrete;abstract",6.880384082186,7.454719949364,26,"Pilot1","Morgan1",NA,NA,NA,NA,NA,0.0326446280991735,0.95,0.917355371900826,0.933677685950413
"107",389,"66fbab0373b325bac2693590","feeling","test","concrete-positive","Concrete","concrete","abstract",0,1727861772790,"abstract",1568,813,"concrete-positive","abstract","concrete;abstract",6.70073110954781,7.35755620091035,29,"Pilot1","Morgan1",NA,NA,NA,NA,NA,0.15,0.8,0.95,0.875
"108",391,"66fbab0373b325bac2693590","discourage","test","concrete-negative","Concrete","concrete","concrete",1,1727861776222,"concrete",1879,1125,"concrete-negative","abstract","concrete;abstract",7.02553831463852,7.53849499941346,31,"Pilot1","Morgan1",NA,NA,NA,NA,NA,0.0499999999999999,0.95,0.9,0.925
"109",392,"66fbab0373b325bac2693590","behold","test","concrete-positive","Concrete","concrete","concrete",1,1727861777830,"concrete",1608,858,"concrete-positive","abstract","concrete;abstract",6.75460409948796,7.38274644973891,32,"Pilot1","Morgan1",NA,NA,NA,NA,NA,0.15,0.8,0.95,0.875
"110",396,"66fbab0373b325bac2693590","exploit","test","concrete-negative","Concrete","concrete","concrete",1,1727861783886,"concrete",1464,712,"concrete-negative","abstract","concrete;abstract",6.56807791141198,7.28892769452126,36,"Pilot1","Morgan1",NA,NA,NA,NA,NA,0.1,0.85,0.95,0.9
"111",402,"66fc3e8fef1797e175a11e8d","running","test","abstract-positive","Concrete","concrete","abstract",1,1727862721655,"abstract",1648,887,"abstract-positive","abstract","concrete;abstract",6.78784498230958,7.40731771046942,2,"Pilot1","Morgan1",NA,NA,NA,NA,NA,0,0.9,0.9,0.9
"112",404,"66fc3e8fef1797e175a11e8d","consider","test","concrete-positive","Concrete","concrete","concrete",1,1727862725757,"concrete",2031,1266,"concrete-positive","abstract","concrete;abstract",7.14361760270412,7.61628356158038,4,"Pilot1","Morgan1",NA,NA,NA,NA,NA,0,0.9,0.9,0.9
"113",405,"66fc3e8fef1797e175a11e8d","discourage","test","concrete-negative","Concrete","concrete","concrete",1,1727862727846,"concrete",2087,1327,"concrete-negative","abstract","concrete;abstract",7.19067603433221,7.6434829070772,5,"Pilot1","Morgan1",NA,NA,NA,NA,NA,0.0499999999999999,0.95,0.9,0.925
"114",411,"66fc3e8fef1797e175a11e8d","feeling","test","concrete-positive","Concrete","concrete","concrete",1,1727862740000,"concrete",1736,982,"concrete-positive","abstract","concrete;abstract",6.88959130835447,7.4593388952203,11,"Pilot1","Morgan1",NA,NA,NA,NA,NA,0.15,0.8,0.95,0.875
"115",418,"66fc3e8fef1797e175a11e8d","behold","test","concrete-positive","Concrete","concrete","concrete",1,1727862757035,"concrete",1580,810,"concrete-positive","abstract","concrete;abstract",6.69703424766648,7.36518012602101,18,"Pilot1","Morgan1",NA,NA,NA,NA,NA,0.15,0.8,0.95,0.875
"116",423,"66fc3e8fef1797e175a11e8d","distrust","test","concrete-negative","Concrete","concrete","concrete",1,1727862769858,"concrete",1992,1222,"concrete-negative","abstract","concrete;abstract",7.10824413973154,7.59689443814454,23,"Pilot1","Morgan1",NA,NA,NA,NA,NA,0.0326446280991735,0.95,0.917355371900826,0.933677685950413
"117",432,"66fc3e8fef1797e175a11e8d","qualify","test","concrete-positive","Concrete","concrete","concrete",1,1727862790688,"concrete",3427,2659,"concrete-positive","abstract","concrete;abstract",7.88570539124302,8.13944052187461,32,"Pilot1","Morgan1",NA,NA,NA,NA,NA,0.0499999999999999,0.9,0.95,0.925
"118",433,"66fc3e8fef1797e175a11e8d","exploit","test","concrete-negative","Concrete","concrete","abstract",0,1727862792818,"abstract",2129,1365,"concrete-negative","abstract","concrete;abstract",7.21890970761906,7.66340766489348,33,"Pilot1","Morgan1",NA,NA,NA,NA,NA,0.1,0.85,0.95,0.9
"119",435,"66fc3e8fef1797e175a11e8d","beware","test","concrete-negative","Concrete","concrete","concrete",1,1727862796112,"concrete",1893,1127,"concrete-negative","abstract","concrete;abstract",7.02731451403978,7.54591815120932,35,"Pilot1","Morgan1",NA,NA,NA,NA,NA,0.05,0.9,0.85,0.875
"120",438,"66fc3e8fef1797e175a11e8d","sail","test","abstract-positive","Concrete","concrete","abstract",1,1727862801835,"abstract",1906,1137,"abstract-positive","abstract","concrete;abstract",7.03614849375054,7.55276208421415,38,"Pilot1","Morgan1",NA,NA,NA,NA,NA,0.1,0.85,0.95,0.9
"121",439,"66fc3e8fef1797e175a11e8d","hope","test","concrete-positive","Concrete","concrete","concrete",1,1727862803766,"concrete",1929,1170,"concrete-positive","abstract","concrete;abstract",7.0647590277918,7.56475701290573,39,"Pilot1","Morgan1",NA,NA,NA,NA,NA,0.0475409836065575,0.9,0.852459016393443,0.876229508196721
"122",443,"570bc1ffb9b52b00102db939","sail","test","abstract-positive","Concrete","concrete","abstract",1,1727861845462,"abstract",1940,1184,"abstract-positive","abstract","concrete;abstract",7.07665381544395,7.57044325205737,3,"Pilot1","Morgan1",NA,NA,NA,NA,NA,0.1,0.85,0.95,0.9
"123",450,"570bc1ffb9b52b00102db939","exploit","test","concrete-negative","Concrete","concrete","concrete",1,1727861857294,"concrete",1788,1035,"concrete-negative","abstract","concrete;abstract",6.94215670569947,7.48885295573346,10,"Pilot1","Morgan1",NA,NA,NA,NA,NA,0.1,0.85,0.95,0.9
"124",451,"570bc1ffb9b52b00102db939","feeling","test","concrete-positive","Concrete","concrete","concrete",1,1727861858694,"concrete",1396,642,"concrete-positive","abstract","concrete;abstract",6.46458830368996,7.24136628332232,11,"Pilot1","Morgan1",NA,NA,NA,NA,NA,0.15,0.8,0.95,0.875
"125",453,"570bc1ffb9b52b00102db939","running","test","abstract-positive","Concrete","concrete","abstract",1,1727861862150,"abstract",1653,895,"abstract-positive","abstract","concrete;abstract",6.79682371827486,7.41034709782102,13,"Pilot1","Morgan1",NA,NA,NA,NA,NA,0,0.9,0.9,0.9
"126",454,"570bc1ffb9b52b00102db939","qualify","test","concrete-positive","Concrete","concrete","abstract",0,1727861863989,"abstract",1836,1079,"concrete-positive","abstract","concrete;abstract",6.98378996525813,7.51534457118044,14,"Pilot1","Morgan1",NA,NA,NA,NA,NA,0.0499999999999999,0.9,0.95,0.925
"127",455,"570bc1ffb9b52b00102db939","behold","test","concrete-positive","Concrete","concrete","concrete",1,1727861865580,"concrete",1588,829,"concrete-positive","abstract","concrete;abstract",6.7202201551353,7.37023064180708,15,"Pilot1","Morgan1",NA,NA,NA,NA,NA,0.15,0.8,0.95,0.875
"128",457,"570bc1ffb9b52b00102db939","hope","test","concrete-positive","Concrete","concrete","concrete",1,1727861868661,"concrete",1596,842,"concrete-positive","abstract","concrete;abstract",6.73578001424233,7.37525577800975,17,"Pilot1","Morgan1",NA,NA,NA,NA,NA,0.0475409836065575,0.9,0.852459016393443,0.876229508196721
"129",463,"570bc1ffb9b52b00102db939","distrust","test","concrete-negative","Concrete","concrete","abstract",0,1727861878877,"abstract",1959,1208,"concrete-negative","abstract","concrete;abstract",7.09672137849476,7.58018941794454,23,"Pilot1","Morgan1",NA,NA,NA,NA,NA,0.0326446280991735,0.95,0.917355371900826,0.933677685950413
"130",464,"570bc1ffb9b52b00102db939","discourage","test","concrete-negative","Concrete","concrete","concrete",1,1727861881005,"concrete",2125,1365,"concrete-negative","abstract","concrete;abstract",7.21890970761906,7.66152708135852,24,"Pilot1","Morgan1",NA,NA,NA,NA,NA,0.0499999999999999,0.95,0.9,0.925
"131",473,"570bc1ffb9b52b00102db939","beware","test","concrete-negative","Concrete","concrete","abstract",0,1727861896516,"abstract",2061,1302,"concrete-negative","abstract","concrete;abstract",7.17165682276851,7.63094658089046,33,"Pilot1","Morgan1",NA,NA,NA,NA,NA,0.05,0.9,0.85,0.875
"132",479,"570bc1ffb9b52b00102db939","consider","test","concrete-positive","Concrete","concrete","concrete",1,1727861905827,"concrete",1444,688,"concrete-positive","abstract","concrete;abstract",6.53378883793334,7.27517231945277,39,"Pilot1","Morgan1",NA,NA,NA,NA,NA,0,0.9,0.9,0.9
"133",483,"599de5758a6cc5000128f97e","sail","test","abstract-positive","Valence","positive","positive",1,1727874892544,"positive",2079,1324,"abstract-positive","negative","negative;positive",7.18841273649695,7.63964228785801,3,"Pilot1","Morgan1",NA,NA,NA,NA,NA,0.1,0.85,0.95,0.9
"134",487,"599de5758a6cc5000128f97e","hope","test","concrete-positive","Valence","positive","positive",1,1727874901062,"positive",1708,950,"concrete-positive","negative","negative;positive",6.85646198459459,7.44307837434852,7,"Pilot1","Morgan1",NA,NA,NA,NA,NA,0.0475409836065575,0.9,0.852459016393443,0.876229508196721
"135",498,"599de5758a6cc5000128f97e","exploit","test","concrete-negative","Valence","positive","negative",1,1727874923479,"negative",1553,793,"concrete-negative","negative","negative;positive",6.67582322163485,7.34794382314869,18,"Pilot1","Morgan1",NA,NA,NA,NA,NA,0.1,0.85,0.95,0.9
"136",499,"599de5758a6cc5000128f97e","running","test","abstract-positive","Valence","positive","positive",1,1727874925242,"positive",1757,1002,"abstract-positive","negative","negative;positive",6.90975328164481,7.4713630881871,19,"Pilot1","Morgan1",NA,NA,NA,NA,NA,0,0.9,0.9,0.9
"137",500,"599de5758a6cc5000128f97e","behold","test","concrete-positive","Valence","positive","positive",1,1727874927180,"positive",1934,1175,"concrete-positive","negative","negative;positive",7.06902342657826,7.56734567601324,20,"Pilot1","Morgan1",NA,NA,NA,NA,NA,0.15,0.8,0.95,0.875
"138",501,"599de5758a6cc5000128f97e","beware","test","concrete-negative","Valence","positive","positive",0,1727874929476,"positive",2291,1534,"concrete-negative","negative","negative;positive",7.3356339819272,7.7367436824535,21,"Pilot1","Morgan1",NA,NA,NA,NA,NA,0.05,0.9,0.85,0.875
"139",504,"599de5758a6cc5000128f97e","feeling","test","concrete-positive","Valence","positive","positive",1,1727874935743,"positive",1739,980,"concrete-positive","negative","negative;positive",6.88755257166462,7.46106551435428,24,"Pilot1","Morgan1",NA,NA,NA,NA,NA,0.15,0.8,0.95,0.875
"140",505,"599de5758a6cc5000128f97e","consider","test","concrete-positive","Valence","positive","positive",1,1727874937403,"positive",1653,892,"concrete-positive","negative","negative;positive",6.79346613258001,7.41034709782102,25,"Pilot1","Morgan1",NA,NA,NA,NA,NA,0,0.9,0.9,0.9
"141",506,"599de5758a6cc5000128f97e","distrust","test","concrete-negative","Valence","positive","negative",1,1727874938903,"negative",1493,738,"concrete-negative","negative","negative;positive",6.60394382460047,7.30854279753919,26,"Pilot1","Morgan1",NA,NA,NA,NA,NA,0.0326446280991735,0.95,0.917355371900826,0.933677685950413
"142",507,"599de5758a6cc5000128f97e","qualify","test","concrete-positive","Valence","positive","positive",1,1727874940689,"positive",1783,1028,"concrete-positive","negative","negative;positive",6.93537044601511,7.48605261786314,27,"Pilot1","Morgan1",NA,NA,NA,NA,NA,0.0499999999999999,0.9,0.95,0.925
"143",520,"599de5758a6cc5000128f97e","discourage","test","concrete-negative","Valence","positive","negative",1,1727874966311,"negative",1387,628,"concrete-negative","negative","negative;positive",6.4425401664682,7.23489842031483,40,"Pilot1","Morgan1",NA,NA,NA,NA,NA,0.0499999999999999,0.95,0.9,0.925
"144",521,"66a831d910e0a2b141015591","sail","test","abstract-positive","Concrete","concrete","abstract",1,1727862412847,"abstract",1560,803,"abstract-positive","abstract","concrete;abstract",6.68835471394676,7.35244110024358,1,"Pilot1","Morgan1",NA,NA,NA,NA,NA,0.1,0.85,0.95,0.9
"145",526,"66a831d910e0a2b141015591","feeling","test","concrete-positive","Concrete","concrete","concrete",1,1727862422900,"concrete",1648,894,"concrete-positive","abstract","concrete;abstract",6.79570577517351,7.40731771046942,6,"Pilot1","Morgan1",NA,NA,NA,NA,NA,0.15,0.8,0.95,0.875
"146",529,"66a831d910e0a2b141015591","qualify","test","concrete-positive","Concrete","concrete","concrete",1,1727862429256,"concrete",2236,1479,"concrete-positive","abstract","concrete;abstract",7.2991214627108,7.71244383427499,9,"Pilot1","Morgan1",NA,NA,NA,NA,NA,0.0499999999999999,0.9,0.95,0.925
"147",534,"66a831d910e0a2b141015591","distrust","test","concrete-negative","Concrete","concrete","abstract",0,1727862438803,"abstract",1983,1229,"concrete-negative","abstract","concrete;abstract",7.11395610956603,7.5923661285198,14,"Pilot1","Morgan1",NA,NA,NA,NA,NA,0.0326446280991735,0.95,0.917355371900826,0.933677685950413
"148",535,"66a831d910e0a2b141015591","consider","test","concrete-positive","Concrete","concrete","concrete",1,1727862440452,"concrete",1646,892,"concrete-positive","abstract","concrete;abstract",6.79346613258001,7.40610338123702,15,"Pilot1","Morgan1",NA,NA,NA,NA,NA,0,0.9,0.9,0.9
"149",545,"66a831d910e0a2b141015591","hope","test","concrete-positive","Concrete","concrete","concrete",1,1727862459884,"concrete",1674,917,"concrete-positive","abstract","concrete;abstract",6.82110747225646,7.42297125104942,25,"Pilot1","Morgan1",NA,NA,NA,NA,NA,0.0475409836065575,0.9,0.852459016393443,0.876229508196721
"150",546,"66a831d910e0a2b141015591","beware","test","concrete-negative","Concrete","concrete","concrete",1,1727862462566,"concrete",2680,1925,"concrete-negative","abstract","concrete;abstract",7.56268124672188,7.8935720735049,26,"Pilot1","Morgan1",NA,NA,NA,NA,NA,0.05,0.9,0.85,0.875
"151",547,"66a831d910e0a2b141015591","running","test","abstract-positive","Concrete","concrete","abstract",1,1727862464074,"abstract",1505,752,"abstract-positive","abstract","concrete;abstract",6.62273632394984,7.31654817718298,27,"Pilot1","Morgan1",NA,NA,NA,NA,NA,0,0.9,0.9,0.9
"152",550,"66a831d910e0a2b141015591","discourage","test","concrete-negative","Concrete","concrete","concrete",1,1727862470243,"concrete",2280,1523,"concrete-negative","abstract","concrete;abstract",7.32843735289516,7.73193072194849,30,"Pilot1","Morgan1",NA,NA,NA,NA,NA,0.0499999999999999,0.95,0.9,0.925
"153",553,"66a831d910e0a2b141015591","exploit","test","concrete-negative","Concrete","concrete","concrete",1,1727862475069,"concrete",1711,956,"concrete-negative","abstract","concrete;abstract",6.8627579130514,7.44483327389219,33,"Pilot1","Morgan1",NA,NA,NA,NA,NA,0.1,0.85,0.95,0.9
"154",556,"66a831d910e0a2b141015591","behold","test","concrete-positive","Concrete","concrete","concrete",1,1727862480378,"concrete",1927,1172,"concrete-positive","abstract","concrete;abstract",7.06646697013696,7.56371966841437,36,"Pilot1","Morgan1",NA,NA,NA,NA,NA,0.15,0.8,0.95,0.875
"155",567,"60ff46f0d588d3f6f641a0ee","sail","test","abstract-positive","Valence","positive","positive",1,1727878386807,"positive",1371,604,"abstract-positive","negative","negative;positive",6.40357419793482,7.22329567956231,7,"Pilot1","Morgan1",NA,NA,NA,NA,NA,0.1,0.85,0.95,0.9
"156",573,"60ff46f0d588d3f6f641a0ee","qualify","test","concrete-positive","Valence","positive","positive",1,1727878395611,"positive",1473,705,"concrete-positive","negative","negative;positive",6.55819780281227,7.29505641646263,13,"Pilot1","Morgan1",NA,NA,NA,NA,NA,0.0499999999999999,0.9,0.95,0.925
"157",575,"60ff46f0d588d3f6f641a0ee","consider","test","concrete-positive","Valence","positive","positive",1,1727878399176,"positive",1961,1189,"concrete-positive","negative","negative;positive",7.08086789669078,7.58120982619635,15,"Pilot1","Morgan1",NA,NA,NA,NA,NA,0,0.9,0.9,0.9
"158",577,"60ff46f0d588d3f6f641a0ee","distrust","test","concrete-negative","Valence","positive","negative",1,1727878402396,"negative",1452,684,"concrete-negative","negative","negative;positive",6.52795791762255,7.28069719538474,17,"Pilot1","Morgan1",NA,NA,NA,NA,NA,0.0326446280991735,0.95,0.917355371900826,0.933677685950413
"159",579,"60ff46f0d588d3f6f641a0ee","hope","test","concrete-positive","Valence","positive","positive",1,1727878405737,"positive",1741,973,"concrete-positive","negative","negative;positive",6.880384082186,7.46221493976819,19,"Pilot1","Morgan1",NA,NA,NA,NA,NA,0.0475409836065575,0.9,0.852459016393443,0.876229508196721
"160",585,"60ff46f0d588d3f6f641a0ee","beware","test","concrete-negative","Valence","positive","negative",1,1727878415046,"negative",1359,590,"concrete-negative","negative","negative;positive",6.38012253689976,7.21450441415114,25,"Pilot1","Morgan1",NA,NA,NA,NA,NA,0.05,0.9,0.85,0.875
"161",586,"60ff46f0d588d3f6f641a0ee","exploit","test","concrete-negative","Valence","positive","negative",1,1727878416879,"negative",1831,1066,"concrete-negative","negative","negative;positive",6.97166860472579,7.51261754467451,26,"Pilot1","Morgan1",NA,NA,NA,NA,NA,0.1,0.85,0.95,0.9
"162",588,"60ff46f0d588d3f6f641a0ee","discourage","test","concrete-negative","Valence","positive","negative",1,1727878419623,"negative",1328,558,"concrete-negative","negative","negative;positive",6.32435896238131,7.19142933003638,28,"Pilot1","Morgan1",NA,NA,NA,NA,NA,0.0499999999999999,0.95,0.9,0.925
"163",594,"60ff46f0d588d3f6f641a0ee","running","test","abstract-positive","Valence","positive","positive",1,1727878428479,"positive",1456,683,"abstract-positive","negative","negative;positive",6.52649485957079,7.28344822875663,34,"Pilot1","Morgan1",NA,NA,NA,NA,NA,0,0.9,0.9,0.9
"164",598,"60ff46f0d588d3f6f641a0ee","behold","test","concrete-positive","Valence","positive","positive",1,1727878435067,"positive",1645,880,"concrete-positive","negative","negative;positive",6.77992190747225,7.40549566319947,38,"Pilot1","Morgan1",NA,NA,NA,NA,NA,0.15,0.8,0.95,0.875
"165",600,"60ff46f0d588d3f6f641a0ee","feeling","test","concrete-positive","Valence","positive","positive",1,1727878438131,"positive",1489,711,"concrete-positive","negative","negative;positive",6.56667242980324,7.30586003268401,40,"Pilot1","Morgan1",NA,NA,NA,NA,NA,0.15,0.8,0.95,0.875
"166",605,"66bf07381e009d1ae52946ee","behold","test","concrete-positive","Concrete","concrete","concrete",1,1727862570122,"concrete",1583,829,"concrete-positive","abstract","concrete;abstract",6.7202201551353,7.36707705988101,5,"Pilot1","Morgan1",NA,NA,NA,NA,NA,0.15,0.8,0.95,0.875
"167",609,"66bf07381e009d1ae52946ee","exploit","test","concrete-negative","Concrete","concrete","concrete",1,1727862579991,"concrete",1651,896,"concrete-negative","abstract","concrete;abstract",6.79794041297493,7.40913644392013,9,"Pilot1","Morgan1",NA,NA,NA,NA,NA,0.1,0.85,0.95,0.9
"168",614,"66bf07381e009d1ae52946ee","running","test","abstract-positive","Concrete","concrete","abstract",1,1727862588343,"abstract",1948,1196,"abstract-positive","abstract","concrete;abstract",7.08673793451058,7.57455848420248,14,"Pilot1","Morgan1",NA,NA,NA,NA,NA,0,0.9,0.9,0.9
"169",618,"66bf07381e009d1ae52946ee","qualify","test","concrete-positive","Concrete","concrete","concrete",1,1727862594865,"concrete",1562,807,"concrete-positive","abstract","concrete;abstract",6.69332366826995,7.35372233039963,18,"Pilot1","Morgan1",NA,NA,NA,NA,NA,0.0499999999999999,0.9,0.95,0.925
"170",622,"66bf07381e009d1ae52946ee","sail","test","abstract-positive","Concrete","concrete","abstract",1,1727862602238,"abstract",1393,639,"abstract-positive","abstract","concrete;abstract",6.45990445437753,7.23921497377981,22,"Pilot1","Morgan1",NA,NA,NA,NA,NA,0.1,0.85,0.95,0.9
"171",623,"66bf07381e009d1ae52946ee","discourage","test","concrete-negative","Concrete","concrete","concrete",1,1727862603696,"concrete",1457,705,"concrete-negative","abstract","concrete;abstract",6.55819780281227,7.2841348061952,23,"Pilot1","Morgan1",NA,NA,NA,NA,NA,0.0499999999999999,0.95,0.9,0.925
"172",625,"66bf07381e009d1ae52946ee","distrust","test","concrete-negative","Concrete","concrete","concrete",1,1727862606847,"concrete",1541,788,"concrete-negative","abstract","concrete;abstract",6.66949808985788,7.34018683532012,25,"Pilot1","Morgan1",NA,NA,NA,NA,NA,0.0326446280991735,0.95,0.917355371900826,0.933677685950413
"173",626,"66bf07381e009d1ae52946ee","beware","test","concrete-negative","Concrete","concrete","concrete",1,1727862609235,"concrete",2387,1632,"concrete-negative","abstract","concrete;abstract",7.39756153552405,7.77779262633883,26,"Pilot1","Morgan1",NA,NA,NA,NA,NA,0.05,0.9,0.85,0.875
"174",628,"66bf07381e009d1ae52946ee","feeling","test","concrete-positive","Concrete","concrete","concrete",1,1727862613005,"concrete",1891,1137,"concrete-positive","abstract","concrete;abstract",7.03614849375054,7.54486106865846,28,"Pilot1","Morgan1",NA,NA,NA,NA,NA,0.15,0.8,0.95,0.875
"175",629,"66bf07381e009d1ae52946ee","consider","test","concrete-positive","Concrete","concrete","concrete",1,1727862614648,"concrete",1641,888,"concrete-positive","abstract","concrete;abstract",6.78897174299217,7.40306109109009,29,"Pilot1","Morgan1",NA,NA,NA,NA,NA,0,0.9,0.9,0.9
"176",631,"66bf07381e009d1ae52946ee","hope","test","concrete-positive","Concrete","concrete","concrete",1,1727862618793,"concrete",2146,1388,"concrete-positive","abstract","concrete;abstract",7.23561914106675,7.67136092319064,31,"Pilot1","Morgan1",NA,NA,NA,NA,NA,0.0475409836065575,0.9,0.852459016393443,0.876229508196721
"177",647,"668a7ac9a407373e5cf36bd3","discourage","test","concrete-negative","Concrete","concrete","concrete",1,1727862556026,"concrete",2567,1816,"concrete-negative","abstract","concrete;abstract",7.50439155916124,7.85049318087114,7,"Pilot1","Morgan1",NA,NA,NA,NA,NA,0.0499999999999999,0.95,0.9,0.925
"178",651,"668a7ac9a407373e5cf36bd3","running","test","abstract-positive","Concrete","concrete","abstract",1,1727862563538,"abstract",1589,835,"abstract-positive","abstract","concrete;abstract",6.72743172485086,7.37086016653672,11,"Pilot1","Morgan1",NA,NA,NA,NA,NA,0,0.9,0.9,0.9
"179",652,"668a7ac9a407373e5cf36bd3","feeling","test","concrete-positive","Concrete","concrete","concrete",1,1727862565274,"concrete",1733,978,"concrete-positive","abstract","concrete;abstract",6.88550967003482,7.45760928971561,12,"Pilot1","Morgan1",NA,NA,NA,NA,NA,0.15,0.8,0.95,0.875
"180",654,"668a7ac9a407373e5cf36bd3","hope","test","concrete-positive","Concrete","concrete","concrete",1,1727862568754,"concrete",1853,1100,"concrete-positive","abstract","concrete;abstract",7.00306545878646,7.52456122628536,14,"Pilot1","Morgan1",NA,NA,NA,NA,NA,0.0475409836065575,0.9,0.852459016393443,0.876229508196721
"181",656,"668a7ac9a407373e5cf36bd3","qualify","test","concrete-positive","Concrete","concrete","concrete",1,1727862572034,"concrete",1629,874,"concrete-positive","abstract","concrete;abstract",6.77308037565554,7.39572160860205,16,"Pilot1","Morgan1",NA,NA,NA,NA,NA,0.0499999999999999,0.9,0.95,0.925
"182",657,"668a7ac9a407373e5cf36bd3","exploit","test","concrete-negative","Concrete","concrete","concrete",1,1727862574010,"concrete",1974,1214,"concrete-negative","abstract","concrete;abstract",7.10167597161944,7.58781721999343,17,"Pilot1","Morgan1",NA,NA,NA,NA,NA,0.1,0.85,0.95,0.9
"183",662,"668a7ac9a407373e5cf36bd3","behold","test","concrete-positive","Concrete","concrete","concrete",1,1727862582618,"concrete",1573,819,"concrete-positive","abstract","concrete;abstract",6.70808408385307,7.36073990305828,22,"Pilot1","Morgan1",NA,NA,NA,NA,NA,0.15,0.8,0.95,0.875
"184",665,"668a7ac9a407373e5cf36bd3","consider","test","concrete-positive","Concrete","concrete","concrete",1,1727862587738,"concrete",1693,936,"concrete-positive","abstract","concrete;abstract",6.84161547647759,7.43425738213314,25,"Pilot1","Morgan1",NA,NA,NA,NA,NA,0,0.9,0.9,0.9
"185",666,"668a7ac9a407373e5cf36bd3","beware","test","concrete-negative","Concrete","concrete","concrete",1,1727862589497,"concrete",1756,1000,"concrete-negative","abstract","concrete;abstract",6.90775527898214,7.47079377419506,26,"Pilot1","Morgan1",NA,NA,NA,NA,NA,0.05,0.9,0.85,0.875
"186",668,"668a7ac9a407373e5cf36bd3","distrust","test","concrete-negative","Concrete","concrete","concrete",1,1727862592570,"concrete",1693,937,"concrete-negative","abstract","concrete;abstract",6.84268328223842,7.43425738213314,28,"Pilot1","Morgan1",NA,NA,NA,NA,NA,0.0326446280991735,0.95,0.917355371900826,0.933677685950413
"187",677,"668a7ac9a407373e5cf36bd3","sail","test","abstract-positive","Concrete","concrete","abstract",1,1727862609425,"abstract",1613,858,"abstract-positive","abstract","concrete;abstract",6.75460409948796,7.38585107812521,37,"Pilot1","Morgan1",NA,NA,NA,NA,NA,0.1,0.85,0.95,0.9
"188",683,"6630e6a0f1db179069761af4","distrust","test","concrete-negative","Concrete","concrete","concrete",1,1727860828593,"concrete",2369,1613,"concrete-negative","abstract","concrete;abstract",7.38585107812521,7.77022320415879,3,"Pilot1","Morgan1",NA,NA,NA,NA,NA,0.0326446280991735,0.95,0.917355371900826,0.933677685950413
"189",686,"6630e6a0f1db179069761af4","feeling","test","concrete-positive","Concrete","concrete","abstract",0,1727860836636,"abstract",2868,2113,"concrete-positive","abstract","concrete;abstract",7.65586401761606,7.96137020171951,6,"Pilot1","Morgan1",NA,NA,NA,NA,NA,0.15,0.8,0.95,0.875
"190",689,"6630e6a0f1db179069761af4","sail","test","abstract-positive","Concrete","concrete","concrete",0,1727860844110,"concrete",2386,1630,"abstract-positive","abstract","concrete;abstract",7.39633529380081,7.77737360265786,9,"Pilot1","Morgan1",NA,NA,NA,NA,NA,0.1,0.85,0.95,0.9
"191",691,"6630e6a0f1db179069761af4","running","test","abstract-positive","Concrete","concrete","abstract",1,1727860850334,"abstract",2647,1895,"abstract-positive","abstract","concrete;abstract",7.54697411751653,7.8811822022271,11,"Pilot1","Morgan1",NA,NA,NA,NA,NA,0,0.9,0.9,0.9
"192",695,"6630e6a0f1db179069761af4","hope","test","concrete-positive","Concrete","concrete","concrete",1,1727860860866,"concrete",2721,1968,"concrete-positive","abstract","concrete;abstract",7.5847730776122,7.90875473878325,15,"Pilot1","Morgan1",NA,NA,NA,NA,NA,0.0475409836065575,0.9,0.852459016393443,0.876229508196721
"193",697,"6630e6a0f1db179069761af4","qualify","test","concrete-positive","Concrete","concrete","concrete",1,1727860866030,"concrete",2405,1649,"concrete-positive","abstract","concrete;abstract",7.4079243225596,7.78530518253986,17,"Pilot1","Morgan1",NA,NA,NA,NA,NA,0.0499999999999999,0.9,0.95,0.925
"194",702,"6630e6a0f1db179069761af4","consider","test","concrete-positive","Concrete","concrete","concrete",1,1727860878856,"concrete",2415,1660,"concrete-positive","abstract","concrete;abstract",7.41457288135059,7.78945456608667,22,"Pilot1","Morgan1",NA,NA,NA,NA,NA,0,0.9,0.9,0.9
"195",705,"6630e6a0f1db179069761af4","beware","test","concrete-negative","Concrete","concrete","concrete",1,1727860886398,"concrete",3110,2357,"concrete-negative","abstract","concrete;abstract",7.76514490293613,8.04237800517328,25,"Pilot1","Morgan1",NA,NA,NA,NA,NA,0.05,0.9,0.85,0.875
"196",706,"6630e6a0f1db179069761af4","discourage","test","concrete-negative","Concrete","concrete","concrete",1,1727860888243,"concrete",1843,1087,"concrete-negative","abstract","concrete;abstract",6.99117688712121,7.51914995766982,26,"Pilot1","Morgan1",NA,NA,NA,NA,NA,0.0499999999999999,0.95,0.9,0.925
"197",710,"6630e6a0f1db179069761af4","exploit","test","concrete-negative","Concrete","concrete","concrete",1,1727860896894,"concrete",2771,2018,"concrete-negative","abstract","concrete;abstract",7.60986220091355,7.92696354486298,30,"Pilot1","Morgan1",NA,NA,NA,NA,NA,0.1,0.85,0.95,0.9
"198",714,"6630e6a0f1db179069761af4","behold","test","concrete-positive","Concrete","concrete","concrete",1,1727860907031,"concrete",2742,1988,"concrete-positive","abstract","concrete;abstract",7.59488438721652,7.91644286012226,34,"Pilot1","Morgan1",NA,NA,NA,NA,NA,0.15,0.8,0.95,0.875
"199",722,"61531624b67f1ccd83e48d48","qualify","test","concrete-positive","Valence","positive","positive",1,1727876145744,"positive",2156,1398,"concrete-positive","negative","negative;positive",7.24279792279376,7.67600993202889,2,"Pilot1","Morgan1",NA,NA,NA,NA,NA,0.0499999999999999,0.9,0.95,0.925
"200",726,"61531624b67f1ccd83e48d48","running","test","abstract-positive","Valence","positive","positive",1,1727876153596,"positive",2313,1559,"abstract-positive","negative","negative;positive",7.35179986905778,7.74630066223144,6,"Pilot1","Morgan1",NA,NA,NA,NA,NA,0,0.9,0.9,0.9
"201",730,"61531624b67f1ccd83e48d48","beware","test","concrete-negative","Valence","positive","negative",1,1727876160616,"negative",1572,815,"concrete-negative","negative","negative;positive",6.70318811324086,7.36010397298915,10,"Pilot1","Morgan1",NA,NA,NA,NA,NA,0.05,0.9,0.85,0.875
"202",734,"61531624b67f1ccd83e48d48","hope","test","concrete-positive","Valence","positive","positive",1,1727876167232,"positive",1661,900,"concrete-positive","negative","negative;positive",6.80239476332431,7.41517510961329,14,"Pilot1","Morgan1",NA,NA,NA,NA,NA,0.0475409836065575,0.9,0.852459016393443,0.876229508196721
"203",739,"61531624b67f1ccd83e48d48","sail","test","abstract-positive","Valence","positive","positive",1,1727876176299,"positive",1640,883,"abstract-positive","negative","negative;positive",6.78332520060396,7.40245152081824,19,"Pilot1","Morgan1",NA,NA,NA,NA,NA,0.1,0.85,0.95,0.9
"204",742,"61531624b67f1ccd83e48d48","feeling","test","concrete-positive","Valence","positive","positive",1,1727876181944,"positive",1728,974,"concrete-positive","negative","negative;positive",6.88141130364254,7.454719949364,22,"Pilot1","Morgan1",NA,NA,NA,NA,NA,0.15,0.8,0.95,0.875
"205",744,"61531624b67f1ccd83e48d48","distrust","test","concrete-negative","Valence","positive","negative",1,1727876185029,"negative",1482,725,"concrete-negative","negative","negative;positive",6.58617165485467,7.30114780585603,24,"Pilot1","Morgan1",NA,NA,NA,NA,NA,0.0326446280991735,0.95,0.917355371900826,0.933677685950413
"206",745,"61531624b67f1ccd83e48d48","behold","test","concrete-positive","Valence","positive","positive",1,1727876186671,"positive",1639,884,"concrete-positive","negative","negative;positive",6.78445706263764,7.40184157874383,25,"Pilot1","Morgan1",NA,NA,NA,NA,NA,0.15,0.8,0.95,0.875
"207",748,"61531624b67f1ccd83e48d48","exploit","test","concrete-negative","Valence","positive","negative",1,1727876192049,"negative",1708,957,"concrete-negative","negative","negative;positive",6.86380339145295,7.44307837434852,28,"Pilot1","Morgan1",NA,NA,NA,NA,NA,0.1,0.85,0.95,0.9
"208",751,"61531624b67f1ccd83e48d48","consider","test","concrete-positive","Valence","positive","positive",1,1727876197515,"positive",1617,862,"concrete-positive","negative","negative;positive",6.75925527066369,7.38832785957711,31,"Pilot1","Morgan1",NA,NA,NA,NA,NA,0,0.9,0.9,0.9
"209",757,"61531624b67f1ccd83e48d48","discourage","test","concrete-negative","Valence","positive","negative",1,1727876206989,"negative",1661,907,"concrete-negative","negative","negative;positive",6.81014245011514,7.41517510961329,37,"Pilot1","Morgan1",NA,NA,NA,NA,NA,0.0499999999999999,0.95,0.9,0.925
"210",761,"655e3e2a7774911651212960","feeling","test","concrete-positive","Valence","positive","positive",1,1727876356209,"positive",1999,1248,"concrete-positive","negative","negative;positive",7.12929754892937,7.6004023345004,1,"Pilot1","Morgan1",NA,NA,NA,NA,NA,0.15,0.8,0.95,0.875
"211",763,"655e3e2a7774911651212960","qualify","test","concrete-positive","Valence","positive","positive",1,1727876359000,"positive",1317,564,"concrete-positive","negative","negative;positive",6.33505425149806,7.18311170174328,3,"Pilot1","Morgan1",NA,NA,NA,NA,NA,0.0499999999999999,0.9,0.95,0.925
"212",764,"655e3e2a7774911651212960","consider","test","concrete-positive","Valence","positive","positive",1,1727876360600,"positive",1598,845,"concrete-positive","negative","negative;positive",6.73933662735717,7.37650812632622,4,"Pilot1","Morgan1",NA,NA,NA,NA,NA,0,0.9,0.9,0.9
"213",771,"655e3e2a7774911651212960","exploit","test","concrete-negative","Valence","positive","negative",1,1727876371568,"negative",1670,916,"concrete-negative","negative","negative;positive",6.82001636467413,7.4205789054108,11,"Pilot1","Morgan1",NA,NA,NA,NA,NA,0.1,0.85,0.95,0.9
"214",772,"655e3e2a7774911651212960","running","test","abstract-positive","Valence","positive","positive",1,1727876372984,"positive",1414,659,"abstract-positive","negative","negative;positive",6.49072353450251,7.25417784645652,12,"Pilot1","Morgan1",NA,NA,NA,NA,NA,0,0.9,0.9,0.9
"215",775,"655e3e2a7774911651212960","behold","test","concrete-positive","Valence","positive","positive",1,1727876378393,"positive",2446,1696,"concrete-positive","negative","negative;positive",7.43602781635185,7.80220931624712,15,"Pilot1","Morgan1",NA,NA,NA,NA,NA,0.15,0.8,0.95,0.875
"216",777,"655e3e2a7774911651212960","discourage","test","concrete-negative","Valence","positive","negative",1,1727876381311,"negative",1444,693,"concrete-negative","negative","negative;positive",6.5410299991899,7.27517231945277,17,"Pilot1","Morgan1",NA,NA,NA,NA,NA,0.0499999999999999,0.95,0.9,0.925
"217",778,"655e3e2a7774911651212960","sail","test","abstract-positive","Valence","positive","positive",1,1727876382808,"positive",1496,742,"abstract-positive","negative","negative;positive",6.60934924316738,7.31055015853442,18,"Pilot1","Morgan1",NA,NA,NA,NA,NA,0.1,0.85,0.95,0.9
"218",780,"655e3e2a7774911651212960","hope","test","concrete-positive","Valence","positive","positive",1,1727876385744,"positive",1279,525,"concrete-positive","negative","negative;positive",6.26339826259162,7.15383380157884,20,"Pilot1","Morgan1",NA,NA,NA,NA,NA,0.0475409836065575,0.9,0.852459016393443,0.876229508196721
"219",799,"655e3e2a7774911651212960","beware","test","concrete-negative","Valence","positive","negative",1,1727876416600,"negative",1365,610,"concrete-negative","negative","negative;positive",6.41345895716736,7.21890970761906,39,"Pilot1","Morgan1",NA,NA,NA,NA,NA,0.05,0.9,0.85,0.875
"220",800,"655e3e2a7774911651212960","distrust","test","concrete-negative","Valence","positive","negative",1,1727876417936,"negative",1334,580,"concrete-negative","negative","negative;positive",6.36302810354046,7.19593722647557,40,"Pilot1","Morgan1",NA,NA,NA,NA,NA,0.0326446280991735,0.95,0.917355371900826,0.933677685950413
"221",802,"5c747b0f181ad300113363ed","beware","test","concrete-negative","Concrete","concrete","concrete",1,1727864533332,"concrete",1496,722,"concrete-negative","abstract","concrete;abstract",6.58202513889283,7.31055015853442,2,"Pilot1","Morgan1",NA,NA,NA,NA,NA,0.05,0.9,0.85,0.875
"222",807,"5c747b0f181ad300113363ed","feeling","test","concrete-positive","Concrete","concrete","concrete",1,1727864540987,"concrete",1578,809,"concrete-positive","abstract","concrete;abstract",6.69579891705849,7.36391350140582,7,"Pilot1","Morgan1",NA,NA,NA,NA,NA,0.15,0.8,0.95,0.875
"223",808,"5c747b0f181ad300113363ed","discourage","test","concrete-negative","Concrete","concrete","concrete",1,1727864542686,"concrete",1697,931,"concrete-negative","abstract","concrete;abstract",6.83625927727707,7.43661726523423,8,"Pilot1","Morgan1",NA,NA,NA,NA,NA,0.0499999999999999,0.95,0.9,0.925
"224",809,"5c747b0f181ad300113363ed","running","test","abstract-positive","Concrete","concrete","abstract",1,1727864543944,"abstract",1256,499,"abstract-positive","abstract","concrete;abstract",6.21260609575152,7.13568734702814,9,"Pilot1","Morgan1",NA,NA,NA,NA,NA,0,0.9,0.9,0.9
"225",810,"5c747b0f181ad300113363ed","qualify","test","concrete-positive","Concrete","concrete","concrete",1,1727864545465,"concrete",1518,756,"concrete-positive","abstract","concrete;abstract",6.62804137617953,7.32514895795557,10,"Pilot1","Morgan1",NA,NA,NA,NA,NA,0.0499999999999999,0.9,0.95,0.925
"226",811,"5c747b0f181ad300113363ed","hope","test","concrete-positive","Concrete","concrete","abstract",0,1727864546797,"abstract",1330,558,"concrete-positive","abstract","concrete;abstract",6.32435896238131,7.1929342212158,11,"Pilot1","Morgan1",NA,NA,NA,NA,NA,0.0475409836065575,0.9,0.852459016393443,0.876229508196721
"227",816,"5c747b0f181ad300113363ed","sail","test","abstract-positive","Concrete","concrete","abstract",1,1727864554010,"abstract",1365,601,"abstract-positive","abstract","concrete;abstract",6.39859493453521,7.21890970761906,16,"Pilot1","Morgan1",NA,NA,NA,NA,NA,0.1,0.85,0.95,0.9
"228",825,"5c747b0f181ad300113363ed","behold","test","concrete-positive","Concrete","concrete","concrete",1,1727864566620,"concrete",1416,647,"concrete-positive","abstract","concrete;abstract",6.4723462945009,7.25559127425367,25,"Pilot1","Morgan1",NA,NA,NA,NA,NA,0.15,0.8,0.95,0.875
"229",834,"5c747b0f181ad300113363ed","distrust","test","concrete-negative","Concrete","concrete","concrete",1,1727864579336,"concrete",1314,545,"concrete-negative","abstract","concrete;abstract",6.30078579466324,7.18083119904456,34,"Pilot1","Morgan1",NA,NA,NA,NA,NA,0.0326446280991735,0.95,0.917355371900826,0.933677685950413
"230",839,"5c747b0f181ad300113363ed","consider","test","concrete-positive","Concrete","concrete","concrete",1,1727864586998,"concrete",1446,682,"concrete-positive","abstract","concrete;abstract",6.52502965784346,7.27655640271871,39,"Pilot1","Morgan1",NA,NA,NA,NA,NA,0,0.9,0.9,0.9
"231",840,"5c747b0f181ad300113363ed","exploit","test","concrete-negative","Concrete","concrete","concrete",1,1727864588337,"concrete",1337,566,"concrete-negative","abstract","concrete;abstract",6.33859407820318,7.19818357710194,40,"Pilot1","Morgan1",NA,NA,NA,NA,NA,0.1,0.85,0.95,0.9
"232",841,"66fc6f6b55af55ffcb484925","discourage","test","concrete-negative","Valence","positive","negative",1,1727876228627,"negative",2223,1465,"concrete-negative","negative","negative;positive",7.28961052145117,7.7066129139642,1,"Pilot1","Morgan1",NA,NA,NA,NA,NA,0.0499999999999999,0.95,0.9,0.925
"233",844,"66fc6f6b55af55ffcb484925","running","test","abstract-positive","Valence","positive","positive",1,1727876235485,"positive",2255,1498,"abstract-positive","negative","negative;positive",7.31188616407716,7.72090525193678,4,"Pilot1","Morgan1",NA,NA,NA,NA,NA,0,0.9,0.9,0.9
"234",850,"66fc6f6b55af55ffcb484925","distrust","test","concrete-negative","Valence","positive","negative",1,1727876248456,"negative",1300,542,"concrete-negative","negative","negative;positive",6.29526600143965,7.17011954344963,10,"Pilot1","Morgan1",NA,NA,NA,NA,NA,0.0326446280991735,0.95,0.917355371900826,0.933677685950413
"235",851,"66fc6f6b55af55ffcb484925","feeling","test","concrete-positive","Valence","positive","positive",1,1727876250240,"positive",1781,1027,"concrete-positive","negative","negative;positive",6.93439720992856,7.48493028328966,11,"Pilot1","Morgan1",NA,NA,NA,NA,NA,0.15,0.8,0.95,0.875
"236",854,"66fc6f6b55af55ffcb484925","behold","test","concrete-positive","Valence","positive","positive",1,1727876255399,"positive",1616,860,"concrete-positive","negative","negative;positive",6.75693238924755,7.38770923908104,14,"Pilot1","Morgan1",NA,NA,NA,NA,NA,0.15,0.8,0.95,0.875
"237",855,"66fc6f6b55af55ffcb484925","consider","test","concrete-positive","Valence","positive","positive",1,1727876256907,"positive",1505,747,"concrete-positive","negative","negative;positive",6.61606518513282,7.31654817718298,15,"Pilot1","Morgan1",NA,NA,NA,NA,NA,0,0.9,0.9,0.9
"238",861,"66fc6f6b55af55ffcb484925","hope","test","concrete-positive","Valence","positive","positive",1,1727876267891,"positive",1364,607,"concrete-positive","negative","negative;positive",6.4085287910595,7.21817683840341,21,"Pilot1","Morgan1",NA,NA,NA,NA,NA,0.0475409836065575,0.9,0.852459016393443,0.876229508196721
"239",871,"66fc6f6b55af55ffcb484925","beware","test","concrete-negative","Valence","positive","negative",1,1727876285916,"negative",1743.5,986,"concrete-negative","negative","negative;positive",6.89365635460264,7.46364986611571,31,"Pilot1","Morgan1",NA,NA,NA,NA,NA,0.05,0.9,0.85,0.875
"240",875,"66fc6f6b55af55ffcb484925","sail","test","abstract-positive","Valence","positive","positive",1,1727876292222,"positive",1463,706,"abstract-positive","negative","negative;positive",6.55961523749324,7.28824440102012,35,"Pilot1","Morgan1",NA,NA,NA,NA,NA,0.1,0.85,0.95,0.9
"241",876,"66fc6f6b55af55ffcb484925","qualify","test","concrete-positive","Valence","positive","positive",1,1727876294007,"positive",1782,1025,"concrete-positive","negative","negative;positive",6.93244789157251,7.48549160803075,36,"Pilot1","Morgan1",NA,NA,NA,NA,NA,0.0499999999999999,0.9,0.95,0.925
"242",877,"66fc6f6b55af55ffcb484925","exploit","test","concrete-negative","Valence","positive","negative",1,1727876295551,"negative",1542,783,"concrete-negative","negative","negative;positive",6.6631326959908,7.34083555412327,37,"Pilot1","Morgan1",NA,NA,NA,NA,NA,0.1,0.85,0.95,0.9
"243",883,"66eb44c15df514b90352f406","running","test","abstract-positive","Concrete","concrete","concrete",0,1727863639706,"concrete",1844,1055,"abstract-positive","abstract","concrete;abstract",6.96129604591017,7.51969240411654,3,"Pilot1","Morgan1",NA,NA,NA,NA,NA,0,0.9,0.9,0.9
"244",885,"66eb44c15df514b90352f406","exploit","test","concrete-negative","Concrete","concrete","concrete",1,1727863643756,"concrete",1764,988,"concrete-negative","abstract","concrete;abstract",6.89568269774787,7.47533923656674,5,"Pilot1","Morgan1",NA,NA,NA,NA,NA,0.1,0.85,0.95,0.9
"245",887,"66eb44c15df514b90352f406","qualify","test","concrete-positive","Concrete","concrete","concrete",1,1727863647202,"concrete",1714,933,"concrete-positive","abstract","concrete;abstract",6.83840520084734,7.44658509915773,7,"Pilot1","Morgan1",NA,NA,NA,NA,NA,0.0499999999999999,0.9,0.95,0.925
"246",891,"66eb44c15df514b90352f406","consider","test","concrete-positive","Concrete","concrete","concrete",1,1727863654204,"concrete",1845,1070,"concrete-positive","abstract","concrete;abstract",6.97541392745595,7.52023455647463,11,"Pilot1","Morgan1",NA,NA,NA,NA,NA,0,0.9,0.9,0.9
"247",899,"66eb44c15df514b90352f406","beware","test","concrete-negative","Concrete","concrete","concrete",1,1727863668921,"concrete",2128,1340,"concrete-negative","abstract","concrete;abstract",7.20042489294496,7.66293785046154,19,"Pilot1","Morgan1",NA,NA,NA,NA,NA,0.05,0.9,0.85,0.875
"248",903,"66eb44c15df514b90352f406","feeling","test","concrete-positive","Concrete","concrete","concrete",1,1727863675573,"concrete",1452,684,"concrete-positive","abstract","concrete;abstract",6.52795791762255,7.28069719538474,23,"Pilot1","Morgan1",NA,NA,NA,NA,NA,0.15,0.8,0.95,0.875
"249",905,"66eb44c15df514b90352f406","discourage","test","concrete-negative","Concrete","concrete","concrete",1,1727863679142,"concrete",1947,1167,"concrete-negative","abstract","concrete;abstract",7.06219163228656,7.5740450053722,25,"Pilot1","Morgan1",NA,NA,NA,NA,NA,0.0499999999999999,0.95,0.9,0.925
"250",906,"66eb44c15df514b90352f406","behold","test","concrete-positive","Concrete","concrete","abstract",0,1727863680982,"abstract",1836,1061,"concrete-positive","abstract","concrete;abstract",6.96696713861398,7.51534457118044,26,"Pilot1","Morgan1",NA,NA,NA,NA,NA,0.15,0.8,0.95,0.875
"251",909,"66eb44c15df514b90352f406","hope","test","concrete-positive","Concrete","concrete","concrete",1,1727863685946,"concrete",1431,660,"concrete-positive","abstract","concrete;abstract",6.49223983502047,7.26612877955645,29,"Pilot1","Morgan1",NA,NA,NA,NA,NA,0.0475409836065575,0.9,0.852459016393443,0.876229508196721
"252",910,"66eb44c15df514b90352f406","distrust","test","concrete-negative","Concrete","concrete","concrete",1,1727863687948,"concrete",1998,1224,"concrete-negative","abstract","concrete;abstract",7.10987946307227,7.5999019592085,30,"Pilot1","Morgan1",NA,NA,NA,NA,NA,0.0326446280991735,0.95,0.917355371900826,0.933677685950413
"253",915,"66eb44c15df514b90352f406","sail","test","abstract-positive","Concrete","concrete","abstract",1,1727863696553,"abstract",1411,631,"abstract-positive","abstract","concrete;abstract",6.44730586254121,7.25205395185281,35,"Pilot1","Morgan1",NA,NA,NA,NA,NA,0.1,0.85,0.95,0.9
"254",921,"59c9c8da5535800001a8e434","discourage","test","concrete-negative","Concrete","concrete","concrete",1,1727861106261,"concrete",2086,1324,"concrete-negative","abstract","concrete;abstract",7.18841273649695,7.64300363556072,1,"Pilot1","Morgan1",NA,NA,NA,NA,NA,0.0499999999999999,0.95,0.9,0.925
"255",922,"59c9c8da5535800001a8e434","exploit","test","concrete-negative","Concrete","concrete","concrete",1,1727861108031,"concrete",1767,1012,"concrete-negative","abstract","concrete;abstract",6.91968384984741,7.4770384723197,2,"Pilot1","Morgan1",NA,NA,NA,NA,NA,0.1,0.85,0.95,0.9
"256",925,"59c9c8da5535800001a8e434","feeling","test","concrete-positive","Concrete","concrete","concrete",1,1727861112859,"concrete",1507,752,"concrete-positive","abstract","concrete;abstract",6.62273632394984,7.3178761986265,5,"Pilot1","Morgan1",NA,NA,NA,NA,NA,0.15,0.8,0.95,0.875
"257",933,"59c9c8da5535800001a8e434","distrust","test","concrete-negative","Concrete","concrete","concrete",1,1727861126557,"concrete",1664,908,"concrete-negative","abstract","concrete;abstract",6.81124437860129,7.41697962138115,13,"Pilot1","Morgan1",NA,NA,NA,NA,NA,0.0326446280991735,0.95,0.917355371900826,0.933677685950413
"258",938,"59c9c8da5535800001a8e434","hope","test","concrete-positive","Concrete","concrete","concrete",1,1727861134906,"concrete",1524,767,"concrete-positive","abstract","concrete;abstract",6.64248680136726,7.32909373624659,18,"Pilot1","Morgan1",NA,NA,NA,NA,NA,0.0475409836065575,0.9,0.852459016393443,0.876229508196721
"259",939,"59c9c8da5535800001a8e434","qualify","test","concrete-positive","Concrete","concrete","concrete",1,1727861136849,"concrete",1940,1180,"concrete-positive","abstract","concrete;abstract",7.07326971745971,7.57044325205737,19,"Pilot1","Morgan1",NA,NA,NA,NA,NA,0.0499999999999999,0.9,0.95,0.925
"260",942,"59c9c8da5535800001a8e434","beware","test","concrete-negative","Concrete","concrete","concrete",1,1727861142209,"concrete",1641,878,"concrete-negative","abstract","concrete;abstract",6.77764659363512,7.40306109109009,22,"Pilot1","Morgan1",NA,NA,NA,NA,NA,0.05,0.9,0.85,0.875
"261",945,"59c9c8da5535800001a8e434","sail","test","abstract-positive","Concrete","concrete","abstract",1,1727861148085,"abstract",2419,1663,"abstract-positive","abstract","concrete;abstract",7.41637847919293,7.79110951061003,25,"Pilot1","Morgan1",NA,NA,NA,NA,NA,0.1,0.85,0.95,0.9
"262",950,"59c9c8da5535800001a8e434","consider","test","concrete-positive","Concrete","concrete","concrete",1,1727861156643,"concrete",1651,894,"concrete-positive","abstract","concrete;abstract",6.79570577517351,7.40913644392013,30,"Pilot1","Morgan1",NA,NA,NA,NA,NA,0,0.9,0.9,0.9
"263",954,"59c9c8da5535800001a8e434","running","test","abstract-positive","Concrete","concrete","abstract",1,1727861164181,"abstract",2213,1458,"abstract-positive","abstract","concrete;abstract",7.2848209125686,7.70210434005105,34,"Pilot1","Morgan1",NA,NA,NA,NA,NA,0,0.9,0.9,0.9
"264",956,"59c9c8da5535800001a8e434","behold","test","concrete-positive","Concrete","concrete","concrete",1,1727861167787,"concrete",1617,861,"concrete-positive","abstract","concrete;abstract",6.75809450442773,7.38832785957711,36,"Pilot1","Morgan1",NA,NA,NA,NA,NA,0.15,0.8,0.95,0.875
"265",964,"614d465852620924f85603c8","consider","test","concrete-positive","Concrete","concrete","abstract",0,1727862472852,"abstract",1950,1185,"concrete-positive","abstract","concrete;abstract",7.07749805356923,7.57558465155779,4,"Pilot1","Morgan1",NA,NA,NA,NA,NA,0,0.9,0.9,0.9
"266",965,"614d465852620924f85603c8","behold","test","concrete-positive","Concrete","concrete","abstract",0,1727862474657,"abstract",1802,1036,"concrete-positive","abstract","concrete;abstract",6.94312242281943,7.49665243816828,5,"Pilot1","Morgan1",NA,NA,NA,NA,NA,0.15,0.8,0.95,0.875
"267",967,"614d465852620924f85603c8","discourage","test","concrete-negative","Concrete","concrete","abstract",0,1727862479285,"abstract",2628,1856,"concrete-negative","abstract","concrete;abstract",7.52617891334615,7.8739783796045,7,"Pilot1","Morgan1",NA,NA,NA,NA,NA,0.0499999999999999,0.95,0.9,0.925
"268",969,"614d465852620924f85603c8","distrust","test","concrete-negative","Concrete","concrete","concrete",1,1727862483667,"concrete",2060,1294,"concrete-negative","abstract","concrete;abstract",7.16549347506085,7.63046126178363,9,"Pilot1","Morgan1",NA,NA,NA,NA,NA,0.0326446280991735,0.95,0.917355371900826,0.933677685950413
"269",984,"614d465852620924f85603c8","sail","test","abstract-positive","Concrete","concrete","concrete",0,1727862516091,"concrete",1990,1233,"abstract-positive","abstract","concrete;abstract",7.11720550316434,7.59588991771854,24,"Pilot1","Morgan1",NA,NA,NA,NA,NA,0.1,0.85,0.95,0.9
"270",986,"614d465852620924f85603c8","beware","test","concrete-negative","Concrete","concrete","abstract",0,1727862520792,"abstract",2589,1823,"concrete-negative","abstract","concrete;abstract",7.50823877467866,7.85902697975154,26,"Pilot1","Morgan1",NA,NA,NA,NA,NA,0.05,0.9,0.85,0.875
"271",987,"614d465852620924f85603c8","qualify","test","concrete-positive","Concrete","concrete","abstract",0,1727862523540,"abstract",2744,1980,"concrete-positive","abstract","concrete;abstract",7.59085212368858,7.91717198884578,27,"Pilot1","Morgan1",NA,NA,NA,NA,NA,0.0499999999999999,0.9,0.95,0.925
"272",991,"614d465852620924f85603c8","hope","test","concrete-positive","Concrete","concrete","abstract",0,1727862531486,"abstract",1722,955,"concrete-positive","abstract","concrete;abstract",6.86171134048073,7.45124168498768,31,"Pilot1","Morgan1",NA,NA,NA,NA,NA,0.0475409836065575,0.9,0.852459016393443,0.876229508196721
"273",993,"614d465852620924f85603c8","running","test","abstract-positive","Concrete","concrete","abstract",1,1727862535049,"abstract",1678,913,"abstract-positive","abstract","concrete;abstract",6.81673588059497,7.42535788702715,33,"Pilot1","Morgan1",NA,NA,NA,NA,NA,0,0.9,0.9,0.9
"274",994,"614d465852620924f85603c8","exploit","test","concrete-negative","Concrete","concrete","abstract",0,1727862537691,"abstract",2639,1870,"concrete-negative","abstract","concrete;abstract",7.53369370984863,7.87815533650332,34,"Pilot1","Morgan1",NA,NA,NA,NA,NA,0.1,0.85,0.95,0.9
"275",996,"614d465852620924f85603c8","feeling","test","concrete-positive","Concrete","concrete","abstract",0,1727862543559,"abstract",2926,2159,"concrete-positive","abstract","concrete;abstract",7.67740043051481,7.98139158158007,36,"Pilot1","Morgan1",NA,NA,NA,NA,NA,0.15,0.8,0.95,0.875
"276",1007,"663e3bf980a1241697515b7f","hope","test","concrete-positive","Valence","positive","positive",1,1727875499433,"positive",1372,616,"concrete-positive","negative","negative;positive",6.42324696353352,7.22402480828583,7,"Pilot1","Morgan1",NA,NA,NA,NA,NA,0.0475409836065575,0.9,0.852459016393443,0.876229508196721
"277",1009,"663e3bf980a1241697515b7f","feeling","test","concrete-positive","Valence","positive","positive",1,1727875502598,"positive",1550,798,"concrete-positive","negative","negative;positive",6.68210859744981,7.34601020991329,9,"Pilot1","Morgan1",NA,NA,NA,NA,NA,0.15,0.8,0.95,0.875
"278",1011,"663e3bf980a1241697515b7f","beware","test","concrete-negative","Valence","positive","negative",1,1727875505717,"negative",1647,893,"concrete-negative","negative","negative;positive",6.7945865808765,7.40671073017764,11,"Pilot1","Morgan1",NA,NA,NA,NA,NA,0.05,0.9,0.85,0.875
"279",1015,"663e3bf980a1241697515b7f","qualify","test","concrete-positive","Valence","positive","positive",1,1727875512221,"positive",1501,744,"concrete-positive","negative","negative;positive",6.61204103483309,7.31388683163346,15,"Pilot1","Morgan1",NA,NA,NA,NA,NA,0.0499999999999999,0.9,0.95,0.925
"280",1018,"663e3bf980a1241697515b7f","distrust","test","concrete-negative","Valence","positive","negative",1,1727875516881,"negative",1710,956,"concrete-negative","negative","negative;positive",6.8627579130514,7.44424864949671,18,"Pilot1","Morgan1",NA,NA,NA,NA,NA,0.0326446280991735,0.95,0.917355371900826,0.933677685950413
"281",1020,"663e3bf980a1241697515b7f","consider","test","concrete-positive","Valence","positive","positive",1,1727875520138,"positive",1664,904,"concrete-positive","negative","negative;positive",6.80682936039218,7.41697962138115,20,"Pilot1","Morgan1",NA,NA,NA,NA,NA,0,0.9,0.9,0.9
"282",1021,"663e3bf980a1241697515b7f","running","test","abstract-positive","Valence","positive","positive",1,1727875522441,"positive",2301,1548,"abstract-positive","negative","negative;positive",7.34471905414967,7.74109909003537,21,"Pilot1","Morgan1",NA,NA,NA,NA,NA,0,0.9,0.9,0.9
"283",1026,"663e3bf980a1241697515b7f","discourage","test","concrete-negative","Valence","positive","negative",1,1727875530661,"negative",1535,781,"concrete-negative","negative","negative;positive",6.66057514983969,7.3362856600213,26,"Pilot1","Morgan1",NA,NA,NA,NA,NA,0.0499999999999999,0.95,0.9,0.925
"284",1035,"663e3bf980a1241697515b7f","sail","test","abstract-positive","Valence","positive","positive",1,1727875544609,"positive",1495,741,"abstract-positive","negative","negative;positive",6.60800062529609,7.30988148582479,35,"Pilot1","Morgan1",NA,NA,NA,NA,NA,0.1,0.85,0.95,0.9
"285",1037,"663e3bf980a1241697515b7f","behold","test","concrete-positive","Valence","positive","positive",1,1727875547558,"positive",1533,779,"concrete-positive","negative","negative;positive",6.65801104587075,7.33498187887181,37,"Pilot1","Morgan1",NA,NA,NA,NA,NA,0.15,0.8,0.95,0.875
"286",1038,"663e3bf980a1241697515b7f","exploit","test","concrete-negative","Valence","positive","negative",1,1727875548991,"negative",1430,675,"concrete-negative","negative","negative;positive",6.51471269087253,7.26542972325395,38,"Pilot1","Morgan1",NA,NA,NA,NA,NA,0.1,0.85,0.95,0.9
"287",1043,"56cc78e3ccc0e20006b82a7d","sail","test","abstract-positive","Valence","positive","positive",1,1727876323714,"positive",1429,671,"abstract-positive","negative","negative;positive",6.50876913697168,7.26473017792987,3,"Pilot1","Morgan1",NA,NA,NA,NA,NA,0.1,0.85,0.95,0.9
"288",1053,"56cc78e3ccc0e20006b82a7d","distrust","test","concrete-negative","Valence","positive","negative",1,1727876339881,"negative",1278,524,"concrete-negative","negative","negative;positive",6.26149168432104,7.15305163493748,13,"Pilot1","Morgan1",NA,NA,NA,NA,NA,0.0326446280991735,0.95,0.917355371900826,0.933677685950413
"289",1055,"56cc78e3ccc0e20006b82a7d","consider","test","concrete-positive","Valence","positive","positive",1,1727876342481,"positive",1254,498,"concrete-positive","negative","negative;positive",6.21060007702465,7.13409372119287,15,"Pilot1","Morgan1",NA,NA,NA,NA,NA,0,0.9,0.9,0.9
"290",1059,"56cc78e3ccc0e20006b82a7d","hope","test","concrete-positive","Valence","positive","positive",1,1727876348345,"positive",1390,638,"concrete-positive","negative","negative;positive",6.45833828334479,7.23705902612474,19,"Pilot1","Morgan1",NA,NA,NA,NA,NA,0.0475409836065575,0.9,0.852459016393443,0.876229508196721
"291",1061,"56cc78e3ccc0e20006b82a7d","behold","test","concrete-positive","Valence","positive","positive",1,1727876351346,"positive",1552,798,"concrete-positive","negative","negative;positive",6.68210859744981,7.34729970074316,21,"Pilot1","Morgan1",NA,NA,NA,NA,NA,0.15,0.8,0.95,0.875
"292",1067,"56cc78e3ccc0e20006b82a7d","feeling","test","concrete-positive","Valence","positive","positive",1,1727876359697,"positive",1438,687,"concrete-positive","negative","negative;positive",6.53233429222235,7.27100853828099,27,"Pilot1","Morgan1",NA,NA,NA,NA,NA,0.15,0.8,0.95,0.875
"293",1073,"56cc78e3ccc0e20006b82a7d","discourage","test","concrete-negative","Valence","positive","negative",1,1727876368553,"negative",1486,729,"concrete-negative","negative","negative;positive",6.59167373200866,7.3038432252777,33,"Pilot1","Morgan1",NA,NA,NA,NA,NA,0.0499999999999999,0.95,0.9,0.925
"294",1074,"56cc78e3ccc0e20006b82a7d","qualify","test","concrete-positive","Valence","positive","positive",1,1727876369977,"positive",1422,663,"concrete-positive","negative","negative;positive",6.49677499018586,7.25981961036319,34,"Pilot1","Morgan1",NA,NA,NA,NA,NA,0.0499999999999999,0.9,0.95,0.925
"295",1075,"56cc78e3ccc0e20006b82a7d","beware","test","concrete-negative","Valence","positive","negative",1,1727876371330,"negative",1351,595,"concrete-negative","negative","negative;positive",6.38856140554563,7.2086003379602,35,"Pilot1","Morgan1",NA,NA,NA,NA,NA,0.05,0.9,0.85,0.875
"296",1076,"56cc78e3ccc0e20006b82a7d","exploit","test","concrete-negative","Valence","positive","negative",1,1727876372650,"negative",1318,558,"concrete-negative","negative","negative;positive",6.32435896238131,7.18387071506245,36,"Pilot1","Morgan1",NA,NA,NA,NA,NA,0.1,0.85,0.95,0.9
"297",1079,"56cc78e3ccc0e20006b82a7d","running","test","abstract-positive","Valence","positive","positive",1,1727876376650,"positive",1480,726,"abstract-positive","negative","negative;positive",6.5875500148248,7.29979736675816,39,"Pilot1","Morgan1",NA,NA,NA,NA,NA,0,0.9,0.9,0.9
"298",1085,"5ef283718092040ec9e39ca2","feeling","test","concrete-positive","Valence","positive","positive",1,1727876201427,"positive",2041,1285,"concrete-positive","negative","negative;positive",7.15851399732932,7.62119516280984,5,"Pilot1","Morgan1",NA,NA,NA,NA,NA,0.15,0.8,0.95,0.875
"299",1086,"5ef283718092040ec9e39ca2","qualify","test","concrete-positive","Valence","positive","positive",1,1727876203098,"positive",1669,916,"concrete-positive","negative","negative;positive",6.82001636467413,7.41997992366183,6,"Pilot1","Morgan1",NA,NA,NA,NA,NA,0.0499999999999999,0.9,0.95,0.925
"300",1091,"5ef283718092040ec9e39ca2","discourage","test","concrete-negative","Valence","positive","negative",1,1727876212657,"negative",2634,1875,"concrete-negative","negative","negative;positive",7.53636393840451,7.87625888230323,11,"Pilot1","Morgan1",NA,NA,NA,NA,NA,0.0499999999999999,0.95,0.9,0.925
"301",1095,"5ef283718092040ec9e39ca2","beware","test","concrete-negative","Valence","positive","negative",1,1727876220466,"negative",2685,1931,"concrete-negative","negative","negative;positive",7.56579328242851,7.89543600694297,15,"Pilot1","Morgan1",NA,NA,NA,NA,NA,0.05,0.9,0.85,0.875
"302",1096,"5ef283718092040ec9e39ca2","behold","test","concrete-positive","Valence","positive","positive",1,1727876222313,"positive",1845.5,1092,"concrete-positive","negative","negative;positive",6.99576615630485,7.52050552247005,16,"Pilot1","Morgan1",NA,NA,NA,NA,NA,0.15,0.8,0.95,0.875
"303",1098,"5ef283718092040ec9e39ca2","running","test","abstract-positive","Valence","positive","positive",1,1727876226681,"positive",2641,1891,"abstract-positive","negative","negative;positive",7.54486106865846,7.87891291229713,18,"Pilot1","Morgan1",NA,NA,NA,NA,NA,0,0.9,0.9,0.9
"304",1105,"5ef283718092040ec9e39ca2","consider","test","concrete-positive","Valence","positive","positive",1,1727876240189,"positive",1890,1136,"concrete-positive","negative","negative;positive",7.0352685992811,7.54433210805369,25,"Pilot1","Morgan1",NA,NA,NA,NA,NA,0,0.9,0.9,0.9
"305",1106,"5ef283718092040ec9e39ca2","hope","test","concrete-positive","Valence","positive","positive",1,1727876241740,"positive",1549,791,"concrete-positive","negative","negative;positive",6.67329796776765,7.34536484041687,26,"Pilot1","Morgan1",NA,NA,NA,NA,NA,0.0475409836065575,0.9,0.852459016393443,0.876229508196721
"306",1108,"5ef283718092040ec9e39ca2","sail","test","abstract-positive","Valence","positive","positive",1,1727876245568,"positive",1878,1123,"abstract-positive","negative","negative;positive",7.02375895473844,7.53796265976821,28,"Pilot1","Morgan1",NA,NA,NA,NA,NA,0.1,0.85,0.95,0.9
"307",1109,"5ef283718092040ec9e39ca2","distrust","test","concrete-negative","Valence","positive","negative",1,1727876247183,"negative",1614,858,"concrete-negative","negative","negative;positive",6.75460409948796,7.38647084882989,29,"Pilot1","Morgan1",NA,NA,NA,NA,NA,0.0326446280991735,0.95,0.917355371900826,0.933677685950413
"308",1112,"5ef283718092040ec9e39ca2","exploit","test","concrete-negative","Valence","positive","negative",1,1727876252367,"negative",1796,1043,"concrete-negative","negative","negative;positive",6.94985645500077,7.49331724886215,32,"Pilot1","Morgan1",NA,NA,NA,NA,NA,0.1,0.85,0.95,0.9
"309",1123,"66a9843c53827f826e9738ed","exploit","test","concrete-negative","Concrete","concrete","concrete",1,1727862990747,"concrete",1963,1204,"concrete-negative","abstract","concrete;abstract",7.09340462586877,7.58222919427646,3,"Pilot1","Morgan1",NA,NA,NA,NA,NA,0.1,0.85,0.95,0.9
"310",1127,"66a9843c53827f826e9738ed","behold","test","concrete-positive","Concrete","concrete","concrete",1,1727863001401,"concrete",2617,1857,"concrete-positive","abstract","concrete;abstract",7.52671756135271,7.86978390253015,7,"Pilot1","Morgan1",NA,NA,NA,NA,NA,0.15,0.8,0.95,0.875
"311",1131,"66a9843c53827f826e9738ed","sail","test","abstract-positive","Concrete","concrete","abstract",1,1727863014966,"abstract",2391.5,1635,"abstract-positive","abstract","concrete;abstract",7.39939808333135,7.77967606312035,11,"Pilot1","Morgan1",NA,NA,NA,NA,NA,0.1,0.85,0.95,0.9
"312",1134,"66a9843c53827f826e9738ed","hope","test","concrete-positive","Concrete","concrete","concrete",1,1727863024384,"concrete",1855,1096,"concrete-positive","abstract","concrete;abstract",6.99942246750796,7.52563997504154,14,"Pilot1","Morgan1",NA,NA,NA,NA,NA,0.0475409836065575,0.9,0.852459016393443,0.876229508196721
"313",1135,"66a9843c53827f826e9738ed","running","test","abstract-positive","Concrete","concrete","abstract",1,1727863027179,"abstract",2789,2032,"abstract-positive","abstract","concrete;abstract",7.61677580869837,7.93343838762749,15,"Pilot1","Morgan1",NA,NA,NA,NA,NA,0,0.9,0.9,0.9
"314",1139,"66a9843c53827f826e9738ed","beware","test","concrete-negative","Concrete","concrete","concrete",1,1727863047924,"concrete",1884,1126,"concrete-negative","abstract","concrete;abstract",7.02642680869964,7.54115245513631,19,"Pilot1","Morgan1",NA,NA,NA,NA,NA,0.05,0.9,0.85,0.875
"315",1147,"66a9843c53827f826e9738ed","discourage","test","concrete-negative","Concrete","concrete","concrete",1,1727863072971,"concrete",3732,2975,"concrete-negative","abstract","concrete;abstract",7.99799931797973,8.22469956196723,27,"Pilot1","Morgan1",NA,NA,NA,NA,NA,0.0499999999999999,0.95,0.9,0.925
"316",1150,"66a9843c53827f826e9738ed","feeling","test","concrete-positive","Concrete","concrete","concrete",1,1727863079321,"concrete",1713,958,"concrete-positive","abstract","concrete;abstract",6.86484777797086,7.44600149832412,30,"Pilot1","Morgan1",NA,NA,NA,NA,NA,0.15,0.8,0.95,0.875
"317",1151,"66a9843c53827f826e9738ed","qualify","test","concrete-positive","Concrete","concrete","concrete",1,1727863081637,"concrete",2311,1554,"concrete-positive","abstract","concrete;abstract",7.34858753092759,7.74543561027438,31,"Pilot1","Morgan1",NA,NA,NA,NA,NA,0.0499999999999999,0.9,0.95,0.925
"318",1153,"66a9843c53827f826e9738ed","consider","test","concrete-positive","Concrete","concrete","concrete",1,1727863085761,"concrete",2002,1246,"concrete-positive","abstract","concrete;abstract",7.1276936993474,7.60190195987517,33,"Pilot1","Morgan1",NA,NA,NA,NA,NA,0,0.9,0.9,0.9
"319",1159,"66a9843c53827f826e9738ed","distrust","test","concrete-negative","Concrete","concrete","concrete",1,1727863100023,"concrete",2381,1625,"concrete-negative","abstract","concrete;abstract",7.39326309476384,7.77527584648686,39,"Pilot1","Morgan1",NA,NA,NA,NA,NA,0.0326446280991735,0.95,0.917355371900826,0.933677685950413
"320",1163,"66fb245e0d8b295716def17c","hope","test","concrete-positive","Valence","positive","positive",1,1727878579866,"positive",1375,617,"concrete-positive","negative","negative;positive",6.42486902390539,7.22620901010067,3,"Pilot1","Morgan1",NA,NA,NA,NA,NA,0.0475409836065575,0.9,0.852459016393443,0.876229508196721
"321",1164,"66fb245e0d8b295716def17c","discourage","test","concrete-negative","Valence","positive","negative",1,1727878581353,"negative",1486,731,"concrete-negative","negative","negative;positive",6.59441345974978,7.3038432252777,4,"Pilot1","Morgan1",NA,NA,NA,NA,NA,0.0499999999999999,0.95,0.9,0.925
"322",1173,"66fb245e0d8b295716def17c","qualify","test","concrete-positive","Valence","positive","positive",1,1727878596041,"positive",1310,554,"concrete-positive","negative","negative;positive",6.31716468674728,7.1777824161952,13,"Pilot1","Morgan1",NA,NA,NA,NA,NA,0.0499999999999999,0.9,0.95,0.925
"323",1176,"66fb245e0d8b295716def17c","sail","test","abstract-positive","Valence","positive","positive",1,1727878601057,"positive",1814,1060,"abstract-positive","negative","negative;positive",6.96602418710611,7.50328963067508,16,"Pilot1","Morgan1",NA,NA,NA,NA,NA,0.1,0.85,0.95,0.9
"324",1180,"66fb245e0d8b295716def17c","feeling","test","concrete-positive","Valence","positive","positive",1,1727878608505,"positive",1846,1088,"concrete-positive","negative","negative;positive",6.99209642741589,7.5207764150628,20,"Pilot1","Morgan1",NA,NA,NA,NA,NA,0.15,0.8,0.95,0.875
"325",1181,"66fb245e0d8b295716def17c","behold","test","concrete-positive","Valence","positive","positive",1,1727878610481,"positive",1975,1217,"concrete-positive","negative","negative;positive",7.10414409298753,7.58832367733522,21,"Pilot1","Morgan1",NA,NA,NA,NA,NA,0.15,0.8,0.95,0.875
"326",1184,"66fb245e0d8b295716def17c","beware","test","concrete-negative","Valence","positive","negative",1,1727878616104,"negative",1854,1096,"concrete-negative","negative","negative;positive",6.99942246750796,7.5251007461258,24,"Pilot1","Morgan1",NA,NA,NA,NA,NA,0.05,0.9,0.85,0.875
"327",1185,"66fb245e0d8b295716def17c","running","test","abstract-positive","Valence","positive","positive",1,1727878617856,"positive",1750,991,"abstract-positive","negative","negative;positive",6.89871453432999,7.46737106691756,25,"Pilot1","Morgan1",NA,NA,NA,NA,NA,0,0.9,0.9,0.9
"328",1194,"66fb245e0d8b295716def17c","consider","test","concrete-positive","Valence","positive","negative",0,1727878634103,"negative",2734,1975,"concrete-positive","negative","negative;positive",7.58832367733522,7.91352101728389,34,"Pilot1","Morgan1",NA,NA,NA,NA,NA,0,0.9,0.9,0.9
"329",1195,"66fb245e0d8b295716def17c","exploit","test","concrete-negative","Valence","positive","negative",1,1727878635607,"negative",1502,748,"concrete-negative","negative","negative;positive",6.61740297797448,7.31455283232408,35,"Pilot1","Morgan1",NA,NA,NA,NA,NA,0.1,0.85,0.95,0.9
"330",1200,"66fb245e0d8b295716def17c","distrust","test","concrete-negative","Valence","positive","negative",1,1727878644311,"negative",1414,659,"concrete-negative","negative","negative;positive",6.49072353450251,7.25417784645652,40,"Pilot1","Morgan1",NA,NA,NA,NA,NA,0.0326446280991735,0.95,0.917355371900826,0.933677685950413
"331",1202,"66c495953ba22743c08a8833","hope","test","concrete-positive","Valence","positive","positive",1,1727876118981,"positive",1295,532,"concrete-positive","negative","negative;positive",6.27664348934164,7.16626597413364,2,"Pilot1","Morgan1",NA,NA,NA,NA,NA,0.0475409836065575,0.9,0.852459016393443,0.876229508196721
"332",1203,"66c495953ba22743c08a8833","feeling","test","concrete-positive","Valence","positive","positive",1,1727876120265,"positive",1282,510,"concrete-positive","negative","negative;positive",6.23441072571837,7.15617663748062,3,"Pilot1","Morgan1",NA,NA,NA,NA,NA,0.15,0.8,0.95,0.875
"333",1210,"66c495953ba22743c08a8833","sail","test","abstract-positive","Valence","positive","positive",1,1727876131400,"positive",1405,643,"abstract-positive","negative","negative;positive",6.46614472423762,7.24779258176785,10,"Pilot1","Morgan1",NA,NA,NA,NA,NA,0.1,0.85,0.95,0.9
"334",1212,"66c495953ba22743c08a8833","exploit","test","concrete-negative","Valence","positive","negative",1,1727876134239,"negative",1388,622,"concrete-negative","negative","negative;positive",6.43294009273918,7.23561914106675,12,"Pilot1","Morgan1",NA,NA,NA,NA,NA,0.1,0.85,0.95,0.9
"335",1214,"66c495953ba22743c08a8833","qualify","test","concrete-positive","Valence","positive","positive",1,1727876137220,"positive",1399,629,"concrete-positive","negative","negative;positive",6.44413125670044,7.24351297466548,14,"Pilot1","Morgan1",NA,NA,NA,NA,NA,0.0499999999999999,0.9,0.95,0.925
"336",1215,"66c495953ba22743c08a8833","discourage","test","concrete-negative","Valence","positive","negative",1,1727876138793,"negative",1572,804,"concrete-negative","negative","negative;positive",6.68959926917897,7.36010397298915,15,"Pilot1","Morgan1",NA,NA,NA,NA,NA,0.0499999999999999,0.95,0.9,0.925
"337",1216,"66c495953ba22743c08a8833","distrust","test","concrete-negative","Valence","positive","negative",1,1727876140265,"negative",1470,712,"concrete-negative","negative","negative;positive",6.56807791141198,7.29301767977278,16,"Pilot1","Morgan1",NA,NA,NA,NA,NA,0.0326446280991735,0.95,0.917355371900826,0.933677685950413
"338",1218,"66c495953ba22743c08a8833","behold","test","concrete-positive","Valence","positive","positive",1,1727876143547,"positive",1720,945,"concrete-positive","negative","negative;positive",6.85118492749374,7.4500795698075,18,"Pilot1","Morgan1",NA,NA,NA,NA,NA,0.15,0.8,0.95,0.875
"339",1225,"66c495953ba22743c08a8833","consider","test","concrete-positive","Valence","positive","positive",1,1727876153901,"positive",1545,780,"concrete-positive","negative","negative;positive",6.65929391968364,7.34277918933185,25,"Pilot1","Morgan1",NA,NA,NA,NA,NA,0,0.9,0.9,0.9
"340",1230,"66c495953ba22743c08a8833","beware","test","concrete-negative","Valence","positive","negative",1,1727876161612,"negative",1669,888,"concrete-negative","negative","negative;positive",6.78897174299217,7.41997992366183,30,"Pilot1","Morgan1",NA,NA,NA,NA,NA,0.05,0.9,0.85,0.875
