#
# Results on Mon, 13 Jan 2025 12:19:55 GMT
# USER AGENT: Mozilla/5.0 (Windows NT 10.0; Win64; x64; rv:133.0) Gecko/20100101 Firefox/133.0
# Design number was non-random = 0
#
# Columns below this comment are as follows:
# 1. Results reception time.
# 2. MD5 hash of participant's IP address.
# 3. Controller name.
# 4. Order number of item.
# 5. Inner element number.
# 6. Label.
# 7. Latin Square Group.
# 8. PennElementType.
# 9. PennElementName.
# 10. Parameter.
# 11. Value.
# 12. EventTime.
# 13. Comments.
1736770795,1ba735c5ab5e4a6bb6cf5d7c7b9fc8d9,PennController,1,0,welcome,NULL,PennController,0,_Trial_,Start,1736770271233,NULL
1736770795,1ba735c5ab5e4a6bb6cf5d7c7b9fc8d9,PennController,1,0,welcome,NULL,PennController,0,_Header_,Start,1736770271233,NULL
1736770795,1ba735c5ab5e4a6bb6cf5d7c7b9fc8d9,PennController,1,0,welcome,NULL,PennController,0,_Header_,End,1736770271489,NULL
1736770795,1ba735c5ab5e4a6bb6cf5d7c7b9fc8d9,PennController,1,0,welcome,NULL,PennController,0,_Trial_,End,1736770288687,NULL
# 13. ID.
# 14. Comments.
1736770795,1ba735c5ab5e4a6bb6cf5d7c7b9fc8d9,PennController,124,0,consent,NULL,PennController,2,_Trial_,Start,1736770288690,62fe6312269d0e4ae894297b,NULL
1736770795,1ba735c5ab5e4a6bb6cf5d7c7b9fc8d9,PennController,124,0,consent,NULL,PennController,2,_Header_,Start,1736770288690,62fe6312269d0e4ae894297b,NULL
1736770795,1ba735c5ab5e4a6bb6cf5d7c7b9fc8d9,PennController,124,0,consent,NULL,PennController,2,_Header_,End,1736770288951,62fe6312269d0e4ae894297b,NULL
1736770795,1ba735c5ab5e4a6bb6cf5d7c7b9fc8d9,PennController,124,0,consent,NULL,TextInput,ID,Final,62fe6312269d0e4ae894297b,1736770295540,62fe6312269d0e4ae894297b,NULL
1736770795,1ba735c5ab5e4a6bb6cf5d7c7b9fc8d9,PennController,124,0,consent,NULL,PennController,2,_Trial_,End,1736770295540,62fe6312269d0e4ae894297b,NULL
# 13. Comments.
1736770795,1ba735c5ab5e4a6bb6cf5d7c7b9fc8d9,PennController,126,0,instructions1_val,NULL,PennController,4,_Trial_,Start,1736770295541,NULL
1736770795,1ba735c5ab5e4a6bb6cf5d7c7b9fc8d9,PennController,126,0,instructions1_val,NULL,PennController,4,_Header_,Start,1736770295541,NULL
1736770795,1ba735c5ab5e4a6bb6cf5d7c7b9fc8d9,PennController,126,0,instructions1_val,NULL,PennController,4,_Header_,End,1736770295799,NULL
1736770795,1ba735c5ab5e4a6bb6cf5d7c7b9fc8d9,PennController,126,0,instructions1_val,NULL,PennController,4,_Trial_,End,1736770304438,NULL
1736770795,1ba735c5ab5e4a6bb6cf5d7c7b9fc8d9,PennController,127,0,instructions2_val,NULL,PennController,5,_Trial_,Start,1736770304439,NULL
1736770795,1ba735c5ab5e4a6bb6cf5d7c7b9fc8d9,PennController,127,0,instructions2_val,NULL,PennController,5,_Header_,Start,1736770304439,NULL
1736770795,1ba735c5ab5e4a6bb6cf5d7c7b9fc8d9,PennController,127,0,instructions2_val,NULL,PennController,5,_Header_,End,1736770304693,NULL
1736770795,1ba735c5ab5e4a6bb6cf5d7c7b9fc8d9,PennController,127,0,instructions2_val,NULL,PennController,5,_Trial_,End,1736770307899,NULL
1736770795,1ba735c5ab5e4a6bb6cf5d7c7b9fc8d9,PennController,128,0,instructions3_hands,NULL,PennController,6,_Trial_,Start,1736770307900,NULL
1736770795,1ba735c5ab5e4a6bb6cf5d7c7b9fc8d9,PennController,128,0,instructions3_hands,NULL,PennController,6,_Header_,Start,1736770307900,NULL
1736770795,1ba735c5ab5e4a6bb6cf5d7c7b9fc8d9,PennController,128,0,instructions3_hands,NULL,PennController,6,_Header_,End,1736770308155,NULL
1736770795,1ba735c5ab5e4a6bb6cf5d7c7b9fc8d9,PennController,128,0,instructions3_hands,NULL,PennController,6,_Trial_,End,1736770309840,NULL
1736770795,1ba735c5ab5e4a6bb6cf5d7c7b9fc8d9,PennController,129,0,practice_intro_val,NULL,PennController,7,_Trial_,Start,1736770309840,NULL
1736770795,1ba735c5ab5e4a6bb6cf5d7c7b9fc8d9,PennController,129,0,practice_intro_val,NULL,PennController,7,_Header_,Start,1736770309840,NULL
1736770795,1ba735c5ab5e4a6bb6cf5d7c7b9fc8d9,PennController,129,0,practice_intro_val,NULL,PennController,7,_Header_,End,1736770310098,NULL
1736770795,1ba735c5ab5e4a6bb6cf5d7c7b9fc8d9,PennController,129,0,practice_intro_val,NULL,PennController,7,_Trial_,End,1736770311048,NULL
# 13. ID.
# 14. ReactionTime.
# 15. Word.
# 16. selectedKey.
# 17. selectedValue.
# 18. Key_value_F.
# 19. Key_value_J.
# 20. Group.
# 21. Comments.
1736770795,1ba735c5ab5e4a6bb6cf5d7c7b9fc8d9,PennController,105,0,calibrator_val_feedback,NULL,PennController,116,_Trial_,Start,1736770311049,undefined,890,grin,undefined,positive,negative,positive,A,NULL
1736770795,1ba735c5ab5e4a6bb6cf5d7c7b9fc8d9,PennController,105,0,calibrator_val_feedback,NULL,PennController,116,_Header_,Start,1736770311049,undefined,890,grin,undefined,positive,negative,positive,A,NULL
1736770795,1ba735c5ab5e4a6bb6cf5d7c7b9fc8d9,PennController,105,0,calibrator_val_feedback,NULL,PennController,116,_Header_,End,1736770311300,undefined,890,grin,undefined,positive,negative,positive,A,NULL
1736770795,1ba735c5ab5e4a6bb6cf5d7c7b9fc8d9,PennController,105,0,calibrator_val_feedback,NULL,Selector,Selection,Selection,positive,1736770313791,undefined,890,grin,undefined,positive,negative,positive,A,negative;positive
1736770795,1ba735c5ab5e4a6bb6cf5d7c7b9fc8d9,PennController,105,0,calibrator_val_feedback,NULL,PennController,116,_Trial_,End,1736770314710,undefined,890,grin,undefined,positive,negative,positive,A,NULL
1736770795,1ba735c5ab5e4a6bb6cf5d7c7b9fc8d9,PennController,109,0,calibrator_val_feedback,NULL,PennController,120,_Trial_,Start,1736770314710,undefined,1334,insecure,undefined,positive,negative,positive,A,NULL
1736770795,1ba735c5ab5e4a6bb6cf5d7c7b9fc8d9,PennController,109,0,calibrator_val_feedback,NULL,PennController,120,_Header_,Start,1736770314710,undefined,1334,insecure,undefined,positive,negative,positive,A,NULL
1736770795,1ba735c5ab5e4a6bb6cf5d7c7b9fc8d9,PennController,109,0,calibrator_val_feedback,NULL,PennController,120,_Header_,End,1736770314972,undefined,1334,insecure,undefined,positive,negative,positive,A,NULL
1736770795,1ba735c5ab5e4a6bb6cf5d7c7b9fc8d9,PennController,109,0,calibrator_val_feedback,NULL,Selector,Selection,Selection,negative,1736770316816,undefined,1334,insecure,undefined,positive,negative,positive,A,negative;positive
1736770795,1ba735c5ab5e4a6bb6cf5d7c7b9fc8d9,PennController,109,0,calibrator_val_feedback,NULL,PennController,120,_Trial_,End,1736770318822,undefined,1334,insecure,undefined,positive,negative,positive,A,NULL
1736770795,1ba735c5ab5e4a6bb6cf5d7c7b9fc8d9,PennController,106,0,calibrator_val_feedback,NULL,PennController,117,_Trial_,Start,1736770318823,undefined,1511,hat,undefined,positive,negative,positive,A,NULL
1736770795,1ba735c5ab5e4a6bb6cf5d7c7b9fc8d9,PennController,106,0,calibrator_val_feedback,NULL,PennController,117,_Header_,Start,1736770318823,undefined,1511,hat,undefined,positive,negative,positive,A,NULL
1736770795,1ba735c5ab5e4a6bb6cf5d7c7b9fc8d9,PennController,106,0,calibrator_val_feedback,NULL,PennController,117,_Header_,End,1736770319083,undefined,1511,hat,undefined,positive,negative,positive,A,NULL
1736770795,1ba735c5ab5e4a6bb6cf5d7c7b9fc8d9,PennController,106,0,calibrator_val_feedback,NULL,Selector,Selection,Selection,positive,1736770321104,undefined,1511,hat,undefined,positive,negative,positive,A,negative;positive
1736770795,1ba735c5ab5e4a6bb6cf5d7c7b9fc8d9,PennController,106,0,calibrator_val_feedback,NULL,PennController,117,_Trial_,End,1736770323116,undefined,1511,hat,undefined,positive,negative,positive,A,NULL
1736770795,1ba735c5ab5e4a6bb6cf5d7c7b9fc8d9,PennController,112,0,calibrator_val_feedback,NULL,PennController,123,_Trial_,Start,1736770323117,undefined,906,joke,undefined,positive,negative,positive,A,NULL
1736770795,1ba735c5ab5e4a6bb6cf5d7c7b9fc8d9,PennController,112,0,calibrator_val_feedback,NULL,PennController,123,_Header_,Start,1736770323117,undefined,906,joke,undefined,positive,negative,positive,A,NULL
1736770795,1ba735c5ab5e4a6bb6cf5d7c7b9fc8d9,PennController,112,0,calibrator_val_feedback,NULL,PennController,123,_Header_,End,1736770323378,undefined,906,joke,undefined,positive,negative,positive,A,NULL
1736770795,1ba735c5ab5e4a6bb6cf5d7c7b9fc8d9,PennController,112,0,calibrator_val_feedback,NULL,Selector,Selection,Selection,positive,1736770324792,undefined,906,joke,undefined,positive,negative,positive,A,negative;positive
1736770795,1ba735c5ab5e4a6bb6cf5d7c7b9fc8d9,PennController,112,0,calibrator_val_feedback,NULL,PennController,123,_Trial_,End,1736770326805,undefined,906,joke,undefined,positive,negative,positive,A,NULL
1736770795,1ba735c5ab5e4a6bb6cf5d7c7b9fc8d9,PennController,107,0,calibrator_val_feedback,NULL,PennController,118,_Trial_,Start,1736770326806,undefined,1160,icebox,undefined,positive,negative,positive,A,NULL
1736770795,1ba735c5ab5e4a6bb6cf5d7c7b9fc8d9,PennController,107,0,calibrator_val_feedback,NULL,PennController,118,_Header_,Start,1736770326806,undefined,1160,icebox,undefined,positive,negative,positive,A,NULL
1736770795,1ba735c5ab5e4a6bb6cf5d7c7b9fc8d9,PennController,107,0,calibrator_val_feedback,NULL,PennController,118,_Header_,End,1736770327068,undefined,1160,icebox,undefined,positive,negative,positive,A,NULL
1736770795,1ba735c5ab5e4a6bb6cf5d7c7b9fc8d9,PennController,107,0,calibrator_val_feedback,NULL,Selector,Selection,Selection,positive,1736770328735,undefined,1160,icebox,undefined,positive,negative,positive,A,negative;positive
1736770795,1ba735c5ab5e4a6bb6cf5d7c7b9fc8d9,PennController,107,0,calibrator_val_feedback,NULL,PennController,118,_Trial_,End,1736770330743,undefined,1160,icebox,undefined,positive,negative,positive,A,NULL
1736770795,1ba735c5ab5e4a6bb6cf5d7c7b9fc8d9,PennController,113,0,calibrator_val_feedback,NULL,PennController,124,_Trial_,Start,1736770330744,undefined,858,kitten,undefined,positive,negative,positive,A,NULL
1736770795,1ba735c5ab5e4a6bb6cf5d7c7b9fc8d9,PennController,113,0,calibrator_val_feedback,NULL,PennController,124,_Header_,Start,1736770330744,undefined,858,kitten,undefined,positive,negative,positive,A,NULL
1736770795,1ba735c5ab5e4a6bb6cf5d7c7b9fc8d9,PennController,113,0,calibrator_val_feedback,NULL,PennController,124,_Header_,End,1736770331001,undefined,858,kitten,undefined,positive,negative,positive,A,NULL
1736770795,1ba735c5ab5e4a6bb6cf5d7c7b9fc8d9,PennController,113,0,calibrator_val_feedback,NULL,Selector,Selection,Selection,positive,1736770332368,undefined,858,kitten,undefined,positive,negative,positive,A,negative;positive
1736770795,1ba735c5ab5e4a6bb6cf5d7c7b9fc8d9,PennController,113,0,calibrator_val_feedback,NULL,PennController,124,_Trial_,End,1736770334379,undefined,858,kitten,undefined,positive,negative,positive,A,NULL
1736770795,1ba735c5ab5e4a6bb6cf5d7c7b9fc8d9,PennController,110,0,calibrator_val_feedback,NULL,PennController,121,_Trial_,Start,1736770334380,undefined,809,invader,undefined,positive,negative,positive,A,NULL
1736770795,1ba735c5ab5e4a6bb6cf5d7c7b9fc8d9,PennController,110,0,calibrator_val_feedback,NULL,PennController,121,_Header_,Start,1736770334380,undefined,809,invader,undefined,positive,negative,positive,A,NULL
1736770795,1ba735c5ab5e4a6bb6cf5d7c7b9fc8d9,PennController,110,0,calibrator_val_feedback,NULL,PennController,121,_Header_,End,1736770334642,undefined,809,invader,undefined,positive,negative,positive,A,NULL
1736770795,1ba735c5ab5e4a6bb6cf5d7c7b9fc8d9,PennController,110,0,calibrator_val_feedback,NULL,Selector,Selection,Selection,negative,1736770335960,undefined,809,invader,undefined,positive,negative,positive,A,negative;positive
1736770795,1ba735c5ab5e4a6bb6cf5d7c7b9fc8d9,PennController,110,0,calibrator_val_feedback,NULL,PennController,121,_Trial_,End,1736770337975,undefined,809,invader,undefined,positive,negative,positive,A,NULL
1736770795,1ba735c5ab5e4a6bb6cf5d7c7b9fc8d9,PennController,111,0,calibrator_val_feedback,NULL,PennController,122,_Trial_,Start,1736770337975,undefined,643,jail,undefined,positive,negative,positive,A,NULL
1736770795,1ba735c5ab5e4a6bb6cf5d7c7b9fc8d9,PennController,111,0,calibrator_val_feedback,NULL,PennController,122,_Header_,Start,1736770337975,undefined,643,jail,undefined,positive,negative,positive,A,NULL
1736770795,1ba735c5ab5e4a6bb6cf5d7c7b9fc8d9,PennController,111,0,calibrator_val_feedback,NULL,PennController,122,_Header_,End,1736770338236,undefined,643,jail,undefined,positive,negative,positive,A,NULL
1736770795,1ba735c5ab5e4a6bb6cf5d7c7b9fc8d9,PennController,111,0,calibrator_val_feedback,NULL,Selector,Selection,Selection,negative,1736770339383,undefined,643,jail,undefined,positive,negative,positive,A,negative;positive
1736770795,1ba735c5ab5e4a6bb6cf5d7c7b9fc8d9,PennController,111,0,calibrator_val_feedback,NULL,PennController,122,_Trial_,End,1736770341386,undefined,643,jail,undefined,positive,negative,positive,A,NULL
1736770795,1ba735c5ab5e4a6bb6cf5d7c7b9fc8d9,PennController,108,0,calibrator_val_feedback,NULL,PennController,119,_Trial_,Start,1736770341386,undefined,1204,industry,undefined,positive,negative,positive,A,NULL
1736770795,1ba735c5ab5e4a6bb6cf5d7c7b9fc8d9,PennController,108,0,calibrator_val_feedback,NULL,PennController,119,_Header_,Start,1736770341387,undefined,1204,industry,undefined,positive,negative,positive,A,NULL
1736770795,1ba735c5ab5e4a6bb6cf5d7c7b9fc8d9,PennController,108,0,calibrator_val_feedback,NULL,PennController,119,_Header_,End,1736770341648,undefined,1204,industry,undefined,positive,negative,positive,A,NULL
1736770795,1ba735c5ab5e4a6bb6cf5d7c7b9fc8d9,PennController,108,0,calibrator_val_feedback,NULL,Selector,Selection,Selection,positive,1736770343360,undefined,1204,industry,undefined,positive,negative,positive,A,negative;positive
1736770795,1ba735c5ab5e4a6bb6cf5d7c7b9fc8d9,PennController,108,0,calibrator_val_feedback,NULL,PennController,119,_Trial_,End,1736770345364,undefined,1204,industry,undefined,positive,negative,positive,A,NULL
1736770795,1ba735c5ab5e4a6bb6cf5d7c7b9fc8d9,PennController,104,0,calibrator_val_feedback,NULL,PennController,115,_Trial_,Start,1736770345366,undefined,786,free,undefined,positive,negative,positive,A,NULL
1736770795,1ba735c5ab5e4a6bb6cf5d7c7b9fc8d9,PennController,104,0,calibrator_val_feedback,NULL,PennController,115,_Header_,Start,1736770345366,undefined,786,free,undefined,positive,negative,positive,A,NULL
1736770795,1ba735c5ab5e4a6bb6cf5d7c7b9fc8d9,PennController,104,0,calibrator_val_feedback,NULL,PennController,115,_Header_,End,1736770345626,undefined,786,free,undefined,positive,negative,positive,A,NULL
1736770795,1ba735c5ab5e4a6bb6cf5d7c7b9fc8d9,PennController,104,0,calibrator_val_feedback,NULL,Selector,Selection,Selection,positive,1736770346919,undefined,786,free,undefined,positive,negative,positive,A,negative;positive
1736770795,1ba735c5ab5e4a6bb6cf5d7c7b9fc8d9,PennController,104,0,calibrator_val_feedback,NULL,PennController,115,_Trial_,End,1736770348923,undefined,786,free,undefined,positive,negative,positive,A,NULL
# 16. Key_value_F.
# 17. Key_value_J.
# 18. Group.
# 19. Comments.
1736770795,1ba735c5ab5e4a6bb6cf5d7c7b9fc8d9,PennController,118,0,calibrator_val_no_feedback,NULL,PennController,129,_Trial_,Start,1736770348924,undefined,754,industry,negative,positive,A,NULL
1736770795,1ba735c5ab5e4a6bb6cf5d7c7b9fc8d9,PennController,118,0,calibrator_val_no_feedback,NULL,PennController,129,_Header_,Start,1736770348924,undefined,754,industry,negative,positive,A,NULL
1736770795,1ba735c5ab5e4a6bb6cf5d7c7b9fc8d9,PennController,118,0,calibrator_val_no_feedback,NULL,PennController,129,_Header_,End,1736770349182,undefined,754,industry,negative,positive,A,NULL
1736770795,1ba735c5ab5e4a6bb6cf5d7c7b9fc8d9,PennController,118,0,calibrator_val_no_feedback,NULL,Selector,unnamed-Selector,Selection,positive,1736770350441,undefined,754,industry,negative,positive,A,negative;positive
1736770795,1ba735c5ab5e4a6bb6cf5d7c7b9fc8d9,PennController,118,0,calibrator_val_no_feedback,NULL,PennController,129,_Trial_,End,1736770350441,undefined,754,industry,negative,positive,A,NULL
1736770795,1ba735c5ab5e4a6bb6cf5d7c7b9fc8d9,PennController,119,0,calibrator_val_no_feedback,NULL,PennController,130,_Trial_,Start,1736770350442,undefined,856,insecure,negative,positive,A,NULL
1736770795,1ba735c5ab5e4a6bb6cf5d7c7b9fc8d9,PennController,119,0,calibrator_val_no_feedback,NULL,PennController,130,_Header_,Start,1736770350442,undefined,856,insecure,negative,positive,A,NULL
1736770795,1ba735c5ab5e4a6bb6cf5d7c7b9fc8d9,PennController,119,0,calibrator_val_no_feedback,NULL,PennController,130,_Header_,End,1736770350701,undefined,856,insecure,negative,positive,A,NULL
1736770795,1ba735c5ab5e4a6bb6cf5d7c7b9fc8d9,PennController,119,0,calibrator_val_no_feedback,NULL,Selector,unnamed-Selector,Selection,negative,1736770352064,undefined,856,insecure,negative,positive,A,negative;positive
1736770795,1ba735c5ab5e4a6bb6cf5d7c7b9fc8d9,PennController,119,0,calibrator_val_no_feedback,NULL,PennController,130,_Trial_,End,1736770352064,undefined,856,insecure,negative,positive,A,NULL
1736770795,1ba735c5ab5e4a6bb6cf5d7c7b9fc8d9,PennController,120,0,calibrator_val_no_feedback,NULL,PennController,131,_Trial_,Start,1736770352065,undefined,747,invader,negative,positive,A,NULL
1736770795,1ba735c5ab5e4a6bb6cf5d7c7b9fc8d9,PennController,120,0,calibrator_val_no_feedback,NULL,PennController,131,_Header_,Start,1736770352065,undefined,747,invader,negative,positive,A,NULL
1736770795,1ba735c5ab5e4a6bb6cf5d7c7b9fc8d9,PennController,120,0,calibrator_val_no_feedback,NULL,PennController,131,_Header_,End,1736770352318,undefined,747,invader,negative,positive,A,NULL
1736770795,1ba735c5ab5e4a6bb6cf5d7c7b9fc8d9,PennController,120,0,calibrator_val_no_feedback,NULL,Selector,unnamed-Selector,Selection,negative,1736770353575,undefined,747,invader,negative,positive,A,negative;positive
1736770795,1ba735c5ab5e4a6bb6cf5d7c7b9fc8d9,PennController,120,0,calibrator_val_no_feedback,NULL,PennController,131,_Trial_,End,1736770353577,undefined,747,invader,negative,positive,A,NULL
1736770795,1ba735c5ab5e4a6bb6cf5d7c7b9fc8d9,PennController,117,0,calibrator_val_no_feedback,NULL,PennController,128,_Trial_,Start,1736770353577,undefined,587,icebox,negative,positive,A,NULL
1736770795,1ba735c5ab5e4a6bb6cf5d7c7b9fc8d9,PennController,117,0,calibrator_val_no_feedback,NULL,PennController,128,_Header_,Start,1736770353577,undefined,587,icebox,negative,positive,A,NULL
1736770795,1ba735c5ab5e4a6bb6cf5d7c7b9fc8d9,PennController,117,0,calibrator_val_no_feedback,NULL,PennController,128,_Header_,End,1736770353831,undefined,587,icebox,negative,positive,A,NULL
1736770795,1ba735c5ab5e4a6bb6cf5d7c7b9fc8d9,PennController,117,0,calibrator_val_no_feedback,NULL,Selector,unnamed-Selector,Selection,positive,1736770354928,undefined,587,icebox,negative,positive,A,negative;positive
1736770795,1ba735c5ab5e4a6bb6cf5d7c7b9fc8d9,PennController,117,0,calibrator_val_no_feedback,NULL,PennController,128,_Trial_,End,1736770354929,undefined,587,icebox,negative,positive,A,NULL
1736770795,1ba735c5ab5e4a6bb6cf5d7c7b9fc8d9,PennController,121,0,calibrator_val_no_feedback,NULL,PennController,132,_Trial_,Start,1736770354929,undefined,751,jail,negative,positive,A,NULL
1736770795,1ba735c5ab5e4a6bb6cf5d7c7b9fc8d9,PennController,121,0,calibrator_val_no_feedback,NULL,PennController,132,_Header_,Start,1736770354929,undefined,751,jail,negative,positive,A,NULL
1736770795,1ba735c5ab5e4a6bb6cf5d7c7b9fc8d9,PennController,121,0,calibrator_val_no_feedback,NULL,PennController,132,_Header_,End,1736770355184,undefined,751,jail,negative,positive,A,NULL
1736770795,1ba735c5ab5e4a6bb6cf5d7c7b9fc8d9,PennController,121,0,calibrator_val_no_feedback,NULL,Selector,unnamed-Selector,Selection,negative,1736770356447,undefined,751,jail,negative,positive,A,negative;positive
1736770795,1ba735c5ab5e4a6bb6cf5d7c7b9fc8d9,PennController,121,0,calibrator_val_no_feedback,NULL,PennController,132,_Trial_,End,1736770356448,undefined,751,jail,negative,positive,A,NULL
1736770795,1ba735c5ab5e4a6bb6cf5d7c7b9fc8d9,PennController,123,0,calibrator_val_no_feedback,NULL,PennController,134,_Trial_,Start,1736770356448,undefined,603,kitten,negative,positive,A,NULL
1736770795,1ba735c5ab5e4a6bb6cf5d7c7b9fc8d9,PennController,123,0,calibrator_val_no_feedback,NULL,PennController,134,_Header_,Start,1736770356448,undefined,603,kitten,negative,positive,A,NULL
1736770795,1ba735c5ab5e4a6bb6cf5d7c7b9fc8d9,PennController,123,0,calibrator_val_no_feedback,NULL,PennController,134,_Header_,End,1736770356712,undefined,603,kitten,negative,positive,A,NULL
1736770795,1ba735c5ab5e4a6bb6cf5d7c7b9fc8d9,PennController,123,0,calibrator_val_no_feedback,NULL,Selector,unnamed-Selector,Selection,positive,1736770357824,undefined,603,kitten,negative,positive,A,negative;positive
1736770795,1ba735c5ab5e4a6bb6cf5d7c7b9fc8d9,PennController,123,0,calibrator_val_no_feedback,NULL,PennController,134,_Trial_,End,1736770357824,undefined,603,kitten,negative,positive,A,NULL
1736770795,1ba735c5ab5e4a6bb6cf5d7c7b9fc8d9,PennController,115,0,calibrator_val_no_feedback,NULL,PennController,126,_Trial_,Start,1736770357825,undefined,678,grin,negative,positive,A,NULL
1736770795,1ba735c5ab5e4a6bb6cf5d7c7b9fc8d9,PennController,115,0,calibrator_val_no_feedback,NULL,PennController,126,_Header_,Start,1736770357825,undefined,678,grin,negative,positive,A,NULL
1736770795,1ba735c5ab5e4a6bb6cf5d7c7b9fc8d9,PennController,115,0,calibrator_val_no_feedback,NULL,PennController,126,_Header_,End,1736770358087,undefined,678,grin,negative,positive,A,NULL
1736770795,1ba735c5ab5e4a6bb6cf5d7c7b9fc8d9,PennController,115,0,calibrator_val_no_feedback,NULL,Selector,unnamed-Selector,Selection,positive,1736770359272,undefined,678,grin,negative,positive,A,negative;positive
1736770795,1ba735c5ab5e4a6bb6cf5d7c7b9fc8d9,PennController,115,0,calibrator_val_no_feedback,NULL,PennController,126,_Trial_,End,1736770359273,undefined,678,grin,negative,positive,A,NULL
1736770795,1ba735c5ab5e4a6bb6cf5d7c7b9fc8d9,PennController,116,0,calibrator_val_no_feedback,NULL,PennController,127,_Trial_,Start,1736770359273,undefined,751,hat,negative,positive,A,NULL
1736770795,1ba735c5ab5e4a6bb6cf5d7c7b9fc8d9,PennController,116,0,calibrator_val_no_feedback,NULL,PennController,127,_Header_,Start,1736770359273,undefined,751,hat,negative,positive,A,NULL
1736770795,1ba735c5ab5e4a6bb6cf5d7c7b9fc8d9,PennController,116,0,calibrator_val_no_feedback,NULL,PennController,127,_Header_,End,1736770359534,undefined,751,hat,negative,positive,A,NULL
1736770795,1ba735c5ab5e4a6bb6cf5d7c7b9fc8d9,PennController,116,0,calibrator_val_no_feedback,NULL,Selector,unnamed-Selector,Selection,positive,1736770360792,undefined,751,hat,negative,positive,A,negative;positive
1736770795,1ba735c5ab5e4a6bb6cf5d7c7b9fc8d9,PennController,116,0,calibrator_val_no_feedback,NULL,PennController,127,_Trial_,End,1736770360792,undefined,751,hat,negative,positive,A,NULL
1736770795,1ba735c5ab5e4a6bb6cf5d7c7b9fc8d9,PennController,114,0,calibrator_val_no_feedback,NULL,PennController,125,_Trial_,Start,1736770360793,undefined,532,free,negative,positive,A,NULL
1736770795,1ba735c5ab5e4a6bb6cf5d7c7b9fc8d9,PennController,114,0,calibrator_val_no_feedback,NULL,PennController,125,_Header_,Start,1736770360793,undefined,532,free,negative,positive,A,NULL
1736770795,1ba735c5ab5e4a6bb6cf5d7c7b9fc8d9,PennController,114,0,calibrator_val_no_feedback,NULL,PennController,125,_Header_,End,1736770361053,undefined,532,free,negative,positive,A,NULL
1736770795,1ba735c5ab5e4a6bb6cf5d7c7b9fc8d9,PennController,114,0,calibrator_val_no_feedback,NULL,Selector,unnamed-Selector,Selection,positive,1736770362096,undefined,532,free,negative,positive,A,negative;positive
1736770795,1ba735c5ab5e4a6bb6cf5d7c7b9fc8d9,PennController,114,0,calibrator_val_no_feedback,NULL,PennController,125,_Trial_,End,1736770362097,undefined,532,free,negative,positive,A,NULL
1736770795,1ba735c5ab5e4a6bb6cf5d7c7b9fc8d9,PennController,122,0,calibrator_val_no_feedback,NULL,PennController,133,_Trial_,Start,1736770362097,undefined,738,joke,negative,positive,A,NULL
1736770795,1ba735c5ab5e4a6bb6cf5d7c7b9fc8d9,PennController,122,0,calibrator_val_no_feedback,NULL,PennController,133,_Header_,Start,1736770362097,undefined,738,joke,negative,positive,A,NULL
1736770795,1ba735c5ab5e4a6bb6cf5d7c7b9fc8d9,PennController,122,0,calibrator_val_no_feedback,NULL,PennController,133,_Header_,End,1736770362352,undefined,738,joke,negative,positive,A,NULL
1736770795,1ba735c5ab5e4a6bb6cf5d7c7b9fc8d9,PennController,122,0,calibrator_val_no_feedback,NULL,Selector,unnamed-Selector,Selection,positive,1736770363599,undefined,738,joke,negative,positive,A,negative;positive
1736770795,1ba735c5ab5e4a6bb6cf5d7c7b9fc8d9,PennController,122,0,calibrator_val_no_feedback,NULL,PennController,133,_Trial_,End,1736770363600,undefined,738,joke,negative,positive,A,NULL
# 13. Comments.
1736770795,1ba735c5ab5e4a6bb6cf5d7c7b9fc8d9,PennController,130,0,endinstructions_val,NULL,PennController,8,_Trial_,Start,1736770363600,NULL
1736770795,1ba735c5ab5e4a6bb6cf5d7c7b9fc8d9,PennController,130,0,endinstructions_val,NULL,PennController,8,_Header_,Start,1736770363600,NULL
1736770795,1ba735c5ab5e4a6bb6cf5d7c7b9fc8d9,PennController,130,0,endinstructions_val,NULL,PennController,8,_Header_,End,1736770363864,NULL
1736770795,1ba735c5ab5e4a6bb6cf5d7c7b9fc8d9,PennController,130,0,endinstructions_val,NULL,PennController,8,_Trial_,End,1736770366848,NULL
# 13. ID.
# 14. ReactionTime.
# 15. Word.
# 16. ConcValCombo.
# 17. Key_value_F.
# 18. Key_value_J.
# 19. Group.
# 20. Comments.
1736770795,1ba735c5ab5e4a6bb6cf5d7c7b9fc8d9,PennController,61,0,test_val,NULL,PennController,72,_Trial_,Start,1736770366848,undefined,1927,rain,concrete-positive,negative,positive,B,NULL
1736770795,1ba735c5ab5e4a6bb6cf5d7c7b9fc8d9,PennController,61,0,test_val,NULL,PennController,72,_Header_,Start,1736770366848,undefined,1927,rain,concrete-positive,negative,positive,B,NULL
1736770795,1ba735c5ab5e4a6bb6cf5d7c7b9fc8d9,PennController,61,0,test_val,NULL,PennController,72,_Header_,End,1736770367108,undefined,1927,rain,concrete-positive,negative,positive,B,NULL
1736770795,1ba735c5ab5e4a6bb6cf5d7c7b9fc8d9,PennController,61,0,test_val,NULL,Selector,unnamed-Selector,Selection,negative,1736770369544,undefined,1927,rain,concrete-positive,negative,positive,B,negative;positive
1736770795,1ba735c5ab5e4a6bb6cf5d7c7b9fc8d9,PennController,61,0,test_val,NULL,PennController,72,_Trial_,End,1736770369545,undefined,1927,rain,concrete-positive,negative,positive,B,NULL
1736770795,1ba735c5ab5e4a6bb6cf5d7c7b9fc8d9,PennController,78,0,test_val,NULL,PennController,89,_Trial_,Start,1736770369546,undefined,752,garbage,concrete-negative,negative,positive,B,NULL
1736770795,1ba735c5ab5e4a6bb6cf5d7c7b9fc8d9,PennController,78,0,test_val,NULL,PennController,89,_Header_,Start,1736770369546,undefined,752,garbage,concrete-negative,negative,positive,B,NULL
1736770795,1ba735c5ab5e4a6bb6cf5d7c7b9fc8d9,PennController,78,0,test_val,NULL,PennController,89,_Header_,End,1736770369804,undefined,752,garbage,concrete-negative,negative,positive,B,NULL
1736770795,1ba735c5ab5e4a6bb6cf5d7c7b9fc8d9,PennController,78,0,test_val,NULL,Selector,unnamed-Selector,Selection,negative,1736770371064,undefined,752,garbage,concrete-negative,negative,positive,B,negative;positive
1736770795,1ba735c5ab5e4a6bb6cf5d7c7b9fc8d9,PennController,78,0,test_val,NULL,PennController,89,_Trial_,End,1736770371064,undefined,752,garbage,concrete-negative,negative,positive,B,NULL
1736770795,1ba735c5ab5e4a6bb6cf5d7c7b9fc8d9,PennController,82,0,test_val,NULL,PennController,93,_Trial_,Start,1736770371065,undefined,709,stench,concrete-negative,negative,positive,B,NULL
1736770795,1ba735c5ab5e4a6bb6cf5d7c7b9fc8d9,PennController,82,0,test_val,NULL,PennController,93,_Header_,Start,1736770371065,undefined,709,stench,concrete-negative,negative,positive,B,NULL
1736770795,1ba735c5ab5e4a6bb6cf5d7c7b9fc8d9,PennController,82,0,test_val,NULL,PennController,93,_Header_,End,1736770371327,undefined,709,stench,concrete-negative,negative,positive,B,NULL
1736770795,1ba735c5ab5e4a6bb6cf5d7c7b9fc8d9,PennController,82,0,test_val,NULL,Selector,unnamed-Selector,Selection,negative,1736770372544,undefined,709,stench,concrete-negative,negative,positive,B,negative;positive
1736770795,1ba735c5ab5e4a6bb6cf5d7c7b9fc8d9,PennController,82,0,test_val,NULL,PennController,93,_Trial_,End,1736770372545,undefined,709,stench,concrete-negative,negative,positive,B,NULL
1736770795,1ba735c5ab5e4a6bb6cf5d7c7b9fc8d9,PennController,44,0,test_val,NULL,PennController,55,_Trial_,Start,1736770372545,undefined,858,lonliness,abstract-negative,negative,positive,B,NULL
1736770795,1ba735c5ab5e4a6bb6cf5d7c7b9fc8d9,PennController,44,0,test_val,NULL,PennController,55,_Header_,Start,1736770372545,undefined,858,lonliness,abstract-negative,negative,positive,B,NULL
1736770795,1ba735c5ab5e4a6bb6cf5d7c7b9fc8d9,PennController,44,0,test_val,NULL,PennController,55,_Header_,End,1736770372808,undefined,858,lonliness,abstract-negative,negative,positive,B,NULL
1736770795,1ba735c5ab5e4a6bb6cf5d7c7b9fc8d9,PennController,44,0,test_val,NULL,Selector,unnamed-Selector,Selection,negative,1736770374176,undefined,858,lonliness,abstract-negative,negative,positive,B,negative;positive
1736770795,1ba735c5ab5e4a6bb6cf5d7c7b9fc8d9,PennController,44,0,test_val,NULL,PennController,55,_Trial_,End,1736770374176,undefined,858,lonliness,abstract-negative,negative,positive,B,NULL
1736770795,1ba735c5ab5e4a6bb6cf5d7c7b9fc8d9,PennController,75,0,test_val,NULL,PennController,86,_Trial_,Start,1736770374177,undefined,595,rot,concrete-negative,negative,positive,B,NULL
1736770795,1ba735c5ab5e4a6bb6cf5d7c7b9fc8d9,PennController,75,0,test_val,NULL,PennController,86,_Header_,Start,1736770374177,undefined,595,rot,concrete-negative,negative,positive,B,NULL
1736770795,1ba735c5ab5e4a6bb6cf5d7c7b9fc8d9,PennController,75,0,test_val,NULL,PennController,86,_Header_,End,1736770374441,undefined,595,rot,concrete-negative,negative,positive,B,NULL
1736770795,1ba735c5ab5e4a6bb6cf5d7c7b9fc8d9,PennController,75,0,test_val,NULL,Selector,unnamed-Selector,Selection,negative,1736770375543,undefined,595,rot,concrete-negative,negative,positive,B,negative;positive
1736770795,1ba735c5ab5e4a6bb6cf5d7c7b9fc8d9,PennController,75,0,test_val,NULL,PennController,86,_Trial_,End,1736770375544,undefined,595,rot,concrete-negative,negative,positive,B,NULL
1736770795,1ba735c5ab5e4a6bb6cf5d7c7b9fc8d9,PennController,51,0,test_val,NULL,PennController,62,_Trial_,Start,1736770375544,undefined,563,failure,abstract-negative,negative,positive,B,NULL
1736770795,1ba735c5ab5e4a6bb6cf5d7c7b9fc8d9,PennController,51,0,test_val,NULL,PennController,62,_Header_,Start,1736770375544,undefined,563,failure,abstract-negative,negative,positive,B,NULL
1736770795,1ba735c5ab5e4a6bb6cf5d7c7b9fc8d9,PennController,51,0,test_val,NULL,PennController,62,_Header_,End,1736770375809,undefined,563,failure,abstract-negative,negative,positive,B,NULL
1736770795,1ba735c5ab5e4a6bb6cf5d7c7b9fc8d9,PennController,51,0,test_val,NULL,Selector,unnamed-Selector,Selection,negative,1736770376880,undefined,563,failure,abstract-negative,negative,positive,B,negative;positive
1736770795,1ba735c5ab5e4a6bb6cf5d7c7b9fc8d9,PennController,51,0,test_val,NULL,PennController,62,_Trial_,End,1736770376880,undefined,563,failure,abstract-negative,negative,positive,B,NULL
1736770795,1ba735c5ab5e4a6bb6cf5d7c7b9fc8d9,PennController,73,0,test_val,NULL,PennController,84,_Trial_,Start,1736770376881,undefined,696,inspiration,abstract-positive,negative,positive,B,NULL
1736770795,1ba735c5ab5e4a6bb6cf5d7c7b9fc8d9,PennController,73,0,test_val,NULL,PennController,84,_Header_,Start,1736770376881,undefined,696,inspiration,abstract-positive,negative,positive,B,NULL
1736770795,1ba735c5ab5e4a6bb6cf5d7c7b9fc8d9,PennController,73,0,test_val,NULL,PennController,84,_Header_,End,1736770377133,undefined,696,inspiration,abstract-positive,negative,positive,B,NULL
1736770795,1ba735c5ab5e4a6bb6cf5d7c7b9fc8d9,PennController,73,0,test_val,NULL,Selector,unnamed-Selector,Selection,positive,1736770378335,undefined,696,inspiration,abstract-positive,negative,positive,B,negative;positive
1736770795,1ba735c5ab5e4a6bb6cf5d7c7b9fc8d9,PennController,73,0,test_val,NULL,PennController,84,_Trial_,End,1736770378336,undefined,696,inspiration,abstract-positive,negative,positive,B,NULL
1736770795,1ba735c5ab5e4a6bb6cf5d7c7b9fc8d9,PennController,46,0,test_val,NULL,PennController,57,_Trial_,Start,1736770378336,undefined,623,anxiety,abstract-negative,negative,positive,B,NULL
1736770795,1ba735c5ab5e4a6bb6cf5d7c7b9fc8d9,PennController,46,0,test_val,NULL,PennController,57,_Header_,Start,1736770378336,undefined,623,anxiety,abstract-negative,negative,positive,B,NULL
1736770795,1ba735c5ab5e4a6bb6cf5d7c7b9fc8d9,PennController,46,0,test_val,NULL,PennController,57,_Header_,End,1736770378595,undefined,623,anxiety,abstract-negative,negative,positive,B,NULL
1736770795,1ba735c5ab5e4a6bb6cf5d7c7b9fc8d9,PennController,46,0,test_val,NULL,Selector,unnamed-Selector,Selection,negative,1736770379728,undefined,623,anxiety,abstract-negative,negative,positive,B,negative;positive
1736770795,1ba735c5ab5e4a6bb6cf5d7c7b9fc8d9,PennController,46,0,test_val,NULL,PennController,57,_Trial_,End,1736770379728,undefined,623,anxiety,abstract-negative,negative,positive,B,NULL
1736770795,1ba735c5ab5e4a6bb6cf5d7c7b9fc8d9,PennController,77,0,test_val,NULL,PennController,88,_Trial_,Start,1736770379729,undefined,541,vomit,concrete-negative,negative,positive,B,NULL
1736770795,1ba735c5ab5e4a6bb6cf5d7c7b9fc8d9,PennController,77,0,test_val,NULL,PennController,88,_Header_,Start,1736770379729,undefined,541,vomit,concrete-negative,negative,positive,B,NULL
1736770795,1ba735c5ab5e4a6bb6cf5d7c7b9fc8d9,PennController,77,0,test_val,NULL,PennController,88,_Header_,End,1736770379982,undefined,541,vomit,concrete-negative,negative,positive,B,NULL
1736770795,1ba735c5ab5e4a6bb6cf5d7c7b9fc8d9,PennController,77,0,test_val,NULL,Selector,unnamed-Selector,Selection,negative,1736770381032,undefined,541,vomit,concrete-negative,negative,positive,B,negative;positive
1736770795,1ba735c5ab5e4a6bb6cf5d7c7b9fc8d9,PennController,77,0,test_val,NULL,PennController,88,_Trial_,End,1736770381032,undefined,541,vomit,concrete-negative,negative,positive,B,NULL
1736770795,1ba735c5ab5e4a6bb6cf5d7c7b9fc8d9,PennController,80,0,test_val,NULL,PennController,91,_Trial_,Start,1736770381032,undefined,612,mold,concrete-negative,negative,positive,B,NULL
1736770795,1ba735c5ab5e4a6bb6cf5d7c7b9fc8d9,PennController,80,0,test_val,NULL,PennController,91,_Header_,Start,1736770381032,undefined,612,mold,concrete-negative,negative,positive,B,NULL
1736770795,1ba735c5ab5e4a6bb6cf5d7c7b9fc8d9,PennController,80,0,test_val,NULL,PennController,91,_Header_,End,1736770381294,undefined,612,mold,concrete-negative,negative,positive,B,NULL
1736770795,1ba735c5ab5e4a6bb6cf5d7c7b9fc8d9,PennController,80,0,test_val,NULL,Selector,unnamed-Selector,Selection,negative,1736770382416,undefined,612,mold,concrete-negative,negative,positive,B,negative;positive
1736770795,1ba735c5ab5e4a6bb6cf5d7c7b9fc8d9,PennController,80,0,test_val,NULL,PennController,91,_Trial_,End,1736770382416,undefined,612,mold,concrete-negative,negative,positive,B,NULL
1736770795,1ba735c5ab5e4a6bb6cf5d7c7b9fc8d9,PennController,53,0,test_val,NULL,PennController,64,_Trial_,Start,1736770382417,undefined,993,envy,abstract-negative,negative,positive,B,NULL
1736770795,1ba735c5ab5e4a6bb6cf5d7c7b9fc8d9,PennController,53,0,test_val,NULL,PennController,64,_Header_,Start,1736770382417,undefined,993,envy,abstract-negative,negative,positive,B,NULL
1736770795,1ba735c5ab5e4a6bb6cf5d7c7b9fc8d9,PennController,53,0,test_val,NULL,PennController,64,_Header_,End,1736770382682,undefined,993,envy,abstract-negative,negative,positive,B,NULL
1736770795,1ba735c5ab5e4a6bb6cf5d7c7b9fc8d9,PennController,53,0,test_val,NULL,Selector,unnamed-Selector,Selection,negative,1736770384184,undefined,993,envy,abstract-negative,negative,positive,B,negative;positive
1736770795,1ba735c5ab5e4a6bb6cf5d7c7b9fc8d9,PennController,53,0,test_val,NULL,PennController,64,_Trial_,End,1736770384184,undefined,993,envy,abstract-negative,negative,positive,B,NULL
1736770795,1ba735c5ab5e4a6bb6cf5d7c7b9fc8d9,PennController,70,0,test_val,NULL,PennController,81,_Trial_,Start,1736770384184,undefined,542,happiness,abstract-positive,negative,positive,B,NULL
1736770795,1ba735c5ab5e4a6bb6cf5d7c7b9fc8d9,PennController,70,0,test_val,NULL,PennController,81,_Header_,Start,1736770384184,undefined,542,happiness,abstract-positive,negative,positive,B,NULL
1736770795,1ba735c5ab5e4a6bb6cf5d7c7b9fc8d9,PennController,70,0,test_val,NULL,PennController,81,_Header_,End,1736770384440,undefined,542,happiness,abstract-positive,negative,positive,B,NULL
1736770795,1ba735c5ab5e4a6bb6cf5d7c7b9fc8d9,PennController,70,0,test_val,NULL,Selector,unnamed-Selector,Selection,positive,1736770385488,undefined,542,happiness,abstract-positive,negative,positive,B,negative;positive
1736770795,1ba735c5ab5e4a6bb6cf5d7c7b9fc8d9,PennController,70,0,test_val,NULL,PennController,81,_Trial_,End,1736770385488,undefined,542,happiness,abstract-positive,negative,positive,B,NULL
1736770795,1ba735c5ab5e4a6bb6cf5d7c7b9fc8d9,PennController,45,0,test_val,NULL,PennController,56,_Trial_,Start,1736770385489,undefined,522,regret,abstract-negative,negative,positive,B,NULL
1736770795,1ba735c5ab5e4a6bb6cf5d7c7b9fc8d9,PennController,45,0,test_val,NULL,PennController,56,_Header_,Start,1736770385489,undefined,522,regret,abstract-negative,negative,positive,B,NULL
1736770795,1ba735c5ab5e4a6bb6cf5d7c7b9fc8d9,PennController,45,0,test_val,NULL,PennController,56,_Header_,End,1736770385744,undefined,522,regret,abstract-negative,negative,positive,B,NULL
1736770795,1ba735c5ab5e4a6bb6cf5d7c7b9fc8d9,PennController,45,0,test_val,NULL,Selector,unnamed-Selector,Selection,negative,1736770386776,undefined,522,regret,abstract-negative,negative,positive,B,negative;positive
1736770795,1ba735c5ab5e4a6bb6cf5d7c7b9fc8d9,PennController,45,0,test_val,NULL,PennController,56,_Trial_,End,1736770386776,undefined,522,regret,abstract-negative,negative,positive,B,NULL
1736770795,1ba735c5ab5e4a6bb6cf5d7c7b9fc8d9,PennController,69,0,test_val,NULL,PennController,80,_Trial_,Start,1736770386776,undefined,554,kindness,abstract-positive,negative,positive,B,NULL
1736770795,1ba735c5ab5e4a6bb6cf5d7c7b9fc8d9,PennController,69,0,test_val,NULL,PennController,80,_Header_,Start,1736770386777,undefined,554,kindness,abstract-positive,negative,positive,B,NULL
1736770795,1ba735c5ab5e4a6bb6cf5d7c7b9fc8d9,PennController,69,0,test_val,NULL,PennController,80,_Header_,End,1736770387041,undefined,554,kindness,abstract-positive,negative,positive,B,NULL
1736770795,1ba735c5ab5e4a6bb6cf5d7c7b9fc8d9,PennController,69,0,test_val,NULL,Selector,unnamed-Selector,Selection,positive,1736770388103,undefined,554,kindness,abstract-positive,negative,positive,B,negative;positive
1736770795,1ba735c5ab5e4a6bb6cf5d7c7b9fc8d9,PennController,69,0,test_val,NULL,PennController,80,_Trial_,End,1736770388104,undefined,554,kindness,abstract-positive,negative,positive,B,NULL
1736770795,1ba735c5ab5e4a6bb6cf5d7c7b9fc8d9,PennController,76,0,test_val,NULL,PennController,87,_Trial_,Start,1736770388104,undefined,572,mud,concrete-negative,negative,positive,B,NULL
1736770795,1ba735c5ab5e4a6bb6cf5d7c7b9fc8d9,PennController,76,0,test_val,NULL,PennController,87,_Header_,Start,1736770388104,undefined,572,mud,concrete-negative,negative,positive,B,NULL
1736770795,1ba735c5ab5e4a6bb6cf5d7c7b9fc8d9,PennController,76,0,test_val,NULL,PennController,87,_Header_,End,1736770388365,undefined,572,mud,concrete-negative,negative,positive,B,NULL
1736770795,1ba735c5ab5e4a6bb6cf5d7c7b9fc8d9,PennController,76,0,test_val,NULL,Selector,unnamed-Selector,Selection,negative,1736770389448,undefined,572,mud,concrete-negative,negative,positive,B,negative;positive
1736770795,1ba735c5ab5e4a6bb6cf5d7c7b9fc8d9,PennController,76,0,test_val,NULL,PennController,87,_Trial_,End,1736770389449,undefined,572,mud,concrete-negative,negative,positive,B,NULL
1736770795,1ba735c5ab5e4a6bb6cf5d7c7b9fc8d9,PennController,67,0,test_val,NULL,PennController,78,_Trial_,Start,1736770389449,undefined,731,peace,abstract-positive,negative,positive,B,NULL
1736770795,1ba735c5ab5e4a6bb6cf5d7c7b9fc8d9,PennController,67,0,test_val,NULL,PennController,78,_Header_,Start,1736770389449,undefined,731,peace,abstract-positive,negative,positive,B,NULL
1736770795,1ba735c5ab5e4a6bb6cf5d7c7b9fc8d9,PennController,67,0,test_val,NULL,PennController,78,_Header_,End,1736770389706,undefined,731,peace,abstract-positive,negative,positive,B,NULL
1736770795,1ba735c5ab5e4a6bb6cf5d7c7b9fc8d9,PennController,67,0,test_val,NULL,Selector,unnamed-Selector,Selection,positive,1736770390943,undefined,731,peace,abstract-positive,negative,positive,B,negative;positive
1736770795,1ba735c5ab5e4a6bb6cf5d7c7b9fc8d9,PennController,67,0,test_val,NULL,PennController,78,_Trial_,End,1736770390943,undefined,731,peace,abstract-positive,negative,positive,B,NULL
1736770795,1ba735c5ab5e4a6bb6cf5d7c7b9fc8d9,PennController,68,0,test_val,NULL,PennController,79,_Trial_,Start,1736770390943,undefined,532,freedom,abstract-positive,negative,positive,B,NULL
1736770795,1ba735c5ab5e4a6bb6cf5d7c7b9fc8d9,PennController,68,0,test_val,NULL,PennController,79,_Header_,Start,1736770390943,undefined,532,freedom,abstract-positive,negative,positive,B,NULL
1736770795,1ba735c5ab5e4a6bb6cf5d7c7b9fc8d9,PennController,68,0,test_val,NULL,PennController,79,_Header_,End,1736770391199,undefined,532,freedom,abstract-positive,negative,positive,B,NULL
1736770795,1ba735c5ab5e4a6bb6cf5d7c7b9fc8d9,PennController,68,0,test_val,NULL,Selector,unnamed-Selector,Selection,positive,1736770392240,undefined,532,freedom,abstract-positive,negative,positive,B,negative;positive
1736770795,1ba735c5ab5e4a6bb6cf5d7c7b9fc8d9,PennController,68,0,test_val,NULL,PennController,79,_Trial_,End,1736770392240,undefined,532,freedom,abstract-positive,negative,positive,B,NULL
1736770795,1ba735c5ab5e4a6bb6cf5d7c7b9fc8d9,PennController,47,0,test_val,NULL,PennController,58,_Trial_,Start,1736770392241,undefined,604,despair,abstract-negative,negative,positive,B,NULL
1736770795,1ba735c5ab5e4a6bb6cf5d7c7b9fc8d9,PennController,47,0,test_val,NULL,PennController,58,_Header_,Start,1736770392241,undefined,604,despair,abstract-negative,negative,positive,B,NULL
1736770795,1ba735c5ab5e4a6bb6cf5d7c7b9fc8d9,PennController,47,0,test_val,NULL,PennController,58,_Header_,End,1736770392493,undefined,604,despair,abstract-negative,negative,positive,B,NULL
1736770795,1ba735c5ab5e4a6bb6cf5d7c7b9fc8d9,PennController,47,0,test_val,NULL,Selector,unnamed-Selector,Selection,negative,1736770393608,undefined,604,despair,abstract-negative,negative,positive,B,negative;positive
1736770795,1ba735c5ab5e4a6bb6cf5d7c7b9fc8d9,PennController,47,0,test_val,NULL,PennController,58,_Trial_,End,1736770393609,undefined,604,despair,abstract-negative,negative,positive,B,NULL
1736770795,1ba735c5ab5e4a6bb6cf5d7c7b9fc8d9,PennController,60,0,test_val,NULL,PennController,71,_Trial_,Start,1736770393609,undefined,646,home,concrete-positive,negative,positive,B,NULL
1736770795,1ba735c5ab5e4a6bb6cf5d7c7b9fc8d9,PennController,60,0,test_val,NULL,PennController,71,_Header_,Start,1736770393609,undefined,646,home,concrete-positive,negative,positive,B,NULL
1736770795,1ba735c5ab5e4a6bb6cf5d7c7b9fc8d9,PennController,60,0,test_val,NULL,PennController,71,_Header_,End,1736770393867,undefined,646,home,concrete-positive,negative,positive,B,NULL
1736770795,1ba735c5ab5e4a6bb6cf5d7c7b9fc8d9,PennController,60,0,test_val,NULL,Selector,unnamed-Selector,Selection,positive,1736770395024,undefined,646,home,concrete-positive,negative,positive,B,negative;positive
1736770795,1ba735c5ab5e4a6bb6cf5d7c7b9fc8d9,PennController,60,0,test_val,NULL,PennController,71,_Trial_,End,1736770395024,undefined,646,home,concrete-positive,negative,positive,B,NULL
1736770795,1ba735c5ab5e4a6bb6cf5d7c7b9fc8d9,PennController,71,0,test_val,NULL,PennController,82,_Trial_,Start,1736770395025,undefined,561,compassion,abstract-positive,negative,positive,B,NULL
1736770795,1ba735c5ab5e4a6bb6cf5d7c7b9fc8d9,PennController,71,0,test_val,NULL,PennController,82,_Header_,Start,1736770395025,undefined,561,compassion,abstract-positive,negative,positive,B,NULL
1736770795,1ba735c5ab5e4a6bb6cf5d7c7b9fc8d9,PennController,71,0,test_val,NULL,PennController,82,_Header_,End,1736770395290,undefined,561,compassion,abstract-positive,negative,positive,B,NULL
1736770795,1ba735c5ab5e4a6bb6cf5d7c7b9fc8d9,PennController,71,0,test_val,NULL,Selector,unnamed-Selector,Selection,positive,1736770396359,undefined,561,compassion,abstract-positive,negative,positive,B,negative;positive
1736770795,1ba735c5ab5e4a6bb6cf5d7c7b9fc8d9,PennController,71,0,test_val,NULL,PennController,82,_Trial_,End,1736770396360,undefined,561,compassion,abstract-positive,negative,positive,B,NULL
1736770795,1ba735c5ab5e4a6bb6cf5d7c7b9fc8d9,PennController,50,0,test_val,NULL,PennController,61,_Trial_,Start,1736770396360,undefined,567,resentment,abstract-negative,negative,positive,B,NULL
1736770795,1ba735c5ab5e4a6bb6cf5d7c7b9fc8d9,PennController,50,0,test_val,NULL,PennController,61,_Header_,Start,1736770396360,undefined,567,resentment,abstract-negative,negative,positive,B,NULL
1736770795,1ba735c5ab5e4a6bb6cf5d7c7b9fc8d9,PennController,50,0,test_val,NULL,PennController,61,_Header_,End,1736770396611,undefined,567,resentment,abstract-negative,negative,positive,B,NULL
1736770795,1ba735c5ab5e4a6bb6cf5d7c7b9fc8d9,PennController,50,0,test_val,NULL,Selector,unnamed-Selector,Selection,negative,1736770397687,undefined,567,resentment,abstract-negative,negative,positive,B,negative;positive
1736770795,1ba735c5ab5e4a6bb6cf5d7c7b9fc8d9,PennController,50,0,test_val,NULL,PennController,61,_Trial_,End,1736770397688,undefined,567,resentment,abstract-negative,negative,positive,B,NULL
1736770795,1ba735c5ab5e4a6bb6cf5d7c7b9fc8d9,PennController,64,0,test_val,NULL,PennController,75,_Trial_,Start,1736770397689,undefined,655,love,abstract-positive,negative,positive,B,NULL
1736770795,1ba735c5ab5e4a6bb6cf5d7c7b9fc8d9,PennController,64,0,test_val,NULL,PennController,75,_Header_,Start,1736770397689,undefined,655,love,abstract-positive,negative,positive,B,NULL
1736770795,1ba735c5ab5e4a6bb6cf5d7c7b9fc8d9,PennController,64,0,test_val,NULL,PennController,75,_Header_,End,1736770397951,undefined,655,love,abstract-positive,negative,positive,B,NULL
1736770795,1ba735c5ab5e4a6bb6cf5d7c7b9fc8d9,PennController,64,0,test_val,NULL,Selector,unnamed-Selector,Selection,positive,1736770399111,undefined,655,love,abstract-positive,negative,positive,B,negative;positive
1736770795,1ba735c5ab5e4a6bb6cf5d7c7b9fc8d9,PennController,64,0,test_val,NULL,PennController,75,_Trial_,End,1736770399112,undefined,655,love,abstract-positive,negative,positive,B,NULL
1736770795,1ba735c5ab5e4a6bb6cf5d7c7b9fc8d9,PennController,74,0,test_val,NULL,PennController,85,_Trial_,Start,1736770399112,undefined,669,smoke,concrete-negative,negative,positive,B,NULL
1736770795,1ba735c5ab5e4a6bb6cf5d7c7b9fc8d9,PennController,74,0,test_val,NULL,PennController,85,_Header_,Start,1736770399112,undefined,669,smoke,concrete-negative,negative,positive,B,NULL
1736770795,1ba735c5ab5e4a6bb6cf5d7c7b9fc8d9,PennController,74,0,test_val,NULL,PennController,85,_Header_,End,1736770399366,undefined,669,smoke,concrete-negative,negative,positive,B,NULL
1736770795,1ba735c5ab5e4a6bb6cf5d7c7b9fc8d9,PennController,74,0,test_val,NULL,Selector,unnamed-Selector,Selection,negative,1736770400544,undefined,669,smoke,concrete-negative,negative,positive,B,negative;positive
1736770795,1ba735c5ab5e4a6bb6cf5d7c7b9fc8d9,PennController,74,0,test_val,NULL,PennController,85,_Trial_,End,1736770400545,undefined,669,smoke,concrete-negative,negative,positive,B,NULL
1736770795,1ba735c5ab5e4a6bb6cf5d7c7b9fc8d9,PennController,58,0,test_val,NULL,PennController,69,_Trial_,Start,1736770400545,undefined,883,beach,concrete-positive,negative,positive,B,NULL
1736770795,1ba735c5ab5e4a6bb6cf5d7c7b9fc8d9,PennController,58,0,test_val,NULL,PennController,69,_Header_,Start,1736770400545,undefined,883,beach,concrete-positive,negative,positive,B,NULL
1736770795,1ba735c5ab5e4a6bb6cf5d7c7b9fc8d9,PennController,58,0,test_val,NULL,PennController,69,_Header_,End,1736770400810,undefined,883,beach,concrete-positive,negative,positive,B,NULL
1736770795,1ba735c5ab5e4a6bb6cf5d7c7b9fc8d9,PennController,58,0,test_val,NULL,Selector,unnamed-Selector,Selection,positive,1736770402200,undefined,883,beach,concrete-positive,negative,positive,B,negative;positive
1736770795,1ba735c5ab5e4a6bb6cf5d7c7b9fc8d9,PennController,58,0,test_val,NULL,PennController,69,_Trial_,End,1736770402200,undefined,883,beach,concrete-positive,negative,positive,B,NULL
1736770795,1ba735c5ab5e4a6bb6cf5d7c7b9fc8d9,PennController,79,0,test_val,NULL,PennController,90,_Trial_,Start,1736770402201,undefined,573,rust,concrete-negative,negative,positive,B,NULL
1736770795,1ba735c5ab5e4a6bb6cf5d7c7b9fc8d9,PennController,79,0,test_val,NULL,PennController,90,_Header_,Start,1736770402201,undefined,573,rust,concrete-negative,negative,positive,B,NULL
1736770795,1ba735c5ab5e4a6bb6cf5d7c7b9fc8d9,PennController,79,0,test_val,NULL,PennController,90,_Header_,End,1736770402462,undefined,573,rust,concrete-negative,negative,positive,B,NULL
1736770795,1ba735c5ab5e4a6bb6cf5d7c7b9fc8d9,PennController,79,0,test_val,NULL,Selector,unnamed-Selector,Selection,negative,1736770403545,undefined,573,rust,concrete-negative,negative,positive,B,negative;positive
1736770795,1ba735c5ab5e4a6bb6cf5d7c7b9fc8d9,PennController,79,0,test_val,NULL,PennController,90,_Trial_,End,1736770403545,undefined,573,rust,concrete-negative,negative,positive,B,NULL
1736770795,1ba735c5ab5e4a6bb6cf5d7c7b9fc8d9,PennController,48,0,test_val,NULL,PennController,59,_Trial_,Start,1736770403545,undefined,693,guilt,abstract-negative,negative,positive,B,NULL
1736770795,1ba735c5ab5e4a6bb6cf5d7c7b9fc8d9,PennController,48,0,test_val,NULL,PennController,59,_Header_,Start,1736770403545,undefined,693,guilt,abstract-negative,negative,positive,B,NULL
1736770795,1ba735c5ab5e4a6bb6cf5d7c7b9fc8d9,PennController,48,0,test_val,NULL,PennController,59,_Header_,End,1736770403805,undefined,693,guilt,abstract-negative,negative,positive,B,NULL
1736770795,1ba735c5ab5e4a6bb6cf5d7c7b9fc8d9,PennController,48,0,test_val,NULL,Selector,unnamed-Selector,Selection,negative,1736770405007,undefined,693,guilt,abstract-negative,negative,positive,B,negative;positive
1736770795,1ba735c5ab5e4a6bb6cf5d7c7b9fc8d9,PennController,48,0,test_val,NULL,PennController,59,_Trial_,End,1736770405008,undefined,693,guilt,abstract-negative,negative,positive,B,NULL
1736770795,1ba735c5ab5e4a6bb6cf5d7c7b9fc8d9,PennController,66,0,test_val,NULL,PennController,77,_Trial_,Start,1736770405009,undefined,654,joy,abstract-positive,negative,positive,B,NULL
1736770795,1ba735c5ab5e4a6bb6cf5d7c7b9fc8d9,PennController,66,0,test_val,NULL,PennController,77,_Header_,Start,1736770405009,undefined,654,joy,abstract-positive,negative,positive,B,NULL
1736770795,1ba735c5ab5e4a6bb6cf5d7c7b9fc8d9,PennController,66,0,test_val,NULL,PennController,77,_Header_,End,1736770405268,undefined,654,joy,abstract-positive,negative,positive,B,NULL
1736770795,1ba735c5ab5e4a6bb6cf5d7c7b9fc8d9,PennController,66,0,test_val,NULL,Selector,unnamed-Selector,Selection,positive,1736770406432,undefined,654,joy,abstract-positive,negative,positive,B,negative;positive
1736770795,1ba735c5ab5e4a6bb6cf5d7c7b9fc8d9,PennController,66,0,test_val,NULL,PennController,77,_Trial_,End,1736770406432,undefined,654,joy,abstract-positive,negative,positive,B,NULL
1736770795,1ba735c5ab5e4a6bb6cf5d7c7b9fc8d9,PennController,63,0,test_val,NULL,PennController,74,_Trial_,Start,1736770406433,undefined,766,fireplace,concrete-positive,negative,positive,B,NULL
1736770795,1ba735c5ab5e4a6bb6cf5d7c7b9fc8d9,PennController,63,0,test_val,NULL,PennController,74,_Header_,Start,1736770406433,undefined,766,fireplace,concrete-positive,negative,positive,B,NULL
1736770795,1ba735c5ab5e4a6bb6cf5d7c7b9fc8d9,PennController,63,0,test_val,NULL,PennController,74,_Header_,End,1736770406685,undefined,766,fireplace,concrete-positive,negative,positive,B,NULL
1736770795,1ba735c5ab5e4a6bb6cf5d7c7b9fc8d9,PennController,63,0,test_val,NULL,Selector,unnamed-Selector,Selection,positive,1736770407961,undefined,766,fireplace,concrete-positive,negative,positive,B,negative;positive
1736770795,1ba735c5ab5e4a6bb6cf5d7c7b9fc8d9,PennController,63,0,test_val,NULL,PennController,74,_Trial_,End,1736770407961,undefined,766,fireplace,concrete-positive,negative,positive,B,NULL
1736770795,1ba735c5ab5e4a6bb6cf5d7c7b9fc8d9,PennController,62,0,test_val,NULL,PennController,73,_Trial_,Start,1736770407962,undefined,847,chocolate,concrete-positive,negative,positive,B,NULL
1736770795,1ba735c5ab5e4a6bb6cf5d7c7b9fc8d9,PennController,62,0,test_val,NULL,PennController,73,_Header_,Start,1736770407962,undefined,847,chocolate,concrete-positive,negative,positive,B,NULL
1736770795,1ba735c5ab5e4a6bb6cf5d7c7b9fc8d9,PennController,62,0,test_val,NULL,PennController,73,_Header_,End,1736770408213,undefined,847,chocolate,concrete-positive,negative,positive,B,NULL
1736770795,1ba735c5ab5e4a6bb6cf5d7c7b9fc8d9,PennController,62,0,test_val,NULL,Selector,unnamed-Selector,Selection,positive,1736770409567,undefined,847,chocolate,concrete-positive,negative,positive,B,negative;positive
1736770795,1ba735c5ab5e4a6bb6cf5d7c7b9fc8d9,PennController,62,0,test_val,NULL,PennController,73,_Trial_,End,1736770409568,undefined,847,chocolate,concrete-positive,negative,positive,B,NULL
1736770795,1ba735c5ab5e4a6bb6cf5d7c7b9fc8d9,PennController,49,0,test_val,NULL,PennController,60,_Trial_,Start,1736770409568,undefined,612,grief,abstract-negative,negative,positive,B,NULL
1736770795,1ba735c5ab5e4a6bb6cf5d7c7b9fc8d9,PennController,49,0,test_val,NULL,PennController,60,_Header_,Start,1736770409568,undefined,612,grief,abstract-negative,negative,positive,B,NULL
1736770795,1ba735c5ab5e4a6bb6cf5d7c7b9fc8d9,PennController,49,0,test_val,NULL,PennController,60,_Header_,End,1736770409825,undefined,612,grief,abstract-negative,negative,positive,B,NULL
1736770795,1ba735c5ab5e4a6bb6cf5d7c7b9fc8d9,PennController,49,0,test_val,NULL,Selector,unnamed-Selector,Selection,negative,1736770410943,undefined,612,grief,abstract-negative,negative,positive,B,negative;positive
1736770795,1ba735c5ab5e4a6bb6cf5d7c7b9fc8d9,PennController,49,0,test_val,NULL,PennController,60,_Trial_,End,1736770410944,undefined,612,grief,abstract-negative,negative,positive,B,NULL
1736770795,1ba735c5ab5e4a6bb6cf5d7c7b9fc8d9,PennController,65,0,test_val,NULL,PennController,76,_Trial_,Start,1736770410945,undefined,539,hope,abstract-positive,negative,positive,B,NULL
1736770795,1ba735c5ab5e4a6bb6cf5d7c7b9fc8d9,PennController,65,0,test_val,NULL,PennController,76,_Header_,Start,1736770410945,undefined,539,hope,abstract-positive,negative,positive,B,NULL
1736770795,1ba735c5ab5e4a6bb6cf5d7c7b9fc8d9,PennController,65,0,test_val,NULL,PennController,76,_Header_,End,1736770411207,undefined,539,hope,abstract-positive,negative,positive,B,NULL
1736770795,1ba735c5ab5e4a6bb6cf5d7c7b9fc8d9,PennController,65,0,test_val,NULL,Selector,unnamed-Selector,Selection,positive,1736770412255,undefined,539,hope,abstract-positive,negative,positive,B,negative;positive
1736770795,1ba735c5ab5e4a6bb6cf5d7c7b9fc8d9,PennController,65,0,test_val,NULL,PennController,76,_Trial_,End,1736770412257,undefined,539,hope,abstract-positive,negative,positive,B,NULL
1736770795,1ba735c5ab5e4a6bb6cf5d7c7b9fc8d9,PennController,83,0,test_val,NULL,PennController,94,_Trial_,Start,1736770412257,undefined,627,filth,concrete-negative,negative,positive,B,NULL
1736770795,1ba735c5ab5e4a6bb6cf5d7c7b9fc8d9,PennController,83,0,test_val,NULL,PennController,94,_Header_,Start,1736770412257,undefined,627,filth,concrete-negative,negative,positive,B,NULL
1736770795,1ba735c5ab5e4a6bb6cf5d7c7b9fc8d9,PennController,83,0,test_val,NULL,PennController,94,_Header_,End,1736770412520,undefined,627,filth,concrete-negative,negative,positive,B,NULL
1736770795,1ba735c5ab5e4a6bb6cf5d7c7b9fc8d9,PennController,83,0,test_val,NULL,Selector,unnamed-Selector,Selection,negative,1736770413656,undefined,627,filth,concrete-negative,negative,positive,B,negative;positive
1736770795,1ba735c5ab5e4a6bb6cf5d7c7b9fc8d9,PennController,83,0,test_val,NULL,PennController,94,_Trial_,End,1736770413656,undefined,627,filth,concrete-negative,negative,positive,B,NULL
1736770795,1ba735c5ab5e4a6bb6cf5d7c7b9fc8d9,PennController,55,0,test_val,NULL,PennController,66,_Trial_,Start,1736770413657,undefined,603,laughter,concrete-positive,negative,positive,B,NULL
1736770795,1ba735c5ab5e4a6bb6cf5d7c7b9fc8d9,PennController,55,0,test_val,NULL,PennController,66,_Header_,Start,1736770413657,undefined,603,laughter,concrete-positive,negative,positive,B,NULL
1736770795,1ba735c5ab5e4a6bb6cf5d7c7b9fc8d9,PennController,55,0,test_val,NULL,PennController,66,_Header_,End,1736770413909,undefined,603,laughter,concrete-positive,negative,positive,B,NULL
1736770795,1ba735c5ab5e4a6bb6cf5d7c7b9fc8d9,PennController,55,0,test_val,NULL,Selector,unnamed-Selector,Selection,positive,1736770415016,undefined,603,laughter,concrete-positive,negative,positive,B,negative;positive
1736770795,1ba735c5ab5e4a6bb6cf5d7c7b9fc8d9,PennController,55,0,test_val,NULL,PennController,66,_Trial_,End,1736770415016,undefined,603,laughter,concrete-positive,negative,positive,B,NULL
1736770795,1ba735c5ab5e4a6bb6cf5d7c7b9fc8d9,PennController,56,0,test_val,NULL,PennController,67,_Trial_,Start,1736770415016,undefined,625,flowers,concrete-positive,negative,positive,B,NULL
1736770795,1ba735c5ab5e4a6bb6cf5d7c7b9fc8d9,PennController,56,0,test_val,NULL,PennController,67,_Header_,Start,1736770415016,undefined,625,flowers,concrete-positive,negative,positive,B,NULL
1736770795,1ba735c5ab5e4a6bb6cf5d7c7b9fc8d9,PennController,56,0,test_val,NULL,PennController,67,_Header_,End,1736770415274,undefined,625,flowers,concrete-positive,negative,positive,B,NULL
1736770795,1ba735c5ab5e4a6bb6cf5d7c7b9fc8d9,PennController,56,0,test_val,NULL,Selector,unnamed-Selector,Selection,positive,1736770416407,undefined,625,flowers,concrete-positive,negative,positive,B,negative;positive
1736770795,1ba735c5ab5e4a6bb6cf5d7c7b9fc8d9,PennController,56,0,test_val,NULL,PennController,67,_Trial_,End,1736770416408,undefined,625,flowers,concrete-positive,negative,positive,B,NULL
1736770795,1ba735c5ab5e4a6bb6cf5d7c7b9fc8d9,PennController,57,0,test_val,NULL,PennController,68,_Trial_,Start,1736770416408,undefined,539,music,concrete-positive,negative,positive,B,NULL
1736770795,1ba735c5ab5e4a6bb6cf5d7c7b9fc8d9,PennController,57,0,test_val,NULL,PennController,68,_Header_,Start,1736770416408,undefined,539,music,concrete-positive,negative,positive,B,NULL
1736770795,1ba735c5ab5e4a6bb6cf5d7c7b9fc8d9,PennController,57,0,test_val,NULL,PennController,68,_Header_,End,1736770416659,undefined,539,music,concrete-positive,negative,positive,B,NULL
1736770795,1ba735c5ab5e4a6bb6cf5d7c7b9fc8d9,PennController,57,0,test_val,NULL,Selector,unnamed-Selector,Selection,positive,1736770417704,undefined,539,music,concrete-positive,negative,positive,B,negative;positive
1736770795,1ba735c5ab5e4a6bb6cf5d7c7b9fc8d9,PennController,57,0,test_val,NULL,PennController,68,_Trial_,End,1736770417704,undefined,539,music,concrete-positive,negative,positive,B,NULL
1736770795,1ba735c5ab5e4a6bb6cf5d7c7b9fc8d9,PennController,54,0,test_val,NULL,PennController,65,_Trial_,Start,1736770417705,undefined,567,sunshine,concrete-positive,negative,positive,B,NULL
1736770795,1ba735c5ab5e4a6bb6cf5d7c7b9fc8d9,PennController,54,0,test_val,NULL,PennController,65,_Header_,Start,1736770417705,undefined,567,sunshine,concrete-positive,negative,positive,B,NULL
1736770795,1ba735c5ab5e4a6bb6cf5d7c7b9fc8d9,PennController,54,0,test_val,NULL,PennController,65,_Header_,End,1736770417964,undefined,567,sunshine,concrete-positive,negative,positive,B,NULL
1736770795,1ba735c5ab5e4a6bb6cf5d7c7b9fc8d9,PennController,54,0,test_val,NULL,Selector,unnamed-Selector,Selection,positive,1736770419039,undefined,567,sunshine,concrete-positive,negative,positive,B,negative;positive
1736770795,1ba735c5ab5e4a6bb6cf5d7c7b9fc8d9,PennController,54,0,test_val,NULL,PennController,65,_Trial_,End,1736770419039,undefined,567,sunshine,concrete-positive,negative,positive,B,NULL
1736770795,1ba735c5ab5e4a6bb6cf5d7c7b9fc8d9,PennController,81,0,test_val,NULL,PennController,92,_Trial_,Start,1736770419040,undefined,583,injury,concrete-negative,negative,positive,B,NULL
1736770795,1ba735c5ab5e4a6bb6cf5d7c7b9fc8d9,PennController,81,0,test_val,NULL,PennController,92,_Header_,Start,1736770419040,undefined,583,injury,concrete-negative,negative,positive,B,NULL
1736770795,1ba735c5ab5e4a6bb6cf5d7c7b9fc8d9,PennController,81,0,test_val,NULL,PennController,92,_Header_,End,1736770419302,undefined,583,injury,concrete-negative,negative,positive,B,NULL
1736770795,1ba735c5ab5e4a6bb6cf5d7c7b9fc8d9,PennController,81,0,test_val,NULL,Selector,unnamed-Selector,Selection,negative,1736770420391,undefined,583,injury,concrete-negative,negative,positive,B,negative;positive
1736770795,1ba735c5ab5e4a6bb6cf5d7c7b9fc8d9,PennController,81,0,test_val,NULL,PennController,92,_Trial_,End,1736770420392,undefined,583,injury,concrete-negative,negative,positive,B,NULL
1736770795,1ba735c5ab5e4a6bb6cf5d7c7b9fc8d9,PennController,72,0,test_val,NULL,PennController,83,_Trial_,Start,1736770420393,undefined,603,gratitude,abstract-positive,negative,positive,B,NULL
1736770795,1ba735c5ab5e4a6bb6cf5d7c7b9fc8d9,PennController,72,0,test_val,NULL,PennController,83,_Header_,Start,1736770420393,undefined,603,gratitude,abstract-positive,negative,positive,B,NULL
1736770795,1ba735c5ab5e4a6bb6cf5d7c7b9fc8d9,PennController,72,0,test_val,NULL,PennController,83,_Header_,End,1736770420654,undefined,603,gratitude,abstract-positive,negative,positive,B,NULL
1736770795,1ba735c5ab5e4a6bb6cf5d7c7b9fc8d9,PennController,72,0,test_val,NULL,Selector,unnamed-Selector,Selection,positive,1736770421768,undefined,603,gratitude,abstract-positive,negative,positive,B,negative;positive
1736770795,1ba735c5ab5e4a6bb6cf5d7c7b9fc8d9,PennController,72,0,test_val,NULL,PennController,83,_Trial_,End,1736770421768,undefined,603,gratitude,abstract-positive,negative,positive,B,NULL
1736770795,1ba735c5ab5e4a6bb6cf5d7c7b9fc8d9,PennController,52,0,test_val,NULL,PennController,63,_Trial_,Start,1736770421769,undefined,652,shame,abstract-negative,negative,positive,B,NULL
1736770795,1ba735c5ab5e4a6bb6cf5d7c7b9fc8d9,PennController,52,0,test_val,NULL,PennController,63,_Header_,Start,1736770421769,undefined,652,shame,abstract-negative,negative,positive,B,NULL
1736770795,1ba735c5ab5e4a6bb6cf5d7c7b9fc8d9,PennController,52,0,test_val,NULL,PennController,63,_Header_,End,1736770422024,undefined,652,shame,abstract-negative,negative,positive,B,NULL
1736770795,1ba735c5ab5e4a6bb6cf5d7c7b9fc8d9,PennController,52,0,test_val,NULL,Selector,unnamed-Selector,Selection,negative,1736770423184,undefined,652,shame,abstract-negative,negative,positive,B,negative;positive
1736770795,1ba735c5ab5e4a6bb6cf5d7c7b9fc8d9,PennController,52,0,test_val,NULL,PennController,63,_Trial_,End,1736770423184,undefined,652,shame,abstract-negative,negative,positive,B,NULL
1736770795,1ba735c5ab5e4a6bb6cf5d7c7b9fc8d9,PennController,59,0,test_val,NULL,PennController,70,_Trial_,Start,1736770423184,undefined,842,hug,concrete-positive,negative,positive,B,NULL
1736770795,1ba735c5ab5e4a6bb6cf5d7c7b9fc8d9,PennController,59,0,test_val,NULL,PennController,70,_Header_,Start,1736770423184,undefined,842,hug,concrete-positive,negative,positive,B,NULL
1736770795,1ba735c5ab5e4a6bb6cf5d7c7b9fc8d9,PennController,59,0,test_val,NULL,PennController,70,_Header_,End,1736770423443,undefined,842,hug,concrete-positive,negative,positive,B,NULL
1736770795,1ba735c5ab5e4a6bb6cf5d7c7b9fc8d9,PennController,59,0,test_val,NULL,Selector,unnamed-Selector,Selection,positive,1736770424792,undefined,842,hug,concrete-positive,negative,positive,B,negative;positive
1736770795,1ba735c5ab5e4a6bb6cf5d7c7b9fc8d9,PennController,59,0,test_val,NULL,PennController,70,_Trial_,End,1736770424792,undefined,842,hug,concrete-positive,negative,positive,B,NULL
1736770795,1ba735c5ab5e4a6bb6cf5d7c7b9fc8d9,PennController,74,0,test_val,NULL,PennController,85,_Trial_,Start,1736770424793,undefined,516,smoke,concrete-negative,negative,positive,B,NULL
1736770795,1ba735c5ab5e4a6bb6cf5d7c7b9fc8d9,PennController,74,0,test_val,NULL,PennController,85,_Header_,Start,1736770424793,undefined,516,smoke,concrete-negative,negative,positive,B,NULL
1736770795,1ba735c5ab5e4a6bb6cf5d7c7b9fc8d9,PennController,74,0,test_val,NULL,PennController,85,_Header_,End,1736770425057,undefined,516,smoke,concrete-negative,negative,positive,B,NULL
1736770795,1ba735c5ab5e4a6bb6cf5d7c7b9fc8d9,PennController,74,0,test_val,NULL,Selector,unnamed-Selector,Selection,negative,1736770426079,undefined,516,smoke,concrete-negative,negative,positive,B,negative;positive
1736770795,1ba735c5ab5e4a6bb6cf5d7c7b9fc8d9,PennController,74,0,test_val,NULL,PennController,85,_Trial_,End,1736770426080,undefined,516,smoke,concrete-negative,negative,positive,B,NULL
1736770795,1ba735c5ab5e4a6bb6cf5d7c7b9fc8d9,PennController,69,0,test_val,NULL,PennController,80,_Trial_,Start,1736770426080,undefined,582,kindness,abstract-positive,negative,positive,B,NULL
1736770795,1ba735c5ab5e4a6bb6cf5d7c7b9fc8d9,PennController,69,0,test_val,NULL,PennController,80,_Header_,Start,1736770426080,undefined,582,kindness,abstract-positive,negative,positive,B,NULL
1736770795,1ba735c5ab5e4a6bb6cf5d7c7b9fc8d9,PennController,69,0,test_val,NULL,PennController,80,_Header_,End,1736770426333,undefined,582,kindness,abstract-positive,negative,positive,B,NULL
1736770795,1ba735c5ab5e4a6bb6cf5d7c7b9fc8d9,PennController,69,0,test_val,NULL,Selector,unnamed-Selector,Selection,positive,1736770427424,undefined,582,kindness,abstract-positive,negative,positive,B,negative;positive
1736770795,1ba735c5ab5e4a6bb6cf5d7c7b9fc8d9,PennController,69,0,test_val,NULL,PennController,80,_Trial_,End,1736770427424,undefined,582,kindness,abstract-positive,negative,positive,B,NULL
1736770795,1ba735c5ab5e4a6bb6cf5d7c7b9fc8d9,PennController,52,0,test_val,NULL,PennController,63,_Trial_,Start,1736770427425,undefined,525,shame,abstract-negative,negative,positive,B,NULL
1736770795,1ba735c5ab5e4a6bb6cf5d7c7b9fc8d9,PennController,52,0,test_val,NULL,PennController,63,_Header_,Start,1736770427425,undefined,525,shame,abstract-negative,negative,positive,B,NULL
1736770795,1ba735c5ab5e4a6bb6cf5d7c7b9fc8d9,PennController,52,0,test_val,NULL,PennController,63,_Header_,End,1736770427686,undefined,525,shame,abstract-negative,negative,positive,B,NULL
1736770795,1ba735c5ab5e4a6bb6cf5d7c7b9fc8d9,PennController,52,0,test_val,NULL,Selector,unnamed-Selector,Selection,negative,1736770428719,undefined,525,shame,abstract-negative,negative,positive,B,negative;positive
1736770795,1ba735c5ab5e4a6bb6cf5d7c7b9fc8d9,PennController,52,0,test_val,NULL,PennController,63,_Trial_,End,1736770428720,undefined,525,shame,abstract-negative,negative,positive,B,NULL
1736770795,1ba735c5ab5e4a6bb6cf5d7c7b9fc8d9,PennController,47,0,test_val,NULL,PennController,58,_Trial_,Start,1736770428720,undefined,716,despair,abstract-negative,negative,positive,B,NULL
1736770795,1ba735c5ab5e4a6bb6cf5d7c7b9fc8d9,PennController,47,0,test_val,NULL,PennController,58,_Header_,Start,1736770428720,undefined,716,despair,abstract-negative,negative,positive,B,NULL
1736770795,1ba735c5ab5e4a6bb6cf5d7c7b9fc8d9,PennController,47,0,test_val,NULL,PennController,58,_Header_,End,1736770428977,undefined,716,despair,abstract-negative,negative,positive,B,NULL
1736770795,1ba735c5ab5e4a6bb6cf5d7c7b9fc8d9,PennController,47,0,test_val,NULL,Selector,unnamed-Selector,Selection,negative,1736770430200,undefined,716,despair,abstract-negative,negative,positive,B,negative;positive
1736770795,1ba735c5ab5e4a6bb6cf5d7c7b9fc8d9,PennController,47,0,test_val,NULL,PennController,58,_Trial_,End,1736770430201,undefined,716,despair,abstract-negative,negative,positive,B,NULL
1736770795,1ba735c5ab5e4a6bb6cf5d7c7b9fc8d9,PennController,55,0,test_val,NULL,PennController,66,_Trial_,Start,1736770430201,undefined,579,laughter,concrete-positive,negative,positive,B,NULL
1736770795,1ba735c5ab5e4a6bb6cf5d7c7b9fc8d9,PennController,55,0,test_val,NULL,PennController,66,_Header_,Start,1736770430201,undefined,579,laughter,concrete-positive,negative,positive,B,NULL
1736770795,1ba735c5ab5e4a6bb6cf5d7c7b9fc8d9,PennController,55,0,test_val,NULL,PennController,66,_Header_,End,1736770430466,undefined,579,laughter,concrete-positive,negative,positive,B,NULL
1736770795,1ba735c5ab5e4a6bb6cf5d7c7b9fc8d9,PennController,55,0,test_val,NULL,Selector,unnamed-Selector,Selection,positive,1736770431552,undefined,579,laughter,concrete-positive,negative,positive,B,negative;positive
1736770795,1ba735c5ab5e4a6bb6cf5d7c7b9fc8d9,PennController,55,0,test_val,NULL,PennController,66,_Trial_,End,1736770431552,undefined,579,laughter,concrete-positive,negative,positive,B,NULL
1736770795,1ba735c5ab5e4a6bb6cf5d7c7b9fc8d9,PennController,48,0,test_val,NULL,PennController,59,_Trial_,Start,1736770431553,undefined,483,guilt,abstract-negative,negative,positive,B,NULL
1736770795,1ba735c5ab5e4a6bb6cf5d7c7b9fc8d9,PennController,48,0,test_val,NULL,PennController,59,_Header_,Start,1736770431553,undefined,483,guilt,abstract-negative,negative,positive,B,NULL
1736770795,1ba735c5ab5e4a6bb6cf5d7c7b9fc8d9,PennController,48,0,test_val,NULL,PennController,59,_Header_,End,1736770431806,undefined,483,guilt,abstract-negative,negative,positive,B,NULL
1736770795,1ba735c5ab5e4a6bb6cf5d7c7b9fc8d9,PennController,48,0,test_val,NULL,Selector,unnamed-Selector,Selection,negative,1736770432800,undefined,483,guilt,abstract-negative,negative,positive,B,negative;positive
1736770795,1ba735c5ab5e4a6bb6cf5d7c7b9fc8d9,PennController,48,0,test_val,NULL,PennController,59,_Trial_,End,1736770432800,undefined,483,guilt,abstract-negative,negative,positive,B,NULL
1736770795,1ba735c5ab5e4a6bb6cf5d7c7b9fc8d9,PennController,78,0,test_val,NULL,PennController,89,_Trial_,Start,1736770432801,undefined,587,garbage,concrete-negative,negative,positive,B,NULL
1736770795,1ba735c5ab5e4a6bb6cf5d7c7b9fc8d9,PennController,78,0,test_val,NULL,PennController,89,_Header_,Start,1736770432801,undefined,587,garbage,concrete-negative,negative,positive,B,NULL
1736770795,1ba735c5ab5e4a6bb6cf5d7c7b9fc8d9,PennController,78,0,test_val,NULL,PennController,89,_Header_,End,1736770433056,undefined,587,garbage,concrete-negative,negative,positive,B,NULL
1736770795,1ba735c5ab5e4a6bb6cf5d7c7b9fc8d9,PennController,78,0,test_val,NULL,Selector,unnamed-Selector,Selection,negative,1736770434151,undefined,587,garbage,concrete-negative,negative,positive,B,negative;positive
1736770795,1ba735c5ab5e4a6bb6cf5d7c7b9fc8d9,PennController,78,0,test_val,NULL,PennController,89,_Trial_,End,1736770434152,undefined,587,garbage,concrete-negative,negative,positive,B,NULL
1736770795,1ba735c5ab5e4a6bb6cf5d7c7b9fc8d9,PennController,64,0,test_val,NULL,PennController,75,_Trial_,Start,1736770434152,undefined,636,love,abstract-positive,negative,positive,B,NULL
1736770795,1ba735c5ab5e4a6bb6cf5d7c7b9fc8d9,PennController,64,0,test_val,NULL,PennController,75,_Header_,Start,1736770434152,undefined,636,love,abstract-positive,negative,positive,B,NULL
1736770795,1ba735c5ab5e4a6bb6cf5d7c7b9fc8d9,PennController,64,0,test_val,NULL,PennController,75,_Header_,End,1736770434412,undefined,636,love,abstract-positive,negative,positive,B,NULL
1736770795,1ba735c5ab5e4a6bb6cf5d7c7b9fc8d9,PennController,64,0,test_val,NULL,Selector,unnamed-Selector,Selection,positive,1736770435559,undefined,636,love,abstract-positive,negative,positive,B,negative;positive
1736770795,1ba735c5ab5e4a6bb6cf5d7c7b9fc8d9,PennController,64,0,test_val,NULL,PennController,75,_Trial_,End,1736770435560,undefined,636,love,abstract-positive,negative,positive,B,NULL
1736770795,1ba735c5ab5e4a6bb6cf5d7c7b9fc8d9,PennController,65,0,test_val,NULL,PennController,76,_Trial_,Start,1736770435560,undefined,503,hope,abstract-positive,negative,positive,B,NULL
1736770795,1ba735c5ab5e4a6bb6cf5d7c7b9fc8d9,PennController,65,0,test_val,NULL,PennController,76,_Header_,Start,1736770435560,undefined,503,hope,abstract-positive,negative,positive,B,NULL
1736770795,1ba735c5ab5e4a6bb6cf5d7c7b9fc8d9,PennController,65,0,test_val,NULL,PennController,76,_Header_,End,1736770435818,undefined,503,hope,abstract-positive,negative,positive,B,NULL
1736770795,1ba735c5ab5e4a6bb6cf5d7c7b9fc8d9,PennController,65,0,test_val,NULL,Selector,unnamed-Selector,Selection,positive,1736770436832,undefined,503,hope,abstract-positive,negative,positive,B,negative;positive
1736770795,1ba735c5ab5e4a6bb6cf5d7c7b9fc8d9,PennController,65,0,test_val,NULL,PennController,76,_Trial_,End,1736770436832,undefined,503,hope,abstract-positive,negative,positive,B,NULL
1736770795,1ba735c5ab5e4a6bb6cf5d7c7b9fc8d9,PennController,75,0,test_val,NULL,PennController,86,_Trial_,Start,1736770436833,undefined,620,rot,concrete-negative,negative,positive,B,NULL
1736770795,1ba735c5ab5e4a6bb6cf5d7c7b9fc8d9,PennController,75,0,test_val,NULL,PennController,86,_Header_,Start,1736770436833,undefined,620,rot,concrete-negative,negative,positive,B,NULL
1736770795,1ba735c5ab5e4a6bb6cf5d7c7b9fc8d9,PennController,75,0,test_val,NULL,PennController,86,_Header_,End,1736770437097,undefined,620,rot,concrete-negative,negative,positive,B,NULL
1736770795,1ba735c5ab5e4a6bb6cf5d7c7b9fc8d9,PennController,75,0,test_val,NULL,Selector,unnamed-Selector,Selection,negative,1736770438225,undefined,620,rot,concrete-negative,negative,positive,B,negative;positive
1736770795,1ba735c5ab5e4a6bb6cf5d7c7b9fc8d9,PennController,75,0,test_val,NULL,PennController,86,_Trial_,End,1736770438225,undefined,620,rot,concrete-negative,negative,positive,B,NULL
1736770795,1ba735c5ab5e4a6bb6cf5d7c7b9fc8d9,PennController,44,0,test_val,NULL,PennController,55,_Trial_,Start,1736770438226,undefined,693,lonliness,abstract-negative,negative,positive,B,NULL
1736770795,1ba735c5ab5e4a6bb6cf5d7c7b9fc8d9,PennController,44,0,test_val,NULL,PennController,55,_Header_,Start,1736770438226,undefined,693,lonliness,abstract-negative,negative,positive,B,NULL
1736770795,1ba735c5ab5e4a6bb6cf5d7c7b9fc8d9,PennController,44,0,test_val,NULL,PennController,55,_Header_,End,1736770438484,undefined,693,lonliness,abstract-negative,negative,positive,B,NULL
1736770795,1ba735c5ab5e4a6bb6cf5d7c7b9fc8d9,PennController,44,0,test_val,NULL,Selector,unnamed-Selector,Selection,negative,1736770439688,undefined,693,lonliness,abstract-negative,negative,positive,B,negative;positive
1736770795,1ba735c5ab5e4a6bb6cf5d7c7b9fc8d9,PennController,44,0,test_val,NULL,PennController,55,_Trial_,End,1736770439688,undefined,693,lonliness,abstract-negative,negative,positive,B,NULL
1736770795,1ba735c5ab5e4a6bb6cf5d7c7b9fc8d9,PennController,82,0,test_val,NULL,PennController,93,_Trial_,Start,1736770439689,undefined,524,stench,concrete-negative,negative,positive,B,NULL
1736770795,1ba735c5ab5e4a6bb6cf5d7c7b9fc8d9,PennController,82,0,test_val,NULL,PennController,93,_Header_,Start,1736770439689,undefined,524,stench,concrete-negative,negative,positive,B,NULL
1736770795,1ba735c5ab5e4a6bb6cf5d7c7b9fc8d9,PennController,82,0,test_val,NULL,PennController,93,_Header_,End,1736770439945,undefined,524,stench,concrete-negative,negative,positive,B,NULL
1736770795,1ba735c5ab5e4a6bb6cf5d7c7b9fc8d9,PennController,82,0,test_val,NULL,Selector,unnamed-Selector,Selection,negative,1736770440975,undefined,524,stench,concrete-negative,negative,positive,B,negative;positive
1736770795,1ba735c5ab5e4a6bb6cf5d7c7b9fc8d9,PennController,82,0,test_val,NULL,PennController,93,_Trial_,End,1736770440976,undefined,524,stench,concrete-negative,negative,positive,B,NULL
1736770795,1ba735c5ab5e4a6bb6cf5d7c7b9fc8d9,PennController,58,0,test_val,NULL,PennController,69,_Trial_,Start,1736770440976,undefined,559,beach,concrete-positive,negative,positive,B,NULL
1736770795,1ba735c5ab5e4a6bb6cf5d7c7b9fc8d9,PennController,58,0,test_val,NULL,PennController,69,_Header_,Start,1736770440976,undefined,559,beach,concrete-positive,negative,positive,B,NULL
1736770795,1ba735c5ab5e4a6bb6cf5d7c7b9fc8d9,PennController,58,0,test_val,NULL,PennController,69,_Header_,End,1736770441235,undefined,559,beach,concrete-positive,negative,positive,B,NULL
1736770795,1ba735c5ab5e4a6bb6cf5d7c7b9fc8d9,PennController,58,0,test_val,NULL,Selector,unnamed-Selector,Selection,positive,1736770442304,undefined,559,beach,concrete-positive,negative,positive,B,negative;positive
1736770795,1ba735c5ab5e4a6bb6cf5d7c7b9fc8d9,PennController,58,0,test_val,NULL,PennController,69,_Trial_,End,1736770442304,undefined,559,beach,concrete-positive,negative,positive,B,NULL
1736770795,1ba735c5ab5e4a6bb6cf5d7c7b9fc8d9,PennController,49,0,test_val,NULL,PennController,60,_Trial_,Start,1736770442304,undefined,451,grief,abstract-negative,negative,positive,B,NULL
1736770795,1ba735c5ab5e4a6bb6cf5d7c7b9fc8d9,PennController,49,0,test_val,NULL,PennController,60,_Header_,Start,1736770442304,undefined,451,grief,abstract-negative,negative,positive,B,NULL
1736770795,1ba735c5ab5e4a6bb6cf5d7c7b9fc8d9,PennController,49,0,test_val,NULL,PennController,60,_Header_,End,1736770442563,undefined,451,grief,abstract-negative,negative,positive,B,NULL
1736770795,1ba735c5ab5e4a6bb6cf5d7c7b9fc8d9,PennController,49,0,test_val,NULL,Selector,unnamed-Selector,Selection,negative,1736770443521,undefined,451,grief,abstract-negative,negative,positive,B,negative;positive
1736770795,1ba735c5ab5e4a6bb6cf5d7c7b9fc8d9,PennController,49,0,test_val,NULL,PennController,60,_Trial_,End,1736770443521,undefined,451,grief,abstract-negative,negative,positive,B,NULL
1736770795,1ba735c5ab5e4a6bb6cf5d7c7b9fc8d9,PennController,60,0,test_val,NULL,PennController,71,_Trial_,Start,1736770443522,undefined,610,home,concrete-positive,negative,positive,B,NULL
1736770795,1ba735c5ab5e4a6bb6cf5d7c7b9fc8d9,PennController,60,0,test_val,NULL,PennController,71,_Header_,Start,1736770443522,undefined,610,home,concrete-positive,negative,positive,B,NULL
1736770795,1ba735c5ab5e4a6bb6cf5d7c7b9fc8d9,PennController,60,0,test_val,NULL,PennController,71,_Header_,End,1736770443781,undefined,610,home,concrete-positive,negative,positive,B,NULL
1736770795,1ba735c5ab5e4a6bb6cf5d7c7b9fc8d9,PennController,60,0,test_val,NULL,Selector,unnamed-Selector,Selection,positive,1736770444896,undefined,610,home,concrete-positive,negative,positive,B,negative;positive
1736770795,1ba735c5ab5e4a6bb6cf5d7c7b9fc8d9,PennController,60,0,test_val,NULL,PennController,71,_Trial_,End,1736770444896,undefined,610,home,concrete-positive,negative,positive,B,NULL
1736770795,1ba735c5ab5e4a6bb6cf5d7c7b9fc8d9,PennController,63,0,test_val,NULL,PennController,74,_Trial_,Start,1736770444897,undefined,745,fireplace,concrete-positive,negative,positive,B,NULL
1736770795,1ba735c5ab5e4a6bb6cf5d7c7b9fc8d9,PennController,63,0,test_val,NULL,PennController,74,_Header_,Start,1736770444897,undefined,745,fireplace,concrete-positive,negative,positive,B,NULL
1736770795,1ba735c5ab5e4a6bb6cf5d7c7b9fc8d9,PennController,63,0,test_val,NULL,PennController,74,_Header_,End,1736770445162,undefined,745,fireplace,concrete-positive,negative,positive,B,NULL
1736770795,1ba735c5ab5e4a6bb6cf5d7c7b9fc8d9,PennController,63,0,test_val,NULL,Selector,unnamed-Selector,Selection,positive,1736770446415,undefined,745,fireplace,concrete-positive,negative,positive,B,negative;positive
1736770795,1ba735c5ab5e4a6bb6cf5d7c7b9fc8d9,PennController,63,0,test_val,NULL,PennController,74,_Trial_,End,1736770446417,undefined,745,fireplace,concrete-positive,negative,positive,B,NULL
1736770795,1ba735c5ab5e4a6bb6cf5d7c7b9fc8d9,PennController,67,0,test_val,NULL,PennController,78,_Trial_,Start,1736770446417,undefined,445,peace,abstract-positive,negative,positive,B,NULL
1736770795,1ba735c5ab5e4a6bb6cf5d7c7b9fc8d9,PennController,67,0,test_val,NULL,PennController,78,_Header_,Start,1736770446417,undefined,445,peace,abstract-positive,negative,positive,B,NULL
1736770795,1ba735c5ab5e4a6bb6cf5d7c7b9fc8d9,PennController,67,0,test_val,NULL,PennController,78,_Header_,End,1736770446677,undefined,445,peace,abstract-positive,negative,positive,B,NULL
1736770795,1ba735c5ab5e4a6bb6cf5d7c7b9fc8d9,PennController,67,0,test_val,NULL,Selector,unnamed-Selector,Selection,positive,1736770447632,undefined,445,peace,abstract-positive,negative,positive,B,negative;positive
1736770795,1ba735c5ab5e4a6bb6cf5d7c7b9fc8d9,PennController,67,0,test_val,NULL,PennController,78,_Trial_,End,1736770447632,undefined,445,peace,abstract-positive,negative,positive,B,NULL
1736770795,1ba735c5ab5e4a6bb6cf5d7c7b9fc8d9,PennController,53,0,test_val,NULL,PennController,64,_Trial_,Start,1736770447633,undefined,598,envy,abstract-negative,negative,positive,B,NULL
1736770795,1ba735c5ab5e4a6bb6cf5d7c7b9fc8d9,PennController,53,0,test_val,NULL,PennController,64,_Header_,Start,1736770447633,undefined,598,envy,abstract-negative,negative,positive,B,NULL
1736770795,1ba735c5ab5e4a6bb6cf5d7c7b9fc8d9,PennController,53,0,test_val,NULL,PennController,64,_Header_,End,1736770447885,undefined,598,envy,abstract-negative,negative,positive,B,NULL
1736770795,1ba735c5ab5e4a6bb6cf5d7c7b9fc8d9,PennController,53,0,test_val,NULL,Selector,unnamed-Selector,Selection,negative,1736770448992,undefined,598,envy,abstract-negative,negative,positive,B,negative;positive
1736770795,1ba735c5ab5e4a6bb6cf5d7c7b9fc8d9,PennController,53,0,test_val,NULL,PennController,64,_Trial_,End,1736770448993,undefined,598,envy,abstract-negative,negative,positive,B,NULL
1736770795,1ba735c5ab5e4a6bb6cf5d7c7b9fc8d9,PennController,46,0,test_val,NULL,PennController,57,_Trial_,Start,1736770448993,undefined,603,anxiety,abstract-negative,negative,positive,B,NULL
1736770795,1ba735c5ab5e4a6bb6cf5d7c7b9fc8d9,PennController,46,0,test_val,NULL,PennController,57,_Header_,Start,1736770448993,undefined,603,anxiety,abstract-negative,negative,positive,B,NULL
1736770795,1ba735c5ab5e4a6bb6cf5d7c7b9fc8d9,PennController,46,0,test_val,NULL,PennController,57,_Header_,End,1736770449254,undefined,603,anxiety,abstract-negative,negative,positive,B,NULL
1736770795,1ba735c5ab5e4a6bb6cf5d7c7b9fc8d9,PennController,46,0,test_val,NULL,Selector,unnamed-Selector,Selection,negative,1736770450368,undefined,603,anxiety,abstract-negative,negative,positive,B,negative;positive
1736770795,1ba735c5ab5e4a6bb6cf5d7c7b9fc8d9,PennController,46,0,test_val,NULL,PennController,57,_Trial_,End,1736770450369,undefined,603,anxiety,abstract-negative,negative,positive,B,NULL
1736770795,1ba735c5ab5e4a6bb6cf5d7c7b9fc8d9,PennController,79,0,test_val,NULL,PennController,90,_Trial_,Start,1736770450369,undefined,529,rust,concrete-negative,negative,positive,B,NULL
1736770795,1ba735c5ab5e4a6bb6cf5d7c7b9fc8d9,PennController,79,0,test_val,NULL,PennController,90,_Header_,Start,1736770450369,undefined,529,rust,concrete-negative,negative,positive,B,NULL
1736770795,1ba735c5ab5e4a6bb6cf5d7c7b9fc8d9,PennController,79,0,test_val,NULL,PennController,90,_Header_,End,1736770450628,undefined,529,rust,concrete-negative,negative,positive,B,NULL
1736770795,1ba735c5ab5e4a6bb6cf5d7c7b9fc8d9,PennController,79,0,test_val,NULL,Selector,unnamed-Selector,Selection,negative,1736770451665,undefined,529,rust,concrete-negative,negative,positive,B,negative;positive
1736770795,1ba735c5ab5e4a6bb6cf5d7c7b9fc8d9,PennController,79,0,test_val,NULL,PennController,90,_Trial_,End,1736770451665,undefined,529,rust,concrete-negative,negative,positive,B,NULL
1736770795,1ba735c5ab5e4a6bb6cf5d7c7b9fc8d9,PennController,76,0,test_val,NULL,PennController,87,_Trial_,Start,1736770451665,undefined,467,mud,concrete-negative,negative,positive,B,NULL
1736770795,1ba735c5ab5e4a6bb6cf5d7c7b9fc8d9,PennController,76,0,test_val,NULL,PennController,87,_Header_,Start,1736770451665,undefined,467,mud,concrete-negative,negative,positive,B,NULL
1736770795,1ba735c5ab5e4a6bb6cf5d7c7b9fc8d9,PennController,76,0,test_val,NULL,PennController,87,_Header_,End,1736770451926,undefined,467,mud,concrete-negative,negative,positive,B,NULL
1736770795,1ba735c5ab5e4a6bb6cf5d7c7b9fc8d9,PennController,76,0,test_val,NULL,Selector,unnamed-Selector,Selection,negative,1736770452903,undefined,467,mud,concrete-negative,negative,positive,B,negative;positive
1736770795,1ba735c5ab5e4a6bb6cf5d7c7b9fc8d9,PennController,76,0,test_val,NULL,PennController,87,_Trial_,End,1736770452904,undefined,467,mud,concrete-negative,negative,positive,B,NULL
1736770795,1ba735c5ab5e4a6bb6cf5d7c7b9fc8d9,PennController,66,0,test_val,NULL,PennController,77,_Trial_,Start,1736770452904,undefined,563,joy,abstract-positive,negative,positive,B,NULL
1736770795,1ba735c5ab5e4a6bb6cf5d7c7b9fc8d9,PennController,66,0,test_val,NULL,PennController,77,_Header_,Start,1736770452904,undefined,563,joy,abstract-positive,negative,positive,B,NULL
1736770795,1ba735c5ab5e4a6bb6cf5d7c7b9fc8d9,PennController,66,0,test_val,NULL,PennController,77,_Header_,End,1736770453159,undefined,563,joy,abstract-positive,negative,positive,B,NULL
1736770795,1ba735c5ab5e4a6bb6cf5d7c7b9fc8d9,PennController,66,0,test_val,NULL,Selector,unnamed-Selector,Selection,positive,1736770454232,undefined,563,joy,abstract-positive,negative,positive,B,negative;positive
1736770795,1ba735c5ab5e4a6bb6cf5d7c7b9fc8d9,PennController,66,0,test_val,NULL,PennController,77,_Trial_,End,1736770454232,undefined,563,joy,abstract-positive,negative,positive,B,NULL
1736770795,1ba735c5ab5e4a6bb6cf5d7c7b9fc8d9,PennController,81,0,test_val,NULL,PennController,92,_Trial_,Start,1736770454233,undefined,584,injury,concrete-negative,negative,positive,B,NULL
1736770795,1ba735c5ab5e4a6bb6cf5d7c7b9fc8d9,PennController,81,0,test_val,NULL,PennController,92,_Header_,Start,1736770454233,undefined,584,injury,concrete-negative,negative,positive,B,NULL
1736770795,1ba735c5ab5e4a6bb6cf5d7c7b9fc8d9,PennController,81,0,test_val,NULL,PennController,92,_Header_,End,1736770454486,undefined,584,injury,concrete-negative,negative,positive,B,NULL
1736770795,1ba735c5ab5e4a6bb6cf5d7c7b9fc8d9,PennController,81,0,test_val,NULL,Selector,unnamed-Selector,Selection,negative,1736770455575,undefined,584,injury,concrete-negative,negative,positive,B,negative;positive
1736770795,1ba735c5ab5e4a6bb6cf5d7c7b9fc8d9,PennController,81,0,test_val,NULL,PennController,92,_Trial_,End,1736770455576,undefined,584,injury,concrete-negative,negative,positive,B,NULL
1736770795,1ba735c5ab5e4a6bb6cf5d7c7b9fc8d9,PennController,71,0,test_val,NULL,PennController,82,_Trial_,Start,1736770455576,undefined,549,compassion,abstract-positive,negative,positive,B,NULL
1736770795,1ba735c5ab5e4a6bb6cf5d7c7b9fc8d9,PennController,71,0,test_val,NULL,PennController,82,_Header_,Start,1736770455576,undefined,549,compassion,abstract-positive,negative,positive,B,NULL
1736770795,1ba735c5ab5e4a6bb6cf5d7c7b9fc8d9,PennController,71,0,test_val,NULL,PennController,82,_Header_,End,1736770455838,undefined,549,compassion,abstract-positive,negative,positive,B,NULL
1736770795,1ba735c5ab5e4a6bb6cf5d7c7b9fc8d9,PennController,71,0,test_val,NULL,Selector,unnamed-Selector,Selection,positive,1736770456896,undefined,549,compassion,abstract-positive,negative,positive,B,negative;positive
1736770795,1ba735c5ab5e4a6bb6cf5d7c7b9fc8d9,PennController,71,0,test_val,NULL,PennController,82,_Trial_,End,1736770456897,undefined,549,compassion,abstract-positive,negative,positive,B,NULL
1736770795,1ba735c5ab5e4a6bb6cf5d7c7b9fc8d9,PennController,70,0,test_val,NULL,PennController,81,_Trial_,Start,1736770456897,undefined,560,happiness,abstract-positive,negative,positive,B,NULL
1736770795,1ba735c5ab5e4a6bb6cf5d7c7b9fc8d9,PennController,70,0,test_val,NULL,PennController,81,_Header_,Start,1736770456897,undefined,560,happiness,abstract-positive,negative,positive,B,NULL
1736770795,1ba735c5ab5e4a6bb6cf5d7c7b9fc8d9,PennController,70,0,test_val,NULL,PennController,81,_Header_,End,1736770457148,undefined,560,happiness,abstract-positive,negative,positive,B,NULL
1736770795,1ba735c5ab5e4a6bb6cf5d7c7b9fc8d9,PennController,70,0,test_val,NULL,Selector,unnamed-Selector,Selection,positive,1736770458216,undefined,560,happiness,abstract-positive,negative,positive,B,negative;positive
1736770795,1ba735c5ab5e4a6bb6cf5d7c7b9fc8d9,PennController,70,0,test_val,NULL,PennController,81,_Trial_,End,1736770458216,undefined,560,happiness,abstract-positive,negative,positive,B,NULL
1736770795,1ba735c5ab5e4a6bb6cf5d7c7b9fc8d9,PennController,51,0,test_val,NULL,PennController,62,_Trial_,Start,1736770458217,undefined,486,failure,abstract-negative,negative,positive,B,NULL
1736770795,1ba735c5ab5e4a6bb6cf5d7c7b9fc8d9,PennController,51,0,test_val,NULL,PennController,62,_Header_,Start,1736770458217,undefined,486,failure,abstract-negative,negative,positive,B,NULL
1736770795,1ba735c5ab5e4a6bb6cf5d7c7b9fc8d9,PennController,51,0,test_val,NULL,PennController,62,_Header_,End,1736770458473,undefined,486,failure,abstract-negative,negative,positive,B,NULL
1736770795,1ba735c5ab5e4a6bb6cf5d7c7b9fc8d9,PennController,51,0,test_val,NULL,Selector,unnamed-Selector,Selection,negative,1736770459464,undefined,486,failure,abstract-negative,negative,positive,B,negative;positive
1736770795,1ba735c5ab5e4a6bb6cf5d7c7b9fc8d9,PennController,51,0,test_val,NULL,PennController,62,_Trial_,End,1736770459464,undefined,486,failure,abstract-negative,negative,positive,B,NULL
1736770795,1ba735c5ab5e4a6bb6cf5d7c7b9fc8d9,PennController,50,0,test_val,NULL,PennController,61,_Trial_,Start,1736770459464,undefined,602,resentment,abstract-negative,negative,positive,B,NULL
1736770795,1ba735c5ab5e4a6bb6cf5d7c7b9fc8d9,PennController,50,0,test_val,NULL,PennController,61,_Header_,Start,1736770459464,undefined,602,resentment,abstract-negative,negative,positive,B,NULL
1736770795,1ba735c5ab5e4a6bb6cf5d7c7b9fc8d9,PennController,50,0,test_val,NULL,PennController,61,_Header_,End,1736770459721,undefined,602,resentment,abstract-negative,negative,positive,B,NULL
1736770795,1ba735c5ab5e4a6bb6cf5d7c7b9fc8d9,PennController,50,0,test_val,NULL,Selector,unnamed-Selector,Selection,negative,1736770460833,undefined,602,resentment,abstract-negative,negative,positive,B,negative;positive
1736770795,1ba735c5ab5e4a6bb6cf5d7c7b9fc8d9,PennController,50,0,test_val,NULL,PennController,61,_Trial_,End,1736770460833,undefined,602,resentment,abstract-negative,negative,positive,B,NULL
1736770795,1ba735c5ab5e4a6bb6cf5d7c7b9fc8d9,PennController,62,0,test_val,NULL,PennController,73,_Trial_,Start,1736770460834,undefined,514,chocolate,concrete-positive,negative,positive,B,NULL
1736770795,1ba735c5ab5e4a6bb6cf5d7c7b9fc8d9,PennController,62,0,test_val,NULL,PennController,73,_Header_,Start,1736770460834,undefined,514,chocolate,concrete-positive,negative,positive,B,NULL
1736770795,1ba735c5ab5e4a6bb6cf5d7c7b9fc8d9,PennController,62,0,test_val,NULL,PennController,73,_Header_,End,1736770461090,undefined,514,chocolate,concrete-positive,negative,positive,B,NULL
1736770795,1ba735c5ab5e4a6bb6cf5d7c7b9fc8d9,PennController,62,0,test_val,NULL,Selector,unnamed-Selector,Selection,negative,1736770462112,undefined,514,chocolate,concrete-positive,negative,positive,B,negative;positive
1736770795,1ba735c5ab5e4a6bb6cf5d7c7b9fc8d9,PennController,62,0,test_val,NULL,PennController,73,_Trial_,End,1736770462112,undefined,514,chocolate,concrete-positive,negative,positive,B,NULL
1736770795,1ba735c5ab5e4a6bb6cf5d7c7b9fc8d9,PennController,45,0,test_val,NULL,PennController,56,_Trial_,Start,1736770462112,undefined,672,regret,abstract-negative,negative,positive,B,NULL
1736770795,1ba735c5ab5e4a6bb6cf5d7c7b9fc8d9,PennController,45,0,test_val,NULL,PennController,56,_Header_,Start,1736770462112,undefined,672,regret,abstract-negative,negative,positive,B,NULL
1736770795,1ba735c5ab5e4a6bb6cf5d7c7b9fc8d9,PennController,45,0,test_val,NULL,PennController,56,_Header_,End,1736770462370,undefined,672,regret,abstract-negative,negative,positive,B,NULL
1736770795,1ba735c5ab5e4a6bb6cf5d7c7b9fc8d9,PennController,45,0,test_val,NULL,Selector,unnamed-Selector,Selection,negative,1736770463552,undefined,672,regret,abstract-negative,negative,positive,B,negative;positive
1736770795,1ba735c5ab5e4a6bb6cf5d7c7b9fc8d9,PennController,45,0,test_val,NULL,PennController,56,_Trial_,End,1736770463552,undefined,672,regret,abstract-negative,negative,positive,B,NULL
1736770795,1ba735c5ab5e4a6bb6cf5d7c7b9fc8d9,PennController,77,0,test_val,NULL,PennController,88,_Trial_,Start,1736770463553,undefined,586,vomit,concrete-negative,negative,positive,B,NULL
1736770795,1ba735c5ab5e4a6bb6cf5d7c7b9fc8d9,PennController,77,0,test_val,NULL,PennController,88,_Header_,Start,1736770463553,undefined,586,vomit,concrete-negative,negative,positive,B,NULL
1736770795,1ba735c5ab5e4a6bb6cf5d7c7b9fc8d9,PennController,77,0,test_val,NULL,PennController,88,_Header_,End,1736770463806,undefined,586,vomit,concrete-negative,negative,positive,B,NULL
1736770795,1ba735c5ab5e4a6bb6cf5d7c7b9fc8d9,PennController,77,0,test_val,NULL,Selector,unnamed-Selector,Selection,negative,1736770464904,undefined,586,vomit,concrete-negative,negative,positive,B,negative;positive
1736770795,1ba735c5ab5e4a6bb6cf5d7c7b9fc8d9,PennController,77,0,test_val,NULL,PennController,88,_Trial_,End,1736770464904,undefined,586,vomit,concrete-negative,negative,positive,B,NULL
1736770795,1ba735c5ab5e4a6bb6cf5d7c7b9fc8d9,PennController,54,0,test_val,NULL,PennController,65,_Trial_,Start,1736770464905,undefined,623,sunshine,concrete-positive,negative,positive,B,NULL
1736770795,1ba735c5ab5e4a6bb6cf5d7c7b9fc8d9,PennController,54,0,test_val,NULL,PennController,65,_Header_,Start,1736770464905,undefined,623,sunshine,concrete-positive,negative,positive,B,NULL
1736770795,1ba735c5ab5e4a6bb6cf5d7c7b9fc8d9,PennController,54,0,test_val,NULL,PennController,65,_Header_,End,1736770465163,undefined,623,sunshine,concrete-positive,negative,positive,B,NULL
1736770795,1ba735c5ab5e4a6bb6cf5d7c7b9fc8d9,PennController,54,0,test_val,NULL,Selector,unnamed-Selector,Selection,positive,1736770466296,undefined,623,sunshine,concrete-positive,negative,positive,B,negative;positive
1736770795,1ba735c5ab5e4a6bb6cf5d7c7b9fc8d9,PennController,54,0,test_val,NULL,PennController,65,_Trial_,End,1736770466297,undefined,623,sunshine,concrete-positive,negative,positive,B,NULL
1736770795,1ba735c5ab5e4a6bb6cf5d7c7b9fc8d9,PennController,57,0,test_val,NULL,PennController,68,_Trial_,Start,1736770466297,undefined,562,music,concrete-positive,negative,positive,B,NULL
1736770795,1ba735c5ab5e4a6bb6cf5d7c7b9fc8d9,PennController,57,0,test_val,NULL,PennController,68,_Header_,Start,1736770466297,undefined,562,music,concrete-positive,negative,positive,B,NULL
1736770795,1ba735c5ab5e4a6bb6cf5d7c7b9fc8d9,PennController,57,0,test_val,NULL,PennController,68,_Header_,End,1736770466554,undefined,562,music,concrete-positive,negative,positive,B,NULL
1736770795,1ba735c5ab5e4a6bb6cf5d7c7b9fc8d9,PennController,57,0,test_val,NULL,Selector,unnamed-Selector,Selection,positive,1736770467624,undefined,562,music,concrete-positive,negative,positive,B,negative;positive
1736770795,1ba735c5ab5e4a6bb6cf5d7c7b9fc8d9,PennController,57,0,test_val,NULL,PennController,68,_Trial_,End,1736770467624,undefined,562,music,concrete-positive,negative,positive,B,NULL
1736770795,1ba735c5ab5e4a6bb6cf5d7c7b9fc8d9,PennController,73,0,test_val,NULL,PennController,84,_Trial_,Start,1736770467625,undefined,546,inspiration,abstract-positive,negative,positive,B,NULL
1736770795,1ba735c5ab5e4a6bb6cf5d7c7b9fc8d9,PennController,73,0,test_val,NULL,PennController,84,_Header_,Start,1736770467625,undefined,546,inspiration,abstract-positive,negative,positive,B,NULL
1736770795,1ba735c5ab5e4a6bb6cf5d7c7b9fc8d9,PennController,73,0,test_val,NULL,PennController,84,_Header_,End,1736770467880,undefined,546,inspiration,abstract-positive,negative,positive,B,NULL
1736770795,1ba735c5ab5e4a6bb6cf5d7c7b9fc8d9,PennController,73,0,test_val,NULL,Selector,unnamed-Selector,Selection,positive,1736770468935,undefined,546,inspiration,abstract-positive,negative,positive,B,negative;positive
1736770795,1ba735c5ab5e4a6bb6cf5d7c7b9fc8d9,PennController,73,0,test_val,NULL,PennController,84,_Trial_,End,1736770468936,undefined,546,inspiration,abstract-positive,negative,positive,B,NULL
1736770795,1ba735c5ab5e4a6bb6cf5d7c7b9fc8d9,PennController,80,0,test_val,NULL,PennController,91,_Trial_,Start,1736770468936,undefined,680,mold,concrete-negative,negative,positive,B,NULL
1736770795,1ba735c5ab5e4a6bb6cf5d7c7b9fc8d9,PennController,80,0,test_val,NULL,PennController,91,_Header_,Start,1736770468936,undefined,680,mold,concrete-negative,negative,positive,B,NULL
1736770795,1ba735c5ab5e4a6bb6cf5d7c7b9fc8d9,PennController,80,0,test_val,NULL,PennController,91,_Header_,End,1736770469189,undefined,680,mold,concrete-negative,negative,positive,B,NULL
1736770795,1ba735c5ab5e4a6bb6cf5d7c7b9fc8d9,PennController,80,0,test_val,NULL,Selector,unnamed-Selector,Selection,negative,1736770470376,undefined,680,mold,concrete-negative,negative,positive,B,negative;positive
1736770795,1ba735c5ab5e4a6bb6cf5d7c7b9fc8d9,PennController,80,0,test_val,NULL,PennController,91,_Trial_,End,1736770470376,undefined,680,mold,concrete-negative,negative,positive,B,NULL
1736770795,1ba735c5ab5e4a6bb6cf5d7c7b9fc8d9,PennController,83,0,test_val,NULL,PennController,94,_Trial_,Start,1736770470377,undefined,528,filth,concrete-negative,negative,positive,B,NULL
1736770795,1ba735c5ab5e4a6bb6cf5d7c7b9fc8d9,PennController,83,0,test_val,NULL,PennController,94,_Header_,Start,1736770470377,undefined,528,filth,concrete-negative,negative,positive,B,NULL
1736770795,1ba735c5ab5e4a6bb6cf5d7c7b9fc8d9,PennController,83,0,test_val,NULL,PennController,94,_Header_,End,1736770470636,undefined,528,filth,concrete-negative,negative,positive,B,NULL
1736770795,1ba735c5ab5e4a6bb6cf5d7c7b9fc8d9,PennController,83,0,test_val,NULL,Selector,unnamed-Selector,Selection,negative,1736770471671,undefined,528,filth,concrete-negative,negative,positive,B,negative;positive
1736770795,1ba735c5ab5e4a6bb6cf5d7c7b9fc8d9,PennController,83,0,test_val,NULL,PennController,94,_Trial_,End,1736770471671,undefined,528,filth,concrete-negative,negative,positive,B,NULL
1736770795,1ba735c5ab5e4a6bb6cf5d7c7b9fc8d9,PennController,59,0,test_val,NULL,PennController,70,_Trial_,Start,1736770471672,undefined,691,hug,concrete-positive,negative,positive,B,NULL
1736770795,1ba735c5ab5e4a6bb6cf5d7c7b9fc8d9,PennController,59,0,test_val,NULL,PennController,70,_Header_,Start,1736770471672,undefined,691,hug,concrete-positive,negative,positive,B,NULL
1736770795,1ba735c5ab5e4a6bb6cf5d7c7b9fc8d9,PennController,59,0,test_val,NULL,PennController,70,_Header_,End,1736770471927,undefined,691,hug,concrete-positive,negative,positive,B,NULL
1736770795,1ba735c5ab5e4a6bb6cf5d7c7b9fc8d9,PennController,59,0,test_val,NULL,Selector,unnamed-Selector,Selection,positive,1736770473128,undefined,691,hug,concrete-positive,negative,positive,B,negative;positive
1736770795,1ba735c5ab5e4a6bb6cf5d7c7b9fc8d9,PennController,59,0,test_val,NULL,PennController,70,_Trial_,End,1736770473128,undefined,691,hug,concrete-positive,negative,positive,B,NULL
1736770795,1ba735c5ab5e4a6bb6cf5d7c7b9fc8d9,PennController,72,0,test_val,NULL,PennController,83,_Trial_,Start,1736770473129,undefined,593,gratitude,abstract-positive,negative,positive,B,NULL
1736770795,1ba735c5ab5e4a6bb6cf5d7c7b9fc8d9,PennController,72,0,test_val,NULL,PennController,83,_Header_,Start,1736770473129,undefined,593,gratitude,abstract-positive,negative,positive,B,NULL
1736770795,1ba735c5ab5e4a6bb6cf5d7c7b9fc8d9,PennController,72,0,test_val,NULL,PennController,83,_Header_,End,1736770473392,undefined,593,gratitude,abstract-positive,negative,positive,B,NULL
1736770795,1ba735c5ab5e4a6bb6cf5d7c7b9fc8d9,PennController,72,0,test_val,NULL,Selector,unnamed-Selector,Selection,positive,1736770474495,undefined,593,gratitude,abstract-positive,negative,positive,B,negative;positive
1736770795,1ba735c5ab5e4a6bb6cf5d7c7b9fc8d9,PennController,72,0,test_val,NULL,PennController,83,_Trial_,End,1736770474496,undefined,593,gratitude,abstract-positive,negative,positive,B,NULL
1736770795,1ba735c5ab5e4a6bb6cf5d7c7b9fc8d9,PennController,61,0,test_val,NULL,PennController,72,_Trial_,Start,1736770474496,undefined,1247,rain,concrete-positive,negative,positive,B,NULL
1736770795,1ba735c5ab5e4a6bb6cf5d7c7b9fc8d9,PennController,61,0,test_val,NULL,PennController,72,_Header_,Start,1736770474496,undefined,1247,rain,concrete-positive,negative,positive,B,NULL
1736770795,1ba735c5ab5e4a6bb6cf5d7c7b9fc8d9,PennController,61,0,test_val,NULL,PennController,72,_Header_,End,1736770474760,undefined,1247,rain,concrete-positive,negative,positive,B,NULL
