#
# Results on Mon, 13 Jan 2025 13:14:03 GMT
# USER AGENT: Mozilla/5.0 (Windows NT 10.0; Win64; x64) AppleWebKit/537.36 (KHTML, like Gecko) Chrome/131.0.0.0 Safari/537.36
# Design number was non-random = 0
#
# Columns below this comment are as follows:
# 1. Results reception time.
# 2. MD5 hash of participant's IP address.
# 3. Controller name.
# 4. Order number of item.
# 5. Inner element number.
# 6. Label.
# 7. Latin Square Group.
# 8. PennElementType.
# 9. PennElementName.
# 10. Parameter.
# 11. Value.
# 12. EventTime.
# 13. Comments.
1736774043,431442933d0639ffb119045e7f950706,PennController,1,0,welcome,NULL,PennController,0,_Trial_,Start,1736773478462,NULL
1736774043,431442933d0639ffb119045e7f950706,PennController,1,0,welcome,NULL,PennController,0,_Header_,Start,1736773478462,NULL
1736774043,431442933d0639ffb119045e7f950706,PennController,1,0,welcome,NULL,PennController,0,_Header_,End,1736773478716,NULL
1736774043,431442933d0639ffb119045e7f950706,PennController,1,0,welcome,NULL,PennController,0,_Trial_,End,1736773487387,NULL
# 13. ID.
# 14. Comments.
1736774043,431442933d0639ffb119045e7f950706,PennController,124,0,consent,NULL,PennController,2,_Trial_,Start,1736773487388,6312c4daeb7e0f890b0b6a7f,NULL
1736774043,431442933d0639ffb119045e7f950706,PennController,124,0,consent,NULL,PennController,2,_Header_,Start,1736773487388,6312c4daeb7e0f890b0b6a7f,NULL
1736774043,431442933d0639ffb119045e7f950706,PennController,124,0,consent,NULL,PennController,2,_Header_,End,1736773487641,6312c4daeb7e0f890b0b6a7f,NULL
1736774043,431442933d0639ffb119045e7f950706,PennController,124,0,consent,NULL,TextInput,ID,Final,6312c4daeb7e0f890b0b6a7f,1736773499991,6312c4daeb7e0f890b0b6a7f,NULL
1736774043,431442933d0639ffb119045e7f950706,PennController,124,0,consent,NULL,PennController,2,_Trial_,End,1736773499995,6312c4daeb7e0f890b0b6a7f,NULL
# 13. Comments.
1736774043,431442933d0639ffb119045e7f950706,PennController,126,0,instructions1_conc,NULL,PennController,4,_Trial_,Start,1736773499995,NULL
1736774043,431442933d0639ffb119045e7f950706,PennController,126,0,instructions1_conc,NULL,PennController,4,_Header_,Start,1736773499995,NULL
1736774043,431442933d0639ffb119045e7f950706,PennController,126,0,instructions1_conc,NULL,PennController,4,_Header_,End,1736773500247,NULL
1736774043,431442933d0639ffb119045e7f950706,PennController,126,0,instructions1_conc,NULL,PennController,4,_Trial_,End,1736773518211,NULL
1736774043,431442933d0639ffb119045e7f950706,PennController,127,0,instructions2_conc,NULL,PennController,5,_Trial_,Start,1736773518212,NULL
1736774043,431442933d0639ffb119045e7f950706,PennController,127,0,instructions2_conc,NULL,PennController,5,_Header_,Start,1736773518212,NULL
1736774043,431442933d0639ffb119045e7f950706,PennController,127,0,instructions2_conc,NULL,PennController,5,_Header_,End,1736773518463,NULL
1736774043,431442933d0639ffb119045e7f950706,PennController,127,0,instructions2_conc,NULL,PennController,5,_Trial_,End,1736773520875,NULL
1736774043,431442933d0639ffb119045e7f950706,PennController,134,0,instructions3_hands,NULL,PennController,12,_Trial_,Start,1736773520876,NULL
1736774043,431442933d0639ffb119045e7f950706,PennController,134,0,instructions3_hands,NULL,PennController,12,_Header_,Start,1736773520876,NULL
1736774043,431442933d0639ffb119045e7f950706,PennController,134,0,instructions3_hands,NULL,PennController,12,_Header_,End,1736773521129,NULL
1736774043,431442933d0639ffb119045e7f950706,PennController,134,0,instructions3_hands,NULL,PennController,12,_Trial_,End,1736773526465,NULL
1736774043,431442933d0639ffb119045e7f950706,PennController,129,0,practice_intro_conc,NULL,PennController,7,_Trial_,Start,1736773526466,NULL
1736774043,431442933d0639ffb119045e7f950706,PennController,129,0,practice_intro_conc,NULL,PennController,7,_Header_,Start,1736773526466,NULL
1736774043,431442933d0639ffb119045e7f950706,PennController,129,0,practice_intro_conc,NULL,PennController,7,_Header_,End,1736773526717,NULL
1736774043,431442933d0639ffb119045e7f950706,PennController,129,0,practice_intro_conc,NULL,PennController,7,_Trial_,End,1736773528073,NULL
# 13. ID.
# 14. ReactionTime.
# 15. Word.
# 16. selectedKey.
# 17. selectedValue.
# 18. Key_value_F.
# 19. Key_value_J.
# 20. Group.
# 21. Comments.
1736774043,431442933d0639ffb119045e7f950706,PennController,86,0,calibrator_conc_feedback,NULL,PennController,97,_Trial_,Start,1736773528073,undefined,1976,kick,undefined,concrete,abstract,concrete,A,NULL
1736774043,431442933d0639ffb119045e7f950706,PennController,86,0,calibrator_conc_feedback,NULL,PennController,97,_Header_,Start,1736773528073,undefined,1976,kick,undefined,concrete,abstract,concrete,A,NULL
1736774043,431442933d0639ffb119045e7f950706,PennController,86,0,calibrator_conc_feedback,NULL,PennController,97,_Header_,End,1736773528327,undefined,1976,kick,undefined,concrete,abstract,concrete,A,NULL
1736774043,431442933d0639ffb119045e7f950706,PennController,86,0,calibrator_conc_feedback,NULL,Selector,Selection,Selection,concrete,1736773530802,undefined,1976,kick,undefined,concrete,abstract,concrete,A,abstract;concrete
1736774043,431442933d0639ffb119045e7f950706,PennController,86,0,calibrator_conc_feedback,NULL,PennController,97,_Trial_,End,1736773532807,undefined,1976,kick,undefined,concrete,abstract,concrete,A,NULL
1736774043,431442933d0639ffb119045e7f950706,PennController,85,0,calibrator_conc_feedback,NULL,PennController,96,_Trial_,Start,1736773532807,undefined,929,grasshopper,undefined,concrete,abstract,concrete,A,NULL
1736774043,431442933d0639ffb119045e7f950706,PennController,85,0,calibrator_conc_feedback,NULL,PennController,96,_Header_,Start,1736773532807,undefined,929,grasshopper,undefined,concrete,abstract,concrete,A,NULL
1736774043,431442933d0639ffb119045e7f950706,PennController,85,0,calibrator_conc_feedback,NULL,PennController,96,_Header_,End,1736773533059,undefined,929,grasshopper,undefined,concrete,abstract,concrete,A,NULL
1736774043,431442933d0639ffb119045e7f950706,PennController,85,0,calibrator_conc_feedback,NULL,Selector,Selection,Selection,concrete,1736773534492,undefined,929,grasshopper,undefined,concrete,abstract,concrete,A,abstract;concrete
1736774043,431442933d0639ffb119045e7f950706,PennController,85,0,calibrator_conc_feedback,NULL,PennController,96,_Trial_,End,1736773536494,undefined,929,grasshopper,undefined,concrete,abstract,concrete,A,NULL
1736774043,431442933d0639ffb119045e7f950706,PennController,91,0,calibrator_conc_feedback,NULL,PennController,102,_Trial_,Start,1736773536495,undefined,736,theory,undefined,concrete,abstract,concrete,A,NULL
1736774043,431442933d0639ffb119045e7f950706,PennController,91,0,calibrator_conc_feedback,NULL,PennController,102,_Header_,Start,1736773536495,undefined,736,theory,undefined,concrete,abstract,concrete,A,NULL
1736774043,431442933d0639ffb119045e7f950706,PennController,91,0,calibrator_conc_feedback,NULL,PennController,102,_Header_,End,1736773536747,undefined,736,theory,undefined,concrete,abstract,concrete,A,NULL
1736774043,431442933d0639ffb119045e7f950706,PennController,91,0,calibrator_conc_feedback,NULL,Selector,Selection,Selection,abstract,1736773537984,undefined,736,theory,undefined,concrete,abstract,concrete,A,abstract;concrete
1736774043,431442933d0639ffb119045e7f950706,PennController,91,0,calibrator_conc_feedback,NULL,PennController,102,_Trial_,End,1736773539986,undefined,736,theory,undefined,concrete,abstract,concrete,A,NULL
1736774043,431442933d0639ffb119045e7f950706,PennController,90,0,calibrator_conc_feedback,NULL,PennController,101,_Trial_,Start,1736773539986,undefined,767,sugar,undefined,concrete,abstract,concrete,A,NULL
1736774043,431442933d0639ffb119045e7f950706,PennController,90,0,calibrator_conc_feedback,NULL,PennController,101,_Header_,Start,1736773539986,undefined,767,sugar,undefined,concrete,abstract,concrete,A,NULL
1736774043,431442933d0639ffb119045e7f950706,PennController,90,0,calibrator_conc_feedback,NULL,PennController,101,_Header_,End,1736773540237,undefined,767,sugar,undefined,concrete,abstract,concrete,A,NULL
1736774043,431442933d0639ffb119045e7f950706,PennController,90,0,calibrator_conc_feedback,NULL,Selector,Selection,Selection,concrete,1736773541507,undefined,767,sugar,undefined,concrete,abstract,concrete,A,abstract;concrete
1736774043,431442933d0639ffb119045e7f950706,PennController,90,0,calibrator_conc_feedback,NULL,PennController,101,_Trial_,End,1736773543510,undefined,767,sugar,undefined,concrete,abstract,concrete,A,NULL
1736774043,431442933d0639ffb119045e7f950706,PennController,84,0,calibrator_conc_feedback,NULL,PennController,95,_Trial_,Start,1736773543510,undefined,1107,gas,undefined,concrete,abstract,concrete,A,NULL
1736774043,431442933d0639ffb119045e7f950706,PennController,84,0,calibrator_conc_feedback,NULL,PennController,95,_Header_,Start,1736773543510,undefined,1107,gas,undefined,concrete,abstract,concrete,A,NULL
1736774043,431442933d0639ffb119045e7f950706,PennController,84,0,calibrator_conc_feedback,NULL,PennController,95,_Header_,End,1736773543760,undefined,1107,gas,undefined,concrete,abstract,concrete,A,NULL
1736774043,431442933d0639ffb119045e7f950706,PennController,84,0,calibrator_conc_feedback,NULL,Selector,Selection,Selection,concrete,1736773545370,undefined,1107,gas,undefined,concrete,abstract,concrete,A,abstract;concrete
1736774043,431442933d0639ffb119045e7f950706,PennController,84,0,calibrator_conc_feedback,NULL,PennController,95,_Trial_,End,1736773547373,undefined,1107,gas,undefined,concrete,abstract,concrete,A,NULL
1736774043,431442933d0639ffb119045e7f950706,PennController,89,0,calibrator_conc_feedback,NULL,PennController,100,_Trial_,Start,1736773547373,undefined,1346,shirt,undefined,concrete,abstract,concrete,A,NULL
1736774043,431442933d0639ffb119045e7f950706,PennController,89,0,calibrator_conc_feedback,NULL,PennController,100,_Header_,Start,1736773547373,undefined,1346,shirt,undefined,concrete,abstract,concrete,A,NULL
1736774043,431442933d0639ffb119045e7f950706,PennController,89,0,calibrator_conc_feedback,NULL,PennController,100,_Header_,End,1736773547623,undefined,1346,shirt,undefined,concrete,abstract,concrete,A,NULL
1736774043,431442933d0639ffb119045e7f950706,PennController,89,0,calibrator_conc_feedback,NULL,Selector,Selection,Selection,concrete,1736773549468,undefined,1346,shirt,undefined,concrete,abstract,concrete,A,abstract;concrete
1736774043,431442933d0639ffb119045e7f950706,PennController,89,0,calibrator_conc_feedback,NULL,PennController,100,_Trial_,End,1736773551471,undefined,1346,shirt,undefined,concrete,abstract,concrete,A,NULL
1736774043,431442933d0639ffb119045e7f950706,PennController,87,0,calibrator_conc_feedback,NULL,PennController,98,_Trial_,Start,1736773551472,undefined,862,marriage,undefined,concrete,abstract,concrete,A,NULL
1736774043,431442933d0639ffb119045e7f950706,PennController,87,0,calibrator_conc_feedback,NULL,PennController,98,_Header_,Start,1736773551472,undefined,862,marriage,undefined,concrete,abstract,concrete,A,NULL
1736774043,431442933d0639ffb119045e7f950706,PennController,87,0,calibrator_conc_feedback,NULL,PennController,98,_Header_,End,1736773551726,undefined,862,marriage,undefined,concrete,abstract,concrete,A,NULL
1736774043,431442933d0639ffb119045e7f950706,PennController,87,0,calibrator_conc_feedback,NULL,Selector,Selection,Selection,concrete,1736773554780,undefined,862,marriage,undefined,concrete,abstract,concrete,A,abstract;concrete
1736774043,431442933d0639ffb119045e7f950706,PennController,87,0,calibrator_conc_feedback,NULL,PennController,98,_Trial_,End,1736773555091,undefined,862,marriage,undefined,concrete,abstract,concrete,A,NULL
1736774043,431442933d0639ffb119045e7f950706,PennController,88,0,calibrator_conc_feedback,NULL,PennController,99,_Trial_,Start,1736773555091,undefined,999,polite,undefined,concrete,abstract,concrete,A,NULL
1736774043,431442933d0639ffb119045e7f950706,PennController,88,0,calibrator_conc_feedback,NULL,PennController,99,_Header_,Start,1736773555091,undefined,999,polite,undefined,concrete,abstract,concrete,A,NULL
1736774043,431442933d0639ffb119045e7f950706,PennController,88,0,calibrator_conc_feedback,NULL,PennController,99,_Header_,End,1736773555343,undefined,999,polite,undefined,concrete,abstract,concrete,A,NULL
1736774043,431442933d0639ffb119045e7f950706,PennController,88,0,calibrator_conc_feedback,NULL,Selector,Selection,Selection,abstract,1736773556842,undefined,999,polite,undefined,concrete,abstract,concrete,A,abstract;concrete
1736774043,431442933d0639ffb119045e7f950706,PennController,88,0,calibrator_conc_feedback,NULL,PennController,99,_Trial_,End,1736773558844,undefined,999,polite,undefined,concrete,abstract,concrete,A,NULL
1736774043,431442933d0639ffb119045e7f950706,PennController,92,0,calibrator_conc_feedback,NULL,PennController,103,_Trial_,Start,1736773558844,undefined,1087,whistle,undefined,concrete,abstract,concrete,A,NULL
1736774043,431442933d0639ffb119045e7f950706,PennController,92,0,calibrator_conc_feedback,NULL,PennController,103,_Header_,Start,1736773558844,undefined,1087,whistle,undefined,concrete,abstract,concrete,A,NULL
1736774043,431442933d0639ffb119045e7f950706,PennController,92,0,calibrator_conc_feedback,NULL,PennController,103,_Header_,End,1736773559097,undefined,1087,whistle,undefined,concrete,abstract,concrete,A,NULL
1736774043,431442933d0639ffb119045e7f950706,PennController,92,0,calibrator_conc_feedback,NULL,Selector,Selection,Selection,concrete,1736773560687,undefined,1087,whistle,undefined,concrete,abstract,concrete,A,abstract;concrete
1736774043,431442933d0639ffb119045e7f950706,PennController,92,0,calibrator_conc_feedback,NULL,PennController,103,_Trial_,End,1736773562689,undefined,1087,whistle,undefined,concrete,abstract,concrete,A,NULL
1736774043,431442933d0639ffb119045e7f950706,PennController,93,0,calibrator_conc_feedback,NULL,PennController,104,_Trial_,Start,1736773562690,undefined,521,insecure,undefined,concrete,abstract,concrete,A,NULL
1736774043,431442933d0639ffb119045e7f950706,PennController,93,0,calibrator_conc_feedback,NULL,PennController,104,_Header_,Start,1736773562690,undefined,521,insecure,undefined,concrete,abstract,concrete,A,NULL
1736774043,431442933d0639ffb119045e7f950706,PennController,93,0,calibrator_conc_feedback,NULL,PennController,104,_Header_,End,1736773562942,undefined,521,insecure,undefined,concrete,abstract,concrete,A,NULL
1736774043,431442933d0639ffb119045e7f950706,PennController,93,0,calibrator_conc_feedback,NULL,Selector,Selection,Selection,abstract,1736773563964,undefined,521,insecure,undefined,concrete,abstract,concrete,A,abstract;concrete
1736774043,431442933d0639ffb119045e7f950706,PennController,93,0,calibrator_conc_feedback,NULL,PennController,104,_Trial_,End,1736773565967,undefined,521,insecure,undefined,concrete,abstract,concrete,A,NULL
# 16. Key_value_F.
# 17. Key_value_J.
# 18. Group.
# 19. Comments.
1736774043,431442933d0639ffb119045e7f950706,PennController,103,0,calibrator_conc_no_feedback,NULL,PennController,114,_Trial_,Start,1736773565967,undefined,690,insecure,abstract,concrete,A,NULL
1736774043,431442933d0639ffb119045e7f950706,PennController,103,0,calibrator_conc_no_feedback,NULL,PennController,114,_Header_,Start,1736773565967,undefined,690,insecure,abstract,concrete,A,NULL
1736774043,431442933d0639ffb119045e7f950706,PennController,103,0,calibrator_conc_no_feedback,NULL,PennController,114,_Header_,End,1736773566221,undefined,690,insecure,abstract,concrete,A,NULL
1736774043,431442933d0639ffb119045e7f950706,PennController,103,0,calibrator_conc_no_feedback,NULL,Selector,unnamed-Selector,Selection,abstract,1736773567413,undefined,690,insecure,abstract,concrete,A,abstract;concrete
1736774043,431442933d0639ffb119045e7f950706,PennController,103,0,calibrator_conc_no_feedback,NULL,PennController,114,_Trial_,End,1736773567414,undefined,690,insecure,abstract,concrete,A,NULL
1736774043,431442933d0639ffb119045e7f950706,PennController,97,0,calibrator_conc_no_feedback,NULL,PennController,108,_Trial_,Start,1736773567414,undefined,947,marriage,abstract,concrete,A,NULL
1736774043,431442933d0639ffb119045e7f950706,PennController,97,0,calibrator_conc_no_feedback,NULL,PennController,108,_Header_,Start,1736773567414,undefined,947,marriage,abstract,concrete,A,NULL
1736774043,431442933d0639ffb119045e7f950706,PennController,97,0,calibrator_conc_no_feedback,NULL,PennController,108,_Header_,End,1736773567665,undefined,947,marriage,abstract,concrete,A,NULL
1736774043,431442933d0639ffb119045e7f950706,PennController,97,0,calibrator_conc_no_feedback,NULL,Selector,unnamed-Selector,Selection,abstract,1736773569115,undefined,947,marriage,abstract,concrete,A,abstract;concrete
1736774043,431442933d0639ffb119045e7f950706,PennController,97,0,calibrator_conc_no_feedback,NULL,PennController,108,_Trial_,End,1736773569116,undefined,947,marriage,abstract,concrete,A,NULL
1736774043,431442933d0639ffb119045e7f950706,PennController,99,0,calibrator_conc_no_feedback,NULL,PennController,110,_Trial_,Start,1736773569116,undefined,806,shirt,abstract,concrete,A,NULL
1736774043,431442933d0639ffb119045e7f950706,PennController,99,0,calibrator_conc_no_feedback,NULL,PennController,110,_Header_,Start,1736773569116,undefined,806,shirt,abstract,concrete,A,NULL
1736774043,431442933d0639ffb119045e7f950706,PennController,99,0,calibrator_conc_no_feedback,NULL,PennController,110,_Header_,End,1736773569367,undefined,806,shirt,abstract,concrete,A,NULL
1736774043,431442933d0639ffb119045e7f950706,PennController,99,0,calibrator_conc_no_feedback,NULL,Selector,unnamed-Selector,Selection,concrete,1736773570673,undefined,806,shirt,abstract,concrete,A,abstract;concrete
1736774043,431442933d0639ffb119045e7f950706,PennController,99,0,calibrator_conc_no_feedback,NULL,PennController,110,_Trial_,End,1736773570674,undefined,806,shirt,abstract,concrete,A,NULL
1736774043,431442933d0639ffb119045e7f950706,PennController,98,0,calibrator_conc_no_feedback,NULL,PennController,109,_Trial_,Start,1736773570674,undefined,1106,polite,abstract,concrete,A,NULL
1736774043,431442933d0639ffb119045e7f950706,PennController,98,0,calibrator_conc_no_feedback,NULL,PennController,109,_Header_,Start,1736773570674,undefined,1106,polite,abstract,concrete,A,NULL
1736774043,431442933d0639ffb119045e7f950706,PennController,98,0,calibrator_conc_no_feedback,NULL,PennController,109,_Header_,End,1736773570925,undefined,1106,polite,abstract,concrete,A,NULL
1736774043,431442933d0639ffb119045e7f950706,PennController,98,0,calibrator_conc_no_feedback,NULL,Selector,unnamed-Selector,Selection,abstract,1736773572533,undefined,1106,polite,abstract,concrete,A,abstract;concrete
1736774043,431442933d0639ffb119045e7f950706,PennController,98,0,calibrator_conc_no_feedback,NULL,PennController,109,_Trial_,End,1736773572534,undefined,1106,polite,abstract,concrete,A,NULL
1736774043,431442933d0639ffb119045e7f950706,PennController,96,0,calibrator_conc_no_feedback,NULL,PennController,107,_Trial_,Start,1736773572534,undefined,752,kick,abstract,concrete,A,NULL
1736774043,431442933d0639ffb119045e7f950706,PennController,96,0,calibrator_conc_no_feedback,NULL,PennController,107,_Header_,Start,1736773572534,undefined,752,kick,abstract,concrete,A,NULL
1736774043,431442933d0639ffb119045e7f950706,PennController,96,0,calibrator_conc_no_feedback,NULL,PennController,107,_Header_,End,1736773572788,undefined,752,kick,abstract,concrete,A,NULL
1736774043,431442933d0639ffb119045e7f950706,PennController,96,0,calibrator_conc_no_feedback,NULL,Selector,unnamed-Selector,Selection,concrete,1736773574040,undefined,752,kick,abstract,concrete,A,abstract;concrete
1736774043,431442933d0639ffb119045e7f950706,PennController,96,0,calibrator_conc_no_feedback,NULL,PennController,107,_Trial_,End,1736773574041,undefined,752,kick,abstract,concrete,A,NULL
1736774043,431442933d0639ffb119045e7f950706,PennController,102,0,calibrator_conc_no_feedback,NULL,PennController,113,_Trial_,Start,1736773574041,undefined,774,whistle,abstract,concrete,A,NULL
1736774043,431442933d0639ffb119045e7f950706,PennController,102,0,calibrator_conc_no_feedback,NULL,PennController,113,_Header_,Start,1736773574041,undefined,774,whistle,abstract,concrete,A,NULL
1736774043,431442933d0639ffb119045e7f950706,PennController,102,0,calibrator_conc_no_feedback,NULL,PennController,113,_Header_,End,1736773574294,undefined,774,whistle,abstract,concrete,A,NULL
1736774043,431442933d0639ffb119045e7f950706,PennController,102,0,calibrator_conc_no_feedback,NULL,Selector,unnamed-Selector,Selection,abstract,1736773575569,undefined,774,whistle,abstract,concrete,A,abstract;concrete
1736774043,431442933d0639ffb119045e7f950706,PennController,102,0,calibrator_conc_no_feedback,NULL,PennController,113,_Trial_,End,1736773575569,undefined,774,whistle,abstract,concrete,A,NULL
1736774043,431442933d0639ffb119045e7f950706,PennController,100,0,calibrator_conc_no_feedback,NULL,PennController,111,_Trial_,Start,1736773575570,undefined,969,sugar,abstract,concrete,A,NULL
1736774043,431442933d0639ffb119045e7f950706,PennController,100,0,calibrator_conc_no_feedback,NULL,PennController,111,_Header_,Start,1736773575570,undefined,969,sugar,abstract,concrete,A,NULL
1736774043,431442933d0639ffb119045e7f950706,PennController,100,0,calibrator_conc_no_feedback,NULL,PennController,111,_Header_,End,1736773575822,undefined,969,sugar,abstract,concrete,A,NULL
1736774043,431442933d0639ffb119045e7f950706,PennController,100,0,calibrator_conc_no_feedback,NULL,Selector,unnamed-Selector,Selection,concrete,1736773577296,undefined,969,sugar,abstract,concrete,A,abstract;concrete
1736774043,431442933d0639ffb119045e7f950706,PennController,100,0,calibrator_conc_no_feedback,NULL,PennController,111,_Trial_,End,1736773577296,undefined,969,sugar,abstract,concrete,A,NULL
1736774043,431442933d0639ffb119045e7f950706,PennController,95,0,calibrator_conc_no_feedback,NULL,PennController,106,_Trial_,Start,1736773577297,undefined,687,grasshopper,abstract,concrete,A,NULL
1736774043,431442933d0639ffb119045e7f950706,PennController,95,0,calibrator_conc_no_feedback,NULL,PennController,106,_Header_,Start,1736773577297,undefined,687,grasshopper,abstract,concrete,A,NULL
1736774043,431442933d0639ffb119045e7f950706,PennController,95,0,calibrator_conc_no_feedback,NULL,PennController,106,_Header_,End,1736773577547,undefined,687,grasshopper,abstract,concrete,A,NULL
1736774043,431442933d0639ffb119045e7f950706,PennController,95,0,calibrator_conc_no_feedback,NULL,Selector,unnamed-Selector,Selection,concrete,1736773578737,undefined,687,grasshopper,abstract,concrete,A,abstract;concrete
1736774043,431442933d0639ffb119045e7f950706,PennController,95,0,calibrator_conc_no_feedback,NULL,PennController,106,_Trial_,End,1736773578738,undefined,687,grasshopper,abstract,concrete,A,NULL
1736774043,431442933d0639ffb119045e7f950706,PennController,101,0,calibrator_conc_no_feedback,NULL,PennController,112,_Trial_,Start,1736773578738,undefined,596,theory,abstract,concrete,A,NULL
1736774043,431442933d0639ffb119045e7f950706,PennController,101,0,calibrator_conc_no_feedback,NULL,PennController,112,_Header_,Start,1736773578738,undefined,596,theory,abstract,concrete,A,NULL
1736774043,431442933d0639ffb119045e7f950706,PennController,101,0,calibrator_conc_no_feedback,NULL,PennController,112,_Header_,End,1736773578992,undefined,596,theory,abstract,concrete,A,NULL
1736774043,431442933d0639ffb119045e7f950706,PennController,101,0,calibrator_conc_no_feedback,NULL,Selector,unnamed-Selector,Selection,abstract,1736773580088,undefined,596,theory,abstract,concrete,A,abstract;concrete
1736774043,431442933d0639ffb119045e7f950706,PennController,101,0,calibrator_conc_no_feedback,NULL,PennController,112,_Trial_,End,1736773580089,undefined,596,theory,abstract,concrete,A,NULL
1736774043,431442933d0639ffb119045e7f950706,PennController,94,0,calibrator_conc_no_feedback,NULL,PennController,105,_Trial_,Start,1736773580089,undefined,547,gas,abstract,concrete,A,NULL
1736774043,431442933d0639ffb119045e7f950706,PennController,94,0,calibrator_conc_no_feedback,NULL,PennController,105,_Header_,Start,1736773580089,undefined,547,gas,abstract,concrete,A,NULL
1736774043,431442933d0639ffb119045e7f950706,PennController,94,0,calibrator_conc_no_feedback,NULL,PennController,105,_Header_,End,1736773580343,undefined,547,gas,abstract,concrete,A,NULL
1736774043,431442933d0639ffb119045e7f950706,PennController,94,0,calibrator_conc_no_feedback,NULL,Selector,unnamed-Selector,Selection,concrete,1736773581391,undefined,547,gas,abstract,concrete,A,abstract;concrete
1736774043,431442933d0639ffb119045e7f950706,PennController,94,0,calibrator_conc_no_feedback,NULL,PennController,105,_Trial_,End,1736773581392,undefined,547,gas,abstract,concrete,A,NULL
# 13. Comments.
1736774043,431442933d0639ffb119045e7f950706,PennController,130,0,endinstructions_conc,NULL,PennController,8,_Trial_,Start,1736773581392,NULL
1736774043,431442933d0639ffb119045e7f950706,PennController,130,0,endinstructions_conc,NULL,PennController,8,_Header_,Start,1736773581392,NULL
1736774043,431442933d0639ffb119045e7f950706,PennController,130,0,endinstructions_conc,NULL,PennController,8,_Header_,End,1736773581642,NULL
1736774043,431442933d0639ffb119045e7f950706,PennController,130,0,endinstructions_conc,NULL,PennController,8,_Trial_,End,1736773586076,NULL
# 13. ID.
# 14. ReactionTime.
# 15. Word.
# 16. ConcValCombo.
# 17. Key_value_F.
# 18. Key_value_J.
# 19. Group.
# 20. Comments.
1736774043,431442933d0639ffb119045e7f950706,PennController,25,0,test_conc,NULL,PennController,36,_Trial_,Start,1736773586076,undefined,1206,hope,abstract-positive,negative,positive,B,NULL
1736774043,431442933d0639ffb119045e7f950706,PennController,25,0,test_conc,NULL,PennController,36,_Header_,Start,1736773586076,undefined,1206,hope,abstract-positive,negative,positive,B,NULL
1736774043,431442933d0639ffb119045e7f950706,PennController,25,0,test_conc,NULL,PennController,36,_Header_,End,1736773586329,undefined,1206,hope,abstract-positive,negative,positive,B,NULL
1736774043,431442933d0639ffb119045e7f950706,PennController,25,0,test_conc,NULL,Selector,unnamed-Selector,Selection,negative,1736773588037,undefined,1206,hope,abstract-positive,negative,positive,B,negative;positive
1736774043,431442933d0639ffb119045e7f950706,PennController,25,0,test_conc,NULL,PennController,36,_Trial_,End,1736773588037,undefined,1206,hope,abstract-positive,negative,positive,B,NULL
1736774043,431442933d0639ffb119045e7f950706,PennController,15,0,test_conc,NULL,PennController,26,_Trial_,Start,1736773588037,undefined,1734,laughter,concrete-positive,negative,positive,B,NULL
1736774043,431442933d0639ffb119045e7f950706,PennController,15,0,test_conc,NULL,PennController,26,_Header_,Start,1736773588037,undefined,1734,laughter,concrete-positive,negative,positive,B,NULL
1736774043,431442933d0639ffb119045e7f950706,PennController,15,0,test_conc,NULL,PennController,26,_Header_,End,1736773588291,undefined,1734,laughter,concrete-positive,negative,positive,B,NULL
1736774043,431442933d0639ffb119045e7f950706,PennController,15,0,test_conc,NULL,Selector,unnamed-Selector,Selection,positive,1736773590528,undefined,1734,laughter,concrete-positive,negative,positive,B,negative;positive
1736774043,431442933d0639ffb119045e7f950706,PennController,15,0,test_conc,NULL,PennController,26,_Trial_,End,1736773590529,undefined,1734,laughter,concrete-positive,negative,positive,B,NULL
1736774043,431442933d0639ffb119045e7f950706,PennController,36,0,test_conc,NULL,PennController,47,_Trial_,Start,1736773590530,undefined,1180,mud,concrete-negative,negative,positive,B,NULL
1736774043,431442933d0639ffb119045e7f950706,PennController,36,0,test_conc,NULL,PennController,47,_Header_,Start,1736773590530,undefined,1180,mud,concrete-negative,negative,positive,B,NULL
1736774043,431442933d0639ffb119045e7f950706,PennController,36,0,test_conc,NULL,PennController,47,_Header_,End,1736773590784,undefined,1180,mud,concrete-negative,negative,positive,B,NULL
1736774043,431442933d0639ffb119045e7f950706,PennController,36,0,test_conc,NULL,Selector,unnamed-Selector,Selection,negative,1736773592466,undefined,1180,mud,concrete-negative,negative,positive,B,negative;positive
1736774043,431442933d0639ffb119045e7f950706,PennController,36,0,test_conc,NULL,PennController,47,_Trial_,End,1736773592467,undefined,1180,mud,concrete-negative,negative,positive,B,NULL
1736774043,431442933d0639ffb119045e7f950706,PennController,19,0,test_conc,NULL,PennController,30,_Trial_,Start,1736773592467,undefined,689,hug,concrete-positive,negative,positive,B,NULL
1736774043,431442933d0639ffb119045e7f950706,PennController,19,0,test_conc,NULL,PennController,30,_Header_,Start,1736773592467,undefined,689,hug,concrete-positive,negative,positive,B,NULL
1736774043,431442933d0639ffb119045e7f950706,PennController,19,0,test_conc,NULL,PennController,30,_Header_,End,1736773592717,undefined,689,hug,concrete-positive,negative,positive,B,NULL
1736774043,431442933d0639ffb119045e7f950706,PennController,19,0,test_conc,NULL,Selector,unnamed-Selector,Selection,positive,1736773593907,undefined,689,hug,concrete-positive,negative,positive,B,negative;positive
1736774043,431442933d0639ffb119045e7f950706,PennController,19,0,test_conc,NULL,PennController,30,_Trial_,End,1736773593908,undefined,689,hug,concrete-positive,negative,positive,B,NULL
1736774043,431442933d0639ffb119045e7f950706,PennController,43,0,test_conc,NULL,PennController,54,_Trial_,Start,1736773593908,undefined,697,filth,concrete-negative,negative,positive,B,NULL
1736774043,431442933d0639ffb119045e7f950706,PennController,43,0,test_conc,NULL,PennController,54,_Header_,Start,1736773593908,undefined,697,filth,concrete-negative,negative,positive,B,NULL
1736774043,431442933d0639ffb119045e7f950706,PennController,43,0,test_conc,NULL,PennController,54,_Header_,End,1736773594159,undefined,697,filth,concrete-negative,negative,positive,B,NULL
1736774043,431442933d0639ffb119045e7f950706,PennController,43,0,test_conc,NULL,Selector,unnamed-Selector,Selection,negative,1736773595358,undefined,697,filth,concrete-negative,negative,positive,B,negative;positive
1736774043,431442933d0639ffb119045e7f950706,PennController,43,0,test_conc,NULL,PennController,54,_Trial_,End,1736773595359,undefined,697,filth,concrete-negative,negative,positive,B,NULL
1736774043,431442933d0639ffb119045e7f950706,PennController,31,0,test_conc,NULL,PennController,42,_Trial_,Start,1736773595359,undefined,644,compassion,abstract-positive,negative,positive,B,NULL
1736774043,431442933d0639ffb119045e7f950706,PennController,31,0,test_conc,NULL,PennController,42,_Header_,Start,1736773595359,undefined,644,compassion,abstract-positive,negative,positive,B,NULL
1736774043,431442933d0639ffb119045e7f950706,PennController,31,0,test_conc,NULL,PennController,42,_Header_,End,1736773595609,undefined,644,compassion,abstract-positive,negative,positive,B,NULL
1736774043,431442933d0639ffb119045e7f950706,PennController,31,0,test_conc,NULL,Selector,unnamed-Selector,Selection,positive,1736773596754,undefined,644,compassion,abstract-positive,negative,positive,B,negative;positive
1736774043,431442933d0639ffb119045e7f950706,PennController,31,0,test_conc,NULL,PennController,42,_Trial_,End,1736773596754,undefined,644,compassion,abstract-positive,negative,positive,B,NULL
1736774043,431442933d0639ffb119045e7f950706,PennController,26,0,test_conc,NULL,PennController,37,_Trial_,Start,1736773596754,undefined,515,joy,abstract-positive,negative,positive,B,NULL
1736774043,431442933d0639ffb119045e7f950706,PennController,26,0,test_conc,NULL,PennController,37,_Header_,Start,1736773596754,undefined,515,joy,abstract-positive,negative,positive,B,NULL
1736774043,431442933d0639ffb119045e7f950706,PennController,26,0,test_conc,NULL,PennController,37,_Header_,End,1736773597007,undefined,515,joy,abstract-positive,negative,positive,B,NULL
1736774043,431442933d0639ffb119045e7f950706,PennController,26,0,test_conc,NULL,Selector,unnamed-Selector,Selection,positive,1736773598026,undefined,515,joy,abstract-positive,negative,positive,B,negative;positive
1736774043,431442933d0639ffb119045e7f950706,PennController,26,0,test_conc,NULL,PennController,37,_Trial_,End,1736773598026,undefined,515,joy,abstract-positive,negative,positive,B,NULL
1736774043,431442933d0639ffb119045e7f950706,PennController,22,0,test_conc,NULL,PennController,33,_Trial_,Start,1736773598027,undefined,809,chocolate,concrete-positive,negative,positive,B,NULL
1736774043,431442933d0639ffb119045e7f950706,PennController,22,0,test_conc,NULL,PennController,33,_Header_,Start,1736773598027,undefined,809,chocolate,concrete-positive,negative,positive,B,NULL
1736774043,431442933d0639ffb119045e7f950706,PennController,22,0,test_conc,NULL,PennController,33,_Header_,End,1736773598277,undefined,809,chocolate,concrete-positive,negative,positive,B,NULL
1736774043,431442933d0639ffb119045e7f950706,PennController,22,0,test_conc,NULL,Selector,unnamed-Selector,Selection,positive,1736773599590,undefined,809,chocolate,concrete-positive,negative,positive,B,negative;positive
1736774043,431442933d0639ffb119045e7f950706,PennController,22,0,test_conc,NULL,PennController,33,_Trial_,End,1736773599591,undefined,809,chocolate,concrete-positive,negative,positive,B,NULL
1736774043,431442933d0639ffb119045e7f950706,PennController,27,0,test_conc,NULL,PennController,38,_Trial_,Start,1736773599591,undefined,544,peace,abstract-positive,negative,positive,B,NULL
1736774043,431442933d0639ffb119045e7f950706,PennController,27,0,test_conc,NULL,PennController,38,_Header_,Start,1736773599591,undefined,544,peace,abstract-positive,negative,positive,B,NULL
1736774043,431442933d0639ffb119045e7f950706,PennController,27,0,test_conc,NULL,PennController,38,_Header_,End,1736773599841,undefined,544,peace,abstract-positive,negative,positive,B,NULL
1736774043,431442933d0639ffb119045e7f950706,PennController,27,0,test_conc,NULL,Selector,unnamed-Selector,Selection,positive,1736773600887,undefined,544,peace,abstract-positive,negative,positive,B,negative;positive
1736774043,431442933d0639ffb119045e7f950706,PennController,27,0,test_conc,NULL,PennController,38,_Trial_,End,1736773600887,undefined,544,peace,abstract-positive,negative,positive,B,NULL
1736774043,431442933d0639ffb119045e7f950706,PennController,17,0,test_conc,NULL,PennController,28,_Trial_,Start,1736773600888,undefined,627,music,concrete-positive,negative,positive,B,NULL
1736774043,431442933d0639ffb119045e7f950706,PennController,17,0,test_conc,NULL,PennController,28,_Header_,Start,1736773600888,undefined,627,music,concrete-positive,negative,positive,B,NULL
1736774043,431442933d0639ffb119045e7f950706,PennController,17,0,test_conc,NULL,PennController,28,_Header_,End,1736773601142,undefined,627,music,concrete-positive,negative,positive,B,NULL
1736774043,431442933d0639ffb119045e7f950706,PennController,17,0,test_conc,NULL,Selector,unnamed-Selector,Selection,positive,1736773602274,undefined,627,music,concrete-positive,negative,positive,B,negative;positive
1736774043,431442933d0639ffb119045e7f950706,PennController,17,0,test_conc,NULL,PennController,28,_Trial_,End,1736773602274,undefined,627,music,concrete-positive,negative,positive,B,NULL
1736774043,431442933d0639ffb119045e7f950706,PennController,34,0,test_conc,NULL,PennController,45,_Trial_,Start,1736773602274,undefined,689,smoke,concrete-negative,negative,positive,B,NULL
1736774043,431442933d0639ffb119045e7f950706,PennController,34,0,test_conc,NULL,PennController,45,_Header_,Start,1736773602274,undefined,689,smoke,concrete-negative,negative,positive,B,NULL
1736774043,431442933d0639ffb119045e7f950706,PennController,34,0,test_conc,NULL,PennController,45,_Header_,End,1736773602526,undefined,689,smoke,concrete-negative,negative,positive,B,NULL
1736774043,431442933d0639ffb119045e7f950706,PennController,34,0,test_conc,NULL,Selector,unnamed-Selector,Selection,negative,1736773603718,undefined,689,smoke,concrete-negative,negative,positive,B,negative;positive
1736774043,431442933d0639ffb119045e7f950706,PennController,34,0,test_conc,NULL,PennController,45,_Trial_,End,1736773603718,undefined,689,smoke,concrete-negative,negative,positive,B,NULL
1736774043,431442933d0639ffb119045e7f950706,PennController,41,0,test_conc,NULL,PennController,52,_Trial_,Start,1736773603718,undefined,541,injury,concrete-negative,negative,positive,B,NULL
1736774043,431442933d0639ffb119045e7f950706,PennController,41,0,test_conc,NULL,PennController,52,_Header_,Start,1736773603718,undefined,541,injury,concrete-negative,negative,positive,B,NULL
1736774043,431442933d0639ffb119045e7f950706,PennController,41,0,test_conc,NULL,PennController,52,_Header_,End,1736773603971,undefined,541,injury,concrete-negative,negative,positive,B,NULL
1736774043,431442933d0639ffb119045e7f950706,PennController,41,0,test_conc,NULL,Selector,unnamed-Selector,Selection,negative,1736773605013,undefined,541,injury,concrete-negative,negative,positive,B,negative;positive
1736774043,431442933d0639ffb119045e7f950706,PennController,41,0,test_conc,NULL,PennController,52,_Trial_,End,1736773605013,undefined,541,injury,concrete-negative,negative,positive,B,NULL
1736774043,431442933d0639ffb119045e7f950706,PennController,30,0,test_conc,NULL,PennController,41,_Trial_,Start,1736773605013,undefined,455,happiness,abstract-positive,negative,positive,B,NULL
1736774043,431442933d0639ffb119045e7f950706,PennController,30,0,test_conc,NULL,PennController,41,_Header_,Start,1736773605013,undefined,455,happiness,abstract-positive,negative,positive,B,NULL
1736774043,431442933d0639ffb119045e7f950706,PennController,30,0,test_conc,NULL,PennController,41,_Header_,End,1736773605265,undefined,455,happiness,abstract-positive,negative,positive,B,NULL
1736774043,431442933d0639ffb119045e7f950706,PennController,30,0,test_conc,NULL,Selector,unnamed-Selector,Selection,positive,1736773606225,undefined,455,happiness,abstract-positive,negative,positive,B,negative;positive
1736774043,431442933d0639ffb119045e7f950706,PennController,30,0,test_conc,NULL,PennController,41,_Trial_,End,1736773606226,undefined,455,happiness,abstract-positive,negative,positive,B,NULL
1736774043,431442933d0639ffb119045e7f950706,PennController,13,0,test_conc,NULL,PennController,24,_Trial_,Start,1736773606226,undefined,602,envy,abstract-negative,negative,positive,B,NULL
1736774043,431442933d0639ffb119045e7f950706,PennController,13,0,test_conc,NULL,PennController,24,_Header_,Start,1736773606226,undefined,602,envy,abstract-negative,negative,positive,B,NULL
1736774043,431442933d0639ffb119045e7f950706,PennController,13,0,test_conc,NULL,PennController,24,_Header_,End,1736773606478,undefined,602,envy,abstract-negative,negative,positive,B,NULL
1736774043,431442933d0639ffb119045e7f950706,PennController,13,0,test_conc,NULL,Selector,unnamed-Selector,Selection,positive,1736773607583,undefined,602,envy,abstract-negative,negative,positive,B,negative;positive
1736774043,431442933d0639ffb119045e7f950706,PennController,13,0,test_conc,NULL,PennController,24,_Trial_,End,1736773607583,undefined,602,envy,abstract-negative,negative,positive,B,NULL
1736774043,431442933d0639ffb119045e7f950706,PennController,18,0,test_conc,NULL,PennController,29,_Trial_,Start,1736773607583,undefined,616,beach,concrete-positive,negative,positive,B,NULL
1736774043,431442933d0639ffb119045e7f950706,PennController,18,0,test_conc,NULL,PennController,29,_Header_,Start,1736773607583,undefined,616,beach,concrete-positive,negative,positive,B,NULL
1736774043,431442933d0639ffb119045e7f950706,PennController,18,0,test_conc,NULL,PennController,29,_Header_,End,1736773607835,undefined,616,beach,concrete-positive,negative,positive,B,NULL
1736774043,431442933d0639ffb119045e7f950706,PennController,18,0,test_conc,NULL,Selector,unnamed-Selector,Selection,positive,1736773608951,undefined,616,beach,concrete-positive,negative,positive,B,negative;positive
1736774043,431442933d0639ffb119045e7f950706,PennController,18,0,test_conc,NULL,PennController,29,_Trial_,End,1736773608952,undefined,616,beach,concrete-positive,negative,positive,B,NULL
1736774043,431442933d0639ffb119045e7f950706,PennController,16,0,test_conc,NULL,PennController,27,_Trial_,Start,1736773608952,undefined,536,flowers,concrete-positive,negative,positive,B,NULL
1736774043,431442933d0639ffb119045e7f950706,PennController,16,0,test_conc,NULL,PennController,27,_Header_,Start,1736773608952,undefined,536,flowers,concrete-positive,negative,positive,B,NULL
1736774043,431442933d0639ffb119045e7f950706,PennController,16,0,test_conc,NULL,PennController,27,_Header_,End,1736773609202,undefined,536,flowers,concrete-positive,negative,positive,B,NULL
1736774043,431442933d0639ffb119045e7f950706,PennController,16,0,test_conc,NULL,Selector,unnamed-Selector,Selection,positive,1736773610241,undefined,536,flowers,concrete-positive,negative,positive,B,negative;positive
1736774043,431442933d0639ffb119045e7f950706,PennController,16,0,test_conc,NULL,PennController,27,_Trial_,End,1736773610242,undefined,536,flowers,concrete-positive,negative,positive,B,NULL
1736774043,431442933d0639ffb119045e7f950706,PennController,37,0,test_conc,NULL,PennController,48,_Trial_,Start,1736773610242,undefined,792,vomit,concrete-negative,negative,positive,B,NULL
1736774043,431442933d0639ffb119045e7f950706,PennController,37,0,test_conc,NULL,PennController,48,_Header_,Start,1736773610242,undefined,792,vomit,concrete-negative,negative,positive,B,NULL
1736774043,431442933d0639ffb119045e7f950706,PennController,37,0,test_conc,NULL,PennController,48,_Header_,End,1736773610495,undefined,792,vomit,concrete-negative,negative,positive,B,NULL
1736774043,431442933d0639ffb119045e7f950706,PennController,37,0,test_conc,NULL,Selector,unnamed-Selector,Selection,negative,1736773611789,undefined,792,vomit,concrete-negative,negative,positive,B,negative;positive
1736774043,431442933d0639ffb119045e7f950706,PennController,37,0,test_conc,NULL,PennController,48,_Trial_,End,1736773611790,undefined,792,vomit,concrete-negative,negative,positive,B,NULL
1736774043,431442933d0639ffb119045e7f950706,PennController,7,0,test_conc,NULL,PennController,18,_Trial_,Start,1736773611790,undefined,595,despair,abstract-negative,negative,positive,B,NULL
1736774043,431442933d0639ffb119045e7f950706,PennController,7,0,test_conc,NULL,PennController,18,_Header_,Start,1736773611790,undefined,595,despair,abstract-negative,negative,positive,B,NULL
1736774043,431442933d0639ffb119045e7f950706,PennController,7,0,test_conc,NULL,PennController,18,_Header_,End,1736773612042,undefined,595,despair,abstract-negative,negative,positive,B,NULL
1736774043,431442933d0639ffb119045e7f950706,PennController,7,0,test_conc,NULL,Selector,unnamed-Selector,Selection,negative,1736773613140,undefined,595,despair,abstract-negative,negative,positive,B,negative;positive
1736774043,431442933d0639ffb119045e7f950706,PennController,7,0,test_conc,NULL,PennController,18,_Trial_,End,1736773613140,undefined,595,despair,abstract-negative,negative,positive,B,NULL
1736774043,431442933d0639ffb119045e7f950706,PennController,20,0,test_conc,NULL,PennController,31,_Trial_,Start,1736773613141,undefined,450,home,concrete-positive,negative,positive,B,NULL
1736774043,431442933d0639ffb119045e7f950706,PennController,20,0,test_conc,NULL,PennController,31,_Header_,Start,1736773613141,undefined,450,home,concrete-positive,negative,positive,B,NULL
1736774043,431442933d0639ffb119045e7f950706,PennController,20,0,test_conc,NULL,PennController,31,_Header_,End,1736773613391,undefined,450,home,concrete-positive,negative,positive,B,NULL
1736774043,431442933d0639ffb119045e7f950706,PennController,20,0,test_conc,NULL,Selector,unnamed-Selector,Selection,positive,1736773614346,undefined,450,home,concrete-positive,negative,positive,B,negative;positive
1736774043,431442933d0639ffb119045e7f950706,PennController,20,0,test_conc,NULL,PennController,31,_Trial_,End,1736773614347,undefined,450,home,concrete-positive,negative,positive,B,NULL
1736774043,431442933d0639ffb119045e7f950706,PennController,42,0,test_conc,NULL,PennController,53,_Trial_,Start,1736773614347,undefined,597,stench,concrete-negative,negative,positive,B,NULL
1736774043,431442933d0639ffb119045e7f950706,PennController,42,0,test_conc,NULL,PennController,53,_Header_,Start,1736773614347,undefined,597,stench,concrete-negative,negative,positive,B,NULL
1736774043,431442933d0639ffb119045e7f950706,PennController,42,0,test_conc,NULL,PennController,53,_Header_,End,1736773614600,undefined,597,stench,concrete-negative,negative,positive,B,NULL
1736774043,431442933d0639ffb119045e7f950706,PennController,42,0,test_conc,NULL,Selector,unnamed-Selector,Selection,negative,1736773615700,undefined,597,stench,concrete-negative,negative,positive,B,negative;positive
1736774043,431442933d0639ffb119045e7f950706,PennController,42,0,test_conc,NULL,PennController,53,_Trial_,End,1736773615701,undefined,597,stench,concrete-negative,negative,positive,B,NULL
1736774043,431442933d0639ffb119045e7f950706,PennController,24,0,test_conc,NULL,PennController,35,_Trial_,Start,1736773615701,undefined,1284,love,abstract-positive,negative,positive,B,NULL
1736774043,431442933d0639ffb119045e7f950706,PennController,24,0,test_conc,NULL,PennController,35,_Header_,Start,1736773615701,undefined,1284,love,abstract-positive,negative,positive,B,NULL
1736774043,431442933d0639ffb119045e7f950706,PennController,24,0,test_conc,NULL,PennController,35,_Header_,End,1736773615952,undefined,1284,love,abstract-positive,negative,positive,B,NULL
1736774043,431442933d0639ffb119045e7f950706,PennController,24,0,test_conc,NULL,Selector,unnamed-Selector,Selection,positive,1736773617737,undefined,1284,love,abstract-positive,negative,positive,B,negative;positive
1736774043,431442933d0639ffb119045e7f950706,PennController,24,0,test_conc,NULL,PennController,35,_Trial_,End,1736773617737,undefined,1284,love,abstract-positive,negative,positive,B,NULL
1736774043,431442933d0639ffb119045e7f950706,PennController,9,0,test_conc,NULL,PennController,20,_Trial_,Start,1736773617737,undefined,524,grief,abstract-negative,negative,positive,B,NULL
1736774043,431442933d0639ffb119045e7f950706,PennController,9,0,test_conc,NULL,PennController,20,_Header_,Start,1736773617737,undefined,524,grief,abstract-negative,negative,positive,B,NULL
1736774043,431442933d0639ffb119045e7f950706,PennController,9,0,test_conc,NULL,PennController,20,_Header_,End,1736773617990,undefined,524,grief,abstract-negative,negative,positive,B,NULL
1736774043,431442933d0639ffb119045e7f950706,PennController,9,0,test_conc,NULL,Selector,unnamed-Selector,Selection,negative,1736773619014,undefined,524,grief,abstract-negative,negative,positive,B,negative;positive
1736774043,431442933d0639ffb119045e7f950706,PennController,9,0,test_conc,NULL,PennController,20,_Trial_,End,1736773619014,undefined,524,grief,abstract-negative,negative,positive,B,NULL
1736774043,431442933d0639ffb119045e7f950706,PennController,38,0,test_conc,NULL,PennController,49,_Trial_,Start,1736773619014,undefined,753,garbage,concrete-negative,negative,positive,B,NULL
1736774043,431442933d0639ffb119045e7f950706,PennController,38,0,test_conc,NULL,PennController,49,_Header_,Start,1736773619014,undefined,753,garbage,concrete-negative,negative,positive,B,NULL
1736774043,431442933d0639ffb119045e7f950706,PennController,38,0,test_conc,NULL,PennController,49,_Header_,End,1736773619267,undefined,753,garbage,concrete-negative,negative,positive,B,NULL
1736774043,431442933d0639ffb119045e7f950706,PennController,38,0,test_conc,NULL,Selector,unnamed-Selector,Selection,negative,1736773620520,undefined,753,garbage,concrete-negative,negative,positive,B,negative;positive
1736774043,431442933d0639ffb119045e7f950706,PennController,38,0,test_conc,NULL,PennController,49,_Trial_,End,1736773620521,undefined,753,garbage,concrete-negative,negative,positive,B,NULL
1736774043,431442933d0639ffb119045e7f950706,PennController,32,0,test_conc,NULL,PennController,43,_Trial_,Start,1736773620521,undefined,628,gratitude,abstract-positive,negative,positive,B,NULL
1736774043,431442933d0639ffb119045e7f950706,PennController,32,0,test_conc,NULL,PennController,43,_Header_,Start,1736773620521,undefined,628,gratitude,abstract-positive,negative,positive,B,NULL
1736774043,431442933d0639ffb119045e7f950706,PennController,32,0,test_conc,NULL,PennController,43,_Header_,End,1736773620775,undefined,628,gratitude,abstract-positive,negative,positive,B,NULL
1736774043,431442933d0639ffb119045e7f950706,PennController,32,0,test_conc,NULL,Selector,unnamed-Selector,Selection,positive,1736773621904,undefined,628,gratitude,abstract-positive,negative,positive,B,negative;positive
1736774043,431442933d0639ffb119045e7f950706,PennController,32,0,test_conc,NULL,PennController,43,_Trial_,End,1736773621905,undefined,628,gratitude,abstract-positive,negative,positive,B,NULL
1736774043,431442933d0639ffb119045e7f950706,PennController,5,0,test_conc,NULL,PennController,16,_Trial_,Start,1736773621905,undefined,812,regret,abstract-negative,negative,positive,B,NULL
1736774043,431442933d0639ffb119045e7f950706,PennController,5,0,test_conc,NULL,PennController,16,_Header_,Start,1736773621905,undefined,812,regret,abstract-negative,negative,positive,B,NULL
1736774043,431442933d0639ffb119045e7f950706,PennController,5,0,test_conc,NULL,PennController,16,_Header_,End,1736773622155,undefined,812,regret,abstract-negative,negative,positive,B,NULL
1736774043,431442933d0639ffb119045e7f950706,PennController,5,0,test_conc,NULL,Selector,unnamed-Selector,Selection,positive,1736773623471,undefined,812,regret,abstract-negative,negative,positive,B,negative;positive
1736774043,431442933d0639ffb119045e7f950706,PennController,5,0,test_conc,NULL,PennController,16,_Trial_,End,1736773623472,undefined,812,regret,abstract-negative,negative,positive,B,NULL
1736774043,431442933d0639ffb119045e7f950706,PennController,8,0,test_conc,NULL,PennController,19,_Trial_,Start,1736773623472,undefined,487,guilt,abstract-negative,negative,positive,B,NULL
1736774043,431442933d0639ffb119045e7f950706,PennController,8,0,test_conc,NULL,PennController,19,_Header_,Start,1736773623472,undefined,487,guilt,abstract-negative,negative,positive,B,NULL
1736774043,431442933d0639ffb119045e7f950706,PennController,8,0,test_conc,NULL,PennController,19,_Header_,End,1736773623725,undefined,487,guilt,abstract-negative,negative,positive,B,NULL
1736774043,431442933d0639ffb119045e7f950706,PennController,8,0,test_conc,NULL,Selector,unnamed-Selector,Selection,negative,1736773624716,undefined,487,guilt,abstract-negative,negative,positive,B,negative;positive
1736774043,431442933d0639ffb119045e7f950706,PennController,8,0,test_conc,NULL,PennController,19,_Trial_,End,1736773624717,undefined,487,guilt,abstract-negative,negative,positive,B,NULL
1736774043,431442933d0639ffb119045e7f950706,PennController,23,0,test_conc,NULL,PennController,34,_Trial_,Start,1736773624717,undefined,676,fireplace,concrete-positive,negative,positive,B,NULL
1736774043,431442933d0639ffb119045e7f950706,PennController,23,0,test_conc,NULL,PennController,34,_Header_,Start,1736773624717,undefined,676,fireplace,concrete-positive,negative,positive,B,NULL
1736774043,431442933d0639ffb119045e7f950706,PennController,23,0,test_conc,NULL,PennController,34,_Header_,End,1736773624969,undefined,676,fireplace,concrete-positive,negative,positive,B,NULL
1736774043,431442933d0639ffb119045e7f950706,PennController,23,0,test_conc,NULL,Selector,unnamed-Selector,Selection,positive,1736773626146,undefined,676,fireplace,concrete-positive,negative,positive,B,negative;positive
1736774043,431442933d0639ffb119045e7f950706,PennController,23,0,test_conc,NULL,PennController,34,_Trial_,End,1736773626147,undefined,676,fireplace,concrete-positive,negative,positive,B,NULL
1736774043,431442933d0639ffb119045e7f950706,PennController,6,0,test_conc,NULL,PennController,17,_Trial_,Start,1736773626147,undefined,528,anxiety,abstract-negative,negative,positive,B,NULL
1736774043,431442933d0639ffb119045e7f950706,PennController,6,0,test_conc,NULL,PennController,17,_Header_,Start,1736773626147,undefined,528,anxiety,abstract-negative,negative,positive,B,NULL
1736774043,431442933d0639ffb119045e7f950706,PennController,6,0,test_conc,NULL,PennController,17,_Header_,End,1736773626399,undefined,528,anxiety,abstract-negative,negative,positive,B,NULL
1736774043,431442933d0639ffb119045e7f950706,PennController,6,0,test_conc,NULL,Selector,unnamed-Selector,Selection,negative,1736773627427,undefined,528,anxiety,abstract-negative,negative,positive,B,negative;positive
1736774043,431442933d0639ffb119045e7f950706,PennController,6,0,test_conc,NULL,PennController,17,_Trial_,End,1736773627428,undefined,528,anxiety,abstract-negative,negative,positive,B,NULL
1736774043,431442933d0639ffb119045e7f950706,PennController,4,0,test_conc,NULL,PennController,15,_Trial_,Start,1736773627428,undefined,632,lonliness,abstract-negative,negative,positive,B,NULL
1736774043,431442933d0639ffb119045e7f950706,PennController,4,0,test_conc,NULL,PennController,15,_Header_,Start,1736773627428,undefined,632,lonliness,abstract-negative,negative,positive,B,NULL
1736774043,431442933d0639ffb119045e7f950706,PennController,4,0,test_conc,NULL,PennController,15,_Header_,End,1736773627682,undefined,632,lonliness,abstract-negative,negative,positive,B,NULL
1736774043,431442933d0639ffb119045e7f950706,PennController,4,0,test_conc,NULL,Selector,unnamed-Selector,Selection,negative,1736773628815,undefined,632,lonliness,abstract-negative,negative,positive,B,negative;positive
1736774043,431442933d0639ffb119045e7f950706,PennController,4,0,test_conc,NULL,PennController,15,_Trial_,End,1736773628816,undefined,632,lonliness,abstract-negative,negative,positive,B,NULL
1736774043,431442933d0639ffb119045e7f950706,PennController,12,0,test_conc,NULL,PennController,23,_Trial_,Start,1736773628816,undefined,521,shame,abstract-negative,negative,positive,B,NULL
1736774043,431442933d0639ffb119045e7f950706,PennController,12,0,test_conc,NULL,PennController,23,_Header_,Start,1736773628816,undefined,521,shame,abstract-negative,negative,positive,B,NULL
1736774043,431442933d0639ffb119045e7f950706,PennController,12,0,test_conc,NULL,PennController,23,_Header_,End,1736773629067,undefined,521,shame,abstract-negative,negative,positive,B,NULL
1736774043,431442933d0639ffb119045e7f950706,PennController,12,0,test_conc,NULL,Selector,unnamed-Selector,Selection,negative,1736773630088,undefined,521,shame,abstract-negative,negative,positive,B,negative;positive
1736774043,431442933d0639ffb119045e7f950706,PennController,12,0,test_conc,NULL,PennController,23,_Trial_,End,1736773630089,undefined,521,shame,abstract-negative,negative,positive,B,NULL
1736774043,431442933d0639ffb119045e7f950706,PennController,14,0,test_conc,NULL,PennController,25,_Trial_,Start,1736773630089,undefined,555,sunshine,concrete-positive,negative,positive,B,NULL
1736774043,431442933d0639ffb119045e7f950706,PennController,14,0,test_conc,NULL,PennController,25,_Header_,Start,1736773630089,undefined,555,sunshine,concrete-positive,negative,positive,B,NULL
1736774043,431442933d0639ffb119045e7f950706,PennController,14,0,test_conc,NULL,PennController,25,_Header_,End,1736773630339,undefined,555,sunshine,concrete-positive,negative,positive,B,NULL
1736774043,431442933d0639ffb119045e7f950706,PennController,14,0,test_conc,NULL,Selector,unnamed-Selector,Selection,positive,1736773631396,undefined,555,sunshine,concrete-positive,negative,positive,B,negative;positive
1736774043,431442933d0639ffb119045e7f950706,PennController,14,0,test_conc,NULL,PennController,25,_Trial_,End,1736773631397,undefined,555,sunshine,concrete-positive,negative,positive,B,NULL
1736774043,431442933d0639ffb119045e7f950706,PennController,39,0,test_conc,NULL,PennController,50,_Trial_,Start,1736773631397,undefined,786,rust,concrete-negative,negative,positive,B,NULL
1736774043,431442933d0639ffb119045e7f950706,PennController,39,0,test_conc,NULL,PennController,50,_Header_,Start,1736773631397,undefined,786,rust,concrete-negative,negative,positive,B,NULL
1736774043,431442933d0639ffb119045e7f950706,PennController,39,0,test_conc,NULL,PennController,50,_Header_,End,1736773631650,undefined,786,rust,concrete-negative,negative,positive,B,NULL
1736774043,431442933d0639ffb119045e7f950706,PennController,39,0,test_conc,NULL,Selector,unnamed-Selector,Selection,negative,1736773632936,undefined,786,rust,concrete-negative,negative,positive,B,negative;positive
1736774043,431442933d0639ffb119045e7f950706,PennController,39,0,test_conc,NULL,PennController,50,_Trial_,End,1736773632937,undefined,786,rust,concrete-negative,negative,positive,B,NULL
1736774043,431442933d0639ffb119045e7f950706,PennController,40,0,test_conc,NULL,PennController,51,_Trial_,Start,1736773632937,undefined,495,mold,concrete-negative,negative,positive,B,NULL
1736774043,431442933d0639ffb119045e7f950706,PennController,40,0,test_conc,NULL,PennController,51,_Header_,Start,1736773632937,undefined,495,mold,concrete-negative,negative,positive,B,NULL
1736774043,431442933d0639ffb119045e7f950706,PennController,40,0,test_conc,NULL,PennController,51,_Header_,End,1736773633191,undefined,495,mold,concrete-negative,negative,positive,B,NULL
1736774043,431442933d0639ffb119045e7f950706,PennController,40,0,test_conc,NULL,Selector,unnamed-Selector,Selection,negative,1736773634189,undefined,495,mold,concrete-negative,negative,positive,B,negative;positive
1736774043,431442933d0639ffb119045e7f950706,PennController,40,0,test_conc,NULL,PennController,51,_Trial_,End,1736773634189,undefined,495,mold,concrete-negative,negative,positive,B,NULL
1736774043,431442933d0639ffb119045e7f950706,PennController,21,0,test_conc,NULL,PennController,32,_Trial_,Start,1736773634189,undefined,488,rain,concrete-positive,negative,positive,B,NULL
1736774043,431442933d0639ffb119045e7f950706,PennController,21,0,test_conc,NULL,PennController,32,_Header_,Start,1736773634189,undefined,488,rain,concrete-positive,negative,positive,B,NULL
1736774043,431442933d0639ffb119045e7f950706,PennController,21,0,test_conc,NULL,PennController,32,_Header_,End,1736773634443,undefined,488,rain,concrete-positive,negative,positive,B,NULL
1736774043,431442933d0639ffb119045e7f950706,PennController,21,0,test_conc,NULL,Selector,unnamed-Selector,Selection,positive,1736773635434,undefined,488,rain,concrete-positive,negative,positive,B,negative;positive
1736774043,431442933d0639ffb119045e7f950706,PennController,21,0,test_conc,NULL,PennController,32,_Trial_,End,1736773635434,undefined,488,rain,concrete-positive,negative,positive,B,NULL
1736774043,431442933d0639ffb119045e7f950706,PennController,11,0,test_conc,NULL,PennController,22,_Trial_,Start,1736773635435,undefined,832,failure,abstract-negative,negative,positive,B,NULL
1736774043,431442933d0639ffb119045e7f950706,PennController,11,0,test_conc,NULL,PennController,22,_Header_,Start,1736773635435,undefined,832,failure,abstract-negative,negative,positive,B,NULL
1736774043,431442933d0639ffb119045e7f950706,PennController,11,0,test_conc,NULL,PennController,22,_Header_,End,1736773635685,undefined,832,failure,abstract-negative,negative,positive,B,NULL
1736774043,431442933d0639ffb119045e7f950706,PennController,11,0,test_conc,NULL,Selector,unnamed-Selector,Selection,negative,1736773637019,undefined,832,failure,abstract-negative,negative,positive,B,negative;positive
1736774043,431442933d0639ffb119045e7f950706,PennController,11,0,test_conc,NULL,PennController,22,_Trial_,End,1736773637020,undefined,832,failure,abstract-negative,negative,positive,B,NULL
1736774043,431442933d0639ffb119045e7f950706,PennController,29,0,test_conc,NULL,PennController,40,_Trial_,Start,1736773637020,undefined,680,kindness,abstract-positive,negative,positive,B,NULL
1736774043,431442933d0639ffb119045e7f950706,PennController,29,0,test_conc,NULL,PennController,40,_Header_,Start,1736773637020,undefined,680,kindness,abstract-positive,negative,positive,B,NULL
1736774043,431442933d0639ffb119045e7f950706,PennController,29,0,test_conc,NULL,PennController,40,_Header_,End,1736773637273,undefined,680,kindness,abstract-positive,negative,positive,B,NULL
1736774043,431442933d0639ffb119045e7f950706,PennController,29,0,test_conc,NULL,Selector,unnamed-Selector,Selection,positive,1736773638457,undefined,680,kindness,abstract-positive,negative,positive,B,negative;positive
1736774043,431442933d0639ffb119045e7f950706,PennController,29,0,test_conc,NULL,PennController,40,_Trial_,End,1736773638458,undefined,680,kindness,abstract-positive,negative,positive,B,NULL
1736774043,431442933d0639ffb119045e7f950706,PennController,33,0,test_conc,NULL,PennController,44,_Trial_,Start,1736773638458,undefined,589,inspiration,abstract-positive,negative,positive,B,NULL
1736774043,431442933d0639ffb119045e7f950706,PennController,33,0,test_conc,NULL,PennController,44,_Header_,Start,1736773638458,undefined,589,inspiration,abstract-positive,negative,positive,B,NULL
1736774043,431442933d0639ffb119045e7f950706,PennController,33,0,test_conc,NULL,PennController,44,_Header_,End,1736773638710,undefined,589,inspiration,abstract-positive,negative,positive,B,NULL
1736774043,431442933d0639ffb119045e7f950706,PennController,33,0,test_conc,NULL,Selector,unnamed-Selector,Selection,positive,1736773639800,undefined,589,inspiration,abstract-positive,negative,positive,B,negative;positive
1736774043,431442933d0639ffb119045e7f950706,PennController,33,0,test_conc,NULL,PennController,44,_Trial_,End,1736773639801,undefined,589,inspiration,abstract-positive,negative,positive,B,NULL
1736774043,431442933d0639ffb119045e7f950706,PennController,28,0,test_conc,NULL,PennController,39,_Trial_,Start,1736773639801,undefined,571,freedom,abstract-positive,negative,positive,B,NULL
1736774043,431442933d0639ffb119045e7f950706,PennController,28,0,test_conc,NULL,PennController,39,_Header_,Start,1736773639801,undefined,571,freedom,abstract-positive,negative,positive,B,NULL
1736774043,431442933d0639ffb119045e7f950706,PennController,28,0,test_conc,NULL,PennController,39,_Header_,End,1736773640053,undefined,571,freedom,abstract-positive,negative,positive,B,NULL
1736774043,431442933d0639ffb119045e7f950706,PennController,28,0,test_conc,NULL,Selector,unnamed-Selector,Selection,positive,1736773641127,undefined,571,freedom,abstract-positive,negative,positive,B,negative;positive
1736774043,431442933d0639ffb119045e7f950706,PennController,28,0,test_conc,NULL,PennController,39,_Trial_,End,1736773641127,undefined,571,freedom,abstract-positive,negative,positive,B,NULL
1736774043,431442933d0639ffb119045e7f950706,PennController,10,0,test_conc,NULL,PennController,21,_Trial_,Start,1736773641128,undefined,557,resentment,abstract-negative,negative,positive,B,NULL
1736774043,431442933d0639ffb119045e7f950706,PennController,10,0,test_conc,NULL,PennController,21,_Header_,Start,1736773641128,undefined,557,resentment,abstract-negative,negative,positive,B,NULL
1736774043,431442933d0639ffb119045e7f950706,PennController,10,0,test_conc,NULL,PennController,21,_Header_,End,1736773641378,undefined,557,resentment,abstract-negative,negative,positive,B,NULL
1736774043,431442933d0639ffb119045e7f950706,PennController,10,0,test_conc,NULL,Selector,unnamed-Selector,Selection,negative,1736773642438,undefined,557,resentment,abstract-negative,negative,positive,B,negative;positive
1736774043,431442933d0639ffb119045e7f950706,PennController,10,0,test_conc,NULL,PennController,21,_Trial_,End,1736773642439,undefined,557,resentment,abstract-negative,negative,positive,B,NULL
1736774043,431442933d0639ffb119045e7f950706,PennController,35,0,test_conc,NULL,PennController,46,_Trial_,Start,1736773642439,undefined,539,rot,concrete-negative,negative,positive,B,NULL
1736774043,431442933d0639ffb119045e7f950706,PennController,35,0,test_conc,NULL,PennController,46,_Header_,Start,1736773642439,undefined,539,rot,concrete-negative,negative,positive,B,NULL
1736774043,431442933d0639ffb119045e7f950706,PennController,35,0,test_conc,NULL,PennController,46,_Header_,End,1736773642692,undefined,539,rot,concrete-negative,negative,positive,B,NULL
1736774043,431442933d0639ffb119045e7f950706,PennController,35,0,test_conc,NULL,Selector,unnamed-Selector,Selection,negative,1736773643735,undefined,539,rot,concrete-negative,negative,positive,B,negative;positive
1736774043,431442933d0639ffb119045e7f950706,PennController,35,0,test_conc,NULL,PennController,46,_Trial_,End,1736773643736,undefined,539,rot,concrete-negative,negative,positive,B,NULL
1736774043,431442933d0639ffb119045e7f950706,PennController,14,0,test_conc,NULL,PennController,25,_Trial_,Start,1736773643736,undefined,655,sunshine,concrete-positive,negative,positive,B,NULL
1736774043,431442933d0639ffb119045e7f950706,PennController,14,0,test_conc,NULL,PennController,25,_Header_,Start,1736773643736,undefined,655,sunshine,concrete-positive,negative,positive,B,NULL
1736774043,431442933d0639ffb119045e7f950706,PennController,14,0,test_conc,NULL,PennController,25,_Header_,End,1736773643987,undefined,655,sunshine,concrete-positive,negative,positive,B,NULL
1736774043,431442933d0639ffb119045e7f950706,PennController,14,0,test_conc,NULL,Selector,unnamed-Selector,Selection,positive,1736773645146,undefined,655,sunshine,concrete-positive,negative,positive,B,negative;positive
1736774043,431442933d0639ffb119045e7f950706,PennController,14,0,test_conc,NULL,PennController,25,_Trial_,End,1736773645146,undefined,655,sunshine,concrete-positive,negative,positive,B,NULL
1736774043,431442933d0639ffb119045e7f950706,PennController,8,0,test_conc,NULL,PennController,19,_Trial_,Start,1736773645147,undefined,905,guilt,abstract-negative,negative,positive,B,NULL
1736774043,431442933d0639ffb119045e7f950706,PennController,8,0,test_conc,NULL,PennController,19,_Header_,Start,1736773645147,undefined,905,guilt,abstract-negative,negative,positive,B,NULL
1736774043,431442933d0639ffb119045e7f950706,PennController,8,0,test_conc,NULL,PennController,19,_Header_,End,1736773645401,undefined,905,guilt,abstract-negative,negative,positive,B,NULL
1736774043,431442933d0639ffb119045e7f950706,PennController,8,0,test_conc,NULL,Selector,unnamed-Selector,Selection,negative,1736773646807,undefined,905,guilt,abstract-negative,negative,positive,B,negative;positive
1736774043,431442933d0639ffb119045e7f950706,PennController,8,0,test_conc,NULL,PennController,19,_Trial_,End,1736773646807,undefined,905,guilt,abstract-negative,negative,positive,B,NULL
1736774043,431442933d0639ffb119045e7f950706,PennController,40,0,test_conc,NULL,PennController,51,_Trial_,Start,1736773646808,undefined,723,mold,concrete-negative,negative,positive,B,NULL
1736774043,431442933d0639ffb119045e7f950706,PennController,40,0,test_conc,NULL,PennController,51,_Header_,Start,1736773646808,undefined,723,mold,concrete-negative,negative,positive,B,NULL
1736774043,431442933d0639ffb119045e7f950706,PennController,40,0,test_conc,NULL,PennController,51,_Header_,End,1736773647059,undefined,723,mold,concrete-negative,negative,positive,B,NULL
1736774043,431442933d0639ffb119045e7f950706,PennController,40,0,test_conc,NULL,Selector,unnamed-Selector,Selection,negative,1736773648283,undefined,723,mold,concrete-negative,negative,positive,B,negative;positive
1736774043,431442933d0639ffb119045e7f950706,PennController,40,0,test_conc,NULL,PennController,51,_Trial_,End,1736773648283,undefined,723,mold,concrete-negative,negative,positive,B,NULL
1736774043,431442933d0639ffb119045e7f950706,PennController,39,0,test_conc,NULL,PennController,50,_Trial_,Start,1736773648283,undefined,729,rust,concrete-negative,negative,positive,B,NULL
1736774043,431442933d0639ffb119045e7f950706,PennController,39,0,test_conc,NULL,PennController,50,_Header_,Start,1736773648283,undefined,729,rust,concrete-negative,negative,positive,B,NULL
1736774043,431442933d0639ffb119045e7f950706,PennController,39,0,test_conc,NULL,PennController,50,_Header_,End,1736773648537,undefined,729,rust,concrete-negative,negative,positive,B,NULL
1736774043,431442933d0639ffb119045e7f950706,PennController,39,0,test_conc,NULL,Selector,unnamed-Selector,Selection,negative,1736773649771,undefined,729,rust,concrete-negative,negative,positive,B,negative;positive
1736774043,431442933d0639ffb119045e7f950706,PennController,39,0,test_conc,NULL,PennController,50,_Trial_,End,1736773649771,undefined,729,rust,concrete-negative,negative,positive,B,NULL
1736774043,431442933d0639ffb119045e7f950706,PennController,37,0,test_conc,NULL,PennController,48,_Trial_,Start,1736773649771,undefined,588,vomit,concrete-negative,negative,positive,B,NULL
1736774043,431442933d0639ffb119045e7f950706,PennController,37,0,test_conc,NULL,PennController,48,_Header_,Start,1736773649771,undefined,588,vomit,concrete-negative,negative,positive,B,NULL
1736774043,431442933d0639ffb119045e7f950706,PennController,37,0,test_conc,NULL,PennController,48,_Header_,End,1736773650028,undefined,588,vomit,concrete-negative,negative,positive,B,NULL
1736774043,431442933d0639ffb119045e7f950706,PennController,37,0,test_conc,NULL,Selector,unnamed-Selector,Selection,negative,1736773651119,undefined,588,vomit,concrete-negative,negative,positive,B,negative;positive
1736774043,431442933d0639ffb119045e7f950706,PennController,37,0,test_conc,NULL,PennController,48,_Trial_,End,1736773651120,undefined,588,vomit,concrete-negative,negative,positive,B,NULL
1736774043,431442933d0639ffb119045e7f950706,PennController,15,0,test_conc,NULL,PennController,26,_Trial_,Start,1736773651120,undefined,447,laughter,concrete-positive,negative,positive,B,NULL
1736774043,431442933d0639ffb119045e7f950706,PennController,15,0,test_conc,NULL,PennController,26,_Header_,Start,1736773651120,undefined,447,laughter,concrete-positive,negative,positive,B,NULL
1736774043,431442933d0639ffb119045e7f950706,PennController,15,0,test_conc,NULL,PennController,26,_Header_,End,1736773651371,undefined,447,laughter,concrete-positive,negative,positive,B,NULL
1736774043,431442933d0639ffb119045e7f950706,PennController,15,0,test_conc,NULL,Selector,unnamed-Selector,Selection,positive,1736773652322,undefined,447,laughter,concrete-positive,negative,positive,B,negative;positive
1736774043,431442933d0639ffb119045e7f950706,PennController,15,0,test_conc,NULL,PennController,26,_Trial_,End,1736773652323,undefined,447,laughter,concrete-positive,negative,positive,B,NULL
1736774043,431442933d0639ffb119045e7f950706,PennController,4,0,test_conc,NULL,PennController,15,_Trial_,Start,1736773652323,undefined,667,lonliness,abstract-negative,negative,positive,B,NULL
1736774043,431442933d0639ffb119045e7f950706,PennController,4,0,test_conc,NULL,PennController,15,_Header_,Start,1736773652323,undefined,667,lonliness,abstract-negative,negative,positive,B,NULL
1736774043,431442933d0639ffb119045e7f950706,PennController,4,0,test_conc,NULL,PennController,15,_Header_,End,1736773652575,undefined,667,lonliness,abstract-negative,negative,positive,B,NULL
1736774043,431442933d0639ffb119045e7f950706,PennController,4,0,test_conc,NULL,Selector,unnamed-Selector,Selection,negative,1736773653745,undefined,667,lonliness,abstract-negative,negative,positive,B,negative;positive
1736774043,431442933d0639ffb119045e7f950706,PennController,4,0,test_conc,NULL,PennController,15,_Trial_,End,1736773653746,undefined,667,lonliness,abstract-negative,negative,positive,B,NULL
1736774043,431442933d0639ffb119045e7f950706,PennController,24,0,test_conc,NULL,PennController,35,_Trial_,Start,1736773653746,undefined,484,love,abstract-positive,negative,positive,B,NULL
1736774043,431442933d0639ffb119045e7f950706,PennController,24,0,test_conc,NULL,PennController,35,_Header_,Start,1736773653746,undefined,484,love,abstract-positive,negative,positive,B,NULL
1736774043,431442933d0639ffb119045e7f950706,PennController,24,0,test_conc,NULL,PennController,35,_Header_,End,1736773653999,undefined,484,love,abstract-positive,negative,positive,B,NULL
1736774043,431442933d0639ffb119045e7f950706,PennController,24,0,test_conc,NULL,Selector,unnamed-Selector,Selection,positive,1736773654988,undefined,484,love,abstract-positive,negative,positive,B,negative;positive
1736774043,431442933d0639ffb119045e7f950706,PennController,24,0,test_conc,NULL,PennController,35,_Trial_,End,1736773654988,undefined,484,love,abstract-positive,negative,positive,B,NULL
1736774043,431442933d0639ffb119045e7f950706,PennController,12,0,test_conc,NULL,PennController,23,_Trial_,Start,1736773654988,undefined,578,shame,abstract-negative,negative,positive,B,NULL
1736774043,431442933d0639ffb119045e7f950706,PennController,12,0,test_conc,NULL,PennController,23,_Header_,Start,1736773654988,undefined,578,shame,abstract-negative,negative,positive,B,NULL
1736774043,431442933d0639ffb119045e7f950706,PennController,12,0,test_conc,NULL,PennController,23,_Header_,End,1736773655240,undefined,578,shame,abstract-negative,negative,positive,B,NULL
1736774043,431442933d0639ffb119045e7f950706,PennController,12,0,test_conc,NULL,Selector,unnamed-Selector,Selection,negative,1736773656321,undefined,578,shame,abstract-negative,negative,positive,B,negative;positive
1736774043,431442933d0639ffb119045e7f950706,PennController,12,0,test_conc,NULL,PennController,23,_Trial_,End,1736773656321,undefined,578,shame,abstract-negative,negative,positive,B,NULL
1736774043,431442933d0639ffb119045e7f950706,PennController,18,0,test_conc,NULL,PennController,29,_Trial_,Start,1736773656322,undefined,811,beach,concrete-positive,negative,positive,B,NULL
1736774043,431442933d0639ffb119045e7f950706,PennController,18,0,test_conc,NULL,PennController,29,_Header_,Start,1736773656322,undefined,811,beach,concrete-positive,negative,positive,B,NULL
1736774043,431442933d0639ffb119045e7f950706,PennController,18,0,test_conc,NULL,PennController,29,_Header_,End,1736773656573,undefined,811,beach,concrete-positive,negative,positive,B,NULL
1736774043,431442933d0639ffb119045e7f950706,PennController,18,0,test_conc,NULL,Selector,unnamed-Selector,Selection,positive,1736773657889,undefined,811,beach,concrete-positive,negative,positive,B,negative;positive
1736774043,431442933d0639ffb119045e7f950706,PennController,18,0,test_conc,NULL,PennController,29,_Trial_,End,1736773657889,undefined,811,beach,concrete-positive,negative,positive,B,NULL
1736774043,431442933d0639ffb119045e7f950706,PennController,41,0,test_conc,NULL,PennController,52,_Trial_,Start,1736773657890,undefined,1029,injury,concrete-negative,negative,positive,B,NULL
1736774043,431442933d0639ffb119045e7f950706,PennController,41,0,test_conc,NULL,PennController,52,_Header_,Start,1736773657890,undefined,1029,injury,concrete-negative,negative,positive,B,NULL
1736774043,431442933d0639ffb119045e7f950706,PennController,41,0,test_conc,NULL,PennController,52,_Header_,End,1736773658141,undefined,1029,injury,concrete-negative,negative,positive,B,NULL
1736774043,431442933d0639ffb119045e7f950706,PennController,41,0,test_conc,NULL,Selector,unnamed-Selector,Selection,negative,1736773659671,undefined,1029,injury,concrete-negative,negative,positive,B,negative;positive
1736774043,431442933d0639ffb119045e7f950706,PennController,41,0,test_conc,NULL,PennController,52,_Trial_,End,1736773659672,undefined,1029,injury,concrete-negative,negative,positive,B,NULL
1736774043,431442933d0639ffb119045e7f950706,PennController,31,0,test_conc,NULL,PennController,42,_Trial_,Start,1736773659672,undefined,636,compassion,abstract-positive,negative,positive,B,NULL
1736774043,431442933d0639ffb119045e7f950706,PennController,31,0,test_conc,NULL,PennController,42,_Header_,Start,1736773659672,undefined,636,compassion,abstract-positive,negative,positive,B,NULL
1736774043,431442933d0639ffb119045e7f950706,PennController,31,0,test_conc,NULL,PennController,42,_Header_,End,1736773659924,undefined,636,compassion,abstract-positive,negative,positive,B,NULL
1736774043,431442933d0639ffb119045e7f950706,PennController,31,0,test_conc,NULL,Selector,unnamed-Selector,Selection,positive,1736773661062,undefined,636,compassion,abstract-positive,negative,positive,B,negative;positive
1736774043,431442933d0639ffb119045e7f950706,PennController,31,0,test_conc,NULL,PennController,42,_Trial_,End,1736773661062,undefined,636,compassion,abstract-positive,negative,positive,B,NULL
1736774043,431442933d0639ffb119045e7f950706,PennController,29,0,test_conc,NULL,PennController,40,_Trial_,Start,1736773661063,undefined,887,kindness,abstract-positive,negative,positive,B,NULL
1736774043,431442933d0639ffb119045e7f950706,PennController,29,0,test_conc,NULL,PennController,40,_Header_,Start,1736773661063,undefined,887,kindness,abstract-positive,negative,positive,B,NULL
1736774043,431442933d0639ffb119045e7f950706,PennController,29,0,test_conc,NULL,PennController,40,_Header_,End,1736773661316,undefined,887,kindness,abstract-positive,negative,positive,B,NULL
1736774043,431442933d0639ffb119045e7f950706,PennController,29,0,test_conc,NULL,Selector,unnamed-Selector,Selection,positive,1736773662705,undefined,887,kindness,abstract-positive,negative,positive,B,negative;positive
1736774043,431442933d0639ffb119045e7f950706,PennController,29,0,test_conc,NULL,PennController,40,_Trial_,End,1736773662706,undefined,887,kindness,abstract-positive,negative,positive,B,NULL
1736774043,431442933d0639ffb119045e7f950706,PennController,10,0,test_conc,NULL,PennController,21,_Trial_,Start,1736773662706,undefined,504,resentment,abstract-negative,negative,positive,B,NULL
1736774043,431442933d0639ffb119045e7f950706,PennController,10,0,test_conc,NULL,PennController,21,_Header_,Start,1736773662706,undefined,504,resentment,abstract-negative,negative,positive,B,NULL
1736774043,431442933d0639ffb119045e7f950706,PennController,10,0,test_conc,NULL,PennController,21,_Header_,End,1736773662959,undefined,504,resentment,abstract-negative,negative,positive,B,NULL
1736774043,431442933d0639ffb119045e7f950706,PennController,10,0,test_conc,NULL,Selector,unnamed-Selector,Selection,negative,1736773663968,undefined,504,resentment,abstract-negative,negative,positive,B,negative;positive
1736774043,431442933d0639ffb119045e7f950706,PennController,10,0,test_conc,NULL,PennController,21,_Trial_,End,1736773663968,undefined,504,resentment,abstract-negative,negative,positive,B,NULL
1736774043,431442933d0639ffb119045e7f950706,PennController,36,0,test_conc,NULL,PennController,47,_Trial_,Start,1736773663969,undefined,716,mud,concrete-negative,negative,positive,B,NULL
1736774043,431442933d0639ffb119045e7f950706,PennController,36,0,test_conc,NULL,PennController,47,_Header_,Start,1736773663969,undefined,716,mud,concrete-negative,negative,positive,B,NULL
1736774043,431442933d0639ffb119045e7f950706,PennController,36,0,test_conc,NULL,PennController,47,_Header_,End,1736773664222,undefined,716,mud,concrete-negative,negative,positive,B,NULL
1736774043,431442933d0639ffb119045e7f950706,PennController,36,0,test_conc,NULL,Selector,unnamed-Selector,Selection,negative,1736773665440,undefined,716,mud,concrete-negative,negative,positive,B,negative;positive
1736774043,431442933d0639ffb119045e7f950706,PennController,36,0,test_conc,NULL,PennController,47,_Trial_,End,1736773665441,undefined,716,mud,concrete-negative,negative,positive,B,NULL
1736774043,431442933d0639ffb119045e7f950706,PennController,20,0,test_conc,NULL,PennController,31,_Trial_,Start,1736773665441,undefined,759,home,concrete-positive,negative,positive,B,NULL
1736774043,431442933d0639ffb119045e7f950706,PennController,20,0,test_conc,NULL,PennController,31,_Header_,Start,1736773665441,undefined,759,home,concrete-positive,negative,positive,B,NULL
1736774043,431442933d0639ffb119045e7f950706,PennController,20,0,test_conc,NULL,PennController,31,_Header_,End,1736773665691,undefined,759,home,concrete-positive,negative,positive,B,NULL
1736774043,431442933d0639ffb119045e7f950706,PennController,20,0,test_conc,NULL,Selector,unnamed-Selector,Selection,positive,1736773666953,undefined,759,home,concrete-positive,negative,positive,B,negative;positive
1736774043,431442933d0639ffb119045e7f950706,PennController,20,0,test_conc,NULL,PennController,31,_Trial_,End,1736773666954,undefined,759,home,concrete-positive,negative,positive,B,NULL
1736774043,431442933d0639ffb119045e7f950706,PennController,21,0,test_conc,NULL,PennController,32,_Trial_,Start,1736773666954,undefined,745,rain,concrete-positive,negative,positive,B,NULL
1736774043,431442933d0639ffb119045e7f950706,PennController,21,0,test_conc,NULL,PennController,32,_Header_,Start,1736773666954,undefined,745,rain,concrete-positive,negative,positive,B,NULL
1736774043,431442933d0639ffb119045e7f950706,PennController,21,0,test_conc,NULL,PennController,32,_Header_,End,1736773667204,undefined,745,rain,concrete-positive,negative,positive,B,NULL
1736774043,431442933d0639ffb119045e7f950706,PennController,21,0,test_conc,NULL,Selector,unnamed-Selector,Selection,positive,1736773668451,undefined,745,rain,concrete-positive,negative,positive,B,negative;positive
1736774043,431442933d0639ffb119045e7f950706,PennController,21,0,test_conc,NULL,PennController,32,_Trial_,End,1736773668451,undefined,745,rain,concrete-positive,negative,positive,B,NULL
1736774043,431442933d0639ffb119045e7f950706,PennController,22,0,test_conc,NULL,PennController,33,_Trial_,Start,1736773668451,undefined,642,chocolate,concrete-positive,negative,positive,B,NULL
1736774043,431442933d0639ffb119045e7f950706,PennController,22,0,test_conc,NULL,PennController,33,_Header_,Start,1736773668451,undefined,642,chocolate,concrete-positive,negative,positive,B,NULL
1736774043,431442933d0639ffb119045e7f950706,PennController,22,0,test_conc,NULL,PennController,33,_Header_,End,1736773668702,undefined,642,chocolate,concrete-positive,negative,positive,B,NULL
1736774043,431442933d0639ffb119045e7f950706,PennController,22,0,test_conc,NULL,Selector,unnamed-Selector,Selection,positive,1736773669847,undefined,642,chocolate,concrete-positive,negative,positive,B,negative;positive
1736774043,431442933d0639ffb119045e7f950706,PennController,22,0,test_conc,NULL,PennController,33,_Trial_,End,1736773669847,undefined,642,chocolate,concrete-positive,negative,positive,B,NULL
1736774043,431442933d0639ffb119045e7f950706,PennController,6,0,test_conc,NULL,PennController,17,_Trial_,Start,1736773669848,undefined,519,anxiety,abstract-negative,negative,positive,B,NULL
1736774043,431442933d0639ffb119045e7f950706,PennController,6,0,test_conc,NULL,PennController,17,_Header_,Start,1736773669848,undefined,519,anxiety,abstract-negative,negative,positive,B,NULL
1736774043,431442933d0639ffb119045e7f950706,PennController,6,0,test_conc,NULL,PennController,17,_Header_,End,1736773670101,undefined,519,anxiety,abstract-negative,negative,positive,B,NULL
1736774043,431442933d0639ffb119045e7f950706,PennController,6,0,test_conc,NULL,Selector,unnamed-Selector,Selection,negative,1736773671121,undefined,519,anxiety,abstract-negative,negative,positive,B,negative;positive
1736774043,431442933d0639ffb119045e7f950706,PennController,6,0,test_conc,NULL,PennController,17,_Trial_,End,1736773671122,undefined,519,anxiety,abstract-negative,negative,positive,B,NULL
1736774043,431442933d0639ffb119045e7f950706,PennController,42,0,test_conc,NULL,PennController,53,_Trial_,Start,1736773671122,undefined,618,stench,concrete-negative,negative,positive,B,NULL
1736774043,431442933d0639ffb119045e7f950706,PennController,42,0,test_conc,NULL,PennController,53,_Header_,Start,1736773671122,undefined,618,stench,concrete-negative,negative,positive,B,NULL
1736774043,431442933d0639ffb119045e7f950706,PennController,42,0,test_conc,NULL,PennController,53,_Header_,End,1736773671376,undefined,618,stench,concrete-negative,negative,positive,B,NULL
1736774043,431442933d0639ffb119045e7f950706,PennController,42,0,test_conc,NULL,Selector,unnamed-Selector,Selection,negative,1736773672498,undefined,618,stench,concrete-negative,negative,positive,B,negative;positive
1736774043,431442933d0639ffb119045e7f950706,PennController,42,0,test_conc,NULL,PennController,53,_Trial_,End,1736773672499,undefined,618,stench,concrete-negative,negative,positive,B,NULL
1736774043,431442933d0639ffb119045e7f950706,PennController,11,0,test_conc,NULL,PennController,22,_Trial_,Start,1736773672499,undefined,1050,failure,abstract-negative,negative,positive,B,NULL
1736774043,431442933d0639ffb119045e7f950706,PennController,11,0,test_conc,NULL,PennController,22,_Header_,Start,1736773672499,undefined,1050,failure,abstract-negative,negative,positive,B,NULL
1736774043,431442933d0639ffb119045e7f950706,PennController,11,0,test_conc,NULL,PennController,22,_Header_,End,1736773672752,undefined,1050,failure,abstract-negative,negative,positive,B,NULL
1736774043,431442933d0639ffb119045e7f950706,PennController,11,0,test_conc,NULL,Selector,unnamed-Selector,Selection,negative,1736773674307,undefined,1050,failure,abstract-negative,negative,positive,B,negative;positive
1736774043,431442933d0639ffb119045e7f950706,PennController,11,0,test_conc,NULL,PennController,22,_Trial_,End,1736773674308,undefined,1050,failure,abstract-negative,negative,positive,B,NULL
1736774043,431442933d0639ffb119045e7f950706,PennController,27,0,test_conc,NULL,PennController,38,_Trial_,Start,1736773674308,undefined,709,peace,abstract-positive,negative,positive,B,NULL
1736774043,431442933d0639ffb119045e7f950706,PennController,27,0,test_conc,NULL,PennController,38,_Header_,Start,1736773674308,undefined,709,peace,abstract-positive,negative,positive,B,NULL
1736774043,431442933d0639ffb119045e7f950706,PennController,27,0,test_conc,NULL,PennController,38,_Header_,End,1736773674561,undefined,709,peace,abstract-positive,negative,positive,B,NULL
1736774043,431442933d0639ffb119045e7f950706,PennController,27,0,test_conc,NULL,Selector,unnamed-Selector,Selection,positive,1736773675775,undefined,709,peace,abstract-positive,negative,positive,B,negative;positive
1736774043,431442933d0639ffb119045e7f950706,PennController,27,0,test_conc,NULL,PennController,38,_Trial_,End,1736773675776,undefined,709,peace,abstract-positive,negative,positive,B,NULL
1736774043,431442933d0639ffb119045e7f950706,PennController,35,0,test_conc,NULL,PennController,46,_Trial_,Start,1736773675776,undefined,482,rot,concrete-negative,negative,positive,B,NULL
1736774043,431442933d0639ffb119045e7f950706,PennController,35,0,test_conc,NULL,PennController,46,_Header_,Start,1736773675776,undefined,482,rot,concrete-negative,negative,positive,B,NULL
1736774043,431442933d0639ffb119045e7f950706,PennController,35,0,test_conc,NULL,PennController,46,_Header_,End,1736773676028,undefined,482,rot,concrete-negative,negative,positive,B,NULL
1736774043,431442933d0639ffb119045e7f950706,PennController,35,0,test_conc,NULL,Selector,unnamed-Selector,Selection,negative,1736773677011,undefined,482,rot,concrete-negative,negative,positive,B,negative;positive
1736774043,431442933d0639ffb119045e7f950706,PennController,35,0,test_conc,NULL,PennController,46,_Trial_,End,1736773677012,undefined,482,rot,concrete-negative,negative,positive,B,NULL
1736774043,431442933d0639ffb119045e7f950706,PennController,5,0,test_conc,NULL,PennController,16,_Trial_,Start,1736773677012,undefined,790,regret,abstract-negative,negative,positive,B,NULL
1736774043,431442933d0639ffb119045e7f950706,PennController,5,0,test_conc,NULL,PennController,16,_Header_,Start,1736773677012,undefined,790,regret,abstract-negative,negative,positive,B,NULL
1736774043,431442933d0639ffb119045e7f950706,PennController,5,0,test_conc,NULL,PennController,16,_Header_,End,1736773677262,undefined,790,regret,abstract-negative,negative,positive,B,NULL
1736774043,431442933d0639ffb119045e7f950706,PennController,5,0,test_conc,NULL,Selector,unnamed-Selector,Selection,negative,1736773678555,undefined,790,regret,abstract-negative,negative,positive,B,negative;positive
1736774043,431442933d0639ffb119045e7f950706,PennController,5,0,test_conc,NULL,PennController,16,_Trial_,End,1736773678556,undefined,790,regret,abstract-negative,negative,positive,B,NULL
1736774043,431442933d0639ffb119045e7f950706,PennController,26,0,test_conc,NULL,PennController,37,_Trial_,Start,1736773678556,undefined,728,joy,abstract-positive,negative,positive,B,NULL
1736774043,431442933d0639ffb119045e7f950706,PennController,26,0,test_conc,NULL,PennController,37,_Header_,Start,1736773678556,undefined,728,joy,abstract-positive,negative,positive,B,NULL
1736774043,431442933d0639ffb119045e7f950706,PennController,26,0,test_conc,NULL,PennController,37,_Header_,End,1736773678806,undefined,728,joy,abstract-positive,negative,positive,B,NULL
1736774043,431442933d0639ffb119045e7f950706,PennController,26,0,test_conc,NULL,Selector,unnamed-Selector,Selection,positive,1736773680038,undefined,728,joy,abstract-positive,negative,positive,B,negative;positive
1736774043,431442933d0639ffb119045e7f950706,PennController,26,0,test_conc,NULL,PennController,37,_Trial_,End,1736773680038,undefined,728,joy,abstract-positive,negative,positive,B,NULL
1736774043,431442933d0639ffb119045e7f950706,PennController,33,0,test_conc,NULL,PennController,44,_Trial_,Start,1736773680038,undefined,757,inspiration,abstract-positive,negative,positive,B,NULL
1736774043,431442933d0639ffb119045e7f950706,PennController,33,0,test_conc,NULL,PennController,44,_Header_,Start,1736773680038,undefined,757,inspiration,abstract-positive,negative,positive,B,NULL
1736774043,431442933d0639ffb119045e7f950706,PennController,33,0,test_conc,NULL,PennController,44,_Header_,End,1736773680290,undefined,757,inspiration,abstract-positive,negative,positive,B,NULL
1736774043,431442933d0639ffb119045e7f950706,PennController,33,0,test_conc,NULL,Selector,unnamed-Selector,Selection,positive,1736773681551,undefined,757,inspiration,abstract-positive,negative,positive,B,negative;positive
1736774043,431442933d0639ffb119045e7f950706,PennController,33,0,test_conc,NULL,PennController,44,_Trial_,End,1736773681552,undefined,757,inspiration,abstract-positive,negative,positive,B,NULL
1736774043,431442933d0639ffb119045e7f950706,PennController,30,0,test_conc,NULL,PennController,41,_Trial_,Start,1736773681552,undefined,800,happiness,abstract-positive,negative,positive,B,NULL
1736774043,431442933d0639ffb119045e7f950706,PennController,30,0,test_conc,NULL,PennController,41,_Header_,Start,1736773681552,undefined,800,happiness,abstract-positive,negative,positive,B,NULL
1736774043,431442933d0639ffb119045e7f950706,PennController,30,0,test_conc,NULL,PennController,41,_Header_,End,1736773681805,undefined,800,happiness,abstract-positive,negative,positive,B,NULL
1736774043,431442933d0639ffb119045e7f950706,PennController,30,0,test_conc,NULL,Selector,unnamed-Selector,Selection,positive,1736773683107,undefined,800,happiness,abstract-positive,negative,positive,B,negative;positive
1736774043,431442933d0639ffb119045e7f950706,PennController,30,0,test_conc,NULL,PennController,41,_Trial_,End,1736773683107,undefined,800,happiness,abstract-positive,negative,positive,B,NULL
1736774043,431442933d0639ffb119045e7f950706,PennController,9,0,test_conc,NULL,PennController,20,_Trial_,Start,1736773683107,undefined,505,grief,abstract-negative,negative,positive,B,NULL
1736774043,431442933d0639ffb119045e7f950706,PennController,9,0,test_conc,NULL,PennController,20,_Header_,Start,1736773683107,undefined,505,grief,abstract-negative,negative,positive,B,NULL
1736774043,431442933d0639ffb119045e7f950706,PennController,9,0,test_conc,NULL,PennController,20,_Header_,End,1736773683358,undefined,505,grief,abstract-negative,negative,positive,B,NULL
1736774043,431442933d0639ffb119045e7f950706,PennController,9,0,test_conc,NULL,Selector,unnamed-Selector,Selection,negative,1736773684365,undefined,505,grief,abstract-negative,negative,positive,B,negative;positive
1736774043,431442933d0639ffb119045e7f950706,PennController,9,0,test_conc,NULL,PennController,20,_Trial_,End,1736773684366,undefined,505,grief,abstract-negative,negative,positive,B,NULL
1736774043,431442933d0639ffb119045e7f950706,PennController,23,0,test_conc,NULL,PennController,34,_Trial_,Start,1736773684366,undefined,647,fireplace,concrete-positive,negative,positive,B,NULL
1736774043,431442933d0639ffb119045e7f950706,PennController,23,0,test_conc,NULL,PennController,34,_Header_,Start,1736773684366,undefined,647,fireplace,concrete-positive,negative,positive,B,NULL
1736774043,431442933d0639ffb119045e7f950706,PennController,23,0,test_conc,NULL,PennController,34,_Header_,End,1736773684618,undefined,647,fireplace,concrete-positive,negative,positive,B,NULL
1736774043,431442933d0639ffb119045e7f950706,PennController,23,0,test_conc,NULL,Selector,unnamed-Selector,Selection,positive,1736773685767,undefined,647,fireplace,concrete-positive,negative,positive,B,negative;positive
1736774043,431442933d0639ffb119045e7f950706,PennController,23,0,test_conc,NULL,PennController,34,_Trial_,End,1736773685767,undefined,647,fireplace,concrete-positive,negative,positive,B,NULL
1736774043,431442933d0639ffb119045e7f950706,PennController,38,0,test_conc,NULL,PennController,49,_Trial_,Start,1736773685768,undefined,565,garbage,concrete-negative,negative,positive,B,NULL
1736774043,431442933d0639ffb119045e7f950706,PennController,38,0,test_conc,NULL,PennController,49,_Header_,Start,1736773685768,undefined,565,garbage,concrete-negative,negative,positive,B,NULL
1736774043,431442933d0639ffb119045e7f950706,PennController,38,0,test_conc,NULL,PennController,49,_Header_,End,1736773686027,undefined,565,garbage,concrete-negative,negative,positive,B,NULL
1736774043,431442933d0639ffb119045e7f950706,PennController,38,0,test_conc,NULL,Selector,unnamed-Selector,Selection,negative,1736773687094,undefined,565,garbage,concrete-negative,negative,positive,B,negative;positive
1736774043,431442933d0639ffb119045e7f950706,PennController,38,0,test_conc,NULL,PennController,49,_Trial_,End,1736773687095,undefined,565,garbage,concrete-negative,negative,positive,B,NULL
1736774043,431442933d0639ffb119045e7f950706,PennController,13,0,test_conc,NULL,PennController,24,_Trial_,Start,1736773687095,undefined,708,envy,abstract-negative,negative,positive,B,NULL
1736774043,431442933d0639ffb119045e7f950706,PennController,13,0,test_conc,NULL,PennController,24,_Header_,Start,1736773687095,undefined,708,envy,abstract-negative,negative,positive,B,NULL
1736774043,431442933d0639ffb119045e7f950706,PennController,13,0,test_conc,NULL,PennController,24,_Header_,End,1736773687345,undefined,708,envy,abstract-negative,negative,positive,B,NULL
1736774043,431442933d0639ffb119045e7f950706,PennController,13,0,test_conc,NULL,Selector,unnamed-Selector,Selection,negative,1736773688556,undefined,708,envy,abstract-negative,negative,positive,B,negative;positive
1736774043,431442933d0639ffb119045e7f950706,PennController,13,0,test_conc,NULL,PennController,24,_Trial_,End,1736773688556,undefined,708,envy,abstract-negative,negative,positive,B,NULL
1736774043,431442933d0639ffb119045e7f950706,PennController,28,0,test_conc,NULL,PennController,39,_Trial_,Start,1736773688557,undefined,448,freedom,abstract-positive,negative,positive,B,NULL
1736774043,431442933d0639ffb119045e7f950706,PennController,28,0,test_conc,NULL,PennController,39,_Header_,Start,1736773688557,undefined,448,freedom,abstract-positive,negative,positive,B,NULL
1736774043,431442933d0639ffb119045e7f950706,PennController,28,0,test_conc,NULL,PennController,39,_Header_,End,1736773688810,undefined,448,freedom,abstract-positive,negative,positive,B,NULL
1736774043,431442933d0639ffb119045e7f950706,PennController,28,0,test_conc,NULL,Selector,unnamed-Selector,Selection,positive,1736773689760,undefined,448,freedom,abstract-positive,negative,positive,B,negative;positive
1736774043,431442933d0639ffb119045e7f950706,PennController,28,0,test_conc,NULL,PennController,39,_Trial_,End,1736773689760,undefined,448,freedom,abstract-positive,negative,positive,B,NULL
1736774043,431442933d0639ffb119045e7f950706,PennController,43,0,test_conc,NULL,PennController,54,_Trial_,Start,1736773689760,undefined,668,filth,concrete-negative,negative,positive,B,NULL
1736774043,431442933d0639ffb119045e7f950706,PennController,43,0,test_conc,NULL,PennController,54,_Header_,Start,1736773689760,undefined,668,filth,concrete-negative,negative,positive,B,NULL
1736774043,431442933d0639ffb119045e7f950706,PennController,43,0,test_conc,NULL,PennController,54,_Header_,End,1736773690010,undefined,668,filth,concrete-negative,negative,positive,B,NULL
1736774043,431442933d0639ffb119045e7f950706,PennController,43,0,test_conc,NULL,Selector,unnamed-Selector,Selection,negative,1736773691179,undefined,668,filth,concrete-negative,negative,positive,B,negative;positive
1736774043,431442933d0639ffb119045e7f950706,PennController,43,0,test_conc,NULL,PennController,54,_Trial_,End,1736773691179,undefined,668,filth,concrete-negative,negative,positive,B,NULL
1736774043,431442933d0639ffb119045e7f950706,PennController,34,0,test_conc,NULL,PennController,45,_Trial_,Start,1736773691180,undefined,901,smoke,concrete-negative,negative,positive,B,NULL
1736774043,431442933d0639ffb119045e7f950706,PennController,34,0,test_conc,NULL,PennController,45,_Header_,Start,1736773691180,undefined,901,smoke,concrete-negative,negative,positive,B,NULL
1736774043,431442933d0639ffb119045e7f950706,PennController,34,0,test_conc,NULL,PennController,45,_Header_,End,1736773691430,undefined,901,smoke,concrete-negative,negative,positive,B,NULL
1736774043,431442933d0639ffb119045e7f950706,PennController,34,0,test_conc,NULL,Selector,unnamed-Selector,Selection,negative,1736773692834,undefined,901,smoke,concrete-negative,negative,positive,B,negative;positive
1736774043,431442933d0639ffb119045e7f950706,PennController,34,0,test_conc,NULL,PennController,45,_Trial_,End,1736773692834,undefined,901,smoke,concrete-negative,negative,positive,B,NULL
1736774043,431442933d0639ffb119045e7f950706,PennController,25,0,test_conc,NULL,PennController,36,_Trial_,Start,1736773692835,undefined,755,hope,abstract-positive,negative,positive,B,NULL
1736774043,431442933d0639ffb119045e7f950706,PennController,25,0,test_conc,NULL,PennController,36,_Header_,Start,1736773692835,undefined,755,hope,abstract-positive,negative,positive,B,NULL
1736774043,431442933d0639ffb119045e7f950706,PennController,25,0,test_conc,NULL,PennController,36,_Header_,End,1736773693088,undefined,755,hope,abstract-positive,negative,positive,B,NULL
1736774043,431442933d0639ffb119045e7f950706,PennController,25,0,test_conc,NULL,Selector,unnamed-Selector,Selection,positive,1736773694348,undefined,755,hope,abstract-positive,negative,positive,B,negative;positive
1736774043,431442933d0639ffb119045e7f950706,PennController,25,0,test_conc,NULL,PennController,36,_Trial_,End,1736773694349,undefined,755,hope,abstract-positive,negative,positive,B,NULL
1736774043,431442933d0639ffb119045e7f950706,PennController,32,0,test_conc,NULL,PennController,43,_Trial_,Start,1736773694349,undefined,739,gratitude,abstract-positive,negative,positive,B,NULL
1736774043,431442933d0639ffb119045e7f950706,PennController,32,0,test_conc,NULL,PennController,43,_Header_,Start,1736773694349,undefined,739,gratitude,abstract-positive,negative,positive,B,NULL
1736774043,431442933d0639ffb119045e7f950706,PennController,32,0,test_conc,NULL,PennController,43,_Header_,End,1736773694600,undefined,739,gratitude,abstract-positive,negative,positive,B,NULL
1736774043,431442933d0639ffb119045e7f950706,PennController,32,0,test_conc,NULL,Selector,unnamed-Selector,Selection,positive,1736773695843,undefined,739,gratitude,abstract-positive,negative,positive,B,negative;positive
1736774043,431442933d0639ffb119045e7f950706,PennController,32,0,test_conc,NULL,PennController,43,_Trial_,End,1736773695844,undefined,739,gratitude,abstract-positive,negative,positive,B,NULL
1736774043,431442933d0639ffb119045e7f950706,PennController,16,0,test_conc,NULL,PennController,27,_Trial_,Start,1736773695844,undefined,659,flowers,concrete-positive,negative,positive,B,NULL
1736774043,431442933d0639ffb119045e7f950706,PennController,16,0,test_conc,NULL,PennController,27,_Header_,Start,1736773695844,undefined,659,flowers,concrete-positive,negative,positive,B,NULL
1736774043,431442933d0639ffb119045e7f950706,PennController,16,0,test_conc,NULL,PennController,27,_Header_,End,1736773696095,undefined,659,flowers,concrete-positive,negative,positive,B,NULL
1736774043,431442933d0639ffb119045e7f950706,PennController,16,0,test_conc,NULL,Selector,unnamed-Selector,Selection,positive,1736773697254,undefined,659,flowers,concrete-positive,negative,positive,B,negative;positive
1736774043,431442933d0639ffb119045e7f950706,PennController,16,0,test_conc,NULL,PennController,27,_Trial_,End,1736773697255,undefined,659,flowers,concrete-positive,negative,positive,B,NULL
