#
# Results on Wed, 15 Jan 2025 13:31:05 GMT
# USER AGENT: Mozilla/5.0 (Macintosh; Intel Mac OS X 10_15_7) AppleWebKit/537.36 (KHTML, like Gecko) Chrome/131.0.0.0 Safari/537.36
# Design number was non-random = 0
#
# Columns below this comment are as follows:
# 1. Results reception time.
# 2. MD5 hash of participant's IP address.
# 3. Controller name.
# 4. Order number of item.
# 5. Inner element number.
# 6. Label.
# 7. Latin Square Group.
# 8. PennElementType.
# 9. PennElementName.
# 10. Parameter.
# 11. Value.
# 12. EventTime.
# 13. Comments.
1736947865,d4a2c746db75f9917924c6ab7f6c9f88,PennController,1,0,welcome,NULL,PennController,0,_Trial_,Start,1736947301673,NULL
1736947865,d4a2c746db75f9917924c6ab7f6c9f88,PennController,1,0,welcome,NULL,PennController,0,_Header_,Start,1736947301673,NULL
1736947865,d4a2c746db75f9917924c6ab7f6c9f88,PennController,1,0,welcome,NULL,PennController,0,_Header_,End,1736947301923,NULL
1736947865,d4a2c746db75f9917924c6ab7f6c9f88,PennController,1,0,welcome,NULL,PennController,0,_Trial_,End,1736947303293,NULL
# 13. ID.
# 14. Comments.
1736947865,d4a2c746db75f9917924c6ab7f6c9f88,PennController,124,0,consent,NULL,PennController,2,_Trial_,Start,1736947303294,5a1b51e59b760100013a85d3,NULL
1736947865,d4a2c746db75f9917924c6ab7f6c9f88,PennController,124,0,consent,NULL,PennController,2,_Header_,Start,1736947303294,5a1b51e59b760100013a85d3,NULL
1736947865,d4a2c746db75f9917924c6ab7f6c9f88,PennController,124,0,consent,NULL,PennController,2,_Header_,End,1736947303544,5a1b51e59b760100013a85d3,NULL
1736947865,d4a2c746db75f9917924c6ab7f6c9f88,PennController,124,0,consent,NULL,TextInput,ID,Final,5a1b51e59b760100013a85d3,1736947315994,5a1b51e59b760100013a85d3,NULL
1736947865,d4a2c746db75f9917924c6ab7f6c9f88,PennController,124,0,consent,NULL,PennController,2,_Trial_,End,1736947315994,5a1b51e59b760100013a85d3,NULL
# 13. Comments.
1736947865,d4a2c746db75f9917924c6ab7f6c9f88,PennController,126,0,instructions1_val,NULL,PennController,4,_Trial_,Start,1736947315995,NULL
1736947865,d4a2c746db75f9917924c6ab7f6c9f88,PennController,126,0,instructions1_val,NULL,PennController,4,_Header_,Start,1736947315995,NULL
1736947865,d4a2c746db75f9917924c6ab7f6c9f88,PennController,126,0,instructions1_val,NULL,PennController,4,_Header_,End,1736947316245,NULL
1736947865,d4a2c746db75f9917924c6ab7f6c9f88,PennController,126,0,instructions1_val,NULL,PennController,4,_Trial_,End,1736947381597,NULL
1736947865,d4a2c746db75f9917924c6ab7f6c9f88,PennController,127,0,instructions2_val,NULL,PennController,5,_Trial_,Start,1736947381597,NULL
1736947865,d4a2c746db75f9917924c6ab7f6c9f88,PennController,127,0,instructions2_val,NULL,PennController,5,_Header_,Start,1736947381597,NULL
1736947865,d4a2c746db75f9917924c6ab7f6c9f88,PennController,127,0,instructions2_val,NULL,PennController,5,_Header_,End,1736947381849,NULL
1736947865,d4a2c746db75f9917924c6ab7f6c9f88,PennController,127,0,instructions2_val,NULL,PennController,5,_Trial_,End,1736947387397,NULL
1736947865,d4a2c746db75f9917924c6ab7f6c9f88,PennController,128,0,instructions3_hands,NULL,PennController,6,_Trial_,Start,1736947387397,NULL
1736947865,d4a2c746db75f9917924c6ab7f6c9f88,PennController,128,0,instructions3_hands,NULL,PennController,6,_Header_,Start,1736947387397,NULL
1736947865,d4a2c746db75f9917924c6ab7f6c9f88,PennController,128,0,instructions3_hands,NULL,PennController,6,_Header_,End,1736947387648,NULL
1736947865,d4a2c746db75f9917924c6ab7f6c9f88,PennController,128,0,instructions3_hands,NULL,PennController,6,_Trial_,End,1736947394853,NULL
1736947865,d4a2c746db75f9917924c6ab7f6c9f88,PennController,129,0,practice_intro_val,NULL,PennController,7,_Trial_,Start,1736947394854,NULL
1736947865,d4a2c746db75f9917924c6ab7f6c9f88,PennController,129,0,practice_intro_val,NULL,PennController,7,_Header_,Start,1736947394854,NULL
1736947865,d4a2c746db75f9917924c6ab7f6c9f88,PennController,129,0,practice_intro_val,NULL,PennController,7,_Header_,End,1736947395104,NULL
1736947865,d4a2c746db75f9917924c6ab7f6c9f88,PennController,129,0,practice_intro_val,NULL,PennController,7,_Trial_,End,1736947396518,NULL
# 13. ID.
# 14. ReactionTime.
# 15. Word.
# 16. selectedKey.
# 17. selectedValue.
# 18. Key_value_F.
# 19. Key_value_J.
# 20. Group.
# 21. Comments.
1736947865,d4a2c746db75f9917924c6ab7f6c9f88,PennController,107,0,calibrator_val_feedback,NULL,PennController,118,_Trial_,Start,1736947396519,undefined,2238,icebox,undefined,positive,negative,positive,A,NULL
1736947865,d4a2c746db75f9917924c6ab7f6c9f88,PennController,107,0,calibrator_val_feedback,NULL,PennController,118,_Header_,Start,1736947396519,undefined,2238,icebox,undefined,positive,negative,positive,A,NULL
1736947865,d4a2c746db75f9917924c6ab7f6c9f88,PennController,107,0,calibrator_val_feedback,NULL,PennController,118,_Header_,End,1736947396769,undefined,2238,icebox,undefined,positive,negative,positive,A,NULL
1736947865,d4a2c746db75f9917924c6ab7f6c9f88,PennController,107,0,calibrator_val_feedback,NULL,Selector,Selection,Selection,positive,1736947399508,undefined,2238,icebox,undefined,positive,negative,positive,A,negative;positive
1736947865,d4a2c746db75f9917924c6ab7f6c9f88,PennController,107,0,calibrator_val_feedback,NULL,PennController,118,_Trial_,End,1736947401510,undefined,2238,icebox,undefined,positive,negative,positive,A,NULL
1736947865,d4a2c746db75f9917924c6ab7f6c9f88,PennController,113,0,calibrator_val_feedback,NULL,PennController,124,_Trial_,Start,1736947401511,undefined,781,kitten,undefined,positive,negative,positive,A,NULL
1736947865,d4a2c746db75f9917924c6ab7f6c9f88,PennController,113,0,calibrator_val_feedback,NULL,PennController,124,_Header_,Start,1736947401511,undefined,781,kitten,undefined,positive,negative,positive,A,NULL
1736947865,d4a2c746db75f9917924c6ab7f6c9f88,PennController,113,0,calibrator_val_feedback,NULL,PennController,124,_Header_,End,1736947401761,undefined,781,kitten,undefined,positive,negative,positive,A,NULL
1736947865,d4a2c746db75f9917924c6ab7f6c9f88,PennController,113,0,calibrator_val_feedback,NULL,Selector,Selection,Selection,positive,1736947403043,undefined,781,kitten,undefined,positive,negative,positive,A,negative;positive
1736947865,d4a2c746db75f9917924c6ab7f6c9f88,PennController,113,0,calibrator_val_feedback,NULL,PennController,124,_Trial_,End,1736947405046,undefined,781,kitten,undefined,positive,negative,positive,A,NULL
1736947865,d4a2c746db75f9917924c6ab7f6c9f88,PennController,108,0,calibrator_val_feedback,NULL,PennController,119,_Trial_,Start,1736947405046,undefined,957,industry,undefined,positive,negative,positive,A,NULL
1736947865,d4a2c746db75f9917924c6ab7f6c9f88,PennController,108,0,calibrator_val_feedback,NULL,PennController,119,_Header_,Start,1736947405046,undefined,957,industry,undefined,positive,negative,positive,A,NULL
1736947865,d4a2c746db75f9917924c6ab7f6c9f88,PennController,108,0,calibrator_val_feedback,NULL,PennController,119,_Header_,End,1736947405297,undefined,957,industry,undefined,positive,negative,positive,A,NULL
1736947865,d4a2c746db75f9917924c6ab7f6c9f88,PennController,108,0,calibrator_val_feedback,NULL,Selector,Selection,Selection,negative,1736947406753,undefined,957,industry,undefined,positive,negative,positive,A,negative;positive
1736947865,d4a2c746db75f9917924c6ab7f6c9f88,PennController,108,0,calibrator_val_feedback,NULL,PennController,119,_Trial_,End,1736947408755,undefined,957,industry,undefined,positive,negative,positive,A,NULL
1736947865,d4a2c746db75f9917924c6ab7f6c9f88,PennController,109,0,calibrator_val_feedback,NULL,PennController,120,_Trial_,Start,1736947408756,undefined,726,insecure,undefined,positive,negative,positive,A,NULL
1736947865,d4a2c746db75f9917924c6ab7f6c9f88,PennController,109,0,calibrator_val_feedback,NULL,PennController,120,_Header_,Start,1736947408756,undefined,726,insecure,undefined,positive,negative,positive,A,NULL
1736947865,d4a2c746db75f9917924c6ab7f6c9f88,PennController,109,0,calibrator_val_feedback,NULL,PennController,120,_Header_,End,1736947409010,undefined,726,insecure,undefined,positive,negative,positive,A,NULL
1736947865,d4a2c746db75f9917924c6ab7f6c9f88,PennController,109,0,calibrator_val_feedback,NULL,Selector,Selection,Selection,negative,1736947410240,undefined,726,insecure,undefined,positive,negative,positive,A,negative;positive
1736947865,d4a2c746db75f9917924c6ab7f6c9f88,PennController,109,0,calibrator_val_feedback,NULL,PennController,120,_Trial_,End,1736947412244,undefined,726,insecure,undefined,positive,negative,positive,A,NULL
1736947865,d4a2c746db75f9917924c6ab7f6c9f88,PennController,104,0,calibrator_val_feedback,NULL,PennController,115,_Trial_,Start,1736947412245,undefined,883,free,undefined,positive,negative,positive,A,NULL
1736947865,d4a2c746db75f9917924c6ab7f6c9f88,PennController,104,0,calibrator_val_feedback,NULL,PennController,115,_Header_,Start,1736947412245,undefined,883,free,undefined,positive,negative,positive,A,NULL
1736947865,d4a2c746db75f9917924c6ab7f6c9f88,PennController,104,0,calibrator_val_feedback,NULL,PennController,115,_Header_,End,1736947412498,undefined,883,free,undefined,positive,negative,positive,A,NULL
1736947865,d4a2c746db75f9917924c6ab7f6c9f88,PennController,104,0,calibrator_val_feedback,NULL,Selector,Selection,Selection,positive,1736947413885,undefined,883,free,undefined,positive,negative,positive,A,negative;positive
1736947865,d4a2c746db75f9917924c6ab7f6c9f88,PennController,104,0,calibrator_val_feedback,NULL,PennController,115,_Trial_,End,1736947415889,undefined,883,free,undefined,positive,negative,positive,A,NULL
1736947865,d4a2c746db75f9917924c6ab7f6c9f88,PennController,106,0,calibrator_val_feedback,NULL,PennController,117,_Trial_,Start,1736947415890,undefined,1044,hat,undefined,positive,negative,positive,A,NULL
1736947865,d4a2c746db75f9917924c6ab7f6c9f88,PennController,106,0,calibrator_val_feedback,NULL,PennController,117,_Header_,Start,1736947415890,undefined,1044,hat,undefined,positive,negative,positive,A,NULL
1736947865,d4a2c746db75f9917924c6ab7f6c9f88,PennController,106,0,calibrator_val_feedback,NULL,PennController,117,_Header_,End,1736947416144,undefined,1044,hat,undefined,positive,negative,positive,A,NULL
1736947865,d4a2c746db75f9917924c6ab7f6c9f88,PennController,106,0,calibrator_val_feedback,NULL,Selector,Selection,Selection,positive,1736947417688,undefined,1044,hat,undefined,positive,negative,positive,A,negative;positive
1736947865,d4a2c746db75f9917924c6ab7f6c9f88,PennController,106,0,calibrator_val_feedback,NULL,PennController,117,_Trial_,End,1736947419689,undefined,1044,hat,undefined,positive,negative,positive,A,NULL
1736947865,d4a2c746db75f9917924c6ab7f6c9f88,PennController,112,0,calibrator_val_feedback,NULL,PennController,123,_Trial_,Start,1736947419689,undefined,890,joke,undefined,positive,negative,positive,A,NULL
1736947865,d4a2c746db75f9917924c6ab7f6c9f88,PennController,112,0,calibrator_val_feedback,NULL,PennController,123,_Header_,Start,1736947419689,undefined,890,joke,undefined,positive,negative,positive,A,NULL
1736947865,d4a2c746db75f9917924c6ab7f6c9f88,PennController,112,0,calibrator_val_feedback,NULL,PennController,123,_Header_,End,1736947419942,undefined,890,joke,undefined,positive,negative,positive,A,NULL
1736947865,d4a2c746db75f9917924c6ab7f6c9f88,PennController,112,0,calibrator_val_feedback,NULL,Selector,Selection,Selection,negative,1736947421335,undefined,890,joke,undefined,positive,negative,positive,A,negative;positive
1736947865,d4a2c746db75f9917924c6ab7f6c9f88,PennController,112,0,calibrator_val_feedback,NULL,PennController,123,_Trial_,End,1736947423337,undefined,890,joke,undefined,positive,negative,positive,A,NULL
1736947865,d4a2c746db75f9917924c6ab7f6c9f88,PennController,110,0,calibrator_val_feedback,NULL,PennController,121,_Trial_,Start,1736947423337,undefined,1021,invader,undefined,positive,negative,positive,A,NULL
1736947865,d4a2c746db75f9917924c6ab7f6c9f88,PennController,110,0,calibrator_val_feedback,NULL,PennController,121,_Header_,Start,1736947423337,undefined,1021,invader,undefined,positive,negative,positive,A,NULL
1736947865,d4a2c746db75f9917924c6ab7f6c9f88,PennController,110,0,calibrator_val_feedback,NULL,PennController,121,_Header_,End,1736947423587,undefined,1021,invader,undefined,positive,negative,positive,A,NULL
1736947865,d4a2c746db75f9917924c6ab7f6c9f88,PennController,110,0,calibrator_val_feedback,NULL,Selector,Selection,Selection,negative,1736947425112,undefined,1021,invader,undefined,positive,negative,positive,A,negative;positive
1736947865,d4a2c746db75f9917924c6ab7f6c9f88,PennController,110,0,calibrator_val_feedback,NULL,PennController,121,_Trial_,End,1736947427114,undefined,1021,invader,undefined,positive,negative,positive,A,NULL
1736947865,d4a2c746db75f9917924c6ab7f6c9f88,PennController,111,0,calibrator_val_feedback,NULL,PennController,122,_Trial_,Start,1736947427115,undefined,910,jail,undefined,positive,negative,positive,A,NULL
1736947865,d4a2c746db75f9917924c6ab7f6c9f88,PennController,111,0,calibrator_val_feedback,NULL,PennController,122,_Header_,Start,1736947427115,undefined,910,jail,undefined,positive,negative,positive,A,NULL
1736947865,d4a2c746db75f9917924c6ab7f6c9f88,PennController,111,0,calibrator_val_feedback,NULL,PennController,122,_Header_,End,1736947427369,undefined,910,jail,undefined,positive,negative,positive,A,NULL
1736947865,d4a2c746db75f9917924c6ab7f6c9f88,PennController,111,0,calibrator_val_feedback,NULL,Selector,Selection,Selection,negative,1736947428783,undefined,910,jail,undefined,positive,negative,positive,A,negative;positive
1736947865,d4a2c746db75f9917924c6ab7f6c9f88,PennController,111,0,calibrator_val_feedback,NULL,PennController,122,_Trial_,End,1736947430786,undefined,910,jail,undefined,positive,negative,positive,A,NULL
1736947865,d4a2c746db75f9917924c6ab7f6c9f88,PennController,105,0,calibrator_val_feedback,NULL,PennController,116,_Trial_,Start,1736947430786,undefined,691,grin,undefined,positive,negative,positive,A,NULL
1736947865,d4a2c746db75f9917924c6ab7f6c9f88,PennController,105,0,calibrator_val_feedback,NULL,PennController,116,_Header_,Start,1736947430786,undefined,691,grin,undefined,positive,negative,positive,A,NULL
1736947865,d4a2c746db75f9917924c6ab7f6c9f88,PennController,105,0,calibrator_val_feedback,NULL,PennController,116,_Header_,End,1736947431036,undefined,691,grin,undefined,positive,negative,positive,A,NULL
1736947865,d4a2c746db75f9917924c6ab7f6c9f88,PennController,105,0,calibrator_val_feedback,NULL,Selector,Selection,Selection,positive,1736947432231,undefined,691,grin,undefined,positive,negative,positive,A,negative;positive
1736947865,d4a2c746db75f9917924c6ab7f6c9f88,PennController,105,0,calibrator_val_feedback,NULL,PennController,116,_Trial_,End,1736947434235,undefined,691,grin,undefined,positive,negative,positive,A,NULL
# 16. Key_value_F.
# 17. Key_value_J.
# 18. Group.
# 19. Comments.
1736947865,d4a2c746db75f9917924c6ab7f6c9f88,PennController,115,0,calibrator_val_no_feedback,NULL,PennController,126,_Trial_,Start,1736947434236,undefined,790,grin,negative,positive,A,NULL
1736947865,d4a2c746db75f9917924c6ab7f6c9f88,PennController,115,0,calibrator_val_no_feedback,NULL,PennController,126,_Header_,Start,1736947434236,undefined,790,grin,negative,positive,A,NULL
1736947865,d4a2c746db75f9917924c6ab7f6c9f88,PennController,115,0,calibrator_val_no_feedback,NULL,PennController,126,_Header_,End,1736947434490,undefined,790,grin,negative,positive,A,NULL
1736947865,d4a2c746db75f9917924c6ab7f6c9f88,PennController,115,0,calibrator_val_no_feedback,NULL,Selector,unnamed-Selector,Selection,positive,1736947435781,undefined,790,grin,negative,positive,A,negative;positive
1736947865,d4a2c746db75f9917924c6ab7f6c9f88,PennController,115,0,calibrator_val_no_feedback,NULL,PennController,126,_Trial_,End,1736947435781,undefined,790,grin,negative,positive,A,NULL
1736947865,d4a2c746db75f9917924c6ab7f6c9f88,PennController,114,0,calibrator_val_no_feedback,NULL,PennController,125,_Trial_,Start,1736947435782,undefined,862,free,negative,positive,A,NULL
1736947865,d4a2c746db75f9917924c6ab7f6c9f88,PennController,114,0,calibrator_val_no_feedback,NULL,PennController,125,_Header_,Start,1736947435782,undefined,862,free,negative,positive,A,NULL
1736947865,d4a2c746db75f9917924c6ab7f6c9f88,PennController,114,0,calibrator_val_no_feedback,NULL,PennController,125,_Header_,End,1736947436032,undefined,862,free,negative,positive,A,NULL
1736947865,d4a2c746db75f9917924c6ab7f6c9f88,PennController,114,0,calibrator_val_no_feedback,NULL,Selector,unnamed-Selector,Selection,positive,1736947437398,undefined,862,free,negative,positive,A,negative;positive
1736947865,d4a2c746db75f9917924c6ab7f6c9f88,PennController,114,0,calibrator_val_no_feedback,NULL,PennController,125,_Trial_,End,1736947437399,undefined,862,free,negative,positive,A,NULL
1736947865,d4a2c746db75f9917924c6ab7f6c9f88,PennController,120,0,calibrator_val_no_feedback,NULL,PennController,131,_Trial_,Start,1736947437399,undefined,844,invader,negative,positive,A,NULL
1736947865,d4a2c746db75f9917924c6ab7f6c9f88,PennController,120,0,calibrator_val_no_feedback,NULL,PennController,131,_Header_,Start,1736947437399,undefined,844,invader,negative,positive,A,NULL
1736947865,d4a2c746db75f9917924c6ab7f6c9f88,PennController,120,0,calibrator_val_no_feedback,NULL,PennController,131,_Header_,End,1736947437650,undefined,844,invader,negative,positive,A,NULL
1736947865,d4a2c746db75f9917924c6ab7f6c9f88,PennController,120,0,calibrator_val_no_feedback,NULL,Selector,unnamed-Selector,Selection,negative,1736947438998,undefined,844,invader,negative,positive,A,negative;positive
1736947865,d4a2c746db75f9917924c6ab7f6c9f88,PennController,120,0,calibrator_val_no_feedback,NULL,PennController,131,_Trial_,End,1736947438998,undefined,844,invader,negative,positive,A,NULL
1736947865,d4a2c746db75f9917924c6ab7f6c9f88,PennController,122,0,calibrator_val_no_feedback,NULL,PennController,133,_Trial_,Start,1736947438999,undefined,661,joke,negative,positive,A,NULL
1736947865,d4a2c746db75f9917924c6ab7f6c9f88,PennController,122,0,calibrator_val_no_feedback,NULL,PennController,133,_Header_,Start,1736947438999,undefined,661,joke,negative,positive,A,NULL
1736947865,d4a2c746db75f9917924c6ab7f6c9f88,PennController,122,0,calibrator_val_no_feedback,NULL,PennController,133,_Header_,End,1736947439250,undefined,661,joke,negative,positive,A,NULL
1736947865,d4a2c746db75f9917924c6ab7f6c9f88,PennController,122,0,calibrator_val_no_feedback,NULL,Selector,unnamed-Selector,Selection,positive,1736947440414,undefined,661,joke,negative,positive,A,negative;positive
1736947865,d4a2c746db75f9917924c6ab7f6c9f88,PennController,122,0,calibrator_val_no_feedback,NULL,PennController,133,_Trial_,End,1736947440414,undefined,661,joke,negative,positive,A,NULL
1736947865,d4a2c746db75f9917924c6ab7f6c9f88,PennController,118,0,calibrator_val_no_feedback,NULL,PennController,129,_Trial_,Start,1736947440415,undefined,818,industry,negative,positive,A,NULL
1736947865,d4a2c746db75f9917924c6ab7f6c9f88,PennController,118,0,calibrator_val_no_feedback,NULL,PennController,129,_Header_,Start,1736947440415,undefined,818,industry,negative,positive,A,NULL
1736947865,d4a2c746db75f9917924c6ab7f6c9f88,PennController,118,0,calibrator_val_no_feedback,NULL,PennController,129,_Header_,End,1736947440666,undefined,818,industry,negative,positive,A,NULL
1736947865,d4a2c746db75f9917924c6ab7f6c9f88,PennController,118,0,calibrator_val_no_feedback,NULL,Selector,unnamed-Selector,Selection,negative,1736947441988,undefined,818,industry,negative,positive,A,negative;positive
1736947865,d4a2c746db75f9917924c6ab7f6c9f88,PennController,118,0,calibrator_val_no_feedback,NULL,PennController,129,_Trial_,End,1736947441989,undefined,818,industry,negative,positive,A,NULL
1736947865,d4a2c746db75f9917924c6ab7f6c9f88,PennController,116,0,calibrator_val_no_feedback,NULL,PennController,127,_Trial_,Start,1736947441989,undefined,976,hat,negative,positive,A,NULL
1736947865,d4a2c746db75f9917924c6ab7f6c9f88,PennController,116,0,calibrator_val_no_feedback,NULL,PennController,127,_Header_,Start,1736947441989,undefined,976,hat,negative,positive,A,NULL
1736947865,d4a2c746db75f9917924c6ab7f6c9f88,PennController,116,0,calibrator_val_no_feedback,NULL,PennController,127,_Header_,End,1736947442239,undefined,976,hat,negative,positive,A,NULL
1736947865,d4a2c746db75f9917924c6ab7f6c9f88,PennController,116,0,calibrator_val_no_feedback,NULL,Selector,unnamed-Selector,Selection,positive,1736947443719,undefined,976,hat,negative,positive,A,negative;positive
1736947865,d4a2c746db75f9917924c6ab7f6c9f88,PennController,116,0,calibrator_val_no_feedback,NULL,PennController,127,_Trial_,End,1736947443719,undefined,976,hat,negative,positive,A,NULL
1736947865,d4a2c746db75f9917924c6ab7f6c9f88,PennController,119,0,calibrator_val_no_feedback,NULL,PennController,130,_Trial_,Start,1736947443720,undefined,780,insecure,negative,positive,A,NULL
1736947865,d4a2c746db75f9917924c6ab7f6c9f88,PennController,119,0,calibrator_val_no_feedback,NULL,PennController,130,_Header_,Start,1736947443720,undefined,780,insecure,negative,positive,A,NULL
1736947865,d4a2c746db75f9917924c6ab7f6c9f88,PennController,119,0,calibrator_val_no_feedback,NULL,PennController,130,_Header_,End,1736947443970,undefined,780,insecure,negative,positive,A,NULL
1736947865,d4a2c746db75f9917924c6ab7f6c9f88,PennController,119,0,calibrator_val_no_feedback,NULL,Selector,unnamed-Selector,Selection,negative,1736947445251,undefined,780,insecure,negative,positive,A,negative;positive
1736947865,d4a2c746db75f9917924c6ab7f6c9f88,PennController,119,0,calibrator_val_no_feedback,NULL,PennController,130,_Trial_,End,1736947445251,undefined,780,insecure,negative,positive,A,NULL
1736947865,d4a2c746db75f9917924c6ab7f6c9f88,PennController,121,0,calibrator_val_no_feedback,NULL,PennController,132,_Trial_,Start,1736947445252,undefined,774,jail,negative,positive,A,NULL
1736947865,d4a2c746db75f9917924c6ab7f6c9f88,PennController,121,0,calibrator_val_no_feedback,NULL,PennController,132,_Header_,Start,1736947445252,undefined,774,jail,negative,positive,A,NULL
1736947865,d4a2c746db75f9917924c6ab7f6c9f88,PennController,121,0,calibrator_val_no_feedback,NULL,PennController,132,_Header_,End,1736947445506,undefined,774,jail,negative,positive,A,NULL
1736947865,d4a2c746db75f9917924c6ab7f6c9f88,PennController,121,0,calibrator_val_no_feedback,NULL,Selector,unnamed-Selector,Selection,negative,1736947446780,undefined,774,jail,negative,positive,A,negative;positive
1736947865,d4a2c746db75f9917924c6ab7f6c9f88,PennController,121,0,calibrator_val_no_feedback,NULL,PennController,132,_Trial_,End,1736947446781,undefined,774,jail,negative,positive,A,NULL
1736947865,d4a2c746db75f9917924c6ab7f6c9f88,PennController,117,0,calibrator_val_no_feedback,NULL,PennController,128,_Trial_,Start,1736947446781,undefined,797,icebox,negative,positive,A,NULL
1736947865,d4a2c746db75f9917924c6ab7f6c9f88,PennController,117,0,calibrator_val_no_feedback,NULL,PennController,128,_Header_,Start,1736947446781,undefined,797,icebox,negative,positive,A,NULL
1736947865,d4a2c746db75f9917924c6ab7f6c9f88,PennController,117,0,calibrator_val_no_feedback,NULL,PennController,128,_Header_,End,1736947447032,undefined,797,icebox,negative,positive,A,NULL
1736947865,d4a2c746db75f9917924c6ab7f6c9f88,PennController,117,0,calibrator_val_no_feedback,NULL,Selector,unnamed-Selector,Selection,positive,1736947448333,undefined,797,icebox,negative,positive,A,negative;positive
1736947865,d4a2c746db75f9917924c6ab7f6c9f88,PennController,117,0,calibrator_val_no_feedback,NULL,PennController,128,_Trial_,End,1736947448333,undefined,797,icebox,negative,positive,A,NULL
1736947865,d4a2c746db75f9917924c6ab7f6c9f88,PennController,123,0,calibrator_val_no_feedback,NULL,PennController,134,_Trial_,Start,1736947448333,undefined,734,kitten,negative,positive,A,NULL
1736947865,d4a2c746db75f9917924c6ab7f6c9f88,PennController,123,0,calibrator_val_no_feedback,NULL,PennController,134,_Header_,Start,1736947448333,undefined,734,kitten,negative,positive,A,NULL
1736947865,d4a2c746db75f9917924c6ab7f6c9f88,PennController,123,0,calibrator_val_no_feedback,NULL,PennController,134,_Header_,End,1736947448585,undefined,734,kitten,negative,positive,A,NULL
1736947865,d4a2c746db75f9917924c6ab7f6c9f88,PennController,123,0,calibrator_val_no_feedback,NULL,Selector,unnamed-Selector,Selection,positive,1736947449820,undefined,734,kitten,negative,positive,A,negative;positive
1736947865,d4a2c746db75f9917924c6ab7f6c9f88,PennController,123,0,calibrator_val_no_feedback,NULL,PennController,134,_Trial_,End,1736947449820,undefined,734,kitten,negative,positive,A,NULL
# 13. Comments.
1736947865,d4a2c746db75f9917924c6ab7f6c9f88,PennController,130,0,endinstructions_val,NULL,PennController,8,_Trial_,Start,1736947449821,NULL
1736947865,d4a2c746db75f9917924c6ab7f6c9f88,PennController,130,0,endinstructions_val,NULL,PennController,8,_Header_,Start,1736947449821,NULL
1736947865,d4a2c746db75f9917924c6ab7f6c9f88,PennController,130,0,endinstructions_val,NULL,PennController,8,_Header_,End,1736947450072,NULL
1736947865,d4a2c746db75f9917924c6ab7f6c9f88,PennController,130,0,endinstructions_val,NULL,PennController,8,_Trial_,End,1736947455689,NULL
# 13. ID.
# 14. ReactionTime.
# 15. Word.
# 16. ConcValCombo.
# 17. Key_value_F.
# 18. Key_value_J.
# 19. Group.
# 20. Comments.
1736947865,d4a2c746db75f9917924c6ab7f6c9f88,PennController,44,0,test_val,NULL,PennController,55,_Trial_,Start,1736947455690,undefined,1046,lonliness,abstract-negative,negative,positive,B,NULL
1736947865,d4a2c746db75f9917924c6ab7f6c9f88,PennController,44,0,test_val,NULL,PennController,55,_Header_,Start,1736947455690,undefined,1046,lonliness,abstract-negative,negative,positive,B,NULL
1736947865,d4a2c746db75f9917924c6ab7f6c9f88,PennController,44,0,test_val,NULL,PennController,55,_Header_,End,1736947455941,undefined,1046,lonliness,abstract-negative,negative,positive,B,NULL
1736947865,d4a2c746db75f9917924c6ab7f6c9f88,PennController,44,0,test_val,NULL,Selector,unnamed-Selector,Selection,negative,1736947457489,undefined,1046,lonliness,abstract-negative,negative,positive,B,negative;positive
1736947865,d4a2c746db75f9917924c6ab7f6c9f88,PennController,44,0,test_val,NULL,PennController,55,_Trial_,End,1736947457489,undefined,1046,lonliness,abstract-negative,negative,positive,B,NULL
1736947865,d4a2c746db75f9917924c6ab7f6c9f88,PennController,65,0,test_val,NULL,PennController,76,_Trial_,Start,1736947457490,undefined,643,hope,abstract-positive,negative,positive,B,NULL
1736947865,d4a2c746db75f9917924c6ab7f6c9f88,PennController,65,0,test_val,NULL,PennController,76,_Header_,Start,1736947457490,undefined,643,hope,abstract-positive,negative,positive,B,NULL
1736947865,d4a2c746db75f9917924c6ab7f6c9f88,PennController,65,0,test_val,NULL,PennController,76,_Header_,End,1736947457741,undefined,643,hope,abstract-positive,negative,positive,B,NULL
1736947865,d4a2c746db75f9917924c6ab7f6c9f88,PennController,65,0,test_val,NULL,Selector,unnamed-Selector,Selection,positive,1736947458884,undefined,643,hope,abstract-positive,negative,positive,B,negative;positive
1736947865,d4a2c746db75f9917924c6ab7f6c9f88,PennController,65,0,test_val,NULL,PennController,76,_Trial_,End,1736947458885,undefined,643,hope,abstract-positive,negative,positive,B,NULL
1736947865,d4a2c746db75f9917924c6ab7f6c9f88,PennController,80,0,test_val,NULL,PennController,91,_Trial_,Start,1736947458885,undefined,666,mold,concrete-negative,negative,positive,B,NULL
1736947865,d4a2c746db75f9917924c6ab7f6c9f88,PennController,80,0,test_val,NULL,PennController,91,_Header_,Start,1736947458885,undefined,666,mold,concrete-negative,negative,positive,B,NULL
1736947865,d4a2c746db75f9917924c6ab7f6c9f88,PennController,80,0,test_val,NULL,PennController,91,_Header_,End,1736947459135,undefined,666,mold,concrete-negative,negative,positive,B,NULL
1736947865,d4a2c746db75f9917924c6ab7f6c9f88,PennController,80,0,test_val,NULL,Selector,unnamed-Selector,Selection,negative,1736947460302,undefined,666,mold,concrete-negative,negative,positive,B,negative;positive
1736947865,d4a2c746db75f9917924c6ab7f6c9f88,PennController,80,0,test_val,NULL,PennController,91,_Trial_,End,1736947460302,undefined,666,mold,concrete-negative,negative,positive,B,NULL
1736947865,d4a2c746db75f9917924c6ab7f6c9f88,PennController,51,0,test_val,NULL,PennController,62,_Trial_,Start,1736947460303,undefined,668,failure,abstract-negative,negative,positive,B,NULL
1736947865,d4a2c746db75f9917924c6ab7f6c9f88,PennController,51,0,test_val,NULL,PennController,62,_Header_,Start,1736947460303,undefined,668,failure,abstract-negative,negative,positive,B,NULL
1736947865,d4a2c746db75f9917924c6ab7f6c9f88,PennController,51,0,test_val,NULL,PennController,62,_Header_,End,1736947460553,undefined,668,failure,abstract-negative,negative,positive,B,NULL
1736947865,d4a2c746db75f9917924c6ab7f6c9f88,PennController,51,0,test_val,NULL,Selector,unnamed-Selector,Selection,negative,1736947461721,undefined,668,failure,abstract-negative,negative,positive,B,negative;positive
1736947865,d4a2c746db75f9917924c6ab7f6c9f88,PennController,51,0,test_val,NULL,PennController,62,_Trial_,End,1736947461721,undefined,668,failure,abstract-negative,negative,positive,B,NULL
1736947865,d4a2c746db75f9917924c6ab7f6c9f88,PennController,71,0,test_val,NULL,PennController,82,_Trial_,Start,1736947461722,undefined,707,compassion,abstract-positive,negative,positive,B,NULL
1736947865,d4a2c746db75f9917924c6ab7f6c9f88,PennController,71,0,test_val,NULL,PennController,82,_Header_,Start,1736947461722,undefined,707,compassion,abstract-positive,negative,positive,B,NULL
1736947865,d4a2c746db75f9917924c6ab7f6c9f88,PennController,71,0,test_val,NULL,PennController,82,_Header_,End,1736947461973,undefined,707,compassion,abstract-positive,negative,positive,B,NULL
1736947865,d4a2c746db75f9917924c6ab7f6c9f88,PennController,71,0,test_val,NULL,Selector,unnamed-Selector,Selection,positive,1736947463184,undefined,707,compassion,abstract-positive,negative,positive,B,negative;positive
1736947865,d4a2c746db75f9917924c6ab7f6c9f88,PennController,71,0,test_val,NULL,PennController,82,_Trial_,End,1736947463184,undefined,707,compassion,abstract-positive,negative,positive,B,NULL
1736947865,d4a2c746db75f9917924c6ab7f6c9f88,PennController,48,0,test_val,NULL,PennController,59,_Trial_,Start,1736947463185,undefined,754,guilt,abstract-negative,negative,positive,B,NULL
1736947865,d4a2c746db75f9917924c6ab7f6c9f88,PennController,48,0,test_val,NULL,PennController,59,_Header_,Start,1736947463185,undefined,754,guilt,abstract-negative,negative,positive,B,NULL
1736947865,d4a2c746db75f9917924c6ab7f6c9f88,PennController,48,0,test_val,NULL,PennController,59,_Header_,End,1736947463435,undefined,754,guilt,abstract-negative,negative,positive,B,NULL
1736947865,d4a2c746db75f9917924c6ab7f6c9f88,PennController,48,0,test_val,NULL,Selector,unnamed-Selector,Selection,negative,1736947464689,undefined,754,guilt,abstract-negative,negative,positive,B,negative;positive
1736947865,d4a2c746db75f9917924c6ab7f6c9f88,PennController,48,0,test_val,NULL,PennController,59,_Trial_,End,1736947464690,undefined,754,guilt,abstract-negative,negative,positive,B,NULL
1736947865,d4a2c746db75f9917924c6ab7f6c9f88,PennController,62,0,test_val,NULL,PennController,73,_Trial_,Start,1736947464690,undefined,618,chocolate,concrete-positive,negative,positive,B,NULL
1736947865,d4a2c746db75f9917924c6ab7f6c9f88,PennController,62,0,test_val,NULL,PennController,73,_Header_,Start,1736947464690,undefined,618,chocolate,concrete-positive,negative,positive,B,NULL
1736947865,d4a2c746db75f9917924c6ab7f6c9f88,PennController,62,0,test_val,NULL,PennController,73,_Header_,End,1736947464940,undefined,618,chocolate,concrete-positive,negative,positive,B,NULL
1736947865,d4a2c746db75f9917924c6ab7f6c9f88,PennController,62,0,test_val,NULL,Selector,unnamed-Selector,Selection,positive,1736947466063,undefined,618,chocolate,concrete-positive,negative,positive,B,negative;positive
1736947865,d4a2c746db75f9917924c6ab7f6c9f88,PennController,62,0,test_val,NULL,PennController,73,_Trial_,End,1736947466064,undefined,618,chocolate,concrete-positive,negative,positive,B,NULL
1736947865,d4a2c746db75f9917924c6ab7f6c9f88,PennController,47,0,test_val,NULL,PennController,58,_Trial_,Start,1736947466064,undefined,667,despair,abstract-negative,negative,positive,B,NULL
1736947865,d4a2c746db75f9917924c6ab7f6c9f88,PennController,47,0,test_val,NULL,PennController,58,_Header_,Start,1736947466064,undefined,667,despair,abstract-negative,negative,positive,B,NULL
1736947865,d4a2c746db75f9917924c6ab7f6c9f88,PennController,47,0,test_val,NULL,PennController,58,_Header_,End,1736947466315,undefined,667,despair,abstract-negative,negative,positive,B,NULL
1736947865,d4a2c746db75f9917924c6ab7f6c9f88,PennController,47,0,test_val,NULL,Selector,unnamed-Selector,Selection,negative,1736947467482,undefined,667,despair,abstract-negative,negative,positive,B,negative;positive
1736947865,d4a2c746db75f9917924c6ab7f6c9f88,PennController,47,0,test_val,NULL,PennController,58,_Trial_,End,1736947467483,undefined,667,despair,abstract-negative,negative,positive,B,NULL
1736947865,d4a2c746db75f9917924c6ab7f6c9f88,PennController,66,0,test_val,NULL,PennController,77,_Trial_,Start,1736947467483,undefined,685,joy,abstract-positive,negative,positive,B,NULL
1736947865,d4a2c746db75f9917924c6ab7f6c9f88,PennController,66,0,test_val,NULL,PennController,77,_Header_,Start,1736947467483,undefined,685,joy,abstract-positive,negative,positive,B,NULL
1736947865,d4a2c746db75f9917924c6ab7f6c9f88,PennController,66,0,test_val,NULL,PennController,77,_Header_,End,1736947467734,undefined,685,joy,abstract-positive,negative,positive,B,NULL
1736947865,d4a2c746db75f9917924c6ab7f6c9f88,PennController,66,0,test_val,NULL,Selector,unnamed-Selector,Selection,positive,1736947468919,undefined,685,joy,abstract-positive,negative,positive,B,negative;positive
1736947865,d4a2c746db75f9917924c6ab7f6c9f88,PennController,66,0,test_val,NULL,PennController,77,_Trial_,End,1736947468919,undefined,685,joy,abstract-positive,negative,positive,B,NULL
1736947865,d4a2c746db75f9917924c6ab7f6c9f88,PennController,49,0,test_val,NULL,PennController,60,_Trial_,Start,1736947468920,undefined,695,grief,abstract-negative,negative,positive,B,NULL
1736947865,d4a2c746db75f9917924c6ab7f6c9f88,PennController,49,0,test_val,NULL,PennController,60,_Header_,Start,1736947468920,undefined,695,grief,abstract-negative,negative,positive,B,NULL
1736947865,d4a2c746db75f9917924c6ab7f6c9f88,PennController,49,0,test_val,NULL,PennController,60,_Header_,End,1736947469170,undefined,695,grief,abstract-negative,negative,positive,B,NULL
1736947865,d4a2c746db75f9917924c6ab7f6c9f88,PennController,49,0,test_val,NULL,Selector,unnamed-Selector,Selection,negative,1736947470366,undefined,695,grief,abstract-negative,negative,positive,B,negative;positive
1736947865,d4a2c746db75f9917924c6ab7f6c9f88,PennController,49,0,test_val,NULL,PennController,60,_Trial_,End,1736947470366,undefined,695,grief,abstract-negative,negative,positive,B,NULL
1736947865,d4a2c746db75f9917924c6ab7f6c9f88,PennController,77,0,test_val,NULL,PennController,88,_Trial_,Start,1736947470367,undefined,660,vomit,concrete-negative,negative,positive,B,NULL
1736947865,d4a2c746db75f9917924c6ab7f6c9f88,PennController,77,0,test_val,NULL,PennController,88,_Header_,Start,1736947470367,undefined,660,vomit,concrete-negative,negative,positive,B,NULL
1736947865,d4a2c746db75f9917924c6ab7f6c9f88,PennController,77,0,test_val,NULL,PennController,88,_Header_,End,1736947470617,undefined,660,vomit,concrete-negative,negative,positive,B,NULL
1736947865,d4a2c746db75f9917924c6ab7f6c9f88,PennController,77,0,test_val,NULL,Selector,unnamed-Selector,Selection,negative,1736947471780,undefined,660,vomit,concrete-negative,negative,positive,B,negative;positive
1736947865,d4a2c746db75f9917924c6ab7f6c9f88,PennController,77,0,test_val,NULL,PennController,88,_Trial_,End,1736947471780,undefined,660,vomit,concrete-negative,negative,positive,B,NULL
1736947865,d4a2c746db75f9917924c6ab7f6c9f88,PennController,57,0,test_val,NULL,PennController,68,_Trial_,Start,1736947471781,undefined,795,music,concrete-positive,negative,positive,B,NULL
1736947865,d4a2c746db75f9917924c6ab7f6c9f88,PennController,57,0,test_val,NULL,PennController,68,_Header_,Start,1736947471781,undefined,795,music,concrete-positive,negative,positive,B,NULL
1736947865,d4a2c746db75f9917924c6ab7f6c9f88,PennController,57,0,test_val,NULL,PennController,68,_Header_,End,1736947472032,undefined,795,music,concrete-positive,negative,positive,B,NULL
1736947865,d4a2c746db75f9917924c6ab7f6c9f88,PennController,57,0,test_val,NULL,Selector,unnamed-Selector,Selection,positive,1736947473331,undefined,795,music,concrete-positive,negative,positive,B,negative;positive
1736947865,d4a2c746db75f9917924c6ab7f6c9f88,PennController,57,0,test_val,NULL,PennController,68,_Trial_,End,1736947473332,undefined,795,music,concrete-positive,negative,positive,B,NULL
1736947865,d4a2c746db75f9917924c6ab7f6c9f88,PennController,63,0,test_val,NULL,PennController,74,_Trial_,Start,1736947473332,undefined,934,fireplace,concrete-positive,negative,positive,B,NULL
1736947865,d4a2c746db75f9917924c6ab7f6c9f88,PennController,63,0,test_val,NULL,PennController,74,_Header_,Start,1736947473332,undefined,934,fireplace,concrete-positive,negative,positive,B,NULL
1736947865,d4a2c746db75f9917924c6ab7f6c9f88,PennController,63,0,test_val,NULL,PennController,74,_Header_,End,1736947473582,undefined,934,fireplace,concrete-positive,negative,positive,B,NULL
1736947865,d4a2c746db75f9917924c6ab7f6c9f88,PennController,63,0,test_val,NULL,Selector,unnamed-Selector,Selection,positive,1736947475018,undefined,934,fireplace,concrete-positive,negative,positive,B,negative;positive
1736947865,d4a2c746db75f9917924c6ab7f6c9f88,PennController,63,0,test_val,NULL,PennController,74,_Trial_,End,1736947475019,undefined,934,fireplace,concrete-positive,negative,positive,B,NULL
1736947865,d4a2c746db75f9917924c6ab7f6c9f88,PennController,60,0,test_val,NULL,PennController,71,_Trial_,Start,1736947475019,undefined,623,home,concrete-positive,negative,positive,B,NULL
1736947865,d4a2c746db75f9917924c6ab7f6c9f88,PennController,60,0,test_val,NULL,PennController,71,_Header_,Start,1736947475019,undefined,623,home,concrete-positive,negative,positive,B,NULL
1736947865,d4a2c746db75f9917924c6ab7f6c9f88,PennController,60,0,test_val,NULL,PennController,71,_Header_,End,1736947475272,undefined,623,home,concrete-positive,negative,positive,B,NULL
1736947865,d4a2c746db75f9917924c6ab7f6c9f88,PennController,60,0,test_val,NULL,Selector,unnamed-Selector,Selection,positive,1736947476398,undefined,623,home,concrete-positive,negative,positive,B,negative;positive
1736947865,d4a2c746db75f9917924c6ab7f6c9f88,PennController,60,0,test_val,NULL,PennController,71,_Trial_,End,1736947476399,undefined,623,home,concrete-positive,negative,positive,B,NULL
1736947865,d4a2c746db75f9917924c6ab7f6c9f88,PennController,69,0,test_val,NULL,PennController,80,_Trial_,Start,1736947476399,undefined,656,kindness,abstract-positive,negative,positive,B,NULL
1736947865,d4a2c746db75f9917924c6ab7f6c9f88,PennController,69,0,test_val,NULL,PennController,80,_Header_,Start,1736947476399,undefined,656,kindness,abstract-positive,negative,positive,B,NULL
1736947865,d4a2c746db75f9917924c6ab7f6c9f88,PennController,69,0,test_val,NULL,PennController,80,_Header_,End,1736947476649,undefined,656,kindness,abstract-positive,negative,positive,B,NULL
1736947865,d4a2c746db75f9917924c6ab7f6c9f88,PennController,69,0,test_val,NULL,Selector,unnamed-Selector,Selection,positive,1736947477809,undefined,656,kindness,abstract-positive,negative,positive,B,negative;positive
1736947865,d4a2c746db75f9917924c6ab7f6c9f88,PennController,69,0,test_val,NULL,PennController,80,_Trial_,End,1736947477809,undefined,656,kindness,abstract-positive,negative,positive,B,NULL
1736947865,d4a2c746db75f9917924c6ab7f6c9f88,PennController,76,0,test_val,NULL,PennController,87,_Trial_,Start,1736947477810,undefined,661,mud,concrete-negative,negative,positive,B,NULL
1736947865,d4a2c746db75f9917924c6ab7f6c9f88,PennController,76,0,test_val,NULL,PennController,87,_Header_,Start,1736947477810,undefined,661,mud,concrete-negative,negative,positive,B,NULL
1736947865,d4a2c746db75f9917924c6ab7f6c9f88,PennController,76,0,test_val,NULL,PennController,87,_Header_,End,1736947478063,undefined,661,mud,concrete-negative,negative,positive,B,NULL
1736947865,d4a2c746db75f9917924c6ab7f6c9f88,PennController,76,0,test_val,NULL,Selector,unnamed-Selector,Selection,negative,1736947479227,undefined,661,mud,concrete-negative,negative,positive,B,negative;positive
1736947865,d4a2c746db75f9917924c6ab7f6c9f88,PennController,76,0,test_val,NULL,PennController,87,_Trial_,End,1736947479227,undefined,661,mud,concrete-negative,negative,positive,B,NULL
1736947865,d4a2c746db75f9917924c6ab7f6c9f88,PennController,75,0,test_val,NULL,PennController,86,_Trial_,Start,1736947479227,undefined,640,rot,concrete-negative,negative,positive,B,NULL
1736947865,d4a2c746db75f9917924c6ab7f6c9f88,PennController,75,0,test_val,NULL,PennController,86,_Header_,Start,1736947479227,undefined,640,rot,concrete-negative,negative,positive,B,NULL
1736947865,d4a2c746db75f9917924c6ab7f6c9f88,PennController,75,0,test_val,NULL,PennController,86,_Header_,End,1736947479478,undefined,640,rot,concrete-negative,negative,positive,B,NULL
1736947865,d4a2c746db75f9917924c6ab7f6c9f88,PennController,75,0,test_val,NULL,Selector,unnamed-Selector,Selection,negative,1736947480621,undefined,640,rot,concrete-negative,negative,positive,B,negative;positive
1736947865,d4a2c746db75f9917924c6ab7f6c9f88,PennController,75,0,test_val,NULL,PennController,86,_Trial_,End,1736947480621,undefined,640,rot,concrete-negative,negative,positive,B,NULL
1736947865,d4a2c746db75f9917924c6ab7f6c9f88,PennController,59,0,test_val,NULL,PennController,70,_Trial_,Start,1736947480622,undefined,637,hug,concrete-positive,negative,positive,B,NULL
1736947865,d4a2c746db75f9917924c6ab7f6c9f88,PennController,59,0,test_val,NULL,PennController,70,_Header_,Start,1736947480622,undefined,637,hug,concrete-positive,negative,positive,B,NULL
1736947865,d4a2c746db75f9917924c6ab7f6c9f88,PennController,59,0,test_val,NULL,PennController,70,_Header_,End,1736947480876,undefined,637,hug,concrete-positive,negative,positive,B,NULL
1736947865,d4a2c746db75f9917924c6ab7f6c9f88,PennController,59,0,test_val,NULL,Selector,unnamed-Selector,Selection,positive,1736947482016,undefined,637,hug,concrete-positive,negative,positive,B,negative;positive
1736947865,d4a2c746db75f9917924c6ab7f6c9f88,PennController,59,0,test_val,NULL,PennController,70,_Trial_,End,1736947482016,undefined,637,hug,concrete-positive,negative,positive,B,NULL
1736947865,d4a2c746db75f9917924c6ab7f6c9f88,PennController,68,0,test_val,NULL,PennController,79,_Trial_,Start,1736947482016,undefined,734,freedom,abstract-positive,negative,positive,B,NULL
1736947865,d4a2c746db75f9917924c6ab7f6c9f88,PennController,68,0,test_val,NULL,PennController,79,_Header_,Start,1736947482016,undefined,734,freedom,abstract-positive,negative,positive,B,NULL
1736947865,d4a2c746db75f9917924c6ab7f6c9f88,PennController,68,0,test_val,NULL,PennController,79,_Header_,End,1736947482266,undefined,734,freedom,abstract-positive,negative,positive,B,NULL
1736947865,d4a2c746db75f9917924c6ab7f6c9f88,PennController,68,0,test_val,NULL,Selector,unnamed-Selector,Selection,positive,1736947483501,undefined,734,freedom,abstract-positive,negative,positive,B,negative;positive
1736947865,d4a2c746db75f9917924c6ab7f6c9f88,PennController,68,0,test_val,NULL,PennController,79,_Trial_,End,1736947483501,undefined,734,freedom,abstract-positive,negative,positive,B,NULL
1736947865,d4a2c746db75f9917924c6ab7f6c9f88,PennController,56,0,test_val,NULL,PennController,67,_Trial_,Start,1736947483502,undefined,574,flowers,concrete-positive,negative,positive,B,NULL
1736947865,d4a2c746db75f9917924c6ab7f6c9f88,PennController,56,0,test_val,NULL,PennController,67,_Header_,Start,1736947483502,undefined,574,flowers,concrete-positive,negative,positive,B,NULL
1736947865,d4a2c746db75f9917924c6ab7f6c9f88,PennController,56,0,test_val,NULL,PennController,67,_Header_,End,1736947483753,undefined,574,flowers,concrete-positive,negative,positive,B,NULL
1736947865,d4a2c746db75f9917924c6ab7f6c9f88,PennController,56,0,test_val,NULL,Selector,unnamed-Selector,Selection,positive,1736947484831,undefined,574,flowers,concrete-positive,negative,positive,B,negative;positive
1736947865,d4a2c746db75f9917924c6ab7f6c9f88,PennController,56,0,test_val,NULL,PennController,67,_Trial_,End,1736947484832,undefined,574,flowers,concrete-positive,negative,positive,B,NULL
1736947865,d4a2c746db75f9917924c6ab7f6c9f88,PennController,67,0,test_val,NULL,PennController,78,_Trial_,Start,1736947484832,undefined,593,peace,abstract-positive,negative,positive,B,NULL
1736947865,d4a2c746db75f9917924c6ab7f6c9f88,PennController,67,0,test_val,NULL,PennController,78,_Header_,Start,1736947484832,undefined,593,peace,abstract-positive,negative,positive,B,NULL
1736947865,d4a2c746db75f9917924c6ab7f6c9f88,PennController,67,0,test_val,NULL,PennController,78,_Header_,End,1736947485082,undefined,593,peace,abstract-positive,negative,positive,B,NULL
1736947865,d4a2c746db75f9917924c6ab7f6c9f88,PennController,67,0,test_val,NULL,Selector,unnamed-Selector,Selection,positive,1736947486178,undefined,593,peace,abstract-positive,negative,positive,B,negative;positive
1736947865,d4a2c746db75f9917924c6ab7f6c9f88,PennController,67,0,test_val,NULL,PennController,78,_Trial_,End,1736947486179,undefined,593,peace,abstract-positive,negative,positive,B,NULL
1736947865,d4a2c746db75f9917924c6ab7f6c9f88,PennController,53,0,test_val,NULL,PennController,64,_Trial_,Start,1736947486179,undefined,844,envy,abstract-negative,negative,positive,B,NULL
1736947865,d4a2c746db75f9917924c6ab7f6c9f88,PennController,53,0,test_val,NULL,PennController,64,_Header_,Start,1736947486179,undefined,844,envy,abstract-negative,negative,positive,B,NULL
1736947865,d4a2c746db75f9917924c6ab7f6c9f88,PennController,53,0,test_val,NULL,PennController,64,_Header_,End,1736947486429,undefined,844,envy,abstract-negative,negative,positive,B,NULL
1736947865,d4a2c746db75f9917924c6ab7f6c9f88,PennController,53,0,test_val,NULL,Selector,unnamed-Selector,Selection,negative,1736947487777,undefined,844,envy,abstract-negative,negative,positive,B,negative;positive
1736947865,d4a2c746db75f9917924c6ab7f6c9f88,PennController,53,0,test_val,NULL,PennController,64,_Trial_,End,1736947487777,undefined,844,envy,abstract-negative,negative,positive,B,NULL
1736947865,d4a2c746db75f9917924c6ab7f6c9f88,PennController,82,0,test_val,NULL,PennController,93,_Trial_,Start,1736947487777,undefined,816,stench,concrete-negative,negative,positive,B,NULL
1736947865,d4a2c746db75f9917924c6ab7f6c9f88,PennController,82,0,test_val,NULL,PennController,93,_Header_,Start,1736947487777,undefined,816,stench,concrete-negative,negative,positive,B,NULL
1736947865,d4a2c746db75f9917924c6ab7f6c9f88,PennController,82,0,test_val,NULL,PennController,93,_Header_,End,1736947488031,undefined,816,stench,concrete-negative,negative,positive,B,NULL
1736947865,d4a2c746db75f9917924c6ab7f6c9f88,PennController,82,0,test_val,NULL,Selector,unnamed-Selector,Selection,negative,1736947489351,undefined,816,stench,concrete-negative,negative,positive,B,negative;positive
1736947865,d4a2c746db75f9917924c6ab7f6c9f88,PennController,82,0,test_val,NULL,PennController,93,_Trial_,End,1736947489351,undefined,816,stench,concrete-negative,negative,positive,B,NULL
1736947865,d4a2c746db75f9917924c6ab7f6c9f88,PennController,64,0,test_val,NULL,PennController,75,_Trial_,Start,1736947489351,undefined,661,love,abstract-positive,negative,positive,B,NULL
1736947865,d4a2c746db75f9917924c6ab7f6c9f88,PennController,64,0,test_val,NULL,PennController,75,_Header_,Start,1736947489351,undefined,661,love,abstract-positive,negative,positive,B,NULL
1736947865,d4a2c746db75f9917924c6ab7f6c9f88,PennController,64,0,test_val,NULL,PennController,75,_Header_,End,1736947489605,undefined,661,love,abstract-positive,negative,positive,B,NULL
1736947865,d4a2c746db75f9917924c6ab7f6c9f88,PennController,64,0,test_val,NULL,Selector,unnamed-Selector,Selection,positive,1736947490768,undefined,661,love,abstract-positive,negative,positive,B,negative;positive
1736947865,d4a2c746db75f9917924c6ab7f6c9f88,PennController,64,0,test_val,NULL,PennController,75,_Trial_,End,1736947490769,undefined,661,love,abstract-positive,negative,positive,B,NULL
1736947865,d4a2c746db75f9917924c6ab7f6c9f88,PennController,45,0,test_val,NULL,PennController,56,_Trial_,Start,1736947490769,undefined,894,regret,abstract-negative,negative,positive,B,NULL
1736947865,d4a2c746db75f9917924c6ab7f6c9f88,PennController,45,0,test_val,NULL,PennController,56,_Header_,Start,1736947490769,undefined,894,regret,abstract-negative,negative,positive,B,NULL
1736947865,d4a2c746db75f9917924c6ab7f6c9f88,PennController,45,0,test_val,NULL,PennController,56,_Header_,End,1736947491019,undefined,894,regret,abstract-negative,negative,positive,B,NULL
1736947865,d4a2c746db75f9917924c6ab7f6c9f88,PennController,45,0,test_val,NULL,Selector,unnamed-Selector,Selection,negative,1736947492415,undefined,894,regret,abstract-negative,negative,positive,B,negative;positive
1736947865,d4a2c746db75f9917924c6ab7f6c9f88,PennController,45,0,test_val,NULL,PennController,56,_Trial_,End,1736947492416,undefined,894,regret,abstract-negative,negative,positive,B,NULL
1736947865,d4a2c746db75f9917924c6ab7f6c9f88,PennController,58,0,test_val,NULL,PennController,69,_Trial_,Start,1736947492416,undefined,659,beach,concrete-positive,negative,positive,B,NULL
1736947865,d4a2c746db75f9917924c6ab7f6c9f88,PennController,58,0,test_val,NULL,PennController,69,_Header_,Start,1736947492416,undefined,659,beach,concrete-positive,negative,positive,B,NULL
1736947865,d4a2c746db75f9917924c6ab7f6c9f88,PennController,58,0,test_val,NULL,PennController,69,_Header_,End,1736947492666,undefined,659,beach,concrete-positive,negative,positive,B,NULL
1736947865,d4a2c746db75f9917924c6ab7f6c9f88,PennController,58,0,test_val,NULL,Selector,unnamed-Selector,Selection,positive,1736947493828,undefined,659,beach,concrete-positive,negative,positive,B,negative;positive
1736947865,d4a2c746db75f9917924c6ab7f6c9f88,PennController,58,0,test_val,NULL,PennController,69,_Trial_,End,1736947493828,undefined,659,beach,concrete-positive,negative,positive,B,NULL
1736947865,d4a2c746db75f9917924c6ab7f6c9f88,PennController,52,0,test_val,NULL,PennController,63,_Trial_,Start,1736947493829,undefined,779,shame,abstract-negative,negative,positive,B,NULL
1736947865,d4a2c746db75f9917924c6ab7f6c9f88,PennController,52,0,test_val,NULL,PennController,63,_Header_,Start,1736947493829,undefined,779,shame,abstract-negative,negative,positive,B,NULL
1736947865,d4a2c746db75f9917924c6ab7f6c9f88,PennController,52,0,test_val,NULL,PennController,63,_Header_,End,1736947494079,undefined,779,shame,abstract-negative,negative,positive,B,NULL
1736947865,d4a2c746db75f9917924c6ab7f6c9f88,PennController,52,0,test_val,NULL,Selector,unnamed-Selector,Selection,negative,1736947495358,undefined,779,shame,abstract-negative,negative,positive,B,negative;positive
1736947865,d4a2c746db75f9917924c6ab7f6c9f88,PennController,52,0,test_val,NULL,PennController,63,_Trial_,End,1736947495358,undefined,779,shame,abstract-negative,negative,positive,B,NULL
1736947865,d4a2c746db75f9917924c6ab7f6c9f88,PennController,72,0,test_val,NULL,PennController,83,_Trial_,Start,1736947495359,undefined,821,gratitude,abstract-positive,negative,positive,B,NULL
1736947865,d4a2c746db75f9917924c6ab7f6c9f88,PennController,72,0,test_val,NULL,PennController,83,_Header_,Start,1736947495359,undefined,821,gratitude,abstract-positive,negative,positive,B,NULL
1736947865,d4a2c746db75f9917924c6ab7f6c9f88,PennController,72,0,test_val,NULL,PennController,83,_Header_,End,1736947495609,undefined,821,gratitude,abstract-positive,negative,positive,B,NULL
1736947865,d4a2c746db75f9917924c6ab7f6c9f88,PennController,72,0,test_val,NULL,Selector,unnamed-Selector,Selection,positive,1736947496934,undefined,821,gratitude,abstract-positive,negative,positive,B,negative;positive
1736947865,d4a2c746db75f9917924c6ab7f6c9f88,PennController,72,0,test_val,NULL,PennController,83,_Trial_,End,1736947496934,undefined,821,gratitude,abstract-positive,negative,positive,B,NULL
1736947865,d4a2c746db75f9917924c6ab7f6c9f88,PennController,46,0,test_val,NULL,PennController,57,_Trial_,Start,1736947496935,undefined,706,anxiety,abstract-negative,negative,positive,B,NULL
1736947865,d4a2c746db75f9917924c6ab7f6c9f88,PennController,46,0,test_val,NULL,PennController,57,_Header_,Start,1736947496935,undefined,706,anxiety,abstract-negative,negative,positive,B,NULL
1736947865,d4a2c746db75f9917924c6ab7f6c9f88,PennController,46,0,test_val,NULL,PennController,57,_Header_,End,1736947497188,undefined,706,anxiety,abstract-negative,negative,positive,B,NULL
1736947865,d4a2c746db75f9917924c6ab7f6c9f88,PennController,46,0,test_val,NULL,Selector,unnamed-Selector,Selection,negative,1736947498397,undefined,706,anxiety,abstract-negative,negative,positive,B,negative;positive
1736947865,d4a2c746db75f9917924c6ab7f6c9f88,PennController,46,0,test_val,NULL,PennController,57,_Trial_,End,1736947498398,undefined,706,anxiety,abstract-negative,negative,positive,B,NULL
1736947865,d4a2c746db75f9917924c6ab7f6c9f88,PennController,79,0,test_val,NULL,PennController,90,_Trial_,Start,1736947498399,undefined,1085,rust,concrete-negative,negative,positive,B,NULL
1736947865,d4a2c746db75f9917924c6ab7f6c9f88,PennController,79,0,test_val,NULL,PennController,90,_Header_,Start,1736947498399,undefined,1085,rust,concrete-negative,negative,positive,B,NULL
1736947865,d4a2c746db75f9917924c6ab7f6c9f88,PennController,79,0,test_val,NULL,PennController,90,_Header_,End,1736947498653,undefined,1085,rust,concrete-negative,negative,positive,B,NULL
1736947865,d4a2c746db75f9917924c6ab7f6c9f88,PennController,79,0,test_val,NULL,Selector,unnamed-Selector,Selection,negative,1736947500240,undefined,1085,rust,concrete-negative,negative,positive,B,negative;positive
1736947865,d4a2c746db75f9917924c6ab7f6c9f88,PennController,79,0,test_val,NULL,PennController,90,_Trial_,End,1736947500240,undefined,1085,rust,concrete-negative,negative,positive,B,NULL
1736947865,d4a2c746db75f9917924c6ab7f6c9f88,PennController,70,0,test_val,NULL,PennController,81,_Trial_,Start,1736947500241,undefined,599,happiness,abstract-positive,negative,positive,B,NULL
1736947865,d4a2c746db75f9917924c6ab7f6c9f88,PennController,70,0,test_val,NULL,PennController,81,_Header_,Start,1736947500241,undefined,599,happiness,abstract-positive,negative,positive,B,NULL
1736947865,d4a2c746db75f9917924c6ab7f6c9f88,PennController,70,0,test_val,NULL,PennController,81,_Header_,End,1736947500495,undefined,599,happiness,abstract-positive,negative,positive,B,NULL
1736947865,d4a2c746db75f9917924c6ab7f6c9f88,PennController,70,0,test_val,NULL,Selector,unnamed-Selector,Selection,positive,1736947501597,undefined,599,happiness,abstract-positive,negative,positive,B,negative;positive
1736947865,d4a2c746db75f9917924c6ab7f6c9f88,PennController,70,0,test_val,NULL,PennController,81,_Trial_,End,1736947501597,undefined,599,happiness,abstract-positive,negative,positive,B,NULL
1736947865,d4a2c746db75f9917924c6ab7f6c9f88,PennController,78,0,test_val,NULL,PennController,89,_Trial_,Start,1736947501598,undefined,631,garbage,concrete-negative,negative,positive,B,NULL
1736947865,d4a2c746db75f9917924c6ab7f6c9f88,PennController,78,0,test_val,NULL,PennController,89,_Header_,Start,1736947501598,undefined,631,garbage,concrete-negative,negative,positive,B,NULL
1736947865,d4a2c746db75f9917924c6ab7f6c9f88,PennController,78,0,test_val,NULL,PennController,89,_Header_,End,1736947501852,undefined,631,garbage,concrete-negative,negative,positive,B,NULL
1736947865,d4a2c746db75f9917924c6ab7f6c9f88,PennController,78,0,test_val,NULL,Selector,unnamed-Selector,Selection,negative,1736947502986,undefined,631,garbage,concrete-negative,negative,positive,B,negative;positive
1736947865,d4a2c746db75f9917924c6ab7f6c9f88,PennController,78,0,test_val,NULL,PennController,89,_Trial_,End,1736947502986,undefined,631,garbage,concrete-negative,negative,positive,B,NULL
1736947865,d4a2c746db75f9917924c6ab7f6c9f88,PennController,81,0,test_val,NULL,PennController,92,_Trial_,Start,1736947502986,undefined,939,injury,concrete-negative,negative,positive,B,NULL
1736947865,d4a2c746db75f9917924c6ab7f6c9f88,PennController,81,0,test_val,NULL,PennController,92,_Header_,Start,1736947502986,undefined,939,injury,concrete-negative,negative,positive,B,NULL
1736947865,d4a2c746db75f9917924c6ab7f6c9f88,PennController,81,0,test_val,NULL,PennController,92,_Header_,End,1736947503238,undefined,939,injury,concrete-negative,negative,positive,B,NULL
1736947865,d4a2c746db75f9917924c6ab7f6c9f88,PennController,81,0,test_val,NULL,Selector,unnamed-Selector,Selection,negative,1736947504680,undefined,939,injury,concrete-negative,negative,positive,B,negative;positive
1736947865,d4a2c746db75f9917924c6ab7f6c9f88,PennController,81,0,test_val,NULL,PennController,92,_Trial_,End,1736947504680,undefined,939,injury,concrete-negative,negative,positive,B,NULL
1736947865,d4a2c746db75f9917924c6ab7f6c9f88,PennController,74,0,test_val,NULL,PennController,85,_Trial_,Start,1736947504681,undefined,1215,smoke,concrete-negative,negative,positive,B,NULL
1736947865,d4a2c746db75f9917924c6ab7f6c9f88,PennController,74,0,test_val,NULL,PennController,85,_Header_,Start,1736947504681,undefined,1215,smoke,concrete-negative,negative,positive,B,NULL
1736947865,d4a2c746db75f9917924c6ab7f6c9f88,PennController,74,0,test_val,NULL,PennController,85,_Header_,End,1736947504934,undefined,1215,smoke,concrete-negative,negative,positive,B,NULL
1736947865,d4a2c746db75f9917924c6ab7f6c9f88,PennController,74,0,test_val,NULL,Selector,unnamed-Selector,Selection,negative,1736947506653,undefined,1215,smoke,concrete-negative,negative,positive,B,negative;positive
1736947865,d4a2c746db75f9917924c6ab7f6c9f88,PennController,74,0,test_val,NULL,PennController,85,_Trial_,End,1736947506653,undefined,1215,smoke,concrete-negative,negative,positive,B,NULL
1736947865,d4a2c746db75f9917924c6ab7f6c9f88,PennController,54,0,test_val,NULL,PennController,65,_Trial_,Start,1736947506654,undefined,615,sunshine,concrete-positive,negative,positive,B,NULL
1736947865,d4a2c746db75f9917924c6ab7f6c9f88,PennController,54,0,test_val,NULL,PennController,65,_Header_,Start,1736947506654,undefined,615,sunshine,concrete-positive,negative,positive,B,NULL
1736947865,d4a2c746db75f9917924c6ab7f6c9f88,PennController,54,0,test_val,NULL,PennController,65,_Header_,End,1736947506905,undefined,615,sunshine,concrete-positive,negative,positive,B,NULL
1736947865,d4a2c746db75f9917924c6ab7f6c9f88,PennController,54,0,test_val,NULL,Selector,unnamed-Selector,Selection,positive,1736947508024,undefined,615,sunshine,concrete-positive,negative,positive,B,negative;positive
1736947865,d4a2c746db75f9917924c6ab7f6c9f88,PennController,54,0,test_val,NULL,PennController,65,_Trial_,End,1736947508025,undefined,615,sunshine,concrete-positive,negative,positive,B,NULL
1736947865,d4a2c746db75f9917924c6ab7f6c9f88,PennController,61,0,test_val,NULL,PennController,72,_Trial_,Start,1736947508025,undefined,930,rain,concrete-positive,negative,positive,B,NULL
1736947865,d4a2c746db75f9917924c6ab7f6c9f88,PennController,61,0,test_val,NULL,PennController,72,_Header_,Start,1736947508025,undefined,930,rain,concrete-positive,negative,positive,B,NULL
1736947865,d4a2c746db75f9917924c6ab7f6c9f88,PennController,61,0,test_val,NULL,PennController,72,_Header_,End,1736947508277,undefined,930,rain,concrete-positive,negative,positive,B,NULL
1736947865,d4a2c746db75f9917924c6ab7f6c9f88,PennController,61,0,test_val,NULL,Selector,unnamed-Selector,Selection,negative,1736947509711,undefined,930,rain,concrete-positive,negative,positive,B,negative;positive
1736947865,d4a2c746db75f9917924c6ab7f6c9f88,PennController,61,0,test_val,NULL,PennController,72,_Trial_,End,1736947509712,undefined,930,rain,concrete-positive,negative,positive,B,NULL
1736947865,d4a2c746db75f9917924c6ab7f6c9f88,PennController,50,0,test_val,NULL,PennController,61,_Trial_,Start,1736947509712,undefined,1162,resentment,abstract-negative,negative,positive,B,NULL
1736947865,d4a2c746db75f9917924c6ab7f6c9f88,PennController,50,0,test_val,NULL,PennController,61,_Header_,Start,1736947509712,undefined,1162,resentment,abstract-negative,negative,positive,B,NULL
1736947865,d4a2c746db75f9917924c6ab7f6c9f88,PennController,50,0,test_val,NULL,PennController,61,_Header_,End,1736947509962,undefined,1162,resentment,abstract-negative,negative,positive,B,NULL
1736947865,d4a2c746db75f9917924c6ab7f6c9f88,PennController,50,0,test_val,NULL,Selector,unnamed-Selector,Selection,negative,1736947511627,undefined,1162,resentment,abstract-negative,negative,positive,B,negative;positive
1736947865,d4a2c746db75f9917924c6ab7f6c9f88,PennController,50,0,test_val,NULL,PennController,61,_Trial_,End,1736947511627,undefined,1162,resentment,abstract-negative,negative,positive,B,NULL
1736947865,d4a2c746db75f9917924c6ab7f6c9f88,PennController,55,0,test_val,NULL,PennController,66,_Trial_,Start,1736947511627,undefined,706,laughter,concrete-positive,negative,positive,B,NULL
1736947865,d4a2c746db75f9917924c6ab7f6c9f88,PennController,55,0,test_val,NULL,PennController,66,_Header_,Start,1736947511627,undefined,706,laughter,concrete-positive,negative,positive,B,NULL
1736947865,d4a2c746db75f9917924c6ab7f6c9f88,PennController,55,0,test_val,NULL,PennController,66,_Header_,End,1736947511878,undefined,706,laughter,concrete-positive,negative,positive,B,NULL
1736947865,d4a2c746db75f9917924c6ab7f6c9f88,PennController,55,0,test_val,NULL,Selector,unnamed-Selector,Selection,positive,1736947513088,undefined,706,laughter,concrete-positive,negative,positive,B,negative;positive
1736947865,d4a2c746db75f9917924c6ab7f6c9f88,PennController,55,0,test_val,NULL,PennController,66,_Trial_,End,1736947513088,undefined,706,laughter,concrete-positive,negative,positive,B,NULL
1736947865,d4a2c746db75f9917924c6ab7f6c9f88,PennController,83,0,test_val,NULL,PennController,94,_Trial_,Start,1736947513089,undefined,691,filth,concrete-negative,negative,positive,B,NULL
1736947865,d4a2c746db75f9917924c6ab7f6c9f88,PennController,83,0,test_val,NULL,PennController,94,_Header_,Start,1736947513089,undefined,691,filth,concrete-negative,negative,positive,B,NULL
1736947865,d4a2c746db75f9917924c6ab7f6c9f88,PennController,83,0,test_val,NULL,PennController,94,_Header_,End,1736947513339,undefined,691,filth,concrete-negative,negative,positive,B,NULL
1736947865,d4a2c746db75f9917924c6ab7f6c9f88,PennController,83,0,test_val,NULL,Selector,unnamed-Selector,Selection,negative,1736947514533,undefined,691,filth,concrete-negative,negative,positive,B,negative;positive
1736947865,d4a2c746db75f9917924c6ab7f6c9f88,PennController,83,0,test_val,NULL,PennController,94,_Trial_,End,1736947514533,undefined,691,filth,concrete-negative,negative,positive,B,NULL
1736947865,d4a2c746db75f9917924c6ab7f6c9f88,PennController,73,0,test_val,NULL,PennController,84,_Trial_,Start,1736947514534,undefined,681,inspiration,abstract-positive,negative,positive,B,NULL
1736947865,d4a2c746db75f9917924c6ab7f6c9f88,PennController,73,0,test_val,NULL,PennController,84,_Header_,Start,1736947514534,undefined,681,inspiration,abstract-positive,negative,positive,B,NULL
1736947865,d4a2c746db75f9917924c6ab7f6c9f88,PennController,73,0,test_val,NULL,PennController,84,_Header_,End,1736947514784,undefined,681,inspiration,abstract-positive,negative,positive,B,NULL
1736947865,d4a2c746db75f9917924c6ab7f6c9f88,PennController,73,0,test_val,NULL,Selector,unnamed-Selector,Selection,positive,1736947515969,undefined,681,inspiration,abstract-positive,negative,positive,B,negative;positive
1736947865,d4a2c746db75f9917924c6ab7f6c9f88,PennController,73,0,test_val,NULL,PennController,84,_Trial_,End,1736947515969,undefined,681,inspiration,abstract-positive,negative,positive,B,NULL
1736947865,d4a2c746db75f9917924c6ab7f6c9f88,PennController,70,0,test_val,NULL,PennController,81,_Trial_,Start,1736947515969,undefined,863,happiness,abstract-positive,negative,positive,B,NULL
1736947865,d4a2c746db75f9917924c6ab7f6c9f88,PennController,70,0,test_val,NULL,PennController,81,_Header_,Start,1736947515969,undefined,863,happiness,abstract-positive,negative,positive,B,NULL
1736947865,d4a2c746db75f9917924c6ab7f6c9f88,PennController,70,0,test_val,NULL,PennController,81,_Header_,End,1736947516220,undefined,863,happiness,abstract-positive,negative,positive,B,NULL
1736947865,d4a2c746db75f9917924c6ab7f6c9f88,PennController,70,0,test_val,NULL,Selector,unnamed-Selector,Selection,positive,1736947517586,undefined,863,happiness,abstract-positive,negative,positive,B,negative;positive
1736947865,d4a2c746db75f9917924c6ab7f6c9f88,PennController,70,0,test_val,NULL,PennController,81,_Trial_,End,1736947517587,undefined,863,happiness,abstract-positive,negative,positive,B,NULL
1736947865,d4a2c746db75f9917924c6ab7f6c9f88,PennController,55,0,test_val,NULL,PennController,66,_Trial_,Start,1736947517587,undefined,623,laughter,concrete-positive,negative,positive,B,NULL
1736947865,d4a2c746db75f9917924c6ab7f6c9f88,PennController,55,0,test_val,NULL,PennController,66,_Header_,Start,1736947517587,undefined,623,laughter,concrete-positive,negative,positive,B,NULL
1736947865,d4a2c746db75f9917924c6ab7f6c9f88,PennController,55,0,test_val,NULL,PennController,66,_Header_,End,1736947517837,undefined,623,laughter,concrete-positive,negative,positive,B,NULL
1736947865,d4a2c746db75f9917924c6ab7f6c9f88,PennController,55,0,test_val,NULL,Selector,unnamed-Selector,Selection,positive,1736947518962,undefined,623,laughter,concrete-positive,negative,positive,B,negative;positive
1736947865,d4a2c746db75f9917924c6ab7f6c9f88,PennController,55,0,test_val,NULL,PennController,66,_Trial_,End,1736947518962,undefined,623,laughter,concrete-positive,negative,positive,B,NULL
1736947865,d4a2c746db75f9917924c6ab7f6c9f88,PennController,67,0,test_val,NULL,PennController,78,_Trial_,Start,1736947518962,undefined,566,peace,abstract-positive,negative,positive,B,NULL
1736947865,d4a2c746db75f9917924c6ab7f6c9f88,PennController,67,0,test_val,NULL,PennController,78,_Header_,Start,1736947518962,undefined,566,peace,abstract-positive,negative,positive,B,NULL
1736947865,d4a2c746db75f9917924c6ab7f6c9f88,PennController,67,0,test_val,NULL,PennController,78,_Header_,End,1736947519217,undefined,566,peace,abstract-positive,negative,positive,B,NULL
1736947865,d4a2c746db75f9917924c6ab7f6c9f88,PennController,67,0,test_val,NULL,Selector,unnamed-Selector,Selection,positive,1736947520287,undefined,566,peace,abstract-positive,negative,positive,B,negative;positive
1736947865,d4a2c746db75f9917924c6ab7f6c9f88,PennController,67,0,test_val,NULL,PennController,78,_Trial_,End,1736947520288,undefined,566,peace,abstract-positive,negative,positive,B,NULL
1736947865,d4a2c746db75f9917924c6ab7f6c9f88,PennController,44,0,test_val,NULL,PennController,55,_Trial_,Start,1736947520288,undefined,737,lonliness,abstract-negative,negative,positive,B,NULL
1736947865,d4a2c746db75f9917924c6ab7f6c9f88,PennController,44,0,test_val,NULL,PennController,55,_Header_,Start,1736947520288,undefined,737,lonliness,abstract-negative,negative,positive,B,NULL
1736947865,d4a2c746db75f9917924c6ab7f6c9f88,PennController,44,0,test_val,NULL,PennController,55,_Header_,End,1736947520542,undefined,737,lonliness,abstract-negative,negative,positive,B,NULL
1736947865,d4a2c746db75f9917924c6ab7f6c9f88,PennController,44,0,test_val,NULL,Selector,unnamed-Selector,Selection,negative,1736947521779,undefined,737,lonliness,abstract-negative,negative,positive,B,negative;positive
1736947865,d4a2c746db75f9917924c6ab7f6c9f88,PennController,44,0,test_val,NULL,PennController,55,_Trial_,End,1736947521780,undefined,737,lonliness,abstract-negative,negative,positive,B,NULL
1736947865,d4a2c746db75f9917924c6ab7f6c9f88,PennController,54,0,test_val,NULL,PennController,65,_Trial_,Start,1736947521780,undefined,765,sunshine,concrete-positive,negative,positive,B,NULL
1736947865,d4a2c746db75f9917924c6ab7f6c9f88,PennController,54,0,test_val,NULL,PennController,65,_Header_,Start,1736947521780,undefined,765,sunshine,concrete-positive,negative,positive,B,NULL
1736947865,d4a2c746db75f9917924c6ab7f6c9f88,PennController,54,0,test_val,NULL,PennController,65,_Header_,End,1736947522034,undefined,765,sunshine,concrete-positive,negative,positive,B,NULL
1736947865,d4a2c746db75f9917924c6ab7f6c9f88,PennController,54,0,test_val,NULL,Selector,unnamed-Selector,Selection,positive,1736947523302,undefined,765,sunshine,concrete-positive,negative,positive,B,negative;positive
1736947865,d4a2c746db75f9917924c6ab7f6c9f88,PennController,54,0,test_val,NULL,PennController,65,_Trial_,End,1736947523303,undefined,765,sunshine,concrete-positive,negative,positive,B,NULL
1736947865,d4a2c746db75f9917924c6ab7f6c9f88,PennController,77,0,test_val,NULL,PennController,88,_Trial_,Start,1736947523303,undefined,621,vomit,concrete-negative,negative,positive,B,NULL
1736947865,d4a2c746db75f9917924c6ab7f6c9f88,PennController,77,0,test_val,NULL,PennController,88,_Header_,Start,1736947523303,undefined,621,vomit,concrete-negative,negative,positive,B,NULL
1736947865,d4a2c746db75f9917924c6ab7f6c9f88,PennController,77,0,test_val,NULL,PennController,88,_Header_,End,1736947523553,undefined,621,vomit,concrete-negative,negative,positive,B,NULL
1736947865,d4a2c746db75f9917924c6ab7f6c9f88,PennController,77,0,test_val,NULL,Selector,unnamed-Selector,Selection,negative,1736947524676,undefined,621,vomit,concrete-negative,negative,positive,B,negative;positive
1736947865,d4a2c746db75f9917924c6ab7f6c9f88,PennController,77,0,test_val,NULL,PennController,88,_Trial_,End,1736947524677,undefined,621,vomit,concrete-negative,negative,positive,B,NULL
1736947865,d4a2c746db75f9917924c6ab7f6c9f88,PennController,52,0,test_val,NULL,PennController,63,_Trial_,Start,1736947524677,undefined,1156,shame,abstract-negative,negative,positive,B,NULL
1736947865,d4a2c746db75f9917924c6ab7f6c9f88,PennController,52,0,test_val,NULL,PennController,63,_Header_,Start,1736947524677,undefined,1156,shame,abstract-negative,negative,positive,B,NULL
1736947865,d4a2c746db75f9917924c6ab7f6c9f88,PennController,52,0,test_val,NULL,PennController,63,_Header_,End,1736947524927,undefined,1156,shame,abstract-negative,negative,positive,B,NULL
1736947865,d4a2c746db75f9917924c6ab7f6c9f88,PennController,52,0,test_val,NULL,Selector,unnamed-Selector,Selection,negative,1736947526586,undefined,1156,shame,abstract-negative,negative,positive,B,negative;positive
1736947865,d4a2c746db75f9917924c6ab7f6c9f88,PennController,52,0,test_val,NULL,PennController,63,_Trial_,End,1736947526587,undefined,1156,shame,abstract-negative,negative,positive,B,NULL
1736947865,d4a2c746db75f9917924c6ab7f6c9f88,PennController,60,0,test_val,NULL,PennController,71,_Trial_,Start,1736947526587,undefined,1409,home,concrete-positive,negative,positive,B,NULL
1736947865,d4a2c746db75f9917924c6ab7f6c9f88,PennController,60,0,test_val,NULL,PennController,71,_Header_,Start,1736947526587,undefined,1409,home,concrete-positive,negative,positive,B,NULL
1736947865,d4a2c746db75f9917924c6ab7f6c9f88,PennController,60,0,test_val,NULL,PennController,71,_Header_,End,1736947526837,undefined,1409,home,concrete-positive,negative,positive,B,NULL
1736947865,d4a2c746db75f9917924c6ab7f6c9f88,PennController,60,0,test_val,NULL,Selector,unnamed-Selector,Selection,positive,1736947528748,undefined,1409,home,concrete-positive,negative,positive,B,negative;positive
1736947865,d4a2c746db75f9917924c6ab7f6c9f88,PennController,60,0,test_val,NULL,PennController,71,_Trial_,End,1736947528748,undefined,1409,home,concrete-positive,negative,positive,B,NULL
1736947865,d4a2c746db75f9917924c6ab7f6c9f88,PennController,78,0,test_val,NULL,PennController,89,_Trial_,Start,1736947528749,undefined,825,garbage,concrete-negative,negative,positive,B,NULL
1736947865,d4a2c746db75f9917924c6ab7f6c9f88,PennController,78,0,test_val,NULL,PennController,89,_Header_,Start,1736947528749,undefined,825,garbage,concrete-negative,negative,positive,B,NULL
1736947865,d4a2c746db75f9917924c6ab7f6c9f88,PennController,78,0,test_val,NULL,PennController,89,_Header_,End,1736947528999,undefined,825,garbage,concrete-negative,negative,positive,B,NULL
1736947865,d4a2c746db75f9917924c6ab7f6c9f88,PennController,78,0,test_val,NULL,Selector,unnamed-Selector,Selection,negative,1736947530328,undefined,825,garbage,concrete-negative,negative,positive,B,negative;positive
1736947865,d4a2c746db75f9917924c6ab7f6c9f88,PennController,78,0,test_val,NULL,PennController,89,_Trial_,End,1736947530328,undefined,825,garbage,concrete-negative,negative,positive,B,NULL
1736947865,d4a2c746db75f9917924c6ab7f6c9f88,PennController,57,0,test_val,NULL,PennController,68,_Trial_,Start,1736947530328,undefined,727,music,concrete-positive,negative,positive,B,NULL
1736947865,d4a2c746db75f9917924c6ab7f6c9f88,PennController,57,0,test_val,NULL,PennController,68,_Header_,Start,1736947530328,undefined,727,music,concrete-positive,negative,positive,B,NULL
1736947865,d4a2c746db75f9917924c6ab7f6c9f88,PennController,57,0,test_val,NULL,PennController,68,_Header_,End,1736947530579,undefined,727,music,concrete-positive,negative,positive,B,NULL
1736947865,d4a2c746db75f9917924c6ab7f6c9f88,PennController,57,0,test_val,NULL,Selector,unnamed-Selector,Selection,positive,1736947531809,undefined,727,music,concrete-positive,negative,positive,B,negative;positive
1736947865,d4a2c746db75f9917924c6ab7f6c9f88,PennController,57,0,test_val,NULL,PennController,68,_Trial_,End,1736947531809,undefined,727,music,concrete-positive,negative,positive,B,NULL
1736947865,d4a2c746db75f9917924c6ab7f6c9f88,PennController,69,0,test_val,NULL,PennController,80,_Trial_,Start,1736947531809,undefined,618,kindness,abstract-positive,negative,positive,B,NULL
1736947865,d4a2c746db75f9917924c6ab7f6c9f88,PennController,69,0,test_val,NULL,PennController,80,_Header_,Start,1736947531809,undefined,618,kindness,abstract-positive,negative,positive,B,NULL
1736947865,d4a2c746db75f9917924c6ab7f6c9f88,PennController,69,0,test_val,NULL,PennController,80,_Header_,End,1736947532060,undefined,618,kindness,abstract-positive,negative,positive,B,NULL
1736947865,d4a2c746db75f9917924c6ab7f6c9f88,PennController,69,0,test_val,NULL,Selector,unnamed-Selector,Selection,positive,1736947533182,undefined,618,kindness,abstract-positive,negative,positive,B,negative;positive
1736947865,d4a2c746db75f9917924c6ab7f6c9f88,PennController,69,0,test_val,NULL,PennController,80,_Trial_,End,1736947533183,undefined,618,kindness,abstract-positive,negative,positive,B,NULL
1736947865,d4a2c746db75f9917924c6ab7f6c9f88,PennController,82,0,test_val,NULL,PennController,93,_Trial_,Start,1736947533183,undefined,568,stench,concrete-negative,negative,positive,B,NULL
1736947865,d4a2c746db75f9917924c6ab7f6c9f88,PennController,82,0,test_val,NULL,PennController,93,_Header_,Start,1736947533183,undefined,568,stench,concrete-negative,negative,positive,B,NULL
1736947865,d4a2c746db75f9917924c6ab7f6c9f88,PennController,82,0,test_val,NULL,PennController,93,_Header_,End,1736947533436,undefined,568,stench,concrete-negative,negative,positive,B,NULL
1736947865,d4a2c746db75f9917924c6ab7f6c9f88,PennController,82,0,test_val,NULL,Selector,unnamed-Selector,Selection,negative,1736947534507,undefined,568,stench,concrete-negative,negative,positive,B,negative;positive
1736947865,d4a2c746db75f9917924c6ab7f6c9f88,PennController,82,0,test_val,NULL,PennController,93,_Trial_,End,1736947534507,undefined,568,stench,concrete-negative,negative,positive,B,NULL
1736947865,d4a2c746db75f9917924c6ab7f6c9f88,PennController,45,0,test_val,NULL,PennController,56,_Trial_,Start,1736947534507,undefined,619,regret,abstract-negative,negative,positive,B,NULL
1736947865,d4a2c746db75f9917924c6ab7f6c9f88,PennController,45,0,test_val,NULL,PennController,56,_Header_,Start,1736947534507,undefined,619,regret,abstract-negative,negative,positive,B,NULL
1736947865,d4a2c746db75f9917924c6ab7f6c9f88,PennController,45,0,test_val,NULL,PennController,56,_Header_,End,1736947534758,undefined,619,regret,abstract-negative,negative,positive,B,NULL
1736947865,d4a2c746db75f9917924c6ab7f6c9f88,PennController,45,0,test_val,NULL,Selector,unnamed-Selector,Selection,negative,1736947535882,undefined,619,regret,abstract-negative,negative,positive,B,negative;positive
1736947865,d4a2c746db75f9917924c6ab7f6c9f88,PennController,45,0,test_val,NULL,PennController,56,_Trial_,End,1736947535883,undefined,619,regret,abstract-negative,negative,positive,B,NULL
1736947865,d4a2c746db75f9917924c6ab7f6c9f88,PennController,50,0,test_val,NULL,PennController,61,_Trial_,Start,1736947535883,undefined,640,resentment,abstract-negative,negative,positive,B,NULL
1736947865,d4a2c746db75f9917924c6ab7f6c9f88,PennController,50,0,test_val,NULL,PennController,61,_Header_,Start,1736947535883,undefined,640,resentment,abstract-negative,negative,positive,B,NULL
1736947865,d4a2c746db75f9917924c6ab7f6c9f88,PennController,50,0,test_val,NULL,PennController,61,_Header_,End,1736947536133,undefined,640,resentment,abstract-negative,negative,positive,B,NULL
1736947865,d4a2c746db75f9917924c6ab7f6c9f88,PennController,50,0,test_val,NULL,Selector,unnamed-Selector,Selection,negative,1736947537276,undefined,640,resentment,abstract-negative,negative,positive,B,negative;positive
1736947865,d4a2c746db75f9917924c6ab7f6c9f88,PennController,50,0,test_val,NULL,PennController,61,_Trial_,End,1736947537277,undefined,640,resentment,abstract-negative,negative,positive,B,NULL
1736947865,d4a2c746db75f9917924c6ab7f6c9f88,PennController,75,0,test_val,NULL,PennController,86,_Trial_,Start,1736947537277,undefined,636,rot,concrete-negative,negative,positive,B,NULL
1736947865,d4a2c746db75f9917924c6ab7f6c9f88,PennController,75,0,test_val,NULL,PennController,86,_Header_,Start,1736947537277,undefined,636,rot,concrete-negative,negative,positive,B,NULL
1736947865,d4a2c746db75f9917924c6ab7f6c9f88,PennController,75,0,test_val,NULL,PennController,86,_Header_,End,1736947537531,undefined,636,rot,concrete-negative,negative,positive,B,NULL
1736947865,d4a2c746db75f9917924c6ab7f6c9f88,PennController,75,0,test_val,NULL,Selector,unnamed-Selector,Selection,negative,1736947538670,undefined,636,rot,concrete-negative,negative,positive,B,negative;positive
1736947865,d4a2c746db75f9917924c6ab7f6c9f88,PennController,75,0,test_val,NULL,PennController,86,_Trial_,End,1736947538670,undefined,636,rot,concrete-negative,negative,positive,B,NULL
1736947865,d4a2c746db75f9917924c6ab7f6c9f88,PennController,63,0,test_val,NULL,PennController,74,_Trial_,Start,1736947538670,undefined,687,fireplace,concrete-positive,negative,positive,B,NULL
1736947865,d4a2c746db75f9917924c6ab7f6c9f88,PennController,63,0,test_val,NULL,PennController,74,_Header_,Start,1736947538670,undefined,687,fireplace,concrete-positive,negative,positive,B,NULL
1736947865,d4a2c746db75f9917924c6ab7f6c9f88,PennController,63,0,test_val,NULL,PennController,74,_Header_,End,1736947538920,undefined,687,fireplace,concrete-positive,negative,positive,B,NULL
1736947865,d4a2c746db75f9917924c6ab7f6c9f88,PennController,63,0,test_val,NULL,Selector,unnamed-Selector,Selection,positive,1736947540110,undefined,687,fireplace,concrete-positive,negative,positive,B,negative;positive
1736947865,d4a2c746db75f9917924c6ab7f6c9f88,PennController,63,0,test_val,NULL,PennController,74,_Trial_,End,1736947540111,undefined,687,fireplace,concrete-positive,negative,positive,B,NULL
1736947865,d4a2c746db75f9917924c6ab7f6c9f88,PennController,49,0,test_val,NULL,PennController,60,_Trial_,Start,1736947540111,undefined,641,grief,abstract-negative,negative,positive,B,NULL
1736947865,d4a2c746db75f9917924c6ab7f6c9f88,PennController,49,0,test_val,NULL,PennController,60,_Header_,Start,1736947540111,undefined,641,grief,abstract-negative,negative,positive,B,NULL
1736947865,d4a2c746db75f9917924c6ab7f6c9f88,PennController,49,0,test_val,NULL,PennController,60,_Header_,End,1736947540361,undefined,641,grief,abstract-negative,negative,positive,B,NULL
1736947865,d4a2c746db75f9917924c6ab7f6c9f88,PennController,49,0,test_val,NULL,Selector,unnamed-Selector,Selection,negative,1736947541505,undefined,641,grief,abstract-negative,negative,positive,B,negative;positive
1736947865,d4a2c746db75f9917924c6ab7f6c9f88,PennController,49,0,test_val,NULL,PennController,60,_Trial_,End,1736947541506,undefined,641,grief,abstract-negative,negative,positive,B,NULL
1736947865,d4a2c746db75f9917924c6ab7f6c9f88,PennController,59,0,test_val,NULL,PennController,70,_Trial_,Start,1736947541506,undefined,622,hug,concrete-positive,negative,positive,B,NULL
1736947865,d4a2c746db75f9917924c6ab7f6c9f88,PennController,59,0,test_val,NULL,PennController,70,_Header_,Start,1736947541506,undefined,622,hug,concrete-positive,negative,positive,B,NULL
1736947865,d4a2c746db75f9917924c6ab7f6c9f88,PennController,59,0,test_val,NULL,PennController,70,_Header_,End,1736947541757,undefined,622,hug,concrete-positive,negative,positive,B,NULL
1736947865,d4a2c746db75f9917924c6ab7f6c9f88,PennController,59,0,test_val,NULL,Selector,unnamed-Selector,Selection,positive,1736947542883,undefined,622,hug,concrete-positive,negative,positive,B,negative;positive
1736947865,d4a2c746db75f9917924c6ab7f6c9f88,PennController,59,0,test_val,NULL,PennController,70,_Trial_,End,1736947542883,undefined,622,hug,concrete-positive,negative,positive,B,NULL
1736947865,d4a2c746db75f9917924c6ab7f6c9f88,PennController,80,0,test_val,NULL,PennController,91,_Trial_,Start,1736947542884,undefined,637,mold,concrete-negative,negative,positive,B,NULL
1736947865,d4a2c746db75f9917924c6ab7f6c9f88,PennController,80,0,test_val,NULL,PennController,91,_Header_,Start,1736947542884,undefined,637,mold,concrete-negative,negative,positive,B,NULL
1736947865,d4a2c746db75f9917924c6ab7f6c9f88,PennController,80,0,test_val,NULL,PennController,91,_Header_,End,1736947543134,undefined,637,mold,concrete-negative,negative,positive,B,NULL
1736947865,d4a2c746db75f9917924c6ab7f6c9f88,PennController,80,0,test_val,NULL,Selector,unnamed-Selector,Selection,negative,1736947544273,undefined,637,mold,concrete-negative,negative,positive,B,negative;positive
1736947865,d4a2c746db75f9917924c6ab7f6c9f88,PennController,80,0,test_val,NULL,PennController,91,_Trial_,End,1736947544273,undefined,637,mold,concrete-negative,negative,positive,B,NULL
1736947865,d4a2c746db75f9917924c6ab7f6c9f88,PennController,46,0,test_val,NULL,PennController,57,_Trial_,Start,1736947544274,undefined,1319,anxiety,abstract-negative,negative,positive,B,NULL
1736947865,d4a2c746db75f9917924c6ab7f6c9f88,PennController,46,0,test_val,NULL,PennController,57,_Header_,Start,1736947544274,undefined,1319,anxiety,abstract-negative,negative,positive,B,NULL
1736947865,d4a2c746db75f9917924c6ab7f6c9f88,PennController,46,0,test_val,NULL,PennController,57,_Header_,End,1736947544525,undefined,1319,anxiety,abstract-negative,negative,positive,B,NULL
1736947865,d4a2c746db75f9917924c6ab7f6c9f88,PennController,46,0,test_val,NULL,Selector,unnamed-Selector,Selection,negative,1736947546348,undefined,1319,anxiety,abstract-negative,negative,positive,B,negative;positive
1736947865,d4a2c746db75f9917924c6ab7f6c9f88,PennController,46,0,test_val,NULL,PennController,57,_Trial_,End,1736947546349,undefined,1319,anxiety,abstract-negative,negative,positive,B,NULL
1736947865,d4a2c746db75f9917924c6ab7f6c9f88,PennController,79,0,test_val,NULL,PennController,90,_Trial_,Start,1736947546349,undefined,680,rust,concrete-negative,negative,positive,B,NULL
1736947865,d4a2c746db75f9917924c6ab7f6c9f88,PennController,79,0,test_val,NULL,PennController,90,_Header_,Start,1736947546349,undefined,680,rust,concrete-negative,negative,positive,B,NULL
1736947865,d4a2c746db75f9917924c6ab7f6c9f88,PennController,79,0,test_val,NULL,PennController,90,_Header_,End,1736947546603,undefined,680,rust,concrete-negative,negative,positive,B,NULL
1736947865,d4a2c746db75f9917924c6ab7f6c9f88,PennController,79,0,test_val,NULL,Selector,unnamed-Selector,Selection,negative,1736947547782,undefined,680,rust,concrete-negative,negative,positive,B,negative;positive
1736947865,d4a2c746db75f9917924c6ab7f6c9f88,PennController,79,0,test_val,NULL,PennController,90,_Trial_,End,1736947547783,undefined,680,rust,concrete-negative,negative,positive,B,NULL
1736947865,d4a2c746db75f9917924c6ab7f6c9f88,PennController,68,0,test_val,NULL,PennController,79,_Trial_,Start,1736947547784,undefined,593,freedom,abstract-positive,negative,positive,B,NULL
1736947865,d4a2c746db75f9917924c6ab7f6c9f88,PennController,68,0,test_val,NULL,PennController,79,_Header_,Start,1736947547784,undefined,593,freedom,abstract-positive,negative,positive,B,NULL
1736947865,d4a2c746db75f9917924c6ab7f6c9f88,PennController,68,0,test_val,NULL,PennController,79,_Header_,End,1736947548035,undefined,593,freedom,abstract-positive,negative,positive,B,NULL
1736947865,d4a2c746db75f9917924c6ab7f6c9f88,PennController,68,0,test_val,NULL,Selector,unnamed-Selector,Selection,positive,1736947549131,undefined,593,freedom,abstract-positive,negative,positive,B,negative;positive
1736947865,d4a2c746db75f9917924c6ab7f6c9f88,PennController,68,0,test_val,NULL,PennController,79,_Trial_,End,1736947549132,undefined,593,freedom,abstract-positive,negative,positive,B,NULL
1736947865,d4a2c746db75f9917924c6ab7f6c9f88,PennController,65,0,test_val,NULL,PennController,76,_Trial_,Start,1736947549133,undefined,796,hope,abstract-positive,negative,positive,B,NULL
1736947865,d4a2c746db75f9917924c6ab7f6c9f88,PennController,65,0,test_val,NULL,PennController,76,_Header_,Start,1736947549133,undefined,796,hope,abstract-positive,negative,positive,B,NULL
1736947865,d4a2c746db75f9917924c6ab7f6c9f88,PennController,65,0,test_val,NULL,PennController,76,_Header_,End,1736947549387,undefined,796,hope,abstract-positive,negative,positive,B,NULL
1736947865,d4a2c746db75f9917924c6ab7f6c9f88,PennController,65,0,test_val,NULL,Selector,unnamed-Selector,Selection,positive,1736947550686,undefined,796,hope,abstract-positive,negative,positive,B,negative;positive
1736947865,d4a2c746db75f9917924c6ab7f6c9f88,PennController,65,0,test_val,NULL,PennController,76,_Trial_,End,1736947550686,undefined,796,hope,abstract-positive,negative,positive,B,NULL
1736947865,d4a2c746db75f9917924c6ab7f6c9f88,PennController,81,0,test_val,NULL,PennController,92,_Trial_,Start,1736947550686,undefined,683,injury,concrete-negative,negative,positive,B,NULL
1736947865,d4a2c746db75f9917924c6ab7f6c9f88,PennController,81,0,test_val,NULL,PennController,92,_Header_,Start,1736947550686,undefined,683,injury,concrete-negative,negative,positive,B,NULL
1736947865,d4a2c746db75f9917924c6ab7f6c9f88,PennController,81,0,test_val,NULL,PennController,92,_Header_,End,1736947550940,undefined,683,injury,concrete-negative,negative,positive,B,NULL
1736947865,d4a2c746db75f9917924c6ab7f6c9f88,PennController,81,0,test_val,NULL,Selector,unnamed-Selector,Selection,negative,1736947552127,undefined,683,injury,concrete-negative,negative,positive,B,negative;positive
1736947865,d4a2c746db75f9917924c6ab7f6c9f88,PennController,81,0,test_val,NULL,PennController,92,_Trial_,End,1736947552127,undefined,683,injury,concrete-negative,negative,positive,B,NULL
1736947865,d4a2c746db75f9917924c6ab7f6c9f88,PennController,51,0,test_val,NULL,PennController,62,_Trial_,Start,1736947552127,undefined,627,failure,abstract-negative,negative,positive,B,NULL
1736947865,d4a2c746db75f9917924c6ab7f6c9f88,PennController,51,0,test_val,NULL,PennController,62,_Header_,Start,1736947552127,undefined,627,failure,abstract-negative,negative,positive,B,NULL
1736947865,d4a2c746db75f9917924c6ab7f6c9f88,PennController,51,0,test_val,NULL,PennController,62,_Header_,End,1736947552377,undefined,627,failure,abstract-negative,negative,positive,B,NULL
1736947865,d4a2c746db75f9917924c6ab7f6c9f88,PennController,51,0,test_val,NULL,Selector,unnamed-Selector,Selection,negative,1736947553507,undefined,627,failure,abstract-negative,negative,positive,B,negative;positive
1736947865,d4a2c746db75f9917924c6ab7f6c9f88,PennController,51,0,test_val,NULL,PennController,62,_Trial_,End,1736947553508,undefined,627,failure,abstract-negative,negative,positive,B,NULL
1736947865,d4a2c746db75f9917924c6ab7f6c9f88,PennController,66,0,test_val,NULL,PennController,77,_Trial_,Start,1736947553508,undefined,584,joy,abstract-positive,negative,positive,B,NULL
1736947865,d4a2c746db75f9917924c6ab7f6c9f88,PennController,66,0,test_val,NULL,PennController,77,_Header_,Start,1736947553508,undefined,584,joy,abstract-positive,negative,positive,B,NULL
1736947865,d4a2c746db75f9917924c6ab7f6c9f88,PennController,66,0,test_val,NULL,PennController,77,_Header_,End,1736947553758,undefined,584,joy,abstract-positive,negative,positive,B,NULL
1736947865,d4a2c746db75f9917924c6ab7f6c9f88,PennController,66,0,test_val,NULL,Selector,unnamed-Selector,Selection,positive,1736947554846,undefined,584,joy,abstract-positive,negative,positive,B,negative;positive
1736947865,d4a2c746db75f9917924c6ab7f6c9f88,PennController,66,0,test_val,NULL,PennController,77,_Trial_,End,1736947554847,undefined,584,joy,abstract-positive,negative,positive,B,NULL
1736947865,d4a2c746db75f9917924c6ab7f6c9f88,PennController,83,0,test_val,NULL,PennController,94,_Trial_,Start,1736947554847,undefined,665,filth,concrete-negative,negative,positive,B,NULL
1736947865,d4a2c746db75f9917924c6ab7f6c9f88,PennController,83,0,test_val,NULL,PennController,94,_Header_,Start,1736947554847,undefined,665,filth,concrete-negative,negative,positive,B,NULL
1736947865,d4a2c746db75f9917924c6ab7f6c9f88,PennController,83,0,test_val,NULL,PennController,94,_Header_,End,1736947555097,undefined,665,filth,concrete-negative,negative,positive,B,NULL
1736947865,d4a2c746db75f9917924c6ab7f6c9f88,PennController,83,0,test_val,NULL,Selector,unnamed-Selector,Selection,negative,1736947556266,undefined,665,filth,concrete-negative,negative,positive,B,negative;positive
1736947865,d4a2c746db75f9917924c6ab7f6c9f88,PennController,83,0,test_val,NULL,PennController,94,_Trial_,End,1736947556267,undefined,665,filth,concrete-negative,negative,positive,B,NULL
1736947865,d4a2c746db75f9917924c6ab7f6c9f88,PennController,71,0,test_val,NULL,PennController,82,_Trial_,Start,1736947556267,undefined,683,compassion,abstract-positive,negative,positive,B,NULL
1736947865,d4a2c746db75f9917924c6ab7f6c9f88,PennController,71,0,test_val,NULL,PennController,82,_Header_,Start,1736947556267,undefined,683,compassion,abstract-positive,negative,positive,B,NULL
1736947865,d4a2c746db75f9917924c6ab7f6c9f88,PennController,71,0,test_val,NULL,PennController,82,_Header_,End,1736947556517,undefined,683,compassion,abstract-positive,negative,positive,B,NULL
1736947865,d4a2c746db75f9917924c6ab7f6c9f88,PennController,71,0,test_val,NULL,Selector,unnamed-Selector,Selection,positive,1736947557704,undefined,683,compassion,abstract-positive,negative,positive,B,negative;positive
1736947865,d4a2c746db75f9917924c6ab7f6c9f88,PennController,71,0,test_val,NULL,PennController,82,_Trial_,End,1736947557705,undefined,683,compassion,abstract-positive,negative,positive,B,NULL
1736947865,d4a2c746db75f9917924c6ab7f6c9f88,PennController,48,0,test_val,NULL,PennController,59,_Trial_,Start,1736947557705,undefined,737,guilt,abstract-negative,negative,positive,B,NULL
1736947865,d4a2c746db75f9917924c6ab7f6c9f88,PennController,48,0,test_val,NULL,PennController,59,_Header_,Start,1736947557705,undefined,737,guilt,abstract-negative,negative,positive,B,NULL
1736947865,d4a2c746db75f9917924c6ab7f6c9f88,PennController,48,0,test_val,NULL,PennController,59,_Header_,End,1736947557955,undefined,737,guilt,abstract-negative,negative,positive,B,NULL
1736947865,d4a2c746db75f9917924c6ab7f6c9f88,PennController,48,0,test_val,NULL,Selector,unnamed-Selector,Selection,negative,1736947559197,undefined,737,guilt,abstract-negative,negative,positive,B,negative;positive
1736947865,d4a2c746db75f9917924c6ab7f6c9f88,PennController,48,0,test_val,NULL,PennController,59,_Trial_,End,1736947559198,undefined,737,guilt,abstract-negative,negative,positive,B,NULL
1736947865,d4a2c746db75f9917924c6ab7f6c9f88,PennController,53,0,test_val,NULL,PennController,64,_Trial_,Start,1736947559198,undefined,881,envy,abstract-negative,negative,positive,B,NULL
1736947865,d4a2c746db75f9917924c6ab7f6c9f88,PennController,53,0,test_val,NULL,PennController,64,_Header_,Start,1736947559198,undefined,881,envy,abstract-negative,negative,positive,B,NULL
1736947865,d4a2c746db75f9917924c6ab7f6c9f88,PennController,53,0,test_val,NULL,PennController,64,_Header_,End,1736947559449,undefined,881,envy,abstract-negative,negative,positive,B,NULL
1736947865,d4a2c746db75f9917924c6ab7f6c9f88,PennController,53,0,test_val,NULL,Selector,unnamed-Selector,Selection,negative,1736947560834,undefined,881,envy,abstract-negative,negative,positive,B,negative;positive
1736947865,d4a2c746db75f9917924c6ab7f6c9f88,PennController,53,0,test_val,NULL,PennController,64,_Trial_,End,1736947560835,undefined,881,envy,abstract-negative,negative,positive,B,NULL
1736947865,d4a2c746db75f9917924c6ab7f6c9f88,PennController,62,0,test_val,NULL,PennController,73,_Trial_,Start,1736947560835,undefined,575,chocolate,concrete-positive,negative,positive,B,NULL
1736947865,d4a2c746db75f9917924c6ab7f6c9f88,PennController,62,0,test_val,NULL,PennController,73,_Header_,Start,1736947560835,undefined,575,chocolate,concrete-positive,negative,positive,B,NULL
1736947865,d4a2c746db75f9917924c6ab7f6c9f88,PennController,62,0,test_val,NULL,PennController,73,_Header_,End,1736947561086,undefined,575,chocolate,concrete-positive,negative,positive,B,NULL
1736947865,d4a2c746db75f9917924c6ab7f6c9f88,PennController,62,0,test_val,NULL,Selector,unnamed-Selector,Selection,positive,1736947562165,undefined,575,chocolate,concrete-positive,negative,positive,B,negative;positive
1736947865,d4a2c746db75f9917924c6ab7f6c9f88,PennController,62,0,test_val,NULL,PennController,73,_Trial_,End,1736947562165,undefined,575,chocolate,concrete-positive,negative,positive,B,NULL
1736947865,d4a2c746db75f9917924c6ab7f6c9f88,PennController,47,0,test_val,NULL,PennController,58,_Trial_,Start,1736947562166,undefined,746,despair,abstract-negative,negative,positive,B,NULL
1736947865,d4a2c746db75f9917924c6ab7f6c9f88,PennController,47,0,test_val,NULL,PennController,58,_Header_,Start,1736947562166,undefined,746,despair,abstract-negative,negative,positive,B,NULL
1736947865,d4a2c746db75f9917924c6ab7f6c9f88,PennController,47,0,test_val,NULL,PennController,58,_Header_,End,1736947562419,undefined,746,despair,abstract-negative,negative,positive,B,NULL
1736947865,d4a2c746db75f9917924c6ab7f6c9f88,PennController,47,0,test_val,NULL,Selector,unnamed-Selector,Selection,negative,1736947563668,undefined,746,despair,abstract-negative,negative,positive,B,negative;positive
1736947865,d4a2c746db75f9917924c6ab7f6c9f88,PennController,47,0,test_val,NULL,PennController,58,_Trial_,End,1736947563669,undefined,746,despair,abstract-negative,negative,positive,B,NULL
1736947865,d4a2c746db75f9917924c6ab7f6c9f88,PennController,72,0,test_val,NULL,PennController,83,_Trial_,Start,1736947563669,undefined,709,gratitude,abstract-positive,negative,positive,B,NULL
1736947865,d4a2c746db75f9917924c6ab7f6c9f88,PennController,72,0,test_val,NULL,PennController,83,_Header_,Start,1736947563669,undefined,709,gratitude,abstract-positive,negative,positive,B,NULL
1736947865,d4a2c746db75f9917924c6ab7f6c9f88,PennController,72,0,test_val,NULL,PennController,83,_Header_,End,1736947563920,undefined,709,gratitude,abstract-positive,negative,positive,B,NULL
1736947865,d4a2c746db75f9917924c6ab7f6c9f88,PennController,72,0,test_val,NULL,Selector,unnamed-Selector,Selection,positive,1736947565132,undefined,709,gratitude,abstract-positive,negative,positive,B,negative;positive
1736947865,d4a2c746db75f9917924c6ab7f6c9f88,PennController,72,0,test_val,NULL,PennController,83,_Trial_,End,1736947565133,undefined,709,gratitude,abstract-positive,negative,positive,B,NULL
1736947865,d4a2c746db75f9917924c6ab7f6c9f88,PennController,58,0,test_val,NULL,PennController,69,_Trial_,Start,1736947565133,undefined,706,beach,concrete-positive,negative,positive,B,NULL
1736947865,d4a2c746db75f9917924c6ab7f6c9f88,PennController,58,0,test_val,NULL,PennController,69,_Header_,Start,1736947565133,undefined,706,beach,concrete-positive,negative,positive,B,NULL
1736947865,d4a2c746db75f9917924c6ab7f6c9f88,PennController,58,0,test_val,NULL,PennController,69,_Header_,End,1736947565385,undefined,706,beach,concrete-positive,negative,positive,B,NULL
1736947865,d4a2c746db75f9917924c6ab7f6c9f88,PennController,58,0,test_val,NULL,Selector,unnamed-Selector,Selection,positive,1736947566594,undefined,706,beach,concrete-positive,negative,positive,B,negative;positive
1736947865,d4a2c746db75f9917924c6ab7f6c9f88,PennController,58,0,test_val,NULL,PennController,69,_Trial_,End,1736947566594,undefined,706,beach,concrete-positive,negative,positive,B,NULL
1736947865,d4a2c746db75f9917924c6ab7f6c9f88,PennController,73,0,test_val,NULL,PennController,84,_Trial_,Start,1736947566594,undefined,737,inspiration,abstract-positive,negative,positive,B,NULL
1736947865,d4a2c746db75f9917924c6ab7f6c9f88,PennController,73,0,test_val,NULL,PennController,84,_Header_,Start,1736947566594,undefined,737,inspiration,abstract-positive,negative,positive,B,NULL
1736947865,d4a2c746db75f9917924c6ab7f6c9f88,PennController,73,0,test_val,NULL,PennController,84,_Header_,End,1736947566845,undefined,737,inspiration,abstract-positive,negative,positive,B,NULL
1736947865,d4a2c746db75f9917924c6ab7f6c9f88,PennController,73,0,test_val,NULL,Selector,unnamed-Selector,Selection,positive,1736947568082,undefined,737,inspiration,abstract-positive,negative,positive,B,negative;positive
1736947865,d4a2c746db75f9917924c6ab7f6c9f88,PennController,73,0,test_val,NULL,PennController,84,_Trial_,End,1736947568083,undefined,737,inspiration,abstract-positive,negative,positive,B,NULL
1736947865,d4a2c746db75f9917924c6ab7f6c9f88,PennController,74,0,test_val,NULL,PennController,85,_Trial_,Start,1736947568083,undefined,723,smoke,concrete-negative,negative,positive,B,NULL
1736947865,d4a2c746db75f9917924c6ab7f6c9f88,PennController,74,0,test_val,NULL,PennController,85,_Header_,Start,1736947568083,undefined,723,smoke,concrete-negative,negative,positive,B,NULL
1736947865,d4a2c746db75f9917924c6ab7f6c9f88,PennController,74,0,test_val,NULL,PennController,85,_Header_,End,1736947568333,undefined,723,smoke,concrete-negative,negative,positive,B,NULL
1736947865,d4a2c746db75f9917924c6ab7f6c9f88,PennController,74,0,test_val,NULL,Selector,unnamed-Selector,Selection,negative,1736947569561,undefined,723,smoke,concrete-negative,negative,positive,B,negative;positive
1736947865,d4a2c746db75f9917924c6ab7f6c9f88,PennController,74,0,test_val,NULL,PennController,85,_Trial_,End,1736947569561,undefined,723,smoke,concrete-negative,negative,positive,B,NULL
1736947865,d4a2c746db75f9917924c6ab7f6c9f88,PennController,56,0,test_val,NULL,PennController,67,_Trial_,Start,1736947569562,undefined,597,flowers,concrete-positive,negative,positive,B,NULL
1736947865,d4a2c746db75f9917924c6ab7f6c9f88,PennController,56,0,test_val,NULL,PennController,67,_Header_,Start,1736947569562,undefined,597,flowers,concrete-positive,negative,positive,B,NULL
1736947865,d4a2c746db75f9917924c6ab7f6c9f88,PennController,56,0,test_val,NULL,PennController,67,_Header_,End,1736947569816,undefined,597,flowers,concrete-positive,negative,positive,B,NULL
1736947865,d4a2c746db75f9917924c6ab7f6c9f88,PennController,56,0,test_val,NULL,Selector,unnamed-Selector,Selection,negative,1736947570916,undefined,597,flowers,concrete-positive,negative,positive,B,negative;positive
1736947865,d4a2c746db75f9917924c6ab7f6c9f88,PennController,56,0,test_val,NULL,PennController,67,_Trial_,End,1736947570916,undefined,597,flowers,concrete-positive,negative,positive,B,NULL
1736947865,d4a2c746db75f9917924c6ab7f6c9f88,PennController,64,0,test_val,NULL,PennController,75,_Trial_,Start,1736947570916,undefined,638,love,abstract-positive,negative,positive,B,NULL
1736947865,d4a2c746db75f9917924c6ab7f6c9f88,PennController,64,0,test_val,NULL,PennController,75,_Header_,Start,1736947570916,undefined,638,love,abstract-positive,negative,positive,B,NULL
