#
# Results on Wed, 15 Jan 2025 12:27:49 GMT
# USER AGENT: Mozilla/5.0 (Windows NT 10.0; Win64; x64; rv:134.0) Gecko/20100101 Firefox/134.0
# Design number was non-random = 0
#
# Columns below this comment are as follows:
# 1. Results reception time.
# 2. MD5 hash of participant's IP address.
# 3. Controller name.
# 4. Order number of item.
# 5. Inner element number.
# 6. Label.
# 7. Latin Square Group.
# 8. PennElementType.
# 9. PennElementName.
# 10. Parameter.
# 11. Value.
# 12. EventTime.
# 13. Comments.
1736944069,aa68dd7ef5051e7aae7bf50af44140b0,PennController,1,0,welcome,NULL,PennController,0,_Trial_,Start,1736943200794,NULL
1736944069,aa68dd7ef5051e7aae7bf50af44140b0,PennController,1,0,welcome,NULL,PennController,0,_Header_,Start,1736943200794,NULL
1736944069,aa68dd7ef5051e7aae7bf50af44140b0,PennController,1,0,welcome,NULL,PennController,0,_Header_,End,1736943201047,NULL
1736944069,aa68dd7ef5051e7aae7bf50af44140b0,PennController,1,0,welcome,NULL,PennController,0,_Trial_,End,1736943243731,NULL
# 13. ID.
# 14. Comments.
1736944069,aa68dd7ef5051e7aae7bf50af44140b0,PennController,124,0,consent,NULL,PennController,2,_Trial_,Start,1736943243733,61560db6a537f0c454b23db0,NULL
1736944069,aa68dd7ef5051e7aae7bf50af44140b0,PennController,124,0,consent,NULL,PennController,2,_Header_,Start,1736943243733,61560db6a537f0c454b23db0,NULL
1736944069,aa68dd7ef5051e7aae7bf50af44140b0,PennController,124,0,consent,NULL,PennController,2,_Header_,End,1736943243998,61560db6a537f0c454b23db0,NULL
1736944069,aa68dd7ef5051e7aae7bf50af44140b0,PennController,124,0,consent,NULL,TextInput,ID,Final,61560db6a537f0c454b23db0,1736943295488,61560db6a537f0c454b23db0,NULL
1736944069,aa68dd7ef5051e7aae7bf50af44140b0,PennController,124,0,consent,NULL,PennController,2,_Trial_,End,1736943295488,61560db6a537f0c454b23db0,NULL
# 13. Comments.
1736944069,aa68dd7ef5051e7aae7bf50af44140b0,PennController,126,0,instructions1_conc,NULL,PennController,4,_Trial_,Start,1736943295491,NULL
1736944069,aa68dd7ef5051e7aae7bf50af44140b0,PennController,126,0,instructions1_conc,NULL,PennController,4,_Header_,Start,1736943295491,NULL
1736944069,aa68dd7ef5051e7aae7bf50af44140b0,PennController,126,0,instructions1_conc,NULL,PennController,4,_Header_,End,1736943295748,NULL
1736944069,aa68dd7ef5051e7aae7bf50af44140b0,PennController,126,0,instructions1_conc,NULL,PennController,4,_Trial_,End,1736943329080,NULL
1736944069,aa68dd7ef5051e7aae7bf50af44140b0,PennController,127,0,instructions2_conc,NULL,PennController,5,_Trial_,Start,1736943329081,NULL
1736944069,aa68dd7ef5051e7aae7bf50af44140b0,PennController,127,0,instructions2_conc,NULL,PennController,5,_Header_,Start,1736943329081,NULL
1736944069,aa68dd7ef5051e7aae7bf50af44140b0,PennController,127,0,instructions2_conc,NULL,PennController,5,_Header_,End,1736943329332,NULL
1736944069,aa68dd7ef5051e7aae7bf50af44140b0,PennController,127,0,instructions2_conc,NULL,PennController,5,_Trial_,End,1736943355213,NULL
1736944069,aa68dd7ef5051e7aae7bf50af44140b0,PennController,134,0,instructions3_hands,NULL,PennController,12,_Trial_,Start,1736943355214,NULL
1736944069,aa68dd7ef5051e7aae7bf50af44140b0,PennController,134,0,instructions3_hands,NULL,PennController,12,_Header_,Start,1736943355214,NULL
1736944069,aa68dd7ef5051e7aae7bf50af44140b0,PennController,134,0,instructions3_hands,NULL,PennController,12,_Header_,End,1736943355465,NULL
1736944069,aa68dd7ef5051e7aae7bf50af44140b0,PennController,134,0,instructions3_hands,NULL,PennController,12,_Trial_,End,1736943368127,NULL
1736944069,aa68dd7ef5051e7aae7bf50af44140b0,PennController,129,0,practice_intro_conc,NULL,PennController,7,_Trial_,Start,1736943368128,NULL
1736944069,aa68dd7ef5051e7aae7bf50af44140b0,PennController,129,0,practice_intro_conc,NULL,PennController,7,_Header_,Start,1736943368128,NULL
1736944069,aa68dd7ef5051e7aae7bf50af44140b0,PennController,129,0,practice_intro_conc,NULL,PennController,7,_Header_,End,1736943368379,NULL
1736944069,aa68dd7ef5051e7aae7bf50af44140b0,PennController,129,0,practice_intro_conc,NULL,PennController,7,_Trial_,End,1736943370894,NULL
# 13. ID.
# 14. ReactionTime.
# 15. Word.
# 16. selectedKey.
# 17. selectedValue.
# 18. Key_value_F.
# 19. Key_value_J.
# 20. Group.
# 21. Comments.
1736944069,aa68dd7ef5051e7aae7bf50af44140b0,PennController,88,0,calibrator_conc_feedback,NULL,PennController,99,_Trial_,Start,1736943370895,undefined,3287,polite,undefined,concrete,abstract,concrete,A,NULL
1736944069,aa68dd7ef5051e7aae7bf50af44140b0,PennController,88,0,calibrator_conc_feedback,NULL,PennController,99,_Header_,Start,1736943370895,undefined,3287,polite,undefined,concrete,abstract,concrete,A,NULL
1736944069,aa68dd7ef5051e7aae7bf50af44140b0,PennController,88,0,calibrator_conc_feedback,NULL,PennController,99,_Header_,End,1736943371145,undefined,3287,polite,undefined,concrete,abstract,concrete,A,NULL
1736944069,aa68dd7ef5051e7aae7bf50af44140b0,PennController,88,0,calibrator_conc_feedback,NULL,Selector,Selection,Selection,abstract,1736943374934,undefined,3287,polite,undefined,concrete,abstract,concrete,A,abstract;concrete
1736944069,aa68dd7ef5051e7aae7bf50af44140b0,PennController,88,0,calibrator_conc_feedback,NULL,PennController,99,_Trial_,End,1736943376951,undefined,3287,polite,undefined,concrete,abstract,concrete,A,NULL
1736944069,aa68dd7ef5051e7aae7bf50af44140b0,PennController,84,0,calibrator_conc_feedback,NULL,PennController,95,_Trial_,Start,1736943376953,undefined,2870,gas,undefined,concrete,abstract,concrete,A,NULL
1736944069,aa68dd7ef5051e7aae7bf50af44140b0,PennController,84,0,calibrator_conc_feedback,NULL,PennController,95,_Header_,Start,1736943376953,undefined,2870,gas,undefined,concrete,abstract,concrete,A,NULL
1736944069,aa68dd7ef5051e7aae7bf50af44140b0,PennController,84,0,calibrator_conc_feedback,NULL,PennController,95,_Header_,End,1736943377214,undefined,2870,gas,undefined,concrete,abstract,concrete,A,NULL
1736944069,aa68dd7ef5051e7aae7bf50af44140b0,PennController,84,0,calibrator_conc_feedback,NULL,Selector,Selection,Selection,concrete,1736943380589,undefined,2870,gas,undefined,concrete,abstract,concrete,A,abstract;concrete
1736944069,aa68dd7ef5051e7aae7bf50af44140b0,PennController,84,0,calibrator_conc_feedback,NULL,PennController,95,_Trial_,End,1736943382601,undefined,2870,gas,undefined,concrete,abstract,concrete,A,NULL
1736944069,aa68dd7ef5051e7aae7bf50af44140b0,PennController,85,0,calibrator_conc_feedback,NULL,PennController,96,_Trial_,Start,1736943382602,undefined,1784,grasshopper,undefined,concrete,abstract,concrete,A,NULL
1736944069,aa68dd7ef5051e7aae7bf50af44140b0,PennController,85,0,calibrator_conc_feedback,NULL,PennController,96,_Header_,Start,1736943382602,undefined,1784,grasshopper,undefined,concrete,abstract,concrete,A,NULL
1736944069,aa68dd7ef5051e7aae7bf50af44140b0,PennController,85,0,calibrator_conc_feedback,NULL,PennController,96,_Header_,End,1736943382866,undefined,1784,grasshopper,undefined,concrete,abstract,concrete,A,NULL
1736944069,aa68dd7ef5051e7aae7bf50af44140b0,PennController,85,0,calibrator_conc_feedback,NULL,Selector,Selection,Selection,concrete,1736943385152,undefined,1784,grasshopper,undefined,concrete,abstract,concrete,A,abstract;concrete
1736944069,aa68dd7ef5051e7aae7bf50af44140b0,PennController,85,0,calibrator_conc_feedback,NULL,PennController,96,_Trial_,End,1736943387164,undefined,1784,grasshopper,undefined,concrete,abstract,concrete,A,NULL
1736944069,aa68dd7ef5051e7aae7bf50af44140b0,PennController,91,0,calibrator_conc_feedback,NULL,PennController,102,_Trial_,Start,1736943387167,undefined,2010,theory,undefined,concrete,abstract,concrete,A,NULL
1736944069,aa68dd7ef5051e7aae7bf50af44140b0,PennController,91,0,calibrator_conc_feedback,NULL,PennController,102,_Header_,Start,1736943387167,undefined,2010,theory,undefined,concrete,abstract,concrete,A,NULL
1736944069,aa68dd7ef5051e7aae7bf50af44140b0,PennController,91,0,calibrator_conc_feedback,NULL,PennController,102,_Header_,End,1736943387428,undefined,2010,theory,undefined,concrete,abstract,concrete,A,NULL
1736944069,aa68dd7ef5051e7aae7bf50af44140b0,PennController,91,0,calibrator_conc_feedback,NULL,Selector,Selection,Selection,abstract,1736943389950,undefined,2010,theory,undefined,concrete,abstract,concrete,A,abstract;concrete
1736944069,aa68dd7ef5051e7aae7bf50af44140b0,PennController,91,0,calibrator_conc_feedback,NULL,PennController,102,_Trial_,End,1736943391957,undefined,2010,theory,undefined,concrete,abstract,concrete,A,NULL
1736944069,aa68dd7ef5051e7aae7bf50af44140b0,PennController,86,0,calibrator_conc_feedback,NULL,PennController,97,_Trial_,Start,1736943391958,undefined,1445,kick,undefined,concrete,abstract,concrete,A,NULL
1736944069,aa68dd7ef5051e7aae7bf50af44140b0,PennController,86,0,calibrator_conc_feedback,NULL,PennController,97,_Header_,Start,1736943391958,undefined,1445,kick,undefined,concrete,abstract,concrete,A,NULL
1736944069,aa68dd7ef5051e7aae7bf50af44140b0,PennController,86,0,calibrator_conc_feedback,NULL,PennController,97,_Header_,End,1736943392216,undefined,1445,kick,undefined,concrete,abstract,concrete,A,NULL
1736944069,aa68dd7ef5051e7aae7bf50af44140b0,PennController,86,0,calibrator_conc_feedback,NULL,Selector,Selection,Selection,concrete,1736943394166,undefined,1445,kick,undefined,concrete,abstract,concrete,A,abstract;concrete
1736944069,aa68dd7ef5051e7aae7bf50af44140b0,PennController,86,0,calibrator_conc_feedback,NULL,PennController,97,_Trial_,End,1736943396175,undefined,1445,kick,undefined,concrete,abstract,concrete,A,NULL
1736944069,aa68dd7ef5051e7aae7bf50af44140b0,PennController,87,0,calibrator_conc_feedback,NULL,PennController,98,_Trial_,Start,1736943396176,undefined,2526,marriage,undefined,concrete,abstract,concrete,A,NULL
1736944069,aa68dd7ef5051e7aae7bf50af44140b0,PennController,87,0,calibrator_conc_feedback,NULL,PennController,98,_Header_,Start,1736943396176,undefined,2526,marriage,undefined,concrete,abstract,concrete,A,NULL
1736944069,aa68dd7ef5051e7aae7bf50af44140b0,PennController,87,0,calibrator_conc_feedback,NULL,PennController,98,_Header_,End,1736943396437,undefined,2526,marriage,undefined,concrete,abstract,concrete,A,NULL
1736944069,aa68dd7ef5051e7aae7bf50af44140b0,PennController,87,0,calibrator_conc_feedback,NULL,Selector,Selection,Selection,concrete,1736943399469,undefined,2526,marriage,undefined,concrete,abstract,concrete,A,abstract;concrete
1736944069,aa68dd7ef5051e7aae7bf50af44140b0,PennController,87,0,calibrator_conc_feedback,NULL,PennController,98,_Trial_,End,1736943401484,undefined,2526,marriage,undefined,concrete,abstract,concrete,A,NULL
1736944069,aa68dd7ef5051e7aae7bf50af44140b0,PennController,89,0,calibrator_conc_feedback,NULL,PennController,100,_Trial_,Start,1736943401484,undefined,2542,shirt,undefined,concrete,abstract,concrete,A,NULL
1736944069,aa68dd7ef5051e7aae7bf50af44140b0,PennController,89,0,calibrator_conc_feedback,NULL,PennController,100,_Header_,Start,1736943401484,undefined,2542,shirt,undefined,concrete,abstract,concrete,A,NULL
1736944069,aa68dd7ef5051e7aae7bf50af44140b0,PennController,89,0,calibrator_conc_feedback,NULL,PennController,100,_Header_,End,1736943401744,undefined,2542,shirt,undefined,concrete,abstract,concrete,A,NULL
1736944069,aa68dd7ef5051e7aae7bf50af44140b0,PennController,89,0,calibrator_conc_feedback,NULL,Selector,Selection,Selection,concrete,1736943404798,undefined,2542,shirt,undefined,concrete,abstract,concrete,A,abstract;concrete
1736944069,aa68dd7ef5051e7aae7bf50af44140b0,PennController,89,0,calibrator_conc_feedback,NULL,PennController,100,_Trial_,End,1736943406814,undefined,2542,shirt,undefined,concrete,abstract,concrete,A,NULL
1736944069,aa68dd7ef5051e7aae7bf50af44140b0,PennController,92,0,calibrator_conc_feedback,NULL,PennController,103,_Trial_,Start,1736943406815,undefined,2347,whistle,undefined,concrete,abstract,concrete,A,NULL
1736944069,aa68dd7ef5051e7aae7bf50af44140b0,PennController,92,0,calibrator_conc_feedback,NULL,PennController,103,_Header_,Start,1736943406815,undefined,2347,whistle,undefined,concrete,abstract,concrete,A,NULL
1736944069,aa68dd7ef5051e7aae7bf50af44140b0,PennController,92,0,calibrator_conc_feedback,NULL,PennController,103,_Header_,End,1736943407078,undefined,2347,whistle,undefined,concrete,abstract,concrete,A,NULL
1736944069,aa68dd7ef5051e7aae7bf50af44140b0,PennController,92,0,calibrator_conc_feedback,NULL,Selector,Selection,Selection,concrete,1736943409941,undefined,2347,whistle,undefined,concrete,abstract,concrete,A,abstract;concrete
1736944069,aa68dd7ef5051e7aae7bf50af44140b0,PennController,92,0,calibrator_conc_feedback,NULL,PennController,103,_Trial_,End,1736943411951,undefined,2347,whistle,undefined,concrete,abstract,concrete,A,NULL
1736944069,aa68dd7ef5051e7aae7bf50af44140b0,PennController,90,0,calibrator_conc_feedback,NULL,PennController,101,_Trial_,Start,1736943411952,undefined,1577,sugar,undefined,concrete,abstract,concrete,A,NULL
1736944069,aa68dd7ef5051e7aae7bf50af44140b0,PennController,90,0,calibrator_conc_feedback,NULL,PennController,101,_Header_,Start,1736943411952,undefined,1577,sugar,undefined,concrete,abstract,concrete,A,NULL
1736944069,aa68dd7ef5051e7aae7bf50af44140b0,PennController,90,0,calibrator_conc_feedback,NULL,PennController,101,_Header_,End,1736943412214,undefined,1577,sugar,undefined,concrete,abstract,concrete,A,NULL
1736944069,aa68dd7ef5051e7aae7bf50af44140b0,PennController,90,0,calibrator_conc_feedback,NULL,Selector,Selection,Selection,concrete,1736943414302,undefined,1577,sugar,undefined,concrete,abstract,concrete,A,abstract;concrete
1736944069,aa68dd7ef5051e7aae7bf50af44140b0,PennController,90,0,calibrator_conc_feedback,NULL,PennController,101,_Trial_,End,1736943416304,undefined,1577,sugar,undefined,concrete,abstract,concrete,A,NULL
1736944069,aa68dd7ef5051e7aae7bf50af44140b0,PennController,93,0,calibrator_conc_feedback,NULL,PennController,104,_Trial_,Start,1736943416305,undefined,1434,insecure,undefined,concrete,abstract,concrete,A,NULL
1736944069,aa68dd7ef5051e7aae7bf50af44140b0,PennController,93,0,calibrator_conc_feedback,NULL,PennController,104,_Header_,Start,1736943416305,undefined,1434,insecure,undefined,concrete,abstract,concrete,A,NULL
1736944069,aa68dd7ef5051e7aae7bf50af44140b0,PennController,93,0,calibrator_conc_feedback,NULL,PennController,104,_Header_,End,1736943416569,undefined,1434,insecure,undefined,concrete,abstract,concrete,A,NULL
1736944069,aa68dd7ef5051e7aae7bf50af44140b0,PennController,93,0,calibrator_conc_feedback,NULL,Selector,Selection,Selection,abstract,1736943418518,undefined,1434,insecure,undefined,concrete,abstract,concrete,A,abstract;concrete
1736944069,aa68dd7ef5051e7aae7bf50af44140b0,PennController,93,0,calibrator_conc_feedback,NULL,PennController,104,_Trial_,End,1736943420528,undefined,1434,insecure,undefined,concrete,abstract,concrete,A,NULL
# 16. Key_value_F.
# 17. Key_value_J.
# 18. Group.
# 19. Comments.
1736944069,aa68dd7ef5051e7aae7bf50af44140b0,PennController,94,0,calibrator_conc_no_feedback,NULL,PennController,105,_Trial_,Start,1736943420529,undefined,1483,gas,abstract,concrete,A,NULL
1736944069,aa68dd7ef5051e7aae7bf50af44140b0,PennController,94,0,calibrator_conc_no_feedback,NULL,PennController,105,_Header_,Start,1736943420529,undefined,1483,gas,abstract,concrete,A,NULL
1736944069,aa68dd7ef5051e7aae7bf50af44140b0,PennController,94,0,calibrator_conc_no_feedback,NULL,PennController,105,_Header_,End,1736943420789,undefined,1483,gas,abstract,concrete,A,NULL
1736944069,aa68dd7ef5051e7aae7bf50af44140b0,PennController,94,0,calibrator_conc_no_feedback,NULL,Selector,unnamed-Selector,Selection,concrete,1736943422774,undefined,1483,gas,abstract,concrete,A,abstract;concrete
1736944069,aa68dd7ef5051e7aae7bf50af44140b0,PennController,94,0,calibrator_conc_no_feedback,NULL,PennController,105,_Trial_,End,1736943422775,undefined,1483,gas,abstract,concrete,A,NULL
1736944069,aa68dd7ef5051e7aae7bf50af44140b0,PennController,101,0,calibrator_conc_no_feedback,NULL,PennController,112,_Trial_,Start,1736943422776,undefined,1979,theory,abstract,concrete,A,NULL
1736944069,aa68dd7ef5051e7aae7bf50af44140b0,PennController,101,0,calibrator_conc_no_feedback,NULL,PennController,112,_Header_,Start,1736943422776,undefined,1979,theory,abstract,concrete,A,NULL
1736944069,aa68dd7ef5051e7aae7bf50af44140b0,PennController,101,0,calibrator_conc_no_feedback,NULL,PennController,112,_Header_,End,1736943423032,undefined,1979,theory,abstract,concrete,A,NULL
1736944069,aa68dd7ef5051e7aae7bf50af44140b0,PennController,101,0,calibrator_conc_no_feedback,NULL,Selector,unnamed-Selector,Selection,abstract,1736943425526,undefined,1979,theory,abstract,concrete,A,abstract;concrete
1736944069,aa68dd7ef5051e7aae7bf50af44140b0,PennController,101,0,calibrator_conc_no_feedback,NULL,PennController,112,_Trial_,End,1736943425527,undefined,1979,theory,abstract,concrete,A,NULL
1736944069,aa68dd7ef5051e7aae7bf50af44140b0,PennController,98,0,calibrator_conc_no_feedback,NULL,PennController,109,_Trial_,Start,1736943425527,undefined,1229,polite,abstract,concrete,A,NULL
1736944069,aa68dd7ef5051e7aae7bf50af44140b0,PennController,98,0,calibrator_conc_no_feedback,NULL,PennController,109,_Header_,Start,1736943425527,undefined,1229,polite,abstract,concrete,A,NULL
1736944069,aa68dd7ef5051e7aae7bf50af44140b0,PennController,98,0,calibrator_conc_no_feedback,NULL,PennController,109,_Header_,End,1736943425783,undefined,1229,polite,abstract,concrete,A,NULL
1736944069,aa68dd7ef5051e7aae7bf50af44140b0,PennController,98,0,calibrator_conc_no_feedback,NULL,Selector,unnamed-Selector,Selection,abstract,1736943427526,undefined,1229,polite,abstract,concrete,A,abstract;concrete
1736944069,aa68dd7ef5051e7aae7bf50af44140b0,PennController,98,0,calibrator_conc_no_feedback,NULL,PennController,109,_Trial_,End,1736943427526,undefined,1229,polite,abstract,concrete,A,NULL
1736944069,aa68dd7ef5051e7aae7bf50af44140b0,PennController,103,0,calibrator_conc_no_feedback,NULL,PennController,114,_Trial_,Start,1736943427527,undefined,1249,insecure,abstract,concrete,A,NULL
1736944069,aa68dd7ef5051e7aae7bf50af44140b0,PennController,103,0,calibrator_conc_no_feedback,NULL,PennController,114,_Header_,Start,1736943427527,undefined,1249,insecure,abstract,concrete,A,NULL
1736944069,aa68dd7ef5051e7aae7bf50af44140b0,PennController,103,0,calibrator_conc_no_feedback,NULL,PennController,114,_Header_,End,1736943427781,undefined,1249,insecure,abstract,concrete,A,NULL
1736944069,aa68dd7ef5051e7aae7bf50af44140b0,PennController,103,0,calibrator_conc_no_feedback,NULL,Selector,unnamed-Selector,Selection,abstract,1736943429542,undefined,1249,insecure,abstract,concrete,A,abstract;concrete
1736944069,aa68dd7ef5051e7aae7bf50af44140b0,PennController,103,0,calibrator_conc_no_feedback,NULL,PennController,114,_Trial_,End,1736943429542,undefined,1249,insecure,abstract,concrete,A,NULL
1736944069,aa68dd7ef5051e7aae7bf50af44140b0,PennController,100,0,calibrator_conc_no_feedback,NULL,PennController,111,_Trial_,Start,1736943429542,undefined,1072,sugar,abstract,concrete,A,NULL
1736944069,aa68dd7ef5051e7aae7bf50af44140b0,PennController,100,0,calibrator_conc_no_feedback,NULL,PennController,111,_Header_,Start,1736943429542,undefined,1072,sugar,abstract,concrete,A,NULL
1736944069,aa68dd7ef5051e7aae7bf50af44140b0,PennController,100,0,calibrator_conc_no_feedback,NULL,PennController,111,_Header_,End,1736943429806,undefined,1072,sugar,abstract,concrete,A,NULL
1736944069,aa68dd7ef5051e7aae7bf50af44140b0,PennController,100,0,calibrator_conc_no_feedback,NULL,Selector,unnamed-Selector,Selection,concrete,1736943431391,undefined,1072,sugar,abstract,concrete,A,abstract;concrete
1736944069,aa68dd7ef5051e7aae7bf50af44140b0,PennController,100,0,calibrator_conc_no_feedback,NULL,PennController,111,_Trial_,End,1736943431392,undefined,1072,sugar,abstract,concrete,A,NULL
1736944069,aa68dd7ef5051e7aae7bf50af44140b0,PennController,99,0,calibrator_conc_no_feedback,NULL,PennController,110,_Trial_,Start,1736943431392,undefined,1194,shirt,abstract,concrete,A,NULL
1736944069,aa68dd7ef5051e7aae7bf50af44140b0,PennController,99,0,calibrator_conc_no_feedback,NULL,PennController,110,_Header_,Start,1736943431392,undefined,1194,shirt,abstract,concrete,A,NULL
1736944069,aa68dd7ef5051e7aae7bf50af44140b0,PennController,99,0,calibrator_conc_no_feedback,NULL,PennController,110,_Header_,End,1736943431645,undefined,1194,shirt,abstract,concrete,A,NULL
1736944069,aa68dd7ef5051e7aae7bf50af44140b0,PennController,99,0,calibrator_conc_no_feedback,NULL,Selector,unnamed-Selector,Selection,concrete,1736943433352,undefined,1194,shirt,abstract,concrete,A,abstract;concrete
1736944069,aa68dd7ef5051e7aae7bf50af44140b0,PennController,99,0,calibrator_conc_no_feedback,NULL,PennController,110,_Trial_,End,1736943433354,undefined,1194,shirt,abstract,concrete,A,NULL
1736944069,aa68dd7ef5051e7aae7bf50af44140b0,PennController,96,0,calibrator_conc_no_feedback,NULL,PennController,107,_Trial_,Start,1736943433355,undefined,1218,kick,abstract,concrete,A,NULL
1736944069,aa68dd7ef5051e7aae7bf50af44140b0,PennController,96,0,calibrator_conc_no_feedback,NULL,PennController,107,_Header_,Start,1736943433355,undefined,1218,kick,abstract,concrete,A,NULL
1736944069,aa68dd7ef5051e7aae7bf50af44140b0,PennController,96,0,calibrator_conc_no_feedback,NULL,PennController,107,_Header_,End,1736943433609,undefined,1218,kick,abstract,concrete,A,NULL
1736944069,aa68dd7ef5051e7aae7bf50af44140b0,PennController,96,0,calibrator_conc_no_feedback,NULL,Selector,unnamed-Selector,Selection,concrete,1736943435342,undefined,1218,kick,abstract,concrete,A,abstract;concrete
1736944069,aa68dd7ef5051e7aae7bf50af44140b0,PennController,96,0,calibrator_conc_no_feedback,NULL,PennController,107,_Trial_,End,1736943435343,undefined,1218,kick,abstract,concrete,A,NULL
1736944069,aa68dd7ef5051e7aae7bf50af44140b0,PennController,95,0,calibrator_conc_no_feedback,NULL,PennController,106,_Trial_,Start,1736943435344,undefined,2321,grasshopper,abstract,concrete,A,NULL
1736944069,aa68dd7ef5051e7aae7bf50af44140b0,PennController,95,0,calibrator_conc_no_feedback,NULL,PennController,106,_Header_,Start,1736943435344,undefined,2321,grasshopper,abstract,concrete,A,NULL
1736944069,aa68dd7ef5051e7aae7bf50af44140b0,PennController,95,0,calibrator_conc_no_feedback,NULL,PennController,106,_Header_,End,1736943435604,undefined,2321,grasshopper,abstract,concrete,A,NULL
1736944069,aa68dd7ef5051e7aae7bf50af44140b0,PennController,95,0,calibrator_conc_no_feedback,NULL,Selector,unnamed-Selector,Selection,concrete,1736943438438,undefined,2321,grasshopper,abstract,concrete,A,abstract;concrete
1736944069,aa68dd7ef5051e7aae7bf50af44140b0,PennController,95,0,calibrator_conc_no_feedback,NULL,PennController,106,_Trial_,End,1736943438438,undefined,2321,grasshopper,abstract,concrete,A,NULL
1736944069,aa68dd7ef5051e7aae7bf50af44140b0,PennController,97,0,calibrator_conc_no_feedback,NULL,PennController,108,_Trial_,Start,1736943438439,undefined,1939,marriage,abstract,concrete,A,NULL
1736944069,aa68dd7ef5051e7aae7bf50af44140b0,PennController,97,0,calibrator_conc_no_feedback,NULL,PennController,108,_Header_,Start,1736943438439,undefined,1939,marriage,abstract,concrete,A,NULL
1736944069,aa68dd7ef5051e7aae7bf50af44140b0,PennController,97,0,calibrator_conc_no_feedback,NULL,PennController,108,_Header_,End,1736943438697,undefined,1939,marriage,abstract,concrete,A,NULL
1736944069,aa68dd7ef5051e7aae7bf50af44140b0,PennController,97,0,calibrator_conc_no_feedback,NULL,Selector,unnamed-Selector,Selection,concrete,1736943441137,undefined,1939,marriage,abstract,concrete,A,abstract;concrete
1736944069,aa68dd7ef5051e7aae7bf50af44140b0,PennController,97,0,calibrator_conc_no_feedback,NULL,PennController,108,_Trial_,End,1736943441139,undefined,1939,marriage,abstract,concrete,A,NULL
1736944069,aa68dd7ef5051e7aae7bf50af44140b0,PennController,102,0,calibrator_conc_no_feedback,NULL,PennController,113,_Trial_,Start,1736943441140,undefined,1237,whistle,abstract,concrete,A,NULL
1736944069,aa68dd7ef5051e7aae7bf50af44140b0,PennController,102,0,calibrator_conc_no_feedback,NULL,PennController,113,_Header_,Start,1736943441140,undefined,1237,whistle,abstract,concrete,A,NULL
1736944069,aa68dd7ef5051e7aae7bf50af44140b0,PennController,102,0,calibrator_conc_no_feedback,NULL,PennController,113,_Header_,End,1736943441401,undefined,1237,whistle,abstract,concrete,A,NULL
1736944069,aa68dd7ef5051e7aae7bf50af44140b0,PennController,102,0,calibrator_conc_no_feedback,NULL,Selector,unnamed-Selector,Selection,concrete,1736943443151,undefined,1237,whistle,abstract,concrete,A,abstract;concrete
1736944069,aa68dd7ef5051e7aae7bf50af44140b0,PennController,102,0,calibrator_conc_no_feedback,NULL,PennController,113,_Trial_,End,1736943443152,undefined,1237,whistle,abstract,concrete,A,NULL
# 13. Comments.
1736944069,aa68dd7ef5051e7aae7bf50af44140b0,PennController,130,0,endinstructions_conc,NULL,PennController,8,_Trial_,Start,1736943443153,NULL
1736944069,aa68dd7ef5051e7aae7bf50af44140b0,PennController,130,0,endinstructions_conc,NULL,PennController,8,_Header_,Start,1736943443153,NULL
1736944069,aa68dd7ef5051e7aae7bf50af44140b0,PennController,130,0,endinstructions_conc,NULL,PennController,8,_Header_,End,1736943443410,NULL
1736944069,aa68dd7ef5051e7aae7bf50af44140b0,PennController,130,0,endinstructions_conc,NULL,PennController,8,_Trial_,End,1736943453113,NULL
# 13. ID.
# 14. ReactionTime.
# 15. Word.
# 16. ConcValCombo.
# 17. Key_value_F.
# 18. Key_value_J.
# 19. Group.
# 20. Comments.
1736944069,aa68dd7ef5051e7aae7bf50af44140b0,PennController,33,0,test_conc,NULL,PennController,44,_Trial_,Start,1736943453115,undefined,1482,inspiration,abstract-positive,negative,positive,B,NULL
1736944069,aa68dd7ef5051e7aae7bf50af44140b0,PennController,33,0,test_conc,NULL,PennController,44,_Header_,Start,1736943453115,undefined,1482,inspiration,abstract-positive,negative,positive,B,NULL
1736944069,aa68dd7ef5051e7aae7bf50af44140b0,PennController,33,0,test_conc,NULL,PennController,44,_Header_,End,1736943453372,undefined,1482,inspiration,abstract-positive,negative,positive,B,NULL
1736944069,aa68dd7ef5051e7aae7bf50af44140b0,PennController,33,0,test_conc,NULL,Selector,unnamed-Selector,Selection,negative,1736943455368,undefined,1482,inspiration,abstract-positive,negative,positive,B,negative;positive
1736944069,aa68dd7ef5051e7aae7bf50af44140b0,PennController,33,0,test_conc,NULL,PennController,44,_Trial_,End,1736943455369,undefined,1482,inspiration,abstract-positive,negative,positive,B,NULL
1736944069,aa68dd7ef5051e7aae7bf50af44140b0,PennController,21,0,test_conc,NULL,PennController,32,_Trial_,Start,1736943455371,undefined,2360,rain,concrete-positive,negative,positive,B,NULL
1736944069,aa68dd7ef5051e7aae7bf50af44140b0,PennController,21,0,test_conc,NULL,PennController,32,_Header_,Start,1736943455371,undefined,2360,rain,concrete-positive,negative,positive,B,NULL
1736944069,aa68dd7ef5051e7aae7bf50af44140b0,PennController,21,0,test_conc,NULL,PennController,32,_Header_,End,1736943455630,undefined,2360,rain,concrete-positive,negative,positive,B,NULL
1736944069,aa68dd7ef5051e7aae7bf50af44140b0,PennController,21,0,test_conc,NULL,Selector,unnamed-Selector,Selection,positive,1736943458502,undefined,2360,rain,concrete-positive,negative,positive,B,negative;positive
1736944069,aa68dd7ef5051e7aae7bf50af44140b0,PennController,21,0,test_conc,NULL,PennController,32,_Trial_,End,1736943458503,undefined,2360,rain,concrete-positive,negative,positive,B,NULL
1736944069,aa68dd7ef5051e7aae7bf50af44140b0,PennController,6,0,test_conc,NULL,PennController,17,_Trial_,Start,1736943458503,undefined,1788,anxiety,abstract-negative,negative,positive,B,NULL
1736944069,aa68dd7ef5051e7aae7bf50af44140b0,PennController,6,0,test_conc,NULL,PennController,17,_Header_,Start,1736943458503,undefined,1788,anxiety,abstract-negative,negative,positive,B,NULL
1736944069,aa68dd7ef5051e7aae7bf50af44140b0,PennController,6,0,test_conc,NULL,PennController,17,_Header_,End,1736943458759,undefined,1788,anxiety,abstract-negative,negative,positive,B,NULL
1736944069,aa68dd7ef5051e7aae7bf50af44140b0,PennController,6,0,test_conc,NULL,Selector,unnamed-Selector,Selection,negative,1736943461064,undefined,1788,anxiety,abstract-negative,negative,positive,B,negative;positive
1736944069,aa68dd7ef5051e7aae7bf50af44140b0,PennController,6,0,test_conc,NULL,PennController,17,_Trial_,End,1736943461065,undefined,1788,anxiety,abstract-negative,negative,positive,B,NULL
1736944069,aa68dd7ef5051e7aae7bf50af44140b0,PennController,26,0,test_conc,NULL,PennController,37,_Trial_,Start,1736943461067,undefined,1371,joy,abstract-positive,negative,positive,B,NULL
1736944069,aa68dd7ef5051e7aae7bf50af44140b0,PennController,26,0,test_conc,NULL,PennController,37,_Header_,Start,1736943461067,undefined,1371,joy,abstract-positive,negative,positive,B,NULL
1736944069,aa68dd7ef5051e7aae7bf50af44140b0,PennController,26,0,test_conc,NULL,PennController,37,_Header_,End,1736943461317,undefined,1371,joy,abstract-positive,negative,positive,B,NULL
1736944069,aa68dd7ef5051e7aae7bf50af44140b0,PennController,26,0,test_conc,NULL,Selector,unnamed-Selector,Selection,positive,1736943463199,undefined,1371,joy,abstract-positive,negative,positive,B,negative;positive
1736944069,aa68dd7ef5051e7aae7bf50af44140b0,PennController,26,0,test_conc,NULL,PennController,37,_Trial_,End,1736943463202,undefined,1371,joy,abstract-positive,negative,positive,B,NULL
1736944069,aa68dd7ef5051e7aae7bf50af44140b0,PennController,9,0,test_conc,NULL,PennController,20,_Trial_,Start,1736943463203,undefined,2166,grief,abstract-negative,negative,positive,B,NULL
1736944069,aa68dd7ef5051e7aae7bf50af44140b0,PennController,9,0,test_conc,NULL,PennController,20,_Header_,Start,1736943463203,undefined,2166,grief,abstract-negative,negative,positive,B,NULL
1736944069,aa68dd7ef5051e7aae7bf50af44140b0,PennController,9,0,test_conc,NULL,PennController,20,_Header_,End,1736943463454,undefined,2166,grief,abstract-negative,negative,positive,B,NULL
1736944069,aa68dd7ef5051e7aae7bf50af44140b0,PennController,9,0,test_conc,NULL,Selector,unnamed-Selector,Selection,negative,1736943466134,undefined,2166,grief,abstract-negative,negative,positive,B,negative;positive
1736944069,aa68dd7ef5051e7aae7bf50af44140b0,PennController,9,0,test_conc,NULL,PennController,20,_Trial_,End,1736943466134,undefined,2166,grief,abstract-negative,negative,positive,B,NULL
1736944069,aa68dd7ef5051e7aae7bf50af44140b0,PennController,17,0,test_conc,NULL,PennController,28,_Trial_,Start,1736943466135,undefined,1054,music,concrete-positive,negative,positive,B,NULL
1736944069,aa68dd7ef5051e7aae7bf50af44140b0,PennController,17,0,test_conc,NULL,PennController,28,_Header_,Start,1736943466135,undefined,1054,music,concrete-positive,negative,positive,B,NULL
1736944069,aa68dd7ef5051e7aae7bf50af44140b0,PennController,17,0,test_conc,NULL,PennController,28,_Header_,End,1736943466398,undefined,1054,music,concrete-positive,negative,positive,B,NULL
1736944069,aa68dd7ef5051e7aae7bf50af44140b0,PennController,17,0,test_conc,NULL,Selector,unnamed-Selector,Selection,positive,1736943467965,undefined,1054,music,concrete-positive,negative,positive,B,negative;positive
1736944069,aa68dd7ef5051e7aae7bf50af44140b0,PennController,17,0,test_conc,NULL,PennController,28,_Trial_,End,1736943467966,undefined,1054,music,concrete-positive,negative,positive,B,NULL
1736944069,aa68dd7ef5051e7aae7bf50af44140b0,PennController,15,0,test_conc,NULL,PennController,26,_Trial_,Start,1736943467967,undefined,1443,laughter,concrete-positive,negative,positive,B,NULL
1736944069,aa68dd7ef5051e7aae7bf50af44140b0,PennController,15,0,test_conc,NULL,PennController,26,_Header_,Start,1736943467967,undefined,1443,laughter,concrete-positive,negative,positive,B,NULL
1736944069,aa68dd7ef5051e7aae7bf50af44140b0,PennController,15,0,test_conc,NULL,PennController,26,_Header_,End,1736943468227,undefined,1443,laughter,concrete-positive,negative,positive,B,NULL
1736944069,aa68dd7ef5051e7aae7bf50af44140b0,PennController,15,0,test_conc,NULL,Selector,unnamed-Selector,Selection,positive,1736943470183,undefined,1443,laughter,concrete-positive,negative,positive,B,negative;positive
1736944069,aa68dd7ef5051e7aae7bf50af44140b0,PennController,15,0,test_conc,NULL,PennController,26,_Trial_,End,1736943470183,undefined,1443,laughter,concrete-positive,negative,positive,B,NULL
1736944069,aa68dd7ef5051e7aae7bf50af44140b0,PennController,37,0,test_conc,NULL,PennController,48,_Trial_,Start,1736943470183,undefined,1576,vomit,concrete-negative,negative,positive,B,NULL
1736944069,aa68dd7ef5051e7aae7bf50af44140b0,PennController,37,0,test_conc,NULL,PennController,48,_Header_,Start,1736943470183,undefined,1576,vomit,concrete-negative,negative,positive,B,NULL
1736944069,aa68dd7ef5051e7aae7bf50af44140b0,PennController,37,0,test_conc,NULL,PennController,48,_Header_,End,1736943470438,undefined,1576,vomit,concrete-negative,negative,positive,B,NULL
1736944069,aa68dd7ef5051e7aae7bf50af44140b0,PennController,37,0,test_conc,NULL,Selector,unnamed-Selector,Selection,negative,1736943472526,undefined,1576,vomit,concrete-negative,negative,positive,B,negative;positive
1736944069,aa68dd7ef5051e7aae7bf50af44140b0,PennController,37,0,test_conc,NULL,PennController,48,_Trial_,End,1736943472526,undefined,1576,vomit,concrete-negative,negative,positive,B,NULL
1736944069,aa68dd7ef5051e7aae7bf50af44140b0,PennController,40,0,test_conc,NULL,PennController,51,_Trial_,Start,1736943472527,undefined,1086,mold,concrete-negative,negative,positive,B,NULL
1736944069,aa68dd7ef5051e7aae7bf50af44140b0,PennController,40,0,test_conc,NULL,PennController,51,_Header_,Start,1736943472527,undefined,1086,mold,concrete-negative,negative,positive,B,NULL
1736944069,aa68dd7ef5051e7aae7bf50af44140b0,PennController,40,0,test_conc,NULL,PennController,51,_Header_,End,1736943472780,undefined,1086,mold,concrete-negative,negative,positive,B,NULL
1736944069,aa68dd7ef5051e7aae7bf50af44140b0,PennController,40,0,test_conc,NULL,Selector,unnamed-Selector,Selection,negative,1736943474382,undefined,1086,mold,concrete-negative,negative,positive,B,negative;positive
1736944069,aa68dd7ef5051e7aae7bf50af44140b0,PennController,40,0,test_conc,NULL,PennController,51,_Trial_,End,1736943474383,undefined,1086,mold,concrete-negative,negative,positive,B,NULL
1736944069,aa68dd7ef5051e7aae7bf50af44140b0,PennController,4,0,test_conc,NULL,PennController,15,_Trial_,Start,1736943474383,undefined,1740,lonliness,abstract-negative,negative,positive,B,NULL
1736944069,aa68dd7ef5051e7aae7bf50af44140b0,PennController,4,0,test_conc,NULL,PennController,15,_Header_,Start,1736943474383,undefined,1740,lonliness,abstract-negative,negative,positive,B,NULL
1736944069,aa68dd7ef5051e7aae7bf50af44140b0,PennController,4,0,test_conc,NULL,PennController,15,_Header_,End,1736943474647,undefined,1740,lonliness,abstract-negative,negative,positive,B,NULL
1736944069,aa68dd7ef5051e7aae7bf50af44140b0,PennController,4,0,test_conc,NULL,Selector,unnamed-Selector,Selection,negative,1736943476901,undefined,1740,lonliness,abstract-negative,negative,positive,B,negative;positive
1736944069,aa68dd7ef5051e7aae7bf50af44140b0,PennController,4,0,test_conc,NULL,PennController,15,_Trial_,End,1736943476902,undefined,1740,lonliness,abstract-negative,negative,positive,B,NULL
1736944069,aa68dd7ef5051e7aae7bf50af44140b0,PennController,12,0,test_conc,NULL,PennController,23,_Trial_,Start,1736943476902,undefined,1349,shame,abstract-negative,negative,positive,B,NULL
1736944069,aa68dd7ef5051e7aae7bf50af44140b0,PennController,12,0,test_conc,NULL,PennController,23,_Header_,Start,1736943476902,undefined,1349,shame,abstract-negative,negative,positive,B,NULL
1736944069,aa68dd7ef5051e7aae7bf50af44140b0,PennController,12,0,test_conc,NULL,PennController,23,_Header_,End,1736943477169,undefined,1349,shame,abstract-negative,negative,positive,B,NULL
1736944069,aa68dd7ef5051e7aae7bf50af44140b0,PennController,12,0,test_conc,NULL,Selector,unnamed-Selector,Selection,negative,1736943479031,undefined,1349,shame,abstract-negative,negative,positive,B,negative;positive
1736944069,aa68dd7ef5051e7aae7bf50af44140b0,PennController,12,0,test_conc,NULL,PennController,23,_Trial_,End,1736943479033,undefined,1349,shame,abstract-negative,negative,positive,B,NULL
1736944069,aa68dd7ef5051e7aae7bf50af44140b0,PennController,42,0,test_conc,NULL,PennController,53,_Trial_,Start,1736943479035,undefined,1203,stench,concrete-negative,negative,positive,B,NULL
1736944069,aa68dd7ef5051e7aae7bf50af44140b0,PennController,42,0,test_conc,NULL,PennController,53,_Header_,Start,1736943479035,undefined,1203,stench,concrete-negative,negative,positive,B,NULL
1736944069,aa68dd7ef5051e7aae7bf50af44140b0,PennController,42,0,test_conc,NULL,PennController,53,_Header_,End,1736943479298,undefined,1203,stench,concrete-negative,negative,positive,B,NULL
1736944069,aa68dd7ef5051e7aae7bf50af44140b0,PennController,42,0,test_conc,NULL,Selector,unnamed-Selector,Selection,negative,1736943481014,undefined,1203,stench,concrete-negative,negative,positive,B,negative;positive
1736944069,aa68dd7ef5051e7aae7bf50af44140b0,PennController,42,0,test_conc,NULL,PennController,53,_Trial_,End,1736943481016,undefined,1203,stench,concrete-negative,negative,positive,B,NULL
1736944069,aa68dd7ef5051e7aae7bf50af44140b0,PennController,18,0,test_conc,NULL,PennController,29,_Trial_,Start,1736943481017,undefined,1044,beach,concrete-positive,negative,positive,B,NULL
1736944069,aa68dd7ef5051e7aae7bf50af44140b0,PennController,18,0,test_conc,NULL,PennController,29,_Header_,Start,1736943481017,undefined,1044,beach,concrete-positive,negative,positive,B,NULL
1736944069,aa68dd7ef5051e7aae7bf50af44140b0,PennController,18,0,test_conc,NULL,PennController,29,_Header_,End,1736943481275,undefined,1044,beach,concrete-positive,negative,positive,B,NULL
1736944069,aa68dd7ef5051e7aae7bf50af44140b0,PennController,18,0,test_conc,NULL,Selector,unnamed-Selector,Selection,positive,1736943482821,undefined,1044,beach,concrete-positive,negative,positive,B,negative;positive
1736944069,aa68dd7ef5051e7aae7bf50af44140b0,PennController,18,0,test_conc,NULL,PennController,29,_Trial_,End,1736943482822,undefined,1044,beach,concrete-positive,negative,positive,B,NULL
1736944069,aa68dd7ef5051e7aae7bf50af44140b0,PennController,29,0,test_conc,NULL,PennController,40,_Trial_,Start,1736943482822,undefined,982,kindness,abstract-positive,negative,positive,B,NULL
1736944069,aa68dd7ef5051e7aae7bf50af44140b0,PennController,29,0,test_conc,NULL,PennController,40,_Header_,Start,1736943482822,undefined,982,kindness,abstract-positive,negative,positive,B,NULL
1736944069,aa68dd7ef5051e7aae7bf50af44140b0,PennController,29,0,test_conc,NULL,PennController,40,_Header_,End,1736943483081,undefined,982,kindness,abstract-positive,negative,positive,B,NULL
1736944069,aa68dd7ef5051e7aae7bf50af44140b0,PennController,29,0,test_conc,NULL,Selector,unnamed-Selector,Selection,positive,1736943484566,undefined,982,kindness,abstract-positive,negative,positive,B,negative;positive
1736944069,aa68dd7ef5051e7aae7bf50af44140b0,PennController,29,0,test_conc,NULL,PennController,40,_Trial_,End,1736943484566,undefined,982,kindness,abstract-positive,negative,positive,B,NULL
1736944069,aa68dd7ef5051e7aae7bf50af44140b0,PennController,41,0,test_conc,NULL,PennController,52,_Trial_,Start,1736943484567,undefined,1308,injury,concrete-negative,negative,positive,B,NULL
1736944069,aa68dd7ef5051e7aae7bf50af44140b0,PennController,41,0,test_conc,NULL,PennController,52,_Header_,Start,1736943484567,undefined,1308,injury,concrete-negative,negative,positive,B,NULL
1736944069,aa68dd7ef5051e7aae7bf50af44140b0,PennController,41,0,test_conc,NULL,PennController,52,_Header_,End,1736943484825,undefined,1308,injury,concrete-negative,negative,positive,B,NULL
1736944069,aa68dd7ef5051e7aae7bf50af44140b0,PennController,41,0,test_conc,NULL,Selector,unnamed-Selector,Selection,negative,1736943486638,undefined,1308,injury,concrete-negative,negative,positive,B,negative;positive
1736944069,aa68dd7ef5051e7aae7bf50af44140b0,PennController,41,0,test_conc,NULL,PennController,52,_Trial_,End,1736943486638,undefined,1308,injury,concrete-negative,negative,positive,B,NULL
1736944069,aa68dd7ef5051e7aae7bf50af44140b0,PennController,5,0,test_conc,NULL,PennController,16,_Trial_,Start,1736943486639,undefined,936,regret,abstract-negative,negative,positive,B,NULL
1736944069,aa68dd7ef5051e7aae7bf50af44140b0,PennController,5,0,test_conc,NULL,PennController,16,_Header_,Start,1736943486639,undefined,936,regret,abstract-negative,negative,positive,B,NULL
1736944069,aa68dd7ef5051e7aae7bf50af44140b0,PennController,5,0,test_conc,NULL,PennController,16,_Header_,End,1736943486901,undefined,936,regret,abstract-negative,negative,positive,B,NULL
1736944069,aa68dd7ef5051e7aae7bf50af44140b0,PennController,5,0,test_conc,NULL,Selector,unnamed-Selector,Selection,negative,1736943488342,undefined,936,regret,abstract-negative,negative,positive,B,negative;positive
1736944069,aa68dd7ef5051e7aae7bf50af44140b0,PennController,5,0,test_conc,NULL,PennController,16,_Trial_,End,1736943488343,undefined,936,regret,abstract-negative,negative,positive,B,NULL
1736944069,aa68dd7ef5051e7aae7bf50af44140b0,PennController,20,0,test_conc,NULL,PennController,31,_Trial_,Start,1736943488343,undefined,1824,home,concrete-positive,negative,positive,B,NULL
1736944069,aa68dd7ef5051e7aae7bf50af44140b0,PennController,20,0,test_conc,NULL,PennController,31,_Header_,Start,1736943488343,undefined,1824,home,concrete-positive,negative,positive,B,NULL
1736944069,aa68dd7ef5051e7aae7bf50af44140b0,PennController,20,0,test_conc,NULL,PennController,31,_Header_,End,1736943488602,undefined,1824,home,concrete-positive,negative,positive,B,NULL
1736944069,aa68dd7ef5051e7aae7bf50af44140b0,PennController,20,0,test_conc,NULL,Selector,unnamed-Selector,Selection,positive,1736943490942,undefined,1824,home,concrete-positive,negative,positive,B,negative;positive
1736944069,aa68dd7ef5051e7aae7bf50af44140b0,PennController,20,0,test_conc,NULL,PennController,31,_Trial_,End,1736943490943,undefined,1824,home,concrete-positive,negative,positive,B,NULL
1736944069,aa68dd7ef5051e7aae7bf50af44140b0,PennController,7,0,test_conc,NULL,PennController,18,_Trial_,Start,1736943490943,undefined,978,despair,abstract-negative,negative,positive,B,NULL
1736944069,aa68dd7ef5051e7aae7bf50af44140b0,PennController,7,0,test_conc,NULL,PennController,18,_Header_,Start,1736943490943,undefined,978,despair,abstract-negative,negative,positive,B,NULL
1736944069,aa68dd7ef5051e7aae7bf50af44140b0,PennController,7,0,test_conc,NULL,PennController,18,_Header_,End,1736943491201,undefined,978,despair,abstract-negative,negative,positive,B,NULL
1736944069,aa68dd7ef5051e7aae7bf50af44140b0,PennController,7,0,test_conc,NULL,Selector,unnamed-Selector,Selection,negative,1736943492694,undefined,978,despair,abstract-negative,negative,positive,B,negative;positive
1736944069,aa68dd7ef5051e7aae7bf50af44140b0,PennController,7,0,test_conc,NULL,PennController,18,_Trial_,End,1736943492694,undefined,978,despair,abstract-negative,negative,positive,B,NULL
1736944069,aa68dd7ef5051e7aae7bf50af44140b0,PennController,34,0,test_conc,NULL,PennController,45,_Trial_,Start,1736943492695,undefined,1418,smoke,concrete-negative,negative,positive,B,NULL
1736944069,aa68dd7ef5051e7aae7bf50af44140b0,PennController,34,0,test_conc,NULL,PennController,45,_Header_,Start,1736943492695,undefined,1418,smoke,concrete-negative,negative,positive,B,NULL
1736944069,aa68dd7ef5051e7aae7bf50af44140b0,PennController,34,0,test_conc,NULL,PennController,45,_Header_,End,1736943492958,undefined,1418,smoke,concrete-negative,negative,positive,B,NULL
1736944069,aa68dd7ef5051e7aae7bf50af44140b0,PennController,34,0,test_conc,NULL,Selector,unnamed-Selector,Selection,negative,1736943494878,undefined,1418,smoke,concrete-negative,negative,positive,B,negative;positive
1736944069,aa68dd7ef5051e7aae7bf50af44140b0,PennController,34,0,test_conc,NULL,PennController,45,_Trial_,End,1736943494878,undefined,1418,smoke,concrete-negative,negative,positive,B,NULL
1736944069,aa68dd7ef5051e7aae7bf50af44140b0,PennController,23,0,test_conc,NULL,PennController,34,_Trial_,Start,1736943494879,undefined,1284,fireplace,concrete-positive,negative,positive,B,NULL
1736944069,aa68dd7ef5051e7aae7bf50af44140b0,PennController,23,0,test_conc,NULL,PennController,34,_Header_,Start,1736943494879,undefined,1284,fireplace,concrete-positive,negative,positive,B,NULL
1736944069,aa68dd7ef5051e7aae7bf50af44140b0,PennController,23,0,test_conc,NULL,PennController,34,_Header_,End,1736943495138,undefined,1284,fireplace,concrete-positive,negative,positive,B,NULL
1736944069,aa68dd7ef5051e7aae7bf50af44140b0,PennController,23,0,test_conc,NULL,Selector,unnamed-Selector,Selection,positive,1736943496925,undefined,1284,fireplace,concrete-positive,negative,positive,B,negative;positive
1736944069,aa68dd7ef5051e7aae7bf50af44140b0,PennController,23,0,test_conc,NULL,PennController,34,_Trial_,End,1736943496925,undefined,1284,fireplace,concrete-positive,negative,positive,B,NULL
1736944069,aa68dd7ef5051e7aae7bf50af44140b0,PennController,24,0,test_conc,NULL,PennController,35,_Trial_,Start,1736943496926,undefined,1009,love,abstract-positive,negative,positive,B,NULL
1736944069,aa68dd7ef5051e7aae7bf50af44140b0,PennController,24,0,test_conc,NULL,PennController,35,_Header_,Start,1736943496926,undefined,1009,love,abstract-positive,negative,positive,B,NULL
1736944069,aa68dd7ef5051e7aae7bf50af44140b0,PennController,24,0,test_conc,NULL,PennController,35,_Header_,End,1736943497177,undefined,1009,love,abstract-positive,negative,positive,B,NULL
1736944069,aa68dd7ef5051e7aae7bf50af44140b0,PennController,24,0,test_conc,NULL,Selector,unnamed-Selector,Selection,positive,1736943498702,undefined,1009,love,abstract-positive,negative,positive,B,negative;positive
1736944069,aa68dd7ef5051e7aae7bf50af44140b0,PennController,24,0,test_conc,NULL,PennController,35,_Trial_,End,1736943498703,undefined,1009,love,abstract-positive,negative,positive,B,NULL
1736944069,aa68dd7ef5051e7aae7bf50af44140b0,PennController,38,0,test_conc,NULL,PennController,49,_Trial_,Start,1736943498703,undefined,936,garbage,concrete-negative,negative,positive,B,NULL
1736944069,aa68dd7ef5051e7aae7bf50af44140b0,PennController,38,0,test_conc,NULL,PennController,49,_Header_,Start,1736943498703,undefined,936,garbage,concrete-negative,negative,positive,B,NULL
1736944069,aa68dd7ef5051e7aae7bf50af44140b0,PennController,38,0,test_conc,NULL,PennController,49,_Header_,End,1736943498967,undefined,936,garbage,concrete-negative,negative,positive,B,NULL
1736944069,aa68dd7ef5051e7aae7bf50af44140b0,PennController,38,0,test_conc,NULL,Selector,unnamed-Selector,Selection,negative,1736943500406,undefined,936,garbage,concrete-negative,negative,positive,B,negative;positive
1736944069,aa68dd7ef5051e7aae7bf50af44140b0,PennController,38,0,test_conc,NULL,PennController,49,_Trial_,End,1736943500406,undefined,936,garbage,concrete-negative,negative,positive,B,NULL
1736944069,aa68dd7ef5051e7aae7bf50af44140b0,PennController,11,0,test_conc,NULL,PennController,22,_Trial_,Start,1736943500406,undefined,1045,failure,abstract-negative,negative,positive,B,NULL
1736944069,aa68dd7ef5051e7aae7bf50af44140b0,PennController,11,0,test_conc,NULL,PennController,22,_Header_,Start,1736943500406,undefined,1045,failure,abstract-negative,negative,positive,B,NULL
1736944069,aa68dd7ef5051e7aae7bf50af44140b0,PennController,11,0,test_conc,NULL,PennController,22,_Header_,End,1736943500664,undefined,1045,failure,abstract-negative,negative,positive,B,NULL
1736944069,aa68dd7ef5051e7aae7bf50af44140b0,PennController,11,0,test_conc,NULL,Selector,unnamed-Selector,Selection,negative,1736943502222,undefined,1045,failure,abstract-negative,negative,positive,B,negative;positive
1736944069,aa68dd7ef5051e7aae7bf50af44140b0,PennController,11,0,test_conc,NULL,PennController,22,_Trial_,End,1736943502222,undefined,1045,failure,abstract-negative,negative,positive,B,NULL
1736944069,aa68dd7ef5051e7aae7bf50af44140b0,PennController,14,0,test_conc,NULL,PennController,25,_Trial_,Start,1736943502222,undefined,1082,sunshine,concrete-positive,negative,positive,B,NULL
1736944069,aa68dd7ef5051e7aae7bf50af44140b0,PennController,14,0,test_conc,NULL,PennController,25,_Header_,Start,1736943502222,undefined,1082,sunshine,concrete-positive,negative,positive,B,NULL
1736944069,aa68dd7ef5051e7aae7bf50af44140b0,PennController,14,0,test_conc,NULL,PennController,25,_Header_,End,1736943502482,undefined,1082,sunshine,concrete-positive,negative,positive,B,NULL
1736944069,aa68dd7ef5051e7aae7bf50af44140b0,PennController,14,0,test_conc,NULL,Selector,unnamed-Selector,Selection,positive,1736943504078,undefined,1082,sunshine,concrete-positive,negative,positive,B,negative;positive
1736944069,aa68dd7ef5051e7aae7bf50af44140b0,PennController,14,0,test_conc,NULL,PennController,25,_Trial_,End,1736943504079,undefined,1082,sunshine,concrete-positive,negative,positive,B,NULL
1736944069,aa68dd7ef5051e7aae7bf50af44140b0,PennController,28,0,test_conc,NULL,PennController,39,_Trial_,Start,1736943504079,undefined,1782,freedom,abstract-positive,negative,positive,B,NULL
1736944069,aa68dd7ef5051e7aae7bf50af44140b0,PennController,28,0,test_conc,NULL,PennController,39,_Header_,Start,1736943504079,undefined,1782,freedom,abstract-positive,negative,positive,B,NULL
1736944069,aa68dd7ef5051e7aae7bf50af44140b0,PennController,28,0,test_conc,NULL,PennController,39,_Header_,End,1736943504335,undefined,1782,freedom,abstract-positive,negative,positive,B,NULL
1736944069,aa68dd7ef5051e7aae7bf50af44140b0,PennController,28,0,test_conc,NULL,Selector,unnamed-Selector,Selection,positive,1736943506630,undefined,1782,freedom,abstract-positive,negative,positive,B,negative;positive
1736944069,aa68dd7ef5051e7aae7bf50af44140b0,PennController,28,0,test_conc,NULL,PennController,39,_Trial_,End,1736943506631,undefined,1782,freedom,abstract-positive,negative,positive,B,NULL
1736944069,aa68dd7ef5051e7aae7bf50af44140b0,PennController,43,0,test_conc,NULL,PennController,54,_Trial_,Start,1736943506632,undefined,972,filth,concrete-negative,negative,positive,B,NULL
1736944069,aa68dd7ef5051e7aae7bf50af44140b0,PennController,43,0,test_conc,NULL,PennController,54,_Header_,Start,1736943506632,undefined,972,filth,concrete-negative,negative,positive,B,NULL
1736944069,aa68dd7ef5051e7aae7bf50af44140b0,PennController,43,0,test_conc,NULL,PennController,54,_Header_,End,1736943506884,undefined,972,filth,concrete-negative,negative,positive,B,NULL
1736944069,aa68dd7ef5051e7aae7bf50af44140b0,PennController,43,0,test_conc,NULL,Selector,unnamed-Selector,Selection,negative,1736943508365,undefined,972,filth,concrete-negative,negative,positive,B,negative;positive
1736944069,aa68dd7ef5051e7aae7bf50af44140b0,PennController,43,0,test_conc,NULL,PennController,54,_Trial_,End,1736943508366,undefined,972,filth,concrete-negative,negative,positive,B,NULL
1736944069,aa68dd7ef5051e7aae7bf50af44140b0,PennController,16,0,test_conc,NULL,PennController,27,_Trial_,Start,1736943508366,undefined,1101,flowers,concrete-positive,negative,positive,B,NULL
1736944069,aa68dd7ef5051e7aae7bf50af44140b0,PennController,16,0,test_conc,NULL,PennController,27,_Header_,Start,1736943508366,undefined,1101,flowers,concrete-positive,negative,positive,B,NULL
1736944069,aa68dd7ef5051e7aae7bf50af44140b0,PennController,16,0,test_conc,NULL,PennController,27,_Header_,End,1736943508627,undefined,1101,flowers,concrete-positive,negative,positive,B,NULL
1736944069,aa68dd7ef5051e7aae7bf50af44140b0,PennController,16,0,test_conc,NULL,Selector,unnamed-Selector,Selection,positive,1736943510246,undefined,1101,flowers,concrete-positive,negative,positive,B,negative;positive
1736944069,aa68dd7ef5051e7aae7bf50af44140b0,PennController,16,0,test_conc,NULL,PennController,27,_Trial_,End,1736943510246,undefined,1101,flowers,concrete-positive,negative,positive,B,NULL
1736944069,aa68dd7ef5051e7aae7bf50af44140b0,PennController,39,0,test_conc,NULL,PennController,50,_Trial_,Start,1736943510246,undefined,3160,rust,concrete-negative,negative,positive,B,NULL
1736944069,aa68dd7ef5051e7aae7bf50af44140b0,PennController,39,0,test_conc,NULL,PennController,50,_Header_,Start,1736943510246,undefined,3160,rust,concrete-negative,negative,positive,B,NULL
1736944069,aa68dd7ef5051e7aae7bf50af44140b0,PennController,39,0,test_conc,NULL,PennController,50,_Header_,End,1736943510500,undefined,3160,rust,concrete-negative,negative,positive,B,NULL
1736944069,aa68dd7ef5051e7aae7bf50af44140b0,PennController,39,0,test_conc,NULL,Selector,unnamed-Selector,Selection,negative,1736943514174,undefined,3160,rust,concrete-negative,negative,positive,B,negative;positive
1736944069,aa68dd7ef5051e7aae7bf50af44140b0,PennController,39,0,test_conc,NULL,PennController,50,_Trial_,End,1736943514174,undefined,3160,rust,concrete-negative,negative,positive,B,NULL
1736944069,aa68dd7ef5051e7aae7bf50af44140b0,PennController,10,0,test_conc,NULL,PennController,21,_Trial_,Start,1736943514175,undefined,1118,resentment,abstract-negative,negative,positive,B,NULL
1736944069,aa68dd7ef5051e7aae7bf50af44140b0,PennController,10,0,test_conc,NULL,PennController,21,_Header_,Start,1736943514175,undefined,1118,resentment,abstract-negative,negative,positive,B,NULL
1736944069,aa68dd7ef5051e7aae7bf50af44140b0,PennController,10,0,test_conc,NULL,PennController,21,_Header_,End,1736943514437,undefined,1118,resentment,abstract-negative,negative,positive,B,NULL
1736944069,aa68dd7ef5051e7aae7bf50af44140b0,PennController,10,0,test_conc,NULL,Selector,unnamed-Selector,Selection,negative,1736943516063,undefined,1118,resentment,abstract-negative,negative,positive,B,negative;positive
1736944069,aa68dd7ef5051e7aae7bf50af44140b0,PennController,10,0,test_conc,NULL,PennController,21,_Trial_,End,1736943516064,undefined,1118,resentment,abstract-negative,negative,positive,B,NULL
1736944069,aa68dd7ef5051e7aae7bf50af44140b0,PennController,31,0,test_conc,NULL,PennController,42,_Trial_,Start,1736943516067,undefined,1003,compassion,abstract-positive,negative,positive,B,NULL
1736944069,aa68dd7ef5051e7aae7bf50af44140b0,PennController,31,0,test_conc,NULL,PennController,42,_Header_,Start,1736943516067,undefined,1003,compassion,abstract-positive,negative,positive,B,NULL
1736944069,aa68dd7ef5051e7aae7bf50af44140b0,PennController,31,0,test_conc,NULL,PennController,42,_Header_,End,1736943516322,undefined,1003,compassion,abstract-positive,negative,positive,B,NULL
1736944069,aa68dd7ef5051e7aae7bf50af44140b0,PennController,31,0,test_conc,NULL,Selector,unnamed-Selector,Selection,positive,1736943517832,undefined,1003,compassion,abstract-positive,negative,positive,B,negative;positive
1736944069,aa68dd7ef5051e7aae7bf50af44140b0,PennController,31,0,test_conc,NULL,PennController,42,_Trial_,End,1736943517834,undefined,1003,compassion,abstract-positive,negative,positive,B,NULL
1736944069,aa68dd7ef5051e7aae7bf50af44140b0,PennController,30,0,test_conc,NULL,PennController,41,_Trial_,Start,1736943517835,undefined,1013,happiness,abstract-positive,negative,positive,B,NULL
1736944069,aa68dd7ef5051e7aae7bf50af44140b0,PennController,30,0,test_conc,NULL,PennController,41,_Header_,Start,1736943517835,undefined,1013,happiness,abstract-positive,negative,positive,B,NULL
1736944069,aa68dd7ef5051e7aae7bf50af44140b0,PennController,30,0,test_conc,NULL,PennController,41,_Header_,End,1736943518102,undefined,1013,happiness,abstract-positive,negative,positive,B,NULL
1736944069,aa68dd7ef5051e7aae7bf50af44140b0,PennController,30,0,test_conc,NULL,Selector,unnamed-Selector,Selection,positive,1736943519624,undefined,1013,happiness,abstract-positive,negative,positive,B,negative;positive
1736944069,aa68dd7ef5051e7aae7bf50af44140b0,PennController,30,0,test_conc,NULL,PennController,41,_Trial_,End,1736943519625,undefined,1013,happiness,abstract-positive,negative,positive,B,NULL
1736944069,aa68dd7ef5051e7aae7bf50af44140b0,PennController,13,0,test_conc,NULL,PennController,24,_Trial_,Start,1736943519626,undefined,1695,envy,abstract-negative,negative,positive,B,NULL
1736944069,aa68dd7ef5051e7aae7bf50af44140b0,PennController,13,0,test_conc,NULL,PennController,24,_Header_,Start,1736943519626,undefined,1695,envy,abstract-negative,negative,positive,B,NULL
1736944069,aa68dd7ef5051e7aae7bf50af44140b0,PennController,13,0,test_conc,NULL,PennController,24,_Header_,End,1736943519880,undefined,1695,envy,abstract-negative,negative,positive,B,NULL
1736944069,aa68dd7ef5051e7aae7bf50af44140b0,PennController,13,0,test_conc,NULL,Selector,unnamed-Selector,Selection,negative,1736943522079,undefined,1695,envy,abstract-negative,negative,positive,B,negative;positive
1736944069,aa68dd7ef5051e7aae7bf50af44140b0,PennController,13,0,test_conc,NULL,PennController,24,_Trial_,End,1736943522082,undefined,1695,envy,abstract-negative,negative,positive,B,NULL
1736944069,aa68dd7ef5051e7aae7bf50af44140b0,PennController,8,0,test_conc,NULL,PennController,19,_Trial_,Start,1736943522083,undefined,874,guilt,abstract-negative,negative,positive,B,NULL
1736944069,aa68dd7ef5051e7aae7bf50af44140b0,PennController,8,0,test_conc,NULL,PennController,19,_Header_,Start,1736943522083,undefined,874,guilt,abstract-negative,negative,positive,B,NULL
1736944069,aa68dd7ef5051e7aae7bf50af44140b0,PennController,8,0,test_conc,NULL,PennController,19,_Header_,End,1736943522338,undefined,874,guilt,abstract-negative,negative,positive,B,NULL
1736944069,aa68dd7ef5051e7aae7bf50af44140b0,PennController,8,0,test_conc,NULL,Selector,unnamed-Selector,Selection,negative,1736943523719,undefined,874,guilt,abstract-negative,negative,positive,B,negative;positive
1736944069,aa68dd7ef5051e7aae7bf50af44140b0,PennController,8,0,test_conc,NULL,PennController,19,_Trial_,End,1736943523719,undefined,874,guilt,abstract-negative,negative,positive,B,NULL
1736944069,aa68dd7ef5051e7aae7bf50af44140b0,PennController,25,0,test_conc,NULL,PennController,36,_Trial_,Start,1736943523720,undefined,834,hope,abstract-positive,negative,positive,B,NULL
1736944069,aa68dd7ef5051e7aae7bf50af44140b0,PennController,25,0,test_conc,NULL,PennController,36,_Header_,Start,1736943523720,undefined,834,hope,abstract-positive,negative,positive,B,NULL
1736944069,aa68dd7ef5051e7aae7bf50af44140b0,PennController,25,0,test_conc,NULL,PennController,36,_Header_,End,1736943523976,undefined,834,hope,abstract-positive,negative,positive,B,NULL
1736944069,aa68dd7ef5051e7aae7bf50af44140b0,PennController,25,0,test_conc,NULL,Selector,unnamed-Selector,Selection,positive,1736943525311,undefined,834,hope,abstract-positive,negative,positive,B,negative;positive
1736944069,aa68dd7ef5051e7aae7bf50af44140b0,PennController,25,0,test_conc,NULL,PennController,36,_Trial_,End,1736943525312,undefined,834,hope,abstract-positive,negative,positive,B,NULL
1736944069,aa68dd7ef5051e7aae7bf50af44140b0,PennController,27,0,test_conc,NULL,PennController,38,_Trial_,Start,1736943525313,undefined,1128,peace,abstract-positive,negative,positive,B,NULL
1736944069,aa68dd7ef5051e7aae7bf50af44140b0,PennController,27,0,test_conc,NULL,PennController,38,_Header_,Start,1736943525313,undefined,1128,peace,abstract-positive,negative,positive,B,NULL
1736944069,aa68dd7ef5051e7aae7bf50af44140b0,PennController,27,0,test_conc,NULL,PennController,38,_Header_,End,1736943525570,undefined,1128,peace,abstract-positive,negative,positive,B,NULL
1736944069,aa68dd7ef5051e7aae7bf50af44140b0,PennController,27,0,test_conc,NULL,Selector,unnamed-Selector,Selection,positive,1736943527200,undefined,1128,peace,abstract-positive,negative,positive,B,negative;positive
1736944069,aa68dd7ef5051e7aae7bf50af44140b0,PennController,27,0,test_conc,NULL,PennController,38,_Trial_,End,1736943527201,undefined,1128,peace,abstract-positive,negative,positive,B,NULL
1736944069,aa68dd7ef5051e7aae7bf50af44140b0,PennController,22,0,test_conc,NULL,PennController,33,_Trial_,Start,1736943527203,undefined,1061,chocolate,concrete-positive,negative,positive,B,NULL
1736944069,aa68dd7ef5051e7aae7bf50af44140b0,PennController,22,0,test_conc,NULL,PennController,33,_Header_,Start,1736943527203,undefined,1061,chocolate,concrete-positive,negative,positive,B,NULL
1736944069,aa68dd7ef5051e7aae7bf50af44140b0,PennController,22,0,test_conc,NULL,PennController,33,_Header_,End,1736943527458,undefined,1061,chocolate,concrete-positive,negative,positive,B,NULL
1736944069,aa68dd7ef5051e7aae7bf50af44140b0,PennController,22,0,test_conc,NULL,Selector,unnamed-Selector,Selection,positive,1736943529022,undefined,1061,chocolate,concrete-positive,negative,positive,B,negative;positive
1736944069,aa68dd7ef5051e7aae7bf50af44140b0,PennController,22,0,test_conc,NULL,PennController,33,_Trial_,End,1736943529023,undefined,1061,chocolate,concrete-positive,negative,positive,B,NULL
1736944069,aa68dd7ef5051e7aae7bf50af44140b0,PennController,36,0,test_conc,NULL,PennController,47,_Trial_,Start,1736943529024,undefined,1828,mud,concrete-negative,negative,positive,B,NULL
1736944069,aa68dd7ef5051e7aae7bf50af44140b0,PennController,36,0,test_conc,NULL,PennController,47,_Header_,Start,1736943529024,undefined,1828,mud,concrete-negative,negative,positive,B,NULL
1736944069,aa68dd7ef5051e7aae7bf50af44140b0,PennController,36,0,test_conc,NULL,PennController,47,_Header_,End,1736943529275,undefined,1828,mud,concrete-negative,negative,positive,B,NULL
1736944069,aa68dd7ef5051e7aae7bf50af44140b0,PennController,36,0,test_conc,NULL,Selector,unnamed-Selector,Selection,negative,1736943531608,undefined,1828,mud,concrete-negative,negative,positive,B,negative;positive
1736944069,aa68dd7ef5051e7aae7bf50af44140b0,PennController,36,0,test_conc,NULL,PennController,47,_Trial_,End,1736943531610,undefined,1828,mud,concrete-negative,negative,positive,B,NULL
1736944069,aa68dd7ef5051e7aae7bf50af44140b0,PennController,32,0,test_conc,NULL,PennController,43,_Trial_,Start,1736943531611,undefined,1357,gratitude,abstract-positive,negative,positive,B,NULL
1736944069,aa68dd7ef5051e7aae7bf50af44140b0,PennController,32,0,test_conc,NULL,PennController,43,_Header_,Start,1736943531611,undefined,1357,gratitude,abstract-positive,negative,positive,B,NULL
1736944069,aa68dd7ef5051e7aae7bf50af44140b0,PennController,32,0,test_conc,NULL,PennController,43,_Header_,End,1736943531862,undefined,1357,gratitude,abstract-positive,negative,positive,B,NULL
1736944069,aa68dd7ef5051e7aae7bf50af44140b0,PennController,32,0,test_conc,NULL,Selector,unnamed-Selector,Selection,positive,1736943533727,undefined,1357,gratitude,abstract-positive,negative,positive,B,negative;positive
1736944069,aa68dd7ef5051e7aae7bf50af44140b0,PennController,32,0,test_conc,NULL,PennController,43,_Trial_,End,1736943533729,undefined,1357,gratitude,abstract-positive,negative,positive,B,NULL
1736944069,aa68dd7ef5051e7aae7bf50af44140b0,PennController,35,0,test_conc,NULL,PennController,46,_Trial_,Start,1736943533729,undefined,986,rot,concrete-negative,negative,positive,B,NULL
1736944069,aa68dd7ef5051e7aae7bf50af44140b0,PennController,35,0,test_conc,NULL,PennController,46,_Header_,Start,1736943533729,undefined,986,rot,concrete-negative,negative,positive,B,NULL
1736944069,aa68dd7ef5051e7aae7bf50af44140b0,PennController,35,0,test_conc,NULL,PennController,46,_Header_,End,1736943533989,undefined,986,rot,concrete-negative,negative,positive,B,NULL
1736944069,aa68dd7ef5051e7aae7bf50af44140b0,PennController,35,0,test_conc,NULL,Selector,unnamed-Selector,Selection,negative,1736943535478,undefined,986,rot,concrete-negative,negative,positive,B,negative;positive
1736944069,aa68dd7ef5051e7aae7bf50af44140b0,PennController,35,0,test_conc,NULL,PennController,46,_Trial_,End,1736943535479,undefined,986,rot,concrete-negative,negative,positive,B,NULL
1736944069,aa68dd7ef5051e7aae7bf50af44140b0,PennController,19,0,test_conc,NULL,PennController,30,_Trial_,Start,1736943535480,undefined,1067,hug,concrete-positive,negative,positive,B,NULL
1736944069,aa68dd7ef5051e7aae7bf50af44140b0,PennController,19,0,test_conc,NULL,PennController,30,_Header_,Start,1736943535480,undefined,1067,hug,concrete-positive,negative,positive,B,NULL
1736944069,aa68dd7ef5051e7aae7bf50af44140b0,PennController,19,0,test_conc,NULL,PennController,30,_Header_,End,1736943535730,undefined,1067,hug,concrete-positive,negative,positive,B,NULL
1736944069,aa68dd7ef5051e7aae7bf50af44140b0,PennController,19,0,test_conc,NULL,Selector,unnamed-Selector,Selection,positive,1736943537303,undefined,1067,hug,concrete-positive,negative,positive,B,negative;positive
1736944069,aa68dd7ef5051e7aae7bf50af44140b0,PennController,19,0,test_conc,NULL,PennController,30,_Trial_,End,1736943537304,undefined,1067,hug,concrete-positive,negative,positive,B,NULL
1736944069,aa68dd7ef5051e7aae7bf50af44140b0,PennController,22,0,test_conc,NULL,PennController,33,_Trial_,Start,1736943537305,undefined,1188,chocolate,concrete-positive,negative,positive,B,NULL
1736944069,aa68dd7ef5051e7aae7bf50af44140b0,PennController,22,0,test_conc,NULL,PennController,33,_Header_,Start,1736943537305,undefined,1188,chocolate,concrete-positive,negative,positive,B,NULL
1736944069,aa68dd7ef5051e7aae7bf50af44140b0,PennController,22,0,test_conc,NULL,PennController,33,_Header_,End,1736943537562,undefined,1188,chocolate,concrete-positive,negative,positive,B,NULL
1736944069,aa68dd7ef5051e7aae7bf50af44140b0,PennController,22,0,test_conc,NULL,Selector,unnamed-Selector,Selection,positive,1736943539255,undefined,1188,chocolate,concrete-positive,negative,positive,B,negative;positive
1736944069,aa68dd7ef5051e7aae7bf50af44140b0,PennController,22,0,test_conc,NULL,PennController,33,_Trial_,End,1736943539257,undefined,1188,chocolate,concrete-positive,negative,positive,B,NULL
1736944069,aa68dd7ef5051e7aae7bf50af44140b0,PennController,32,0,test_conc,NULL,PennController,43,_Trial_,Start,1736943539259,undefined,915,gratitude,abstract-positive,negative,positive,B,NULL
1736944069,aa68dd7ef5051e7aae7bf50af44140b0,PennController,32,0,test_conc,NULL,PennController,43,_Header_,Start,1736943539259,undefined,915,gratitude,abstract-positive,negative,positive,B,NULL
1736944069,aa68dd7ef5051e7aae7bf50af44140b0,PennController,32,0,test_conc,NULL,PennController,43,_Header_,End,1736943539518,undefined,915,gratitude,abstract-positive,negative,positive,B,NULL
1736944069,aa68dd7ef5051e7aae7bf50af44140b0,PennController,32,0,test_conc,NULL,Selector,unnamed-Selector,Selection,positive,1736943540941,undefined,915,gratitude,abstract-positive,negative,positive,B,negative;positive
1736944069,aa68dd7ef5051e7aae7bf50af44140b0,PennController,32,0,test_conc,NULL,PennController,43,_Trial_,End,1736943540942,undefined,915,gratitude,abstract-positive,negative,positive,B,NULL
1736944069,aa68dd7ef5051e7aae7bf50af44140b0,PennController,33,0,test_conc,NULL,PennController,44,_Trial_,Start,1736943540942,undefined,1037,inspiration,abstract-positive,negative,positive,B,NULL
1736944069,aa68dd7ef5051e7aae7bf50af44140b0,PennController,33,0,test_conc,NULL,PennController,44,_Header_,Start,1736943540942,undefined,1037,inspiration,abstract-positive,negative,positive,B,NULL
1736944069,aa68dd7ef5051e7aae7bf50af44140b0,PennController,33,0,test_conc,NULL,PennController,44,_Header_,End,1736943541207,undefined,1037,inspiration,abstract-positive,negative,positive,B,NULL
1736944069,aa68dd7ef5051e7aae7bf50af44140b0,PennController,33,0,test_conc,NULL,Selector,unnamed-Selector,Selection,positive,1736943542749,undefined,1037,inspiration,abstract-positive,negative,positive,B,negative;positive
1736944069,aa68dd7ef5051e7aae7bf50af44140b0,PennController,33,0,test_conc,NULL,PennController,44,_Trial_,End,1736943542750,undefined,1037,inspiration,abstract-positive,negative,positive,B,NULL
1736944069,aa68dd7ef5051e7aae7bf50af44140b0,PennController,29,0,test_conc,NULL,PennController,40,_Trial_,Start,1736943542751,undefined,1009,kindness,abstract-positive,negative,positive,B,NULL
1736944069,aa68dd7ef5051e7aae7bf50af44140b0,PennController,29,0,test_conc,NULL,PennController,40,_Header_,Start,1736943542751,undefined,1009,kindness,abstract-positive,negative,positive,B,NULL
1736944069,aa68dd7ef5051e7aae7bf50af44140b0,PennController,29,0,test_conc,NULL,PennController,40,_Header_,End,1736943543001,undefined,1009,kindness,abstract-positive,negative,positive,B,NULL
1736944069,aa68dd7ef5051e7aae7bf50af44140b0,PennController,29,0,test_conc,NULL,Selector,unnamed-Selector,Selection,positive,1736943544511,undefined,1009,kindness,abstract-positive,negative,positive,B,negative;positive
1736944069,aa68dd7ef5051e7aae7bf50af44140b0,PennController,29,0,test_conc,NULL,PennController,40,_Trial_,End,1736943544513,undefined,1009,kindness,abstract-positive,negative,positive,B,NULL
1736944069,aa68dd7ef5051e7aae7bf50af44140b0,PennController,4,0,test_conc,NULL,PennController,15,_Trial_,Start,1736943544515,undefined,931,lonliness,abstract-negative,negative,positive,B,NULL
1736944069,aa68dd7ef5051e7aae7bf50af44140b0,PennController,4,0,test_conc,NULL,PennController,15,_Header_,Start,1736943544515,undefined,931,lonliness,abstract-negative,negative,positive,B,NULL
1736944069,aa68dd7ef5051e7aae7bf50af44140b0,PennController,4,0,test_conc,NULL,PennController,15,_Header_,End,1736943544767,undefined,931,lonliness,abstract-negative,negative,positive,B,NULL
1736944069,aa68dd7ef5051e7aae7bf50af44140b0,PennController,4,0,test_conc,NULL,Selector,unnamed-Selector,Selection,negative,1736943546200,undefined,931,lonliness,abstract-negative,negative,positive,B,negative;positive
1736944069,aa68dd7ef5051e7aae7bf50af44140b0,PennController,4,0,test_conc,NULL,PennController,15,_Trial_,End,1736943546202,undefined,931,lonliness,abstract-negative,negative,positive,B,NULL
1736944069,aa68dd7ef5051e7aae7bf50af44140b0,PennController,42,0,test_conc,NULL,PennController,53,_Trial_,Start,1736943546204,undefined,960,stench,concrete-negative,negative,positive,B,NULL
1736944069,aa68dd7ef5051e7aae7bf50af44140b0,PennController,42,0,test_conc,NULL,PennController,53,_Header_,Start,1736943546204,undefined,960,stench,concrete-negative,negative,positive,B,NULL
1736944069,aa68dd7ef5051e7aae7bf50af44140b0,PennController,42,0,test_conc,NULL,PennController,53,_Header_,End,1736943546455,undefined,960,stench,concrete-negative,negative,positive,B,NULL
1736944069,aa68dd7ef5051e7aae7bf50af44140b0,PennController,42,0,test_conc,NULL,Selector,unnamed-Selector,Selection,negative,1736943547927,undefined,960,stench,concrete-negative,negative,positive,B,negative;positive
1736944069,aa68dd7ef5051e7aae7bf50af44140b0,PennController,42,0,test_conc,NULL,PennController,53,_Trial_,End,1736943547928,undefined,960,stench,concrete-negative,negative,positive,B,NULL
1736944069,aa68dd7ef5051e7aae7bf50af44140b0,PennController,34,0,test_conc,NULL,PennController,45,_Trial_,Start,1736943547929,undefined,996,smoke,concrete-negative,negative,positive,B,NULL
1736944069,aa68dd7ef5051e7aae7bf50af44140b0,PennController,34,0,test_conc,NULL,PennController,45,_Header_,Start,1736943547929,undefined,996,smoke,concrete-negative,negative,positive,B,NULL
1736944069,aa68dd7ef5051e7aae7bf50af44140b0,PennController,34,0,test_conc,NULL,PennController,45,_Header_,End,1736943548189,undefined,996,smoke,concrete-negative,negative,positive,B,NULL
1736944069,aa68dd7ef5051e7aae7bf50af44140b0,PennController,34,0,test_conc,NULL,Selector,unnamed-Selector,Selection,negative,1736943549688,undefined,996,smoke,concrete-negative,negative,positive,B,negative;positive
1736944069,aa68dd7ef5051e7aae7bf50af44140b0,PennController,34,0,test_conc,NULL,PennController,45,_Trial_,End,1736943549689,undefined,996,smoke,concrete-negative,negative,positive,B,NULL
1736944069,aa68dd7ef5051e7aae7bf50af44140b0,PennController,10,0,test_conc,NULL,PennController,21,_Trial_,Start,1736943549690,undefined,1053,resentment,abstract-negative,negative,positive,B,NULL
1736944069,aa68dd7ef5051e7aae7bf50af44140b0,PennController,10,0,test_conc,NULL,PennController,21,_Header_,Start,1736943549690,undefined,1053,resentment,abstract-negative,negative,positive,B,NULL
1736944069,aa68dd7ef5051e7aae7bf50af44140b0,PennController,10,0,test_conc,NULL,PennController,21,_Header_,End,1736943549948,undefined,1053,resentment,abstract-negative,negative,positive,B,NULL
1736944069,aa68dd7ef5051e7aae7bf50af44140b0,PennController,10,0,test_conc,NULL,Selector,unnamed-Selector,Selection,negative,1736943551504,undefined,1053,resentment,abstract-negative,negative,positive,B,negative;positive
1736944069,aa68dd7ef5051e7aae7bf50af44140b0,PennController,10,0,test_conc,NULL,PennController,21,_Trial_,End,1736943551506,undefined,1053,resentment,abstract-negative,negative,positive,B,NULL
1736944069,aa68dd7ef5051e7aae7bf50af44140b0,PennController,26,0,test_conc,NULL,PennController,37,_Trial_,Start,1736943551507,undefined,777,joy,abstract-positive,negative,positive,B,NULL
1736944069,aa68dd7ef5051e7aae7bf50af44140b0,PennController,26,0,test_conc,NULL,PennController,37,_Header_,Start,1736943551507,undefined,777,joy,abstract-positive,negative,positive,B,NULL
1736944069,aa68dd7ef5051e7aae7bf50af44140b0,PennController,26,0,test_conc,NULL,PennController,37,_Header_,End,1736943551763,undefined,777,joy,abstract-positive,negative,positive,B,NULL
1736944069,aa68dd7ef5051e7aae7bf50af44140b0,PennController,26,0,test_conc,NULL,Selector,unnamed-Selector,Selection,positive,1736943553047,undefined,777,joy,abstract-positive,negative,positive,B,negative;positive
1736944069,aa68dd7ef5051e7aae7bf50af44140b0,PennController,26,0,test_conc,NULL,PennController,37,_Trial_,End,1736943553049,undefined,777,joy,abstract-positive,negative,positive,B,NULL
1736944069,aa68dd7ef5051e7aae7bf50af44140b0,PennController,24,0,test_conc,NULL,PennController,35,_Trial_,Start,1736943553050,undefined,919,love,abstract-positive,negative,positive,B,NULL
1736944069,aa68dd7ef5051e7aae7bf50af44140b0,PennController,24,0,test_conc,NULL,PennController,35,_Header_,Start,1736943553050,undefined,919,love,abstract-positive,negative,positive,B,NULL
1736944069,aa68dd7ef5051e7aae7bf50af44140b0,PennController,24,0,test_conc,NULL,PennController,35,_Header_,End,1736943553312,undefined,919,love,abstract-positive,negative,positive,B,NULL
1736944069,aa68dd7ef5051e7aae7bf50af44140b0,PennController,24,0,test_conc,NULL,Selector,unnamed-Selector,Selection,positive,1736943554733,undefined,919,love,abstract-positive,negative,positive,B,negative;positive
1736944069,aa68dd7ef5051e7aae7bf50af44140b0,PennController,24,0,test_conc,NULL,PennController,35,_Trial_,End,1736943554734,undefined,919,love,abstract-positive,negative,positive,B,NULL
1736944069,aa68dd7ef5051e7aae7bf50af44140b0,PennController,7,0,test_conc,NULL,PennController,18,_Trial_,Start,1736943554734,undefined,967,despair,abstract-negative,negative,positive,B,NULL
1736944069,aa68dd7ef5051e7aae7bf50af44140b0,PennController,7,0,test_conc,NULL,PennController,18,_Header_,Start,1736943554734,undefined,967,despair,abstract-negative,negative,positive,B,NULL
1736944069,aa68dd7ef5051e7aae7bf50af44140b0,PennController,7,0,test_conc,NULL,PennController,18,_Header_,End,1736943554991,undefined,967,despair,abstract-negative,negative,positive,B,NULL
1736944069,aa68dd7ef5051e7aae7bf50af44140b0,PennController,7,0,test_conc,NULL,Selector,unnamed-Selector,Selection,negative,1736943556469,undefined,967,despair,abstract-negative,negative,positive,B,negative;positive
1736944069,aa68dd7ef5051e7aae7bf50af44140b0,PennController,7,0,test_conc,NULL,PennController,18,_Trial_,End,1736943556470,undefined,967,despair,abstract-negative,negative,positive,B,NULL
1736944069,aa68dd7ef5051e7aae7bf50af44140b0,PennController,12,0,test_conc,NULL,PennController,23,_Trial_,Start,1736943556471,undefined,932,shame,abstract-negative,negative,positive,B,NULL
1736944069,aa68dd7ef5051e7aae7bf50af44140b0,PennController,12,0,test_conc,NULL,PennController,23,_Header_,Start,1736943556471,undefined,932,shame,abstract-negative,negative,positive,B,NULL
1736944069,aa68dd7ef5051e7aae7bf50af44140b0,PennController,12,0,test_conc,NULL,PennController,23,_Header_,End,1736943556729,undefined,932,shame,abstract-negative,negative,positive,B,NULL
1736944069,aa68dd7ef5051e7aae7bf50af44140b0,PennController,12,0,test_conc,NULL,Selector,unnamed-Selector,Selection,negative,1736943558167,undefined,932,shame,abstract-negative,negative,positive,B,negative;positive
1736944069,aa68dd7ef5051e7aae7bf50af44140b0,PennController,12,0,test_conc,NULL,PennController,23,_Trial_,End,1736943558168,undefined,932,shame,abstract-negative,negative,positive,B,NULL
1736944069,aa68dd7ef5051e7aae7bf50af44140b0,PennController,38,0,test_conc,NULL,PennController,49,_Trial_,Start,1736943558170,undefined,943,garbage,concrete-negative,negative,positive,B,NULL
1736944069,aa68dd7ef5051e7aae7bf50af44140b0,PennController,38,0,test_conc,NULL,PennController,49,_Header_,Start,1736943558170,undefined,943,garbage,concrete-negative,negative,positive,B,NULL
1736944069,aa68dd7ef5051e7aae7bf50af44140b0,PennController,38,0,test_conc,NULL,PennController,49,_Header_,End,1736943558427,undefined,943,garbage,concrete-negative,negative,positive,B,NULL
1736944069,aa68dd7ef5051e7aae7bf50af44140b0,PennController,38,0,test_conc,NULL,Selector,unnamed-Selector,Selection,negative,1736943559880,undefined,943,garbage,concrete-negative,negative,positive,B,negative;positive
1736944069,aa68dd7ef5051e7aae7bf50af44140b0,PennController,38,0,test_conc,NULL,PennController,49,_Trial_,End,1736943559882,undefined,943,garbage,concrete-negative,negative,positive,B,NULL
1736944069,aa68dd7ef5051e7aae7bf50af44140b0,PennController,8,0,test_conc,NULL,PennController,19,_Trial_,Start,1736943559884,undefined,814,guilt,abstract-negative,negative,positive,B,NULL
1736944069,aa68dd7ef5051e7aae7bf50af44140b0,PennController,8,0,test_conc,NULL,PennController,19,_Header_,Start,1736943559884,undefined,814,guilt,abstract-negative,negative,positive,B,NULL
1736944069,aa68dd7ef5051e7aae7bf50af44140b0,PennController,8,0,test_conc,NULL,PennController,19,_Header_,End,1736943560143,undefined,814,guilt,abstract-negative,negative,positive,B,NULL
1736944069,aa68dd7ef5051e7aae7bf50af44140b0,PennController,8,0,test_conc,NULL,Selector,unnamed-Selector,Selection,negative,1736943561464,undefined,814,guilt,abstract-negative,negative,positive,B,negative;positive
1736944069,aa68dd7ef5051e7aae7bf50af44140b0,PennController,8,0,test_conc,NULL,PennController,19,_Trial_,End,1736943561466,undefined,814,guilt,abstract-negative,negative,positive,B,NULL
1736944069,aa68dd7ef5051e7aae7bf50af44140b0,PennController,19,0,test_conc,NULL,PennController,30,_Trial_,Start,1736943561468,undefined,706,hug,concrete-positive,negative,positive,B,NULL
1736944069,aa68dd7ef5051e7aae7bf50af44140b0,PennController,19,0,test_conc,NULL,PennController,30,_Header_,Start,1736943561468,undefined,706,hug,concrete-positive,negative,positive,B,NULL
1736944069,aa68dd7ef5051e7aae7bf50af44140b0,PennController,19,0,test_conc,NULL,PennController,30,_Header_,End,1736943561718,undefined,706,hug,concrete-positive,negative,positive,B,NULL
1736944069,aa68dd7ef5051e7aae7bf50af44140b0,PennController,19,0,test_conc,NULL,Selector,unnamed-Selector,Selection,positive,1736943562933,undefined,706,hug,concrete-positive,negative,positive,B,negative;positive
1736944069,aa68dd7ef5051e7aae7bf50af44140b0,PennController,19,0,test_conc,NULL,PennController,30,_Trial_,End,1736943562935,undefined,706,hug,concrete-positive,negative,positive,B,NULL
1736944069,aa68dd7ef5051e7aae7bf50af44140b0,PennController,23,0,test_conc,NULL,PennController,34,_Trial_,Start,1736943562935,undefined,995,fireplace,concrete-positive,negative,positive,B,NULL
1736944069,aa68dd7ef5051e7aae7bf50af44140b0,PennController,23,0,test_conc,NULL,PennController,34,_Header_,Start,1736943562935,undefined,995,fireplace,concrete-positive,negative,positive,B,NULL
1736944069,aa68dd7ef5051e7aae7bf50af44140b0,PennController,23,0,test_conc,NULL,PennController,34,_Header_,End,1736943563189,undefined,995,fireplace,concrete-positive,negative,positive,B,NULL
1736944069,aa68dd7ef5051e7aae7bf50af44140b0,PennController,23,0,test_conc,NULL,Selector,unnamed-Selector,Selection,positive,1736943564701,undefined,995,fireplace,concrete-positive,negative,positive,B,negative;positive
1736944069,aa68dd7ef5051e7aae7bf50af44140b0,PennController,23,0,test_conc,NULL,PennController,34,_Trial_,End,1736943564702,undefined,995,fireplace,concrete-positive,negative,positive,B,NULL
1736944069,aa68dd7ef5051e7aae7bf50af44140b0,PennController,13,0,test_conc,NULL,PennController,24,_Trial_,Start,1736943564703,undefined,828,envy,abstract-negative,negative,positive,B,NULL
1736944069,aa68dd7ef5051e7aae7bf50af44140b0,PennController,13,0,test_conc,NULL,PennController,24,_Header_,Start,1736943564703,undefined,828,envy,abstract-negative,negative,positive,B,NULL
1736944069,aa68dd7ef5051e7aae7bf50af44140b0,PennController,13,0,test_conc,NULL,PennController,24,_Header_,End,1736943564960,undefined,828,envy,abstract-negative,negative,positive,B,NULL
1736944069,aa68dd7ef5051e7aae7bf50af44140b0,PennController,13,0,test_conc,NULL,Selector,unnamed-Selector,Selection,negative,1736943566295,undefined,828,envy,abstract-negative,negative,positive,B,negative;positive
1736944069,aa68dd7ef5051e7aae7bf50af44140b0,PennController,13,0,test_conc,NULL,PennController,24,_Trial_,End,1736943566296,undefined,828,envy,abstract-negative,negative,positive,B,NULL
1736944069,aa68dd7ef5051e7aae7bf50af44140b0,PennController,30,0,test_conc,NULL,PennController,41,_Trial_,Start,1736943566297,undefined,891,happiness,abstract-positive,negative,positive,B,NULL
1736944069,aa68dd7ef5051e7aae7bf50af44140b0,PennController,30,0,test_conc,NULL,PennController,41,_Header_,Start,1736943566297,undefined,891,happiness,abstract-positive,negative,positive,B,NULL
1736944069,aa68dd7ef5051e7aae7bf50af44140b0,PennController,30,0,test_conc,NULL,PennController,41,_Header_,End,1736943566552,undefined,891,happiness,abstract-positive,negative,positive,B,NULL
1736944069,aa68dd7ef5051e7aae7bf50af44140b0,PennController,30,0,test_conc,NULL,Selector,unnamed-Selector,Selection,positive,1736943567960,undefined,891,happiness,abstract-positive,negative,positive,B,negative;positive
1736944069,aa68dd7ef5051e7aae7bf50af44140b0,PennController,30,0,test_conc,NULL,PennController,41,_Trial_,End,1736943567962,undefined,891,happiness,abstract-positive,negative,positive,B,NULL
1736944069,aa68dd7ef5051e7aae7bf50af44140b0,PennController,16,0,test_conc,NULL,PennController,27,_Trial_,Start,1736943567963,undefined,753,flowers,concrete-positive,negative,positive,B,NULL
1736944069,aa68dd7ef5051e7aae7bf50af44140b0,PennController,16,0,test_conc,NULL,PennController,27,_Header_,Start,1736943567963,undefined,753,flowers,concrete-positive,negative,positive,B,NULL
1736944069,aa68dd7ef5051e7aae7bf50af44140b0,PennController,16,0,test_conc,NULL,PennController,27,_Header_,End,1736943568226,undefined,753,flowers,concrete-positive,negative,positive,B,NULL
1736944069,aa68dd7ef5051e7aae7bf50af44140b0,PennController,16,0,test_conc,NULL,Selector,unnamed-Selector,Selection,positive,1736943569487,undefined,753,flowers,concrete-positive,negative,positive,B,negative;positive
1736944069,aa68dd7ef5051e7aae7bf50af44140b0,PennController,16,0,test_conc,NULL,PennController,27,_Trial_,End,1736943569487,undefined,753,flowers,concrete-positive,negative,positive,B,NULL
1736944069,aa68dd7ef5051e7aae7bf50af44140b0,PennController,15,0,test_conc,NULL,PennController,26,_Trial_,Start,1736943569488,undefined,825,laughter,concrete-positive,negative,positive,B,NULL
1736944069,aa68dd7ef5051e7aae7bf50af44140b0,PennController,15,0,test_conc,NULL,PennController,26,_Header_,Start,1736943569488,undefined,825,laughter,concrete-positive,negative,positive,B,NULL
1736944069,aa68dd7ef5051e7aae7bf50af44140b0,PennController,15,0,test_conc,NULL,PennController,26,_Header_,End,1736943569746,undefined,825,laughter,concrete-positive,negative,positive,B,NULL
1736944069,aa68dd7ef5051e7aae7bf50af44140b0,PennController,15,0,test_conc,NULL,Selector,unnamed-Selector,Selection,positive,1736943571089,undefined,825,laughter,concrete-positive,negative,positive,B,negative;positive
1736944069,aa68dd7ef5051e7aae7bf50af44140b0,PennController,15,0,test_conc,NULL,PennController,26,_Trial_,End,1736943571091,undefined,825,laughter,concrete-positive,negative,positive,B,NULL
1736944069,aa68dd7ef5051e7aae7bf50af44140b0,PennController,17,0,test_conc,NULL,PennController,28,_Trial_,Start,1736943571093,undefined,1162,music,concrete-positive,negative,positive,B,NULL
1736944069,aa68dd7ef5051e7aae7bf50af44140b0,PennController,17,0,test_conc,NULL,PennController,28,_Header_,Start,1736943571093,undefined,1162,music,concrete-positive,negative,positive,B,NULL
1736944069,aa68dd7ef5051e7aae7bf50af44140b0,PennController,17,0,test_conc,NULL,PennController,28,_Header_,End,1736943571356,undefined,1162,music,concrete-positive,negative,positive,B,NULL
1736944069,aa68dd7ef5051e7aae7bf50af44140b0,PennController,17,0,test_conc,NULL,Selector,unnamed-Selector,Selection,positive,1736943573023,undefined,1162,music,concrete-positive,negative,positive,B,negative;positive
1736944069,aa68dd7ef5051e7aae7bf50af44140b0,PennController,17,0,test_conc,NULL,PennController,28,_Trial_,End,1736943573023,undefined,1162,music,concrete-positive,negative,positive,B,NULL
1736944069,aa68dd7ef5051e7aae7bf50af44140b0,PennController,20,0,test_conc,NULL,PennController,31,_Trial_,Start,1736943573024,undefined,782,home,concrete-positive,negative,positive,B,NULL
1736944069,aa68dd7ef5051e7aae7bf50af44140b0,PennController,20,0,test_conc,NULL,PennController,31,_Header_,Start,1736943573024,undefined,782,home,concrete-positive,negative,positive,B,NULL
1736944069,aa68dd7ef5051e7aae7bf50af44140b0,PennController,20,0,test_conc,NULL,PennController,31,_Header_,End,1736943573283,undefined,782,home,concrete-positive,negative,positive,B,NULL
1736944069,aa68dd7ef5051e7aae7bf50af44140b0,PennController,20,0,test_conc,NULL,Selector,unnamed-Selector,Selection,positive,1736943574573,undefined,782,home,concrete-positive,negative,positive,B,negative;positive
1736944069,aa68dd7ef5051e7aae7bf50af44140b0,PennController,20,0,test_conc,NULL,PennController,31,_Trial_,End,1736943574574,undefined,782,home,concrete-positive,negative,positive,B,NULL
1736944069,aa68dd7ef5051e7aae7bf50af44140b0,PennController,9,0,test_conc,NULL,PennController,20,_Trial_,Start,1736943574575,undefined,820,grief,abstract-negative,negative,positive,B,NULL
1736944069,aa68dd7ef5051e7aae7bf50af44140b0,PennController,9,0,test_conc,NULL,PennController,20,_Header_,Start,1736943574575,undefined,820,grief,abstract-negative,negative,positive,B,NULL
1736944069,aa68dd7ef5051e7aae7bf50af44140b0,PennController,9,0,test_conc,NULL,PennController,20,_Header_,End,1736943574829,undefined,820,grief,abstract-negative,negative,positive,B,NULL
1736944069,aa68dd7ef5051e7aae7bf50af44140b0,PennController,9,0,test_conc,NULL,Selector,unnamed-Selector,Selection,negative,1736943576166,undefined,820,grief,abstract-negative,negative,positive,B,negative;positive
1736944069,aa68dd7ef5051e7aae7bf50af44140b0,PennController,9,0,test_conc,NULL,PennController,20,_Trial_,End,1736943576167,undefined,820,grief,abstract-negative,negative,positive,B,NULL
1736944069,aa68dd7ef5051e7aae7bf50af44140b0,PennController,14,0,test_conc,NULL,PennController,25,_Trial_,Start,1736943576168,undefined,972,sunshine,concrete-positive,negative,positive,B,NULL
1736944069,aa68dd7ef5051e7aae7bf50af44140b0,PennController,14,0,test_conc,NULL,PennController,25,_Header_,Start,1736943576168,undefined,972,sunshine,concrete-positive,negative,positive,B,NULL
1736944069,aa68dd7ef5051e7aae7bf50af44140b0,PennController,14,0,test_conc,NULL,PennController,25,_Header_,End,1736943576427,undefined,972,sunshine,concrete-positive,negative,positive,B,NULL
1736944069,aa68dd7ef5051e7aae7bf50af44140b0,PennController,14,0,test_conc,NULL,Selector,unnamed-Selector,Selection,positive,1736943577911,undefined,972,sunshine,concrete-positive,negative,positive,B,negative;positive
1736944069,aa68dd7ef5051e7aae7bf50af44140b0,PennController,14,0,test_conc,NULL,PennController,25,_Trial_,End,1736943577912,undefined,972,sunshine,concrete-positive,negative,positive,B,NULL
1736944069,aa68dd7ef5051e7aae7bf50af44140b0,PennController,18,0,test_conc,NULL,PennController,29,_Trial_,Start,1736943577913,undefined,1408,beach,concrete-positive,negative,positive,B,NULL
1736944069,aa68dd7ef5051e7aae7bf50af44140b0,PennController,18,0,test_conc,NULL,PennController,29,_Header_,Start,1736943577913,undefined,1408,beach,concrete-positive,negative,positive,B,NULL
1736944069,aa68dd7ef5051e7aae7bf50af44140b0,PennController,18,0,test_conc,NULL,PennController,29,_Header_,End,1736943578171,undefined,1408,beach,concrete-positive,negative,positive,B,NULL
1736944069,aa68dd7ef5051e7aae7bf50af44140b0,PennController,18,0,test_conc,NULL,Selector,unnamed-Selector,Selection,positive,1736943580080,undefined,1408,beach,concrete-positive,negative,positive,B,negative;positive
1736944069,aa68dd7ef5051e7aae7bf50af44140b0,PennController,18,0,test_conc,NULL,PennController,29,_Trial_,End,1736943580082,undefined,1408,beach,concrete-positive,negative,positive,B,NULL
1736944069,aa68dd7ef5051e7aae7bf50af44140b0,PennController,6,0,test_conc,NULL,PennController,17,_Trial_,Start,1736943580084,undefined,870,anxiety,abstract-negative,negative,positive,B,NULL
1736944069,aa68dd7ef5051e7aae7bf50af44140b0,PennController,6,0,test_conc,NULL,PennController,17,_Header_,Start,1736943580084,undefined,870,anxiety,abstract-negative,negative,positive,B,NULL
1736944069,aa68dd7ef5051e7aae7bf50af44140b0,PennController,6,0,test_conc,NULL,PennController,17,_Header_,End,1736943580348,undefined,870,anxiety,abstract-negative,negative,positive,B,NULL
1736944069,aa68dd7ef5051e7aae7bf50af44140b0,PennController,6,0,test_conc,NULL,Selector,unnamed-Selector,Selection,negative,1736943581735,undefined,870,anxiety,abstract-negative,negative,positive,B,negative;positive
1736944069,aa68dd7ef5051e7aae7bf50af44140b0,PennController,6,0,test_conc,NULL,PennController,17,_Trial_,End,1736943581736,undefined,870,anxiety,abstract-negative,negative,positive,B,NULL
1736944069,aa68dd7ef5051e7aae7bf50af44140b0,PennController,28,0,test_conc,NULL,PennController,39,_Trial_,Start,1736943581737,undefined,1000,freedom,abstract-positive,negative,positive,B,NULL
1736944069,aa68dd7ef5051e7aae7bf50af44140b0,PennController,28,0,test_conc,NULL,PennController,39,_Header_,Start,1736943581737,undefined,1000,freedom,abstract-positive,negative,positive,B,NULL
1736944069,aa68dd7ef5051e7aae7bf50af44140b0,PennController,28,0,test_conc,NULL,PennController,39,_Header_,End,1736943581997,undefined,1000,freedom,abstract-positive,negative,positive,B,NULL
1736944069,aa68dd7ef5051e7aae7bf50af44140b0,PennController,28,0,test_conc,NULL,Selector,unnamed-Selector,Selection,positive,1736943583503,undefined,1000,freedom,abstract-positive,negative,positive,B,negative;positive
1736944069,aa68dd7ef5051e7aae7bf50af44140b0,PennController,28,0,test_conc,NULL,PennController,39,_Trial_,End,1736943583504,undefined,1000,freedom,abstract-positive,negative,positive,B,NULL
1736944069,aa68dd7ef5051e7aae7bf50af44140b0,PennController,25,0,test_conc,NULL,PennController,36,_Trial_,Start,1736943583506,undefined,901,hope,abstract-positive,negative,positive,B,NULL
1736944069,aa68dd7ef5051e7aae7bf50af44140b0,PennController,25,0,test_conc,NULL,PennController,36,_Header_,Start,1736943583506,undefined,901,hope,abstract-positive,negative,positive,B,NULL
1736944069,aa68dd7ef5051e7aae7bf50af44140b0,PennController,25,0,test_conc,NULL,PennController,36,_Header_,End,1736943583757,undefined,901,hope,abstract-positive,negative,positive,B,NULL
1736944069,aa68dd7ef5051e7aae7bf50af44140b0,PennController,25,0,test_conc,NULL,Selector,unnamed-Selector,Selection,positive,1736943585166,undefined,901,hope,abstract-positive,negative,positive,B,negative;positive
1736944069,aa68dd7ef5051e7aae7bf50af44140b0,PennController,25,0,test_conc,NULL,PennController,36,_Trial_,End,1736943585167,undefined,901,hope,abstract-positive,negative,positive,B,NULL
1736944069,aa68dd7ef5051e7aae7bf50af44140b0,PennController,36,0,test_conc,NULL,PennController,47,_Trial_,Start,1736943585168,undefined,1143,mud,concrete-negative,negative,positive,B,NULL
1736944069,aa68dd7ef5051e7aae7bf50af44140b0,PennController,36,0,test_conc,NULL,PennController,47,_Header_,Start,1736943585168,undefined,1143,mud,concrete-negative,negative,positive,B,NULL
1736944069,aa68dd7ef5051e7aae7bf50af44140b0,PennController,36,0,test_conc,NULL,PennController,47,_Header_,End,1736943585418,undefined,1143,mud,concrete-negative,negative,positive,B,NULL
1736944069,aa68dd7ef5051e7aae7bf50af44140b0,PennController,36,0,test_conc,NULL,Selector,unnamed-Selector,Selection,negative,1736943587071,undefined,1143,mud,concrete-negative,negative,positive,B,negative;positive
1736944069,aa68dd7ef5051e7aae7bf50af44140b0,PennController,36,0,test_conc,NULL,PennController,47,_Trial_,End,1736943587073,undefined,1143,mud,concrete-negative,negative,positive,B,NULL
1736944069,aa68dd7ef5051e7aae7bf50af44140b0,PennController,37,0,test_conc,NULL,PennController,48,_Trial_,Start,1736943587074,undefined,1133,vomit,concrete-negative,negative,positive,B,NULL
1736944069,aa68dd7ef5051e7aae7bf50af44140b0,PennController,37,0,test_conc,NULL,PennController,48,_Header_,Start,1736943587074,undefined,1133,vomit,concrete-negative,negative,positive,B,NULL
1736944069,aa68dd7ef5051e7aae7bf50af44140b0,PennController,37,0,test_conc,NULL,PennController,48,_Header_,End,1736943587330,undefined,1133,vomit,concrete-negative,negative,positive,B,NULL
1736944069,aa68dd7ef5051e7aae7bf50af44140b0,PennController,37,0,test_conc,NULL,Selector,unnamed-Selector,Selection,negative,1736943588966,undefined,1133,vomit,concrete-negative,negative,positive,B,negative;positive
1736944069,aa68dd7ef5051e7aae7bf50af44140b0,PennController,37,0,test_conc,NULL,PennController,48,_Trial_,End,1736943588967,undefined,1133,vomit,concrete-negative,negative,positive,B,NULL
1736944069,aa68dd7ef5051e7aae7bf50af44140b0,PennController,35,0,test_conc,NULL,PennController,46,_Trial_,Start,1736943588968,undefined,977,rot,concrete-negative,negative,positive,B,NULL
1736944069,aa68dd7ef5051e7aae7bf50af44140b0,PennController,35,0,test_conc,NULL,PennController,46,_Header_,Start,1736943588968,undefined,977,rot,concrete-negative,negative,positive,B,NULL
1736944069,aa68dd7ef5051e7aae7bf50af44140b0,PennController,35,0,test_conc,NULL,PennController,46,_Header_,End,1736943589221,undefined,977,rot,concrete-negative,negative,positive,B,NULL
1736944069,aa68dd7ef5051e7aae7bf50af44140b0,PennController,35,0,test_conc,NULL,Selector,unnamed-Selector,Selection,negative,1736943590709,undefined,977,rot,concrete-negative,negative,positive,B,negative;positive
1736944069,aa68dd7ef5051e7aae7bf50af44140b0,PennController,35,0,test_conc,NULL,PennController,46,_Trial_,End,1736943590710,undefined,977,rot,concrete-negative,negative,positive,B,NULL
1736944069,aa68dd7ef5051e7aae7bf50af44140b0,PennController,27,0,test_conc,NULL,PennController,38,_Trial_,Start,1736943590711,undefined,1112,peace,abstract-positive,negative,positive,B,NULL
1736944069,aa68dd7ef5051e7aae7bf50af44140b0,PennController,27,0,test_conc,NULL,PennController,38,_Header_,Start,1736943590711,undefined,1112,peace,abstract-positive,negative,positive,B,NULL
1736944069,aa68dd7ef5051e7aae7bf50af44140b0,PennController,27,0,test_conc,NULL,PennController,38,_Header_,End,1736943590961,undefined,1112,peace,abstract-positive,negative,positive,B,NULL
1736944069,aa68dd7ef5051e7aae7bf50af44140b0,PennController,27,0,test_conc,NULL,Selector,unnamed-Selector,Selection,positive,1736943592582,undefined,1112,peace,abstract-positive,negative,positive,B,negative;positive
1736944069,aa68dd7ef5051e7aae7bf50af44140b0,PennController,27,0,test_conc,NULL,PennController,38,_Trial_,End,1736943592583,undefined,1112,peace,abstract-positive,negative,positive,B,NULL
1736944069,aa68dd7ef5051e7aae7bf50af44140b0,PennController,40,0,test_conc,NULL,PennController,51,_Trial_,Start,1736943592583,undefined,1090,mold,concrete-negative,negative,positive,B,NULL
1736944069,aa68dd7ef5051e7aae7bf50af44140b0,PennController,40,0,test_conc,NULL,PennController,51,_Header_,Start,1736943592583,undefined,1090,mold,concrete-negative,negative,positive,B,NULL
1736944069,aa68dd7ef5051e7aae7bf50af44140b0,PennController,40,0,test_conc,NULL,PennController,51,_Header_,End,1736943592840,undefined,1090,mold,concrete-negative,negative,positive,B,NULL
1736944069,aa68dd7ef5051e7aae7bf50af44140b0,PennController,40,0,test_conc,NULL,Selector,unnamed-Selector,Selection,negative,1736943594438,undefined,1090,mold,concrete-negative,negative,positive,B,negative;positive
1736944069,aa68dd7ef5051e7aae7bf50af44140b0,PennController,40,0,test_conc,NULL,PennController,51,_Trial_,End,1736943594439,undefined,1090,mold,concrete-negative,negative,positive,B,NULL
1736944069,aa68dd7ef5051e7aae7bf50af44140b0,PennController,21,0,test_conc,NULL,PennController,32,_Trial_,Start,1736943594441,undefined,1065,rain,concrete-positive,negative,positive,B,NULL
1736944069,aa68dd7ef5051e7aae7bf50af44140b0,PennController,21,0,test_conc,NULL,PennController,32,_Header_,Start,1736943594441,undefined,1065,rain,concrete-positive,negative,positive,B,NULL
1736944069,aa68dd7ef5051e7aae7bf50af44140b0,PennController,21,0,test_conc,NULL,PennController,32,_Header_,End,1736943594702,undefined,1065,rain,concrete-positive,negative,positive,B,NULL
1736944069,aa68dd7ef5051e7aae7bf50af44140b0,PennController,21,0,test_conc,NULL,Selector,unnamed-Selector,Selection,positive,1736943596280,undefined,1065,rain,concrete-positive,negative,positive,B,negative;positive
1736944069,aa68dd7ef5051e7aae7bf50af44140b0,PennController,21,0,test_conc,NULL,PennController,32,_Trial_,End,1736943596282,undefined,1065,rain,concrete-positive,negative,positive,B,NULL
1736944069,aa68dd7ef5051e7aae7bf50af44140b0,PennController,39,0,test_conc,NULL,PennController,50,_Trial_,Start,1736943596283,undefined,1308,rust,concrete-negative,negative,positive,B,NULL
1736944069,aa68dd7ef5051e7aae7bf50af44140b0,PennController,39,0,test_conc,NULL,PennController,50,_Header_,Start,1736943596284,undefined,1308,rust,concrete-negative,negative,positive,B,NULL
1736944069,aa68dd7ef5051e7aae7bf50af44140b0,PennController,39,0,test_conc,NULL,PennController,50,_Header_,End,1736943596545,undefined,1308,rust,concrete-negative,negative,positive,B,NULL
1736944069,aa68dd7ef5051e7aae7bf50af44140b0,PennController,39,0,test_conc,NULL,Selector,unnamed-Selector,Selection,negative,1736943598367,undefined,1308,rust,concrete-negative,negative,positive,B,negative;positive
1736944069,aa68dd7ef5051e7aae7bf50af44140b0,PennController,39,0,test_conc,NULL,PennController,50,_Trial_,End,1736943598368,undefined,1308,rust,concrete-negative,negative,positive,B,NULL
1736944069,aa68dd7ef5051e7aae7bf50af44140b0,PennController,11,0,test_conc,NULL,PennController,22,_Trial_,Start,1736943598370,undefined,1038,failure,abstract-negative,negative,positive,B,NULL
1736944069,aa68dd7ef5051e7aae7bf50af44140b0,PennController,11,0,test_conc,NULL,PennController,22,_Header_,Start,1736943598370,undefined,1038,failure,abstract-negative,negative,positive,B,NULL
1736944069,aa68dd7ef5051e7aae7bf50af44140b0,PennController,11,0,test_conc,NULL,PennController,22,_Header_,End,1736943598633,undefined,1038,failure,abstract-negative,negative,positive,B,NULL
1736944069,aa68dd7ef5051e7aae7bf50af44140b0,PennController,11,0,test_conc,NULL,Selector,unnamed-Selector,Selection,negative,1736943600184,undefined,1038,failure,abstract-negative,negative,positive,B,negative;positive
1736944069,aa68dd7ef5051e7aae7bf50af44140b0,PennController,11,0,test_conc,NULL,PennController,22,_Trial_,End,1736943600186,undefined,1038,failure,abstract-negative,negative,positive,B,NULL
1736944069,aa68dd7ef5051e7aae7bf50af44140b0,PennController,5,0,test_conc,NULL,PennController,16,_Trial_,Start,1736943600188,undefined,1317,regret,abstract-negative,negative,positive,B,NULL
1736944069,aa68dd7ef5051e7aae7bf50af44140b0,PennController,5,0,test_conc,NULL,PennController,16,_Header_,Start,1736943600188,undefined,1317,regret,abstract-negative,negative,positive,B,NULL
1736944069,aa68dd7ef5051e7aae7bf50af44140b0,PennController,5,0,test_conc,NULL,PennController,16,_Header_,End,1736943600442,undefined,1317,regret,abstract-negative,negative,positive,B,NULL
1736944069,aa68dd7ef5051e7aae7bf50af44140b0,PennController,5,0,test_conc,NULL,Selector,unnamed-Selector,Selection,negative,1736943602272,undefined,1317,regret,abstract-negative,negative,positive,B,negative;positive
