#
# Results on Mon, 27 Jan 2025 18:46:42 GMT
# USER AGENT: Mozilla/5.0 (X11; CrOS x86_64 14541.0.0) AppleWebKit/537.36 (KHTML, like Gecko) Chrome/125.0.0.0 Safari/537.36
# Design number was non-random = 5
#
# Columns below this comment are as follows:
# 1. Results reception time.
# 2. MD5 hash of participant's IP address.
# 3. Controller name.
# 4. Order number of item.
# 5. Inner element number.
# 6. Label.
# 7. Latin Square Group.
# 8. PennElementType.
# 9. PennElementName.
# 10. Parameter.
# 11. Value.
# 12. EventTime.
# 13. Comments.
1738003602,223289f3f9c7a79a8ba51da705bc91a9,PennController,1,0,welcome,NULL,PennController,0,_Trial_,Start,1738002930602,NULL
1738003602,223289f3f9c7a79a8ba51da705bc91a9,PennController,1,0,welcome,NULL,PennController,0,_Header_,Start,1738002930602,NULL
1738003602,223289f3f9c7a79a8ba51da705bc91a9,PennController,1,0,welcome,NULL,PennController,0,_Header_,End,1738002930859,NULL
1738003602,223289f3f9c7a79a8ba51da705bc91a9,PennController,1,0,welcome,NULL,PennController,0,_Trial_,End,1738003024418,NULL
# 13. ID.
# 14. Comments.
1738003602,223289f3f9c7a79a8ba51da705bc91a9,PennController,124,0,consent,NULL,PennController,2,_Trial_,Start,1738003024428,60516195621d17646079b995,NULL
1738003602,223289f3f9c7a79a8ba51da705bc91a9,PennController,124,0,consent,NULL,PennController,2,_Header_,Start,1738003024428,60516195621d17646079b995,NULL
1738003602,223289f3f9c7a79a8ba51da705bc91a9,PennController,124,0,consent,NULL,PennController,2,_Header_,End,1738003024683,60516195621d17646079b995,NULL
1738003602,223289f3f9c7a79a8ba51da705bc91a9,PennController,124,0,consent,NULL,TextInput,ID,First,,1738003052251,60516195621d17646079b995,Control
1738003602,223289f3f9c7a79a8ba51da705bc91a9,PennController,124,0,consent,NULL,TextInput,ID,Final,60516195621d17646079b995,1738003053467,60516195621d17646079b995,NULL
1738003602,223289f3f9c7a79a8ba51da705bc91a9,PennController,124,0,consent,NULL,PennController,2,_Trial_,End,1738003053468,60516195621d17646079b995,NULL
# 13. Comments.
1738003602,223289f3f9c7a79a8ba51da705bc91a9,PennController,126,0,instructions1_val,NULL,PennController,4,_Trial_,Start,1738003053472,NULL
1738003602,223289f3f9c7a79a8ba51da705bc91a9,PennController,126,0,instructions1_val,NULL,PennController,4,_Header_,Start,1738003053472,NULL
1738003602,223289f3f9c7a79a8ba51da705bc91a9,PennController,126,0,instructions1_val,NULL,PennController,4,_Header_,End,1738003053725,NULL
1738003602,223289f3f9c7a79a8ba51da705bc91a9,PennController,126,0,instructions1_val,NULL,PennController,4,_Trial_,End,1738003073651,NULL
1738003602,223289f3f9c7a79a8ba51da705bc91a9,PennController,127,0,instructions2_val,NULL,PennController,5,_Trial_,Start,1738003073655,NULL
1738003602,223289f3f9c7a79a8ba51da705bc91a9,PennController,127,0,instructions2_val,NULL,PennController,5,_Header_,Start,1738003073655,NULL
1738003602,223289f3f9c7a79a8ba51da705bc91a9,PennController,127,0,instructions2_val,NULL,PennController,5,_Header_,End,1738003073909,NULL
1738003602,223289f3f9c7a79a8ba51da705bc91a9,PennController,127,0,instructions2_val,NULL,PennController,5,_Trial_,End,1738003080327,NULL
1738003602,223289f3f9c7a79a8ba51da705bc91a9,PennController,128,0,instructions3_hands,NULL,PennController,6,_Trial_,Start,1738003080331,NULL
1738003602,223289f3f9c7a79a8ba51da705bc91a9,PennController,128,0,instructions3_hands,NULL,PennController,6,_Header_,Start,1738003080331,NULL
1738003602,223289f3f9c7a79a8ba51da705bc91a9,PennController,128,0,instructions3_hands,NULL,PennController,6,_Header_,End,1738003080584,NULL
1738003602,223289f3f9c7a79a8ba51da705bc91a9,PennController,128,0,instructions3_hands,NULL,PennController,6,_Trial_,End,1738003084310,NULL
1738003602,223289f3f9c7a79a8ba51da705bc91a9,PennController,129,0,practice_intro_val,NULL,PennController,7,_Trial_,Start,1738003084314,NULL
1738003602,223289f3f9c7a79a8ba51da705bc91a9,PennController,129,0,practice_intro_val,NULL,PennController,7,_Header_,Start,1738003084314,NULL
1738003602,223289f3f9c7a79a8ba51da705bc91a9,PennController,129,0,practice_intro_val,NULL,PennController,7,_Header_,End,1738003084564,NULL
1738003602,223289f3f9c7a79a8ba51da705bc91a9,PennController,129,0,practice_intro_val,NULL,PennController,7,_Trial_,End,1738003086298,NULL
# 13. ID.
# 14. ReactionTime.
# 15. Word.
# 16. selectedKey.
# 17. selectedValue.
# 18. Key_value_F.
# 19. Key_value_J.
# 20. Group.
# 21. Comments.
1738003602,223289f3f9c7a79a8ba51da705bc91a9,PennController,108,0,calibrator_val_feedback,NULL,PennController,119,_Trial_,Start,1738003086302,undefined,1800,industry,undefined,positive,negative,positive,A,NULL
1738003602,223289f3f9c7a79a8ba51da705bc91a9,PennController,108,0,calibrator_val_feedback,NULL,PennController,119,_Header_,Start,1738003086302,undefined,1800,industry,undefined,positive,negative,positive,A,NULL
1738003602,223289f3f9c7a79a8ba51da705bc91a9,PennController,108,0,calibrator_val_feedback,NULL,PennController,119,_Header_,End,1738003086555,undefined,1800,industry,undefined,positive,negative,positive,A,NULL
1738003602,223289f3f9c7a79a8ba51da705bc91a9,PennController,108,0,calibrator_val_feedback,NULL,Selector,Selection,Selection,negative,1738003088860,undefined,1800,industry,undefined,positive,negative,positive,A,negative;positive
1738003602,223289f3f9c7a79a8ba51da705bc91a9,PennController,108,0,calibrator_val_feedback,NULL,PennController,119,_Trial_,End,1738003090872,undefined,1800,industry,undefined,positive,negative,positive,A,NULL
1738003602,223289f3f9c7a79a8ba51da705bc91a9,PennController,112,0,calibrator_val_feedback,NULL,PennController,123,_Trial_,Start,1738003090877,undefined,982,joke,undefined,positive,negative,positive,A,NULL
1738003602,223289f3f9c7a79a8ba51da705bc91a9,PennController,112,0,calibrator_val_feedback,NULL,PennController,123,_Header_,Start,1738003090877,undefined,982,joke,undefined,positive,negative,positive,A,NULL
1738003602,223289f3f9c7a79a8ba51da705bc91a9,PennController,112,0,calibrator_val_feedback,NULL,PennController,123,_Header_,End,1738003091130,undefined,982,joke,undefined,positive,negative,positive,A,NULL
1738003602,223289f3f9c7a79a8ba51da705bc91a9,PennController,112,0,calibrator_val_feedback,NULL,Selector,Selection,Selection,positive,1738003092618,undefined,982,joke,undefined,positive,negative,positive,A,negative;positive
1738003602,223289f3f9c7a79a8ba51da705bc91a9,PennController,112,0,calibrator_val_feedback,NULL,PennController,123,_Trial_,End,1738003094629,undefined,982,joke,undefined,positive,negative,positive,A,NULL
1738003602,223289f3f9c7a79a8ba51da705bc91a9,PennController,106,0,calibrator_val_feedback,NULL,PennController,117,_Trial_,Start,1738003094635,undefined,1311,hat,undefined,positive,negative,positive,A,NULL
1738003602,223289f3f9c7a79a8ba51da705bc91a9,PennController,106,0,calibrator_val_feedback,NULL,PennController,117,_Header_,Start,1738003094635,undefined,1311,hat,undefined,positive,negative,positive,A,NULL
1738003602,223289f3f9c7a79a8ba51da705bc91a9,PennController,106,0,calibrator_val_feedback,NULL,PennController,117,_Header_,End,1738003094887,undefined,1311,hat,undefined,positive,negative,positive,A,NULL
1738003602,223289f3f9c7a79a8ba51da705bc91a9,PennController,106,0,calibrator_val_feedback,NULL,Selector,Selection,Selection,positive,1738003096704,undefined,1311,hat,undefined,positive,negative,positive,A,negative;positive
1738003602,223289f3f9c7a79a8ba51da705bc91a9,PennController,106,0,calibrator_val_feedback,NULL,PennController,117,_Trial_,End,1738003098713,undefined,1311,hat,undefined,positive,negative,positive,A,NULL
1738003602,223289f3f9c7a79a8ba51da705bc91a9,PennController,105,0,calibrator_val_feedback,NULL,PennController,116,_Trial_,Start,1738003098719,undefined,937,grin,undefined,positive,negative,positive,A,NULL
1738003602,223289f3f9c7a79a8ba51da705bc91a9,PennController,105,0,calibrator_val_feedback,NULL,PennController,116,_Header_,Start,1738003098719,undefined,937,grin,undefined,positive,negative,positive,A,NULL
1738003602,223289f3f9c7a79a8ba51da705bc91a9,PennController,105,0,calibrator_val_feedback,NULL,PennController,116,_Header_,End,1738003098970,undefined,937,grin,undefined,positive,negative,positive,A,NULL
1738003602,223289f3f9c7a79a8ba51da705bc91a9,PennController,105,0,calibrator_val_feedback,NULL,Selector,Selection,Selection,positive,1738003100415,undefined,937,grin,undefined,positive,negative,positive,A,negative;positive
1738003602,223289f3f9c7a79a8ba51da705bc91a9,PennController,105,0,calibrator_val_feedback,NULL,PennController,116,_Trial_,End,1738003102426,undefined,937,grin,undefined,positive,negative,positive,A,NULL
1738003602,223289f3f9c7a79a8ba51da705bc91a9,PennController,109,0,calibrator_val_feedback,NULL,PennController,120,_Trial_,Start,1738003102432,undefined,828,insecure,undefined,positive,negative,positive,A,NULL
1738003602,223289f3f9c7a79a8ba51da705bc91a9,PennController,109,0,calibrator_val_feedback,NULL,PennController,120,_Header_,Start,1738003102432,undefined,828,insecure,undefined,positive,negative,positive,A,NULL
1738003602,223289f3f9c7a79a8ba51da705bc91a9,PennController,109,0,calibrator_val_feedback,NULL,PennController,120,_Header_,End,1738003102687,undefined,828,insecure,undefined,positive,negative,positive,A,NULL
1738003602,223289f3f9c7a79a8ba51da705bc91a9,PennController,109,0,calibrator_val_feedback,NULL,Selector,Selection,Selection,negative,1738003104023,undefined,828,insecure,undefined,positive,negative,positive,A,negative;positive
1738003602,223289f3f9c7a79a8ba51da705bc91a9,PennController,109,0,calibrator_val_feedback,NULL,PennController,120,_Trial_,End,1738003106030,undefined,828,insecure,undefined,positive,negative,positive,A,NULL
1738003602,223289f3f9c7a79a8ba51da705bc91a9,PennController,113,0,calibrator_val_feedback,NULL,PennController,124,_Trial_,Start,1738003106034,undefined,798,kitten,undefined,positive,negative,positive,A,NULL
1738003602,223289f3f9c7a79a8ba51da705bc91a9,PennController,113,0,calibrator_val_feedback,NULL,PennController,124,_Header_,Start,1738003106034,undefined,798,kitten,undefined,positive,negative,positive,A,NULL
1738003602,223289f3f9c7a79a8ba51da705bc91a9,PennController,113,0,calibrator_val_feedback,NULL,PennController,124,_Header_,End,1738003106286,undefined,798,kitten,undefined,positive,negative,positive,A,NULL
1738003602,223289f3f9c7a79a8ba51da705bc91a9,PennController,113,0,calibrator_val_feedback,NULL,Selector,Selection,Selection,positive,1738003107588,undefined,798,kitten,undefined,positive,negative,positive,A,negative;positive
1738003602,223289f3f9c7a79a8ba51da705bc91a9,PennController,113,0,calibrator_val_feedback,NULL,PennController,124,_Trial_,End,1738003109600,undefined,798,kitten,undefined,positive,negative,positive,A,NULL
1738003602,223289f3f9c7a79a8ba51da705bc91a9,PennController,110,0,calibrator_val_feedback,NULL,PennController,121,_Trial_,Start,1738003109605,undefined,1026,invader,undefined,positive,negative,positive,A,NULL
1738003602,223289f3f9c7a79a8ba51da705bc91a9,PennController,110,0,calibrator_val_feedback,NULL,PennController,121,_Header_,Start,1738003109605,undefined,1026,invader,undefined,positive,negative,positive,A,NULL
1738003602,223289f3f9c7a79a8ba51da705bc91a9,PennController,110,0,calibrator_val_feedback,NULL,PennController,121,_Header_,End,1738003109858,undefined,1026,invader,undefined,positive,negative,positive,A,NULL
1738003602,223289f3f9c7a79a8ba51da705bc91a9,PennController,110,0,calibrator_val_feedback,NULL,Selector,Selection,Selection,negative,1738003111390,undefined,1026,invader,undefined,positive,negative,positive,A,negative;positive
1738003602,223289f3f9c7a79a8ba51da705bc91a9,PennController,110,0,calibrator_val_feedback,NULL,PennController,121,_Trial_,End,1738003113396,undefined,1026,invader,undefined,positive,negative,positive,A,NULL
1738003602,223289f3f9c7a79a8ba51da705bc91a9,PennController,107,0,calibrator_val_feedback,NULL,PennController,118,_Trial_,Start,1738003113399,undefined,953,icebox,undefined,positive,negative,positive,A,NULL
1738003602,223289f3f9c7a79a8ba51da705bc91a9,PennController,107,0,calibrator_val_feedback,NULL,PennController,118,_Header_,Start,1738003113399,undefined,953,icebox,undefined,positive,negative,positive,A,NULL
1738003602,223289f3f9c7a79a8ba51da705bc91a9,PennController,107,0,calibrator_val_feedback,NULL,PennController,118,_Header_,End,1738003113653,undefined,953,icebox,undefined,positive,negative,positive,A,NULL
1738003602,223289f3f9c7a79a8ba51da705bc91a9,PennController,107,0,calibrator_val_feedback,NULL,Selector,Selection,Selection,positive,1738003115114,undefined,953,icebox,undefined,positive,negative,positive,A,negative;positive
1738003602,223289f3f9c7a79a8ba51da705bc91a9,PennController,107,0,calibrator_val_feedback,NULL,PennController,118,_Trial_,End,1738003117123,undefined,953,icebox,undefined,positive,negative,positive,A,NULL
1738003602,223289f3f9c7a79a8ba51da705bc91a9,PennController,104,0,calibrator_val_feedback,NULL,PennController,115,_Trial_,Start,1738003117132,undefined,1115,free,undefined,positive,negative,positive,A,NULL
1738003602,223289f3f9c7a79a8ba51da705bc91a9,PennController,104,0,calibrator_val_feedback,NULL,PennController,115,_Header_,Start,1738003117132,undefined,1115,free,undefined,positive,negative,positive,A,NULL
1738003602,223289f3f9c7a79a8ba51da705bc91a9,PennController,104,0,calibrator_val_feedback,NULL,PennController,115,_Header_,End,1738003117383,undefined,1115,free,undefined,positive,negative,positive,A,NULL
1738003602,223289f3f9c7a79a8ba51da705bc91a9,PennController,104,0,calibrator_val_feedback,NULL,Selector,Selection,Selection,positive,1738003119005,undefined,1115,free,undefined,positive,negative,positive,A,negative;positive
1738003602,223289f3f9c7a79a8ba51da705bc91a9,PennController,104,0,calibrator_val_feedback,NULL,PennController,115,_Trial_,End,1738003121015,undefined,1115,free,undefined,positive,negative,positive,A,NULL
1738003602,223289f3f9c7a79a8ba51da705bc91a9,PennController,111,0,calibrator_val_feedback,NULL,PennController,122,_Trial_,Start,1738003121019,undefined,722,jail,undefined,positive,negative,positive,A,NULL
1738003602,223289f3f9c7a79a8ba51da705bc91a9,PennController,111,0,calibrator_val_feedback,NULL,PennController,122,_Header_,Start,1738003121019,undefined,722,jail,undefined,positive,negative,positive,A,NULL
1738003602,223289f3f9c7a79a8ba51da705bc91a9,PennController,111,0,calibrator_val_feedback,NULL,PennController,122,_Header_,End,1738003121271,undefined,722,jail,undefined,positive,negative,positive,A,NULL
1738003602,223289f3f9c7a79a8ba51da705bc91a9,PennController,111,0,calibrator_val_feedback,NULL,Selector,Selection,Selection,negative,1738003122498,undefined,722,jail,undefined,positive,negative,positive,A,negative;positive
1738003602,223289f3f9c7a79a8ba51da705bc91a9,PennController,111,0,calibrator_val_feedback,NULL,PennController,122,_Trial_,End,1738003124509,undefined,722,jail,undefined,positive,negative,positive,A,NULL
# 16. Key_value_F.
# 17. Key_value_J.
# 18. Group.
# 19. Comments.
1738003602,223289f3f9c7a79a8ba51da705bc91a9,PennController,118,0,calibrator_val_no_feedback,NULL,PennController,129,_Trial_,Start,1738003124513,undefined,1424,industry,negative,positive,A,NULL
1738003602,223289f3f9c7a79a8ba51da705bc91a9,PennController,118,0,calibrator_val_no_feedback,NULL,PennController,129,_Header_,Start,1738003124513,undefined,1424,industry,negative,positive,A,NULL
1738003602,223289f3f9c7a79a8ba51da705bc91a9,PennController,118,0,calibrator_val_no_feedback,NULL,PennController,129,_Header_,End,1738003124768,undefined,1424,industry,negative,positive,A,NULL
1738003602,223289f3f9c7a79a8ba51da705bc91a9,PennController,118,0,calibrator_val_no_feedback,NULL,Selector,unnamed-Selector,Selection,positive,1738003126697,undefined,1424,industry,negative,positive,A,negative;positive
1738003602,223289f3f9c7a79a8ba51da705bc91a9,PennController,118,0,calibrator_val_no_feedback,NULL,PennController,129,_Trial_,End,1738003126701,undefined,1424,industry,negative,positive,A,NULL
1738003602,223289f3f9c7a79a8ba51da705bc91a9,PennController,123,0,calibrator_val_no_feedback,NULL,PennController,134,_Trial_,Start,1738003126704,undefined,798,kitten,negative,positive,A,NULL
1738003602,223289f3f9c7a79a8ba51da705bc91a9,PennController,123,0,calibrator_val_no_feedback,NULL,PennController,134,_Header_,Start,1738003126704,undefined,798,kitten,negative,positive,A,NULL
1738003602,223289f3f9c7a79a8ba51da705bc91a9,PennController,123,0,calibrator_val_no_feedback,NULL,PennController,134,_Header_,End,1738003126957,undefined,798,kitten,negative,positive,A,NULL
1738003602,223289f3f9c7a79a8ba51da705bc91a9,PennController,123,0,calibrator_val_no_feedback,NULL,Selector,unnamed-Selector,Selection,positive,1738003128261,undefined,798,kitten,negative,positive,A,negative;positive
1738003602,223289f3f9c7a79a8ba51da705bc91a9,PennController,123,0,calibrator_val_no_feedback,NULL,PennController,134,_Trial_,End,1738003128265,undefined,798,kitten,negative,positive,A,NULL
1738003602,223289f3f9c7a79a8ba51da705bc91a9,PennController,117,0,calibrator_val_no_feedback,NULL,PennController,128,_Trial_,Start,1738003128269,undefined,800,icebox,negative,positive,A,NULL
1738003602,223289f3f9c7a79a8ba51da705bc91a9,PennController,117,0,calibrator_val_no_feedback,NULL,PennController,128,_Header_,Start,1738003128269,undefined,800,icebox,negative,positive,A,NULL
1738003602,223289f3f9c7a79a8ba51da705bc91a9,PennController,117,0,calibrator_val_no_feedback,NULL,PennController,128,_Header_,End,1738003128519,undefined,800,icebox,negative,positive,A,NULL
1738003602,223289f3f9c7a79a8ba51da705bc91a9,PennController,117,0,calibrator_val_no_feedback,NULL,Selector,unnamed-Selector,Selection,positive,1738003129825,undefined,800,icebox,negative,positive,A,negative;positive
1738003602,223289f3f9c7a79a8ba51da705bc91a9,PennController,117,0,calibrator_val_no_feedback,NULL,PennController,128,_Trial_,End,1738003129828,undefined,800,icebox,negative,positive,A,NULL
1738003602,223289f3f9c7a79a8ba51da705bc91a9,PennController,120,0,calibrator_val_no_feedback,NULL,PennController,131,_Trial_,Start,1738003129831,undefined,919,invader,negative,positive,A,NULL
1738003602,223289f3f9c7a79a8ba51da705bc91a9,PennController,120,0,calibrator_val_no_feedback,NULL,PennController,131,_Header_,Start,1738003129831,undefined,919,invader,negative,positive,A,NULL
1738003602,223289f3f9c7a79a8ba51da705bc91a9,PennController,120,0,calibrator_val_no_feedback,NULL,PennController,131,_Header_,End,1738003130081,undefined,919,invader,negative,positive,A,NULL
1738003602,223289f3f9c7a79a8ba51da705bc91a9,PennController,120,0,calibrator_val_no_feedback,NULL,Selector,unnamed-Selector,Selection,negative,1738003131506,undefined,919,invader,negative,positive,A,negative;positive
1738003602,223289f3f9c7a79a8ba51da705bc91a9,PennController,120,0,calibrator_val_no_feedback,NULL,PennController,131,_Trial_,End,1738003131509,undefined,919,invader,negative,positive,A,NULL
1738003602,223289f3f9c7a79a8ba51da705bc91a9,PennController,114,0,calibrator_val_no_feedback,NULL,PennController,125,_Trial_,Start,1738003131512,undefined,915,free,negative,positive,A,NULL
1738003602,223289f3f9c7a79a8ba51da705bc91a9,PennController,114,0,calibrator_val_no_feedback,NULL,PennController,125,_Header_,Start,1738003131512,undefined,915,free,negative,positive,A,NULL
1738003602,223289f3f9c7a79a8ba51da705bc91a9,PennController,114,0,calibrator_val_no_feedback,NULL,PennController,125,_Header_,End,1738003131763,undefined,915,free,negative,positive,A,NULL
1738003602,223289f3f9c7a79a8ba51da705bc91a9,PennController,114,0,calibrator_val_no_feedback,NULL,Selector,unnamed-Selector,Selection,positive,1738003133186,undefined,915,free,negative,positive,A,negative;positive
1738003602,223289f3f9c7a79a8ba51da705bc91a9,PennController,114,0,calibrator_val_no_feedback,NULL,PennController,125,_Trial_,End,1738003133190,undefined,915,free,negative,positive,A,NULL
1738003602,223289f3f9c7a79a8ba51da705bc91a9,PennController,119,0,calibrator_val_no_feedback,NULL,PennController,130,_Trial_,Start,1738003133193,undefined,714,insecure,negative,positive,A,NULL
1738003602,223289f3f9c7a79a8ba51da705bc91a9,PennController,119,0,calibrator_val_no_feedback,NULL,PennController,130,_Header_,Start,1738003133193,undefined,714,insecure,negative,positive,A,NULL
1738003602,223289f3f9c7a79a8ba51da705bc91a9,PennController,119,0,calibrator_val_no_feedback,NULL,PennController,130,_Header_,End,1738003133444,undefined,714,insecure,negative,positive,A,NULL
1738003602,223289f3f9c7a79a8ba51da705bc91a9,PennController,119,0,calibrator_val_no_feedback,NULL,Selector,unnamed-Selector,Selection,negative,1738003134663,undefined,714,insecure,negative,positive,A,negative;positive
1738003602,223289f3f9c7a79a8ba51da705bc91a9,PennController,119,0,calibrator_val_no_feedback,NULL,PennController,130,_Trial_,End,1738003134667,undefined,714,insecure,negative,positive,A,NULL
1738003602,223289f3f9c7a79a8ba51da705bc91a9,PennController,115,0,calibrator_val_no_feedback,NULL,PennController,126,_Trial_,Start,1738003134670,undefined,668,grin,negative,positive,A,NULL
1738003602,223289f3f9c7a79a8ba51da705bc91a9,PennController,115,0,calibrator_val_no_feedback,NULL,PennController,126,_Header_,Start,1738003134670,undefined,668,grin,negative,positive,A,NULL
1738003602,223289f3f9c7a79a8ba51da705bc91a9,PennController,115,0,calibrator_val_no_feedback,NULL,PennController,126,_Header_,End,1738003134921,undefined,668,grin,negative,positive,A,NULL
1738003602,223289f3f9c7a79a8ba51da705bc91a9,PennController,115,0,calibrator_val_no_feedback,NULL,Selector,unnamed-Selector,Selection,positive,1738003136096,undefined,668,grin,negative,positive,A,negative;positive
1738003602,223289f3f9c7a79a8ba51da705bc91a9,PennController,115,0,calibrator_val_no_feedback,NULL,PennController,126,_Trial_,End,1738003136099,undefined,668,grin,negative,positive,A,NULL
1738003602,223289f3f9c7a79a8ba51da705bc91a9,PennController,122,0,calibrator_val_no_feedback,NULL,PennController,133,_Trial_,Start,1738003136102,undefined,673,joke,negative,positive,A,NULL
1738003602,223289f3f9c7a79a8ba51da705bc91a9,PennController,122,0,calibrator_val_no_feedback,NULL,PennController,133,_Header_,Start,1738003136102,undefined,673,joke,negative,positive,A,NULL
1738003602,223289f3f9c7a79a8ba51da705bc91a9,PennController,122,0,calibrator_val_no_feedback,NULL,PennController,133,_Header_,End,1738003136353,undefined,673,joke,negative,positive,A,NULL
1738003602,223289f3f9c7a79a8ba51da705bc91a9,PennController,122,0,calibrator_val_no_feedback,NULL,Selector,unnamed-Selector,Selection,positive,1738003137535,undefined,673,joke,negative,positive,A,negative;positive
1738003602,223289f3f9c7a79a8ba51da705bc91a9,PennController,122,0,calibrator_val_no_feedback,NULL,PennController,133,_Trial_,End,1738003137538,undefined,673,joke,negative,positive,A,NULL
1738003602,223289f3f9c7a79a8ba51da705bc91a9,PennController,121,0,calibrator_val_no_feedback,NULL,PennController,132,_Trial_,Start,1738003137541,undefined,786,jail,negative,positive,A,NULL
1738003602,223289f3f9c7a79a8ba51da705bc91a9,PennController,121,0,calibrator_val_no_feedback,NULL,PennController,132,_Header_,Start,1738003137541,undefined,786,jail,negative,positive,A,NULL
1738003602,223289f3f9c7a79a8ba51da705bc91a9,PennController,121,0,calibrator_val_no_feedback,NULL,PennController,132,_Header_,End,1738003137794,undefined,786,jail,negative,positive,A,NULL
1738003602,223289f3f9c7a79a8ba51da705bc91a9,PennController,121,0,calibrator_val_no_feedback,NULL,Selector,unnamed-Selector,Selection,negative,1738003139086,undefined,786,jail,negative,positive,A,negative;positive
1738003602,223289f3f9c7a79a8ba51da705bc91a9,PennController,121,0,calibrator_val_no_feedback,NULL,PennController,132,_Trial_,End,1738003139090,undefined,786,jail,negative,positive,A,NULL
1738003602,223289f3f9c7a79a8ba51da705bc91a9,PennController,116,0,calibrator_val_no_feedback,NULL,PennController,127,_Trial_,Start,1738003139093,undefined,706,hat,negative,positive,A,NULL
1738003602,223289f3f9c7a79a8ba51da705bc91a9,PennController,116,0,calibrator_val_no_feedback,NULL,PennController,127,_Header_,Start,1738003139093,undefined,706,hat,negative,positive,A,NULL
1738003602,223289f3f9c7a79a8ba51da705bc91a9,PennController,116,0,calibrator_val_no_feedback,NULL,PennController,127,_Header_,End,1738003139344,undefined,706,hat,negative,positive,A,NULL
1738003602,223289f3f9c7a79a8ba51da705bc91a9,PennController,116,0,calibrator_val_no_feedback,NULL,Selector,unnamed-Selector,Selection,positive,1738003140559,undefined,706,hat,negative,positive,A,negative;positive
1738003602,223289f3f9c7a79a8ba51da705bc91a9,PennController,116,0,calibrator_val_no_feedback,NULL,PennController,127,_Trial_,End,1738003140563,undefined,706,hat,negative,positive,A,NULL
# 13. Comments.
1738003602,223289f3f9c7a79a8ba51da705bc91a9,PennController,130,0,endinstructions_val,NULL,PennController,8,_Trial_,Start,1738003140567,NULL
1738003602,223289f3f9c7a79a8ba51da705bc91a9,PennController,130,0,endinstructions_val,NULL,PennController,8,_Header_,Start,1738003140567,NULL
1738003602,223289f3f9c7a79a8ba51da705bc91a9,PennController,130,0,endinstructions_val,NULL,PennController,8,_Header_,End,1738003140820,NULL
1738003602,223289f3f9c7a79a8ba51da705bc91a9,PennController,130,0,endinstructions_val,NULL,PennController,8,_Trial_,End,1738003148783,NULL
# 13. ID.
# 14. ReactionTime.
# 15. Word.
# 16. ConcValCombo.
# 17. Key_value_F.
# 18. Key_value_J.
# 19. Group.
# 20. Comments.
1738003602,223289f3f9c7a79a8ba51da705bc91a9,PennController,66,0,test_val,NULL,PennController,77,_Trial_,Start,1738003148785,undefined,640,joy,abstract-positive,negative,positive,B,NULL
1738003602,223289f3f9c7a79a8ba51da705bc91a9,PennController,66,0,test_val,NULL,PennController,77,_Header_,Start,1738003148785,undefined,640,joy,abstract-positive,negative,positive,B,NULL
1738003602,223289f3f9c7a79a8ba51da705bc91a9,PennController,66,0,test_val,NULL,PennController,77,_Header_,End,1738003149040,undefined,640,joy,abstract-positive,negative,positive,B,NULL
1738003602,223289f3f9c7a79a8ba51da705bc91a9,PennController,66,0,test_val,NULL,Selector,unnamed-Selector,Selection,positive,1738003150186,undefined,640,joy,abstract-positive,negative,positive,B,negative;positive
1738003602,223289f3f9c7a79a8ba51da705bc91a9,PennController,66,0,test_val,NULL,PennController,77,_Trial_,End,1738003150190,undefined,640,joy,abstract-positive,negative,positive,B,NULL
1738003602,223289f3f9c7a79a8ba51da705bc91a9,PennController,81,0,test_val,NULL,PennController,92,_Trial_,Start,1738003150193,undefined,653,injury,concrete-negative,negative,positive,B,NULL
1738003602,223289f3f9c7a79a8ba51da705bc91a9,PennController,81,0,test_val,NULL,PennController,92,_Header_,Start,1738003150193,undefined,653,injury,concrete-negative,negative,positive,B,NULL
1738003602,223289f3f9c7a79a8ba51da705bc91a9,PennController,81,0,test_val,NULL,PennController,92,_Header_,End,1738003150444,undefined,653,injury,concrete-negative,negative,positive,B,NULL
1738003602,223289f3f9c7a79a8ba51da705bc91a9,PennController,81,0,test_val,NULL,Selector,unnamed-Selector,Selection,negative,1738003151604,undefined,653,injury,concrete-negative,negative,positive,B,negative;positive
1738003602,223289f3f9c7a79a8ba51da705bc91a9,PennController,81,0,test_val,NULL,PennController,92,_Trial_,End,1738003151608,undefined,653,injury,concrete-negative,negative,positive,B,NULL
1738003602,223289f3f9c7a79a8ba51da705bc91a9,PennController,50,0,test_val,NULL,PennController,61,_Trial_,Start,1738003151611,undefined,747,resentment,abstract-negative,negative,positive,B,NULL
1738003602,223289f3f9c7a79a8ba51da705bc91a9,PennController,50,0,test_val,NULL,PennController,61,_Header_,Start,1738003151611,undefined,747,resentment,abstract-negative,negative,positive,B,NULL
1738003602,223289f3f9c7a79a8ba51da705bc91a9,PennController,50,0,test_val,NULL,PennController,61,_Header_,End,1738003151862,undefined,747,resentment,abstract-negative,negative,positive,B,NULL
1738003602,223289f3f9c7a79a8ba51da705bc91a9,PennController,50,0,test_val,NULL,Selector,unnamed-Selector,Selection,negative,1738003153117,undefined,747,resentment,abstract-negative,negative,positive,B,negative;positive
1738003602,223289f3f9c7a79a8ba51da705bc91a9,PennController,50,0,test_val,NULL,PennController,61,_Trial_,End,1738003153121,undefined,747,resentment,abstract-negative,negative,positive,B,NULL
1738003602,223289f3f9c7a79a8ba51da705bc91a9,PennController,63,0,test_val,NULL,PennController,74,_Trial_,Start,1738003153125,undefined,841,fireplace,concrete-positive,negative,positive,B,NULL
1738003602,223289f3f9c7a79a8ba51da705bc91a9,PennController,63,0,test_val,NULL,PennController,74,_Header_,Start,1738003153125,undefined,841,fireplace,concrete-positive,negative,positive,B,NULL
1738003602,223289f3f9c7a79a8ba51da705bc91a9,PennController,63,0,test_val,NULL,PennController,74,_Header_,End,1738003153375,undefined,841,fireplace,concrete-positive,negative,positive,B,NULL
1738003602,223289f3f9c7a79a8ba51da705bc91a9,PennController,63,0,test_val,NULL,Selector,unnamed-Selector,Selection,positive,1738003154724,undefined,841,fireplace,concrete-positive,negative,positive,B,negative;positive
1738003602,223289f3f9c7a79a8ba51da705bc91a9,PennController,63,0,test_val,NULL,PennController,74,_Trial_,End,1738003154728,undefined,841,fireplace,concrete-positive,negative,positive,B,NULL
1738003602,223289f3f9c7a79a8ba51da705bc91a9,PennController,80,0,test_val,NULL,PennController,91,_Trial_,Start,1738003154731,undefined,740,mold,concrete-negative,negative,positive,B,NULL
1738003602,223289f3f9c7a79a8ba51da705bc91a9,PennController,80,0,test_val,NULL,PennController,91,_Header_,Start,1738003154731,undefined,740,mold,concrete-negative,negative,positive,B,NULL
1738003602,223289f3f9c7a79a8ba51da705bc91a9,PennController,80,0,test_val,NULL,PennController,91,_Header_,End,1738003154983,undefined,740,mold,concrete-negative,negative,positive,B,NULL
1738003602,223289f3f9c7a79a8ba51da705bc91a9,PennController,80,0,test_val,NULL,Selector,unnamed-Selector,Selection,negative,1738003156229,undefined,740,mold,concrete-negative,negative,positive,B,negative;positive
1738003602,223289f3f9c7a79a8ba51da705bc91a9,PennController,80,0,test_val,NULL,PennController,91,_Trial_,End,1738003156232,undefined,740,mold,concrete-negative,negative,positive,B,NULL
1738003602,223289f3f9c7a79a8ba51da705bc91a9,PennController,53,0,test_val,NULL,PennController,64,_Trial_,Start,1738003156234,undefined,902,envy,abstract-negative,negative,positive,B,NULL
1738003602,223289f3f9c7a79a8ba51da705bc91a9,PennController,53,0,test_val,NULL,PennController,64,_Header_,Start,1738003156234,undefined,902,envy,abstract-negative,negative,positive,B,NULL
1738003602,223289f3f9c7a79a8ba51da705bc91a9,PennController,53,0,test_val,NULL,PennController,64,_Header_,End,1738003156488,undefined,902,envy,abstract-negative,negative,positive,B,NULL
1738003602,223289f3f9c7a79a8ba51da705bc91a9,PennController,53,0,test_val,NULL,Selector,unnamed-Selector,Selection,negative,1738003157897,undefined,902,envy,abstract-negative,negative,positive,B,negative;positive
1738003602,223289f3f9c7a79a8ba51da705bc91a9,PennController,53,0,test_val,NULL,PennController,64,_Trial_,End,1738003157900,undefined,902,envy,abstract-negative,negative,positive,B,NULL
1738003602,223289f3f9c7a79a8ba51da705bc91a9,PennController,45,0,test_val,NULL,PennController,56,_Trial_,Start,1738003157903,undefined,599,regret,abstract-negative,negative,positive,B,NULL
1738003602,223289f3f9c7a79a8ba51da705bc91a9,PennController,45,0,test_val,NULL,PennController,56,_Header_,Start,1738003157903,undefined,599,regret,abstract-negative,negative,positive,B,NULL
1738003602,223289f3f9c7a79a8ba51da705bc91a9,PennController,45,0,test_val,NULL,PennController,56,_Header_,End,1738003158156,undefined,599,regret,abstract-negative,negative,positive,B,NULL
1738003602,223289f3f9c7a79a8ba51da705bc91a9,PennController,45,0,test_val,NULL,Selector,unnamed-Selector,Selection,negative,1738003159260,undefined,599,regret,abstract-negative,negative,positive,B,negative;positive
1738003602,223289f3f9c7a79a8ba51da705bc91a9,PennController,45,0,test_val,NULL,PennController,56,_Trial_,End,1738003159264,undefined,599,regret,abstract-negative,negative,positive,B,NULL
1738003602,223289f3f9c7a79a8ba51da705bc91a9,PennController,46,0,test_val,NULL,PennController,57,_Trial_,Start,1738003159267,undefined,939,anxiety,abstract-negative,negative,positive,B,NULL
1738003602,223289f3f9c7a79a8ba51da705bc91a9,PennController,46,0,test_val,NULL,PennController,57,_Header_,Start,1738003159268,undefined,939,anxiety,abstract-negative,negative,positive,B,NULL
1738003602,223289f3f9c7a79a8ba51da705bc91a9,PennController,46,0,test_val,NULL,PennController,57,_Header_,End,1738003159520,undefined,939,anxiety,abstract-negative,negative,positive,B,NULL
1738003602,223289f3f9c7a79a8ba51da705bc91a9,PennController,46,0,test_val,NULL,Selector,unnamed-Selector,Selection,negative,1738003160967,undefined,939,anxiety,abstract-negative,negative,positive,B,negative;positive
1738003602,223289f3f9c7a79a8ba51da705bc91a9,PennController,46,0,test_val,NULL,PennController,57,_Trial_,End,1738003160971,undefined,939,anxiety,abstract-negative,negative,positive,B,NULL
1738003602,223289f3f9c7a79a8ba51da705bc91a9,PennController,83,0,test_val,NULL,PennController,94,_Trial_,Start,1738003160974,undefined,515,filth,concrete-negative,negative,positive,B,NULL
1738003602,223289f3f9c7a79a8ba51da705bc91a9,PennController,83,0,test_val,NULL,PennController,94,_Header_,Start,1738003160974,undefined,515,filth,concrete-negative,negative,positive,B,NULL
1738003602,223289f3f9c7a79a8ba51da705bc91a9,PennController,83,0,test_val,NULL,PennController,94,_Header_,End,1738003161225,undefined,515,filth,concrete-negative,negative,positive,B,NULL
1738003602,223289f3f9c7a79a8ba51da705bc91a9,PennController,83,0,test_val,NULL,Selector,unnamed-Selector,Selection,negative,1738003162245,undefined,515,filth,concrete-negative,negative,positive,B,negative;positive
1738003602,223289f3f9c7a79a8ba51da705bc91a9,PennController,83,0,test_val,NULL,PennController,94,_Trial_,End,1738003162249,undefined,515,filth,concrete-negative,negative,positive,B,NULL
1738003602,223289f3f9c7a79a8ba51da705bc91a9,PennController,57,0,test_val,NULL,PennController,68,_Trial_,Start,1738003162251,undefined,705,music,concrete-positive,negative,positive,B,NULL
1738003602,223289f3f9c7a79a8ba51da705bc91a9,PennController,57,0,test_val,NULL,PennController,68,_Header_,Start,1738003162251,undefined,705,music,concrete-positive,negative,positive,B,NULL
1738003602,223289f3f9c7a79a8ba51da705bc91a9,PennController,57,0,test_val,NULL,PennController,68,_Header_,End,1738003162505,undefined,705,music,concrete-positive,negative,positive,B,NULL
1738003602,223289f3f9c7a79a8ba51da705bc91a9,PennController,57,0,test_val,NULL,Selector,unnamed-Selector,Selection,positive,1738003163718,undefined,705,music,concrete-positive,negative,positive,B,negative;positive
1738003602,223289f3f9c7a79a8ba51da705bc91a9,PennController,57,0,test_val,NULL,PennController,68,_Trial_,End,1738003163721,undefined,705,music,concrete-positive,negative,positive,B,NULL
1738003602,223289f3f9c7a79a8ba51da705bc91a9,PennController,68,0,test_val,NULL,PennController,79,_Trial_,Start,1738003163724,undefined,540,freedom,abstract-positive,negative,positive,B,NULL
1738003602,223289f3f9c7a79a8ba51da705bc91a9,PennController,68,0,test_val,NULL,PennController,79,_Header_,Start,1738003163724,undefined,540,freedom,abstract-positive,negative,positive,B,NULL
1738003602,223289f3f9c7a79a8ba51da705bc91a9,PennController,68,0,test_val,NULL,PennController,79,_Header_,End,1738003163974,undefined,540,freedom,abstract-positive,negative,positive,B,NULL
1738003602,223289f3f9c7a79a8ba51da705bc91a9,PennController,68,0,test_val,NULL,Selector,unnamed-Selector,Selection,positive,1738003165022,undefined,540,freedom,abstract-positive,negative,positive,B,negative;positive
1738003602,223289f3f9c7a79a8ba51da705bc91a9,PennController,68,0,test_val,NULL,PennController,79,_Trial_,End,1738003165025,undefined,540,freedom,abstract-positive,negative,positive,B,NULL
1738003602,223289f3f9c7a79a8ba51da705bc91a9,PennController,69,0,test_val,NULL,PennController,80,_Trial_,Start,1738003165029,undefined,550,kindness,abstract-positive,negative,positive,B,NULL
1738003602,223289f3f9c7a79a8ba51da705bc91a9,PennController,69,0,test_val,NULL,PennController,80,_Header_,Start,1738003165029,undefined,550,kindness,abstract-positive,negative,positive,B,NULL
1738003602,223289f3f9c7a79a8ba51da705bc91a9,PennController,69,0,test_val,NULL,PennController,80,_Header_,End,1738003165280,undefined,550,kindness,abstract-positive,negative,positive,B,NULL
1738003602,223289f3f9c7a79a8ba51da705bc91a9,PennController,69,0,test_val,NULL,Selector,unnamed-Selector,Selection,positive,1738003166338,undefined,550,kindness,abstract-positive,negative,positive,B,negative;positive
1738003602,223289f3f9c7a79a8ba51da705bc91a9,PennController,69,0,test_val,NULL,PennController,80,_Trial_,End,1738003166342,undefined,550,kindness,abstract-positive,negative,positive,B,NULL
1738003602,223289f3f9c7a79a8ba51da705bc91a9,PennController,59,0,test_val,NULL,PennController,70,_Trial_,Start,1738003166345,undefined,619,hug,concrete-positive,negative,positive,B,NULL
1738003602,223289f3f9c7a79a8ba51da705bc91a9,PennController,59,0,test_val,NULL,PennController,70,_Header_,Start,1738003166345,undefined,619,hug,concrete-positive,negative,positive,B,NULL
1738003602,223289f3f9c7a79a8ba51da705bc91a9,PennController,59,0,test_val,NULL,PennController,70,_Header_,End,1738003166595,undefined,619,hug,concrete-positive,negative,positive,B,NULL
1738003602,223289f3f9c7a79a8ba51da705bc91a9,PennController,59,0,test_val,NULL,Selector,unnamed-Selector,Selection,positive,1738003167723,undefined,619,hug,concrete-positive,negative,positive,B,negative;positive
1738003602,223289f3f9c7a79a8ba51da705bc91a9,PennController,59,0,test_val,NULL,PennController,70,_Trial_,End,1738003167726,undefined,619,hug,concrete-positive,negative,positive,B,NULL
1738003602,223289f3f9c7a79a8ba51da705bc91a9,PennController,62,0,test_val,NULL,PennController,73,_Trial_,Start,1738003167729,undefined,615,chocolate,concrete-positive,negative,positive,B,NULL
1738003602,223289f3f9c7a79a8ba51da705bc91a9,PennController,62,0,test_val,NULL,PennController,73,_Header_,Start,1738003167729,undefined,615,chocolate,concrete-positive,negative,positive,B,NULL
1738003602,223289f3f9c7a79a8ba51da705bc91a9,PennController,62,0,test_val,NULL,PennController,73,_Header_,End,1738003167979,undefined,615,chocolate,concrete-positive,negative,positive,B,NULL
1738003602,223289f3f9c7a79a8ba51da705bc91a9,PennController,62,0,test_val,NULL,Selector,unnamed-Selector,Selection,positive,1738003169099,undefined,615,chocolate,concrete-positive,negative,positive,B,negative;positive
1738003602,223289f3f9c7a79a8ba51da705bc91a9,PennController,62,0,test_val,NULL,PennController,73,_Trial_,End,1738003169102,undefined,615,chocolate,concrete-positive,negative,positive,B,NULL
1738003602,223289f3f9c7a79a8ba51da705bc91a9,PennController,76,0,test_val,NULL,PennController,87,_Trial_,Start,1738003169105,undefined,641,mud,concrete-negative,negative,positive,B,NULL
1738003602,223289f3f9c7a79a8ba51da705bc91a9,PennController,76,0,test_val,NULL,PennController,87,_Header_,Start,1738003169105,undefined,641,mud,concrete-negative,negative,positive,B,NULL
1738003602,223289f3f9c7a79a8ba51da705bc91a9,PennController,76,0,test_val,NULL,PennController,87,_Header_,End,1738003169355,undefined,641,mud,concrete-negative,negative,positive,B,NULL
1738003602,223289f3f9c7a79a8ba51da705bc91a9,PennController,76,0,test_val,NULL,Selector,unnamed-Selector,Selection,negative,1738003170500,undefined,641,mud,concrete-negative,negative,positive,B,negative;positive
1738003602,223289f3f9c7a79a8ba51da705bc91a9,PennController,76,0,test_val,NULL,PennController,87,_Trial_,End,1738003170504,undefined,641,mud,concrete-negative,negative,positive,B,NULL
1738003602,223289f3f9c7a79a8ba51da705bc91a9,PennController,54,0,test_val,NULL,PennController,65,_Trial_,Start,1738003170508,undefined,527,sunshine,concrete-positive,negative,positive,B,NULL
1738003602,223289f3f9c7a79a8ba51da705bc91a9,PennController,54,0,test_val,NULL,PennController,65,_Header_,Start,1738003170508,undefined,527,sunshine,concrete-positive,negative,positive,B,NULL
1738003602,223289f3f9c7a79a8ba51da705bc91a9,PennController,54,0,test_val,NULL,PennController,65,_Header_,End,1738003170762,undefined,527,sunshine,concrete-positive,negative,positive,B,NULL
1738003602,223289f3f9c7a79a8ba51da705bc91a9,PennController,54,0,test_val,NULL,Selector,unnamed-Selector,Selection,positive,1738003171798,undefined,527,sunshine,concrete-positive,negative,positive,B,negative;positive
1738003602,223289f3f9c7a79a8ba51da705bc91a9,PennController,54,0,test_val,NULL,PennController,65,_Trial_,End,1738003171801,undefined,527,sunshine,concrete-positive,negative,positive,B,NULL
1738003602,223289f3f9c7a79a8ba51da705bc91a9,PennController,48,0,test_val,NULL,PennController,59,_Trial_,Start,1738003171804,undefined,637,guilt,abstract-negative,negative,positive,B,NULL
1738003602,223289f3f9c7a79a8ba51da705bc91a9,PennController,48,0,test_val,NULL,PennController,59,_Header_,Start,1738003171804,undefined,637,guilt,abstract-negative,negative,positive,B,NULL
1738003602,223289f3f9c7a79a8ba51da705bc91a9,PennController,48,0,test_val,NULL,PennController,59,_Header_,End,1738003172057,undefined,637,guilt,abstract-negative,negative,positive,B,NULL
1738003602,223289f3f9c7a79a8ba51da705bc91a9,PennController,48,0,test_val,NULL,Selector,unnamed-Selector,Selection,negative,1738003173198,undefined,637,guilt,abstract-negative,negative,positive,B,negative;positive
1738003602,223289f3f9c7a79a8ba51da705bc91a9,PennController,48,0,test_val,NULL,PennController,59,_Trial_,End,1738003173202,undefined,637,guilt,abstract-negative,negative,positive,B,NULL
1738003602,223289f3f9c7a79a8ba51da705bc91a9,PennController,58,0,test_val,NULL,PennController,69,_Trial_,Start,1738003173205,undefined,626,beach,concrete-positive,negative,positive,B,NULL
1738003602,223289f3f9c7a79a8ba51da705bc91a9,PennController,58,0,test_val,NULL,PennController,69,_Header_,Start,1738003173205,undefined,626,beach,concrete-positive,negative,positive,B,NULL
1738003602,223289f3f9c7a79a8ba51da705bc91a9,PennController,58,0,test_val,NULL,PennController,69,_Header_,End,1738003173459,undefined,626,beach,concrete-positive,negative,positive,B,NULL
1738003602,223289f3f9c7a79a8ba51da705bc91a9,PennController,58,0,test_val,NULL,Selector,unnamed-Selector,Selection,positive,1738003174591,undefined,626,beach,concrete-positive,negative,positive,B,negative;positive
1738003602,223289f3f9c7a79a8ba51da705bc91a9,PennController,58,0,test_val,NULL,PennController,69,_Trial_,End,1738003174594,undefined,626,beach,concrete-positive,negative,positive,B,NULL
1738003602,223289f3f9c7a79a8ba51da705bc91a9,PennController,51,0,test_val,NULL,PennController,62,_Trial_,Start,1738003174597,undefined,757,failure,abstract-negative,negative,positive,B,NULL
1738003602,223289f3f9c7a79a8ba51da705bc91a9,PennController,51,0,test_val,NULL,PennController,62,_Header_,Start,1738003174597,undefined,757,failure,abstract-negative,negative,positive,B,NULL
1738003602,223289f3f9c7a79a8ba51da705bc91a9,PennController,51,0,test_val,NULL,PennController,62,_Header_,End,1738003174851,undefined,757,failure,abstract-negative,negative,positive,B,NULL
1738003602,223289f3f9c7a79a8ba51da705bc91a9,PennController,51,0,test_val,NULL,Selector,unnamed-Selector,Selection,negative,1738003176115,undefined,757,failure,abstract-negative,negative,positive,B,negative;positive
1738003602,223289f3f9c7a79a8ba51da705bc91a9,PennController,51,0,test_val,NULL,PennController,62,_Trial_,End,1738003176118,undefined,757,failure,abstract-negative,negative,positive,B,NULL
1738003602,223289f3f9c7a79a8ba51da705bc91a9,PennController,67,0,test_val,NULL,PennController,78,_Trial_,Start,1738003176120,undefined,588,peace,abstract-positive,negative,positive,B,NULL
1738003602,223289f3f9c7a79a8ba51da705bc91a9,PennController,67,0,test_val,NULL,PennController,78,_Header_,Start,1738003176120,undefined,588,peace,abstract-positive,negative,positive,B,NULL
1738003602,223289f3f9c7a79a8ba51da705bc91a9,PennController,67,0,test_val,NULL,PennController,78,_Header_,End,1738003176374,undefined,588,peace,abstract-positive,negative,positive,B,NULL
1738003602,223289f3f9c7a79a8ba51da705bc91a9,PennController,67,0,test_val,NULL,Selector,unnamed-Selector,Selection,positive,1738003177468,undefined,588,peace,abstract-positive,negative,positive,B,negative;positive
1738003602,223289f3f9c7a79a8ba51da705bc91a9,PennController,67,0,test_val,NULL,PennController,78,_Trial_,End,1738003177470,undefined,588,peace,abstract-positive,negative,positive,B,NULL
1738003602,223289f3f9c7a79a8ba51da705bc91a9,PennController,75,0,test_val,NULL,PennController,86,_Trial_,Start,1738003177472,undefined,628,rot,concrete-negative,negative,positive,B,NULL
1738003602,223289f3f9c7a79a8ba51da705bc91a9,PennController,75,0,test_val,NULL,PennController,86,_Header_,Start,1738003177472,undefined,628,rot,concrete-negative,negative,positive,B,NULL
1738003602,223289f3f9c7a79a8ba51da705bc91a9,PennController,75,0,test_val,NULL,PennController,86,_Header_,End,1738003177726,undefined,628,rot,concrete-negative,negative,positive,B,NULL
1738003602,223289f3f9c7a79a8ba51da705bc91a9,PennController,75,0,test_val,NULL,Selector,unnamed-Selector,Selection,negative,1738003178860,undefined,628,rot,concrete-negative,negative,positive,B,negative;positive
1738003602,223289f3f9c7a79a8ba51da705bc91a9,PennController,75,0,test_val,NULL,PennController,86,_Trial_,End,1738003178863,undefined,628,rot,concrete-negative,negative,positive,B,NULL
1738003602,223289f3f9c7a79a8ba51da705bc91a9,PennController,60,0,test_val,NULL,PennController,71,_Trial_,Start,1738003178866,undefined,648,home,concrete-positive,negative,positive,B,NULL
1738003602,223289f3f9c7a79a8ba51da705bc91a9,PennController,60,0,test_val,NULL,PennController,71,_Header_,Start,1738003178866,undefined,648,home,concrete-positive,negative,positive,B,NULL
1738003602,223289f3f9c7a79a8ba51da705bc91a9,PennController,60,0,test_val,NULL,PennController,71,_Header_,End,1738003179119,undefined,648,home,concrete-positive,negative,positive,B,NULL
1738003602,223289f3f9c7a79a8ba51da705bc91a9,PennController,60,0,test_val,NULL,Selector,unnamed-Selector,Selection,positive,1738003180275,undefined,648,home,concrete-positive,negative,positive,B,negative;positive
1738003602,223289f3f9c7a79a8ba51da705bc91a9,PennController,60,0,test_val,NULL,PennController,71,_Trial_,End,1738003180279,undefined,648,home,concrete-positive,negative,positive,B,NULL
1738003602,223289f3f9c7a79a8ba51da705bc91a9,PennController,70,0,test_val,NULL,PennController,81,_Trial_,Start,1738003180282,undefined,568,happiness,abstract-positive,negative,positive,B,NULL
1738003602,223289f3f9c7a79a8ba51da705bc91a9,PennController,70,0,test_val,NULL,PennController,81,_Header_,Start,1738003180282,undefined,568,happiness,abstract-positive,negative,positive,B,NULL
1738003602,223289f3f9c7a79a8ba51da705bc91a9,PennController,70,0,test_val,NULL,PennController,81,_Header_,End,1738003180537,undefined,568,happiness,abstract-positive,negative,positive,B,NULL
1738003602,223289f3f9c7a79a8ba51da705bc91a9,PennController,70,0,test_val,NULL,Selector,unnamed-Selector,Selection,positive,1738003181610,undefined,568,happiness,abstract-positive,negative,positive,B,negative;positive
1738003602,223289f3f9c7a79a8ba51da705bc91a9,PennController,70,0,test_val,NULL,PennController,81,_Trial_,End,1738003181614,undefined,568,happiness,abstract-positive,negative,positive,B,NULL
1738003602,223289f3f9c7a79a8ba51da705bc91a9,PennController,52,0,test_val,NULL,PennController,63,_Trial_,Start,1738003181617,undefined,689,shame,abstract-negative,negative,positive,B,NULL
1738003602,223289f3f9c7a79a8ba51da705bc91a9,PennController,52,0,test_val,NULL,PennController,63,_Header_,Start,1738003181617,undefined,689,shame,abstract-negative,negative,positive,B,NULL
1738003602,223289f3f9c7a79a8ba51da705bc91a9,PennController,52,0,test_val,NULL,PennController,63,_Header_,End,1738003181870,undefined,689,shame,abstract-negative,negative,positive,B,NULL
1738003602,223289f3f9c7a79a8ba51da705bc91a9,PennController,52,0,test_val,NULL,Selector,unnamed-Selector,Selection,negative,1738003183068,undefined,689,shame,abstract-negative,negative,positive,B,negative;positive
1738003602,223289f3f9c7a79a8ba51da705bc91a9,PennController,52,0,test_val,NULL,PennController,63,_Trial_,End,1738003183071,undefined,689,shame,abstract-negative,negative,positive,B,NULL
1738003602,223289f3f9c7a79a8ba51da705bc91a9,PennController,61,0,test_val,NULL,PennController,72,_Trial_,Start,1738003183074,undefined,617,rain,concrete-positive,negative,positive,B,NULL
1738003602,223289f3f9c7a79a8ba51da705bc91a9,PennController,61,0,test_val,NULL,PennController,72,_Header_,Start,1738003183074,undefined,617,rain,concrete-positive,negative,positive,B,NULL
1738003602,223289f3f9c7a79a8ba51da705bc91a9,PennController,61,0,test_val,NULL,PennController,72,_Header_,End,1738003183328,undefined,617,rain,concrete-positive,negative,positive,B,NULL
1738003602,223289f3f9c7a79a8ba51da705bc91a9,PennController,61,0,test_val,NULL,Selector,unnamed-Selector,Selection,positive,1738003184449,undefined,617,rain,concrete-positive,negative,positive,B,negative;positive
1738003602,223289f3f9c7a79a8ba51da705bc91a9,PennController,61,0,test_val,NULL,PennController,72,_Trial_,End,1738003184452,undefined,617,rain,concrete-positive,negative,positive,B,NULL
1738003602,223289f3f9c7a79a8ba51da705bc91a9,PennController,77,0,test_val,NULL,PennController,88,_Trial_,Start,1738003184454,undefined,717,vomit,concrete-negative,negative,positive,B,NULL
1738003602,223289f3f9c7a79a8ba51da705bc91a9,PennController,77,0,test_val,NULL,PennController,88,_Header_,Start,1738003184454,undefined,717,vomit,concrete-negative,negative,positive,B,NULL
1738003602,223289f3f9c7a79a8ba51da705bc91a9,PennController,77,0,test_val,NULL,PennController,88,_Header_,End,1738003184704,undefined,717,vomit,concrete-negative,negative,positive,B,NULL
1738003602,223289f3f9c7a79a8ba51da705bc91a9,PennController,77,0,test_val,NULL,Selector,unnamed-Selector,Selection,negative,1738003185927,undefined,717,vomit,concrete-negative,negative,positive,B,negative;positive
1738003602,223289f3f9c7a79a8ba51da705bc91a9,PennController,77,0,test_val,NULL,PennController,88,_Trial_,End,1738003185930,undefined,717,vomit,concrete-negative,negative,positive,B,NULL
1738003602,223289f3f9c7a79a8ba51da705bc91a9,PennController,65,0,test_val,NULL,PennController,76,_Trial_,Start,1738003185933,undefined,554,hope,abstract-positive,negative,positive,B,NULL
1738003602,223289f3f9c7a79a8ba51da705bc91a9,PennController,65,0,test_val,NULL,PennController,76,_Header_,Start,1738003185934,undefined,554,hope,abstract-positive,negative,positive,B,NULL
1738003602,223289f3f9c7a79a8ba51da705bc91a9,PennController,65,0,test_val,NULL,PennController,76,_Header_,End,1738003186185,undefined,554,hope,abstract-positive,negative,positive,B,NULL
1738003602,223289f3f9c7a79a8ba51da705bc91a9,PennController,65,0,test_val,NULL,Selector,unnamed-Selector,Selection,positive,1738003187246,undefined,554,hope,abstract-positive,negative,positive,B,negative;positive
1738003602,223289f3f9c7a79a8ba51da705bc91a9,PennController,65,0,test_val,NULL,PennController,76,_Trial_,End,1738003187249,undefined,554,hope,abstract-positive,negative,positive,B,NULL
1738003602,223289f3f9c7a79a8ba51da705bc91a9,PennController,78,0,test_val,NULL,PennController,89,_Trial_,Start,1738003187252,undefined,659,garbage,concrete-negative,negative,positive,B,NULL
1738003602,223289f3f9c7a79a8ba51da705bc91a9,PennController,78,0,test_val,NULL,PennController,89,_Header_,Start,1738003187252,undefined,659,garbage,concrete-negative,negative,positive,B,NULL
1738003602,223289f3f9c7a79a8ba51da705bc91a9,PennController,78,0,test_val,NULL,PennController,89,_Header_,End,1738003187503,undefined,659,garbage,concrete-negative,negative,positive,B,NULL
1738003602,223289f3f9c7a79a8ba51da705bc91a9,PennController,78,0,test_val,NULL,Selector,unnamed-Selector,Selection,negative,1738003188669,undefined,659,garbage,concrete-negative,negative,positive,B,negative;positive
1738003602,223289f3f9c7a79a8ba51da705bc91a9,PennController,78,0,test_val,NULL,PennController,89,_Trial_,End,1738003188674,undefined,659,garbage,concrete-negative,negative,positive,B,NULL
1738003602,223289f3f9c7a79a8ba51da705bc91a9,PennController,71,0,test_val,NULL,PennController,82,_Trial_,Start,1738003188678,undefined,633,compassion,abstract-positive,negative,positive,B,NULL
1738003602,223289f3f9c7a79a8ba51da705bc91a9,PennController,71,0,test_val,NULL,PennController,82,_Header_,Start,1738003188678,undefined,633,compassion,abstract-positive,negative,positive,B,NULL
1738003602,223289f3f9c7a79a8ba51da705bc91a9,PennController,71,0,test_val,NULL,PennController,82,_Header_,End,1738003188929,undefined,633,compassion,abstract-positive,negative,positive,B,NULL
1738003602,223289f3f9c7a79a8ba51da705bc91a9,PennController,71,0,test_val,NULL,Selector,unnamed-Selector,Selection,positive,1738003190066,undefined,633,compassion,abstract-positive,negative,positive,B,negative;positive
1738003602,223289f3f9c7a79a8ba51da705bc91a9,PennController,71,0,test_val,NULL,PennController,82,_Trial_,End,1738003190070,undefined,633,compassion,abstract-positive,negative,positive,B,NULL
1738003602,223289f3f9c7a79a8ba51da705bc91a9,PennController,79,0,test_val,NULL,PennController,90,_Trial_,Start,1738003190073,undefined,658,rust,concrete-negative,negative,positive,B,NULL
1738003602,223289f3f9c7a79a8ba51da705bc91a9,PennController,79,0,test_val,NULL,PennController,90,_Header_,Start,1738003190073,undefined,658,rust,concrete-negative,negative,positive,B,NULL
1738003602,223289f3f9c7a79a8ba51da705bc91a9,PennController,79,0,test_val,NULL,PennController,90,_Header_,End,1738003190327,undefined,658,rust,concrete-negative,negative,positive,B,NULL
1738003602,223289f3f9c7a79a8ba51da705bc91a9,PennController,79,0,test_val,NULL,Selector,unnamed-Selector,Selection,negative,1738003191491,undefined,658,rust,concrete-negative,negative,positive,B,negative;positive
1738003602,223289f3f9c7a79a8ba51da705bc91a9,PennController,79,0,test_val,NULL,PennController,90,_Trial_,End,1738003191494,undefined,658,rust,concrete-negative,negative,positive,B,NULL
1738003602,223289f3f9c7a79a8ba51da705bc91a9,PennController,44,0,test_val,NULL,PennController,55,_Trial_,Start,1738003191496,undefined,540,lonliness,abstract-negative,negative,positive,B,NULL
1738003602,223289f3f9c7a79a8ba51da705bc91a9,PennController,44,0,test_val,NULL,PennController,55,_Header_,Start,1738003191496,undefined,540,lonliness,abstract-negative,negative,positive,B,NULL
1738003602,223289f3f9c7a79a8ba51da705bc91a9,PennController,44,0,test_val,NULL,PennController,55,_Header_,End,1738003191750,undefined,540,lonliness,abstract-negative,negative,positive,B,NULL
1738003602,223289f3f9c7a79a8ba51da705bc91a9,PennController,44,0,test_val,NULL,Selector,unnamed-Selector,Selection,positive,1738003192797,undefined,540,lonliness,abstract-negative,negative,positive,B,negative;positive
1738003602,223289f3f9c7a79a8ba51da705bc91a9,PennController,44,0,test_val,NULL,PennController,55,_Trial_,End,1738003192800,undefined,540,lonliness,abstract-negative,negative,positive,B,NULL
1738003602,223289f3f9c7a79a8ba51da705bc91a9,PennController,72,0,test_val,NULL,PennController,83,_Trial_,Start,1738003192803,undefined,733,gratitude,abstract-positive,negative,positive,B,NULL
1738003602,223289f3f9c7a79a8ba51da705bc91a9,PennController,72,0,test_val,NULL,PennController,83,_Header_,Start,1738003192803,undefined,733,gratitude,abstract-positive,negative,positive,B,NULL
1738003602,223289f3f9c7a79a8ba51da705bc91a9,PennController,72,0,test_val,NULL,PennController,83,_Header_,End,1738003193057,undefined,733,gratitude,abstract-positive,negative,positive,B,NULL
1738003602,223289f3f9c7a79a8ba51da705bc91a9,PennController,72,0,test_val,NULL,Selector,unnamed-Selector,Selection,positive,1738003194295,undefined,733,gratitude,abstract-positive,negative,positive,B,negative;positive
1738003602,223289f3f9c7a79a8ba51da705bc91a9,PennController,72,0,test_val,NULL,PennController,83,_Trial_,End,1738003194298,undefined,733,gratitude,abstract-positive,negative,positive,B,NULL
1738003602,223289f3f9c7a79a8ba51da705bc91a9,PennController,47,0,test_val,NULL,PennController,58,_Trial_,Start,1738003194302,undefined,738,despair,abstract-negative,negative,positive,B,NULL
1738003602,223289f3f9c7a79a8ba51da705bc91a9,PennController,47,0,test_val,NULL,PennController,58,_Header_,Start,1738003194302,undefined,738,despair,abstract-negative,negative,positive,B,NULL
1738003602,223289f3f9c7a79a8ba51da705bc91a9,PennController,47,0,test_val,NULL,PennController,58,_Header_,End,1738003194556,undefined,738,despair,abstract-negative,negative,positive,B,NULL
1738003602,223289f3f9c7a79a8ba51da705bc91a9,PennController,47,0,test_val,NULL,Selector,unnamed-Selector,Selection,negative,1738003195800,undefined,738,despair,abstract-negative,negative,positive,B,negative;positive
1738003602,223289f3f9c7a79a8ba51da705bc91a9,PennController,47,0,test_val,NULL,PennController,58,_Trial_,End,1738003195803,undefined,738,despair,abstract-negative,negative,positive,B,NULL
1738003602,223289f3f9c7a79a8ba51da705bc91a9,PennController,56,0,test_val,NULL,PennController,67,_Trial_,Start,1738003195805,undefined,515,flowers,concrete-positive,negative,positive,B,NULL
1738003602,223289f3f9c7a79a8ba51da705bc91a9,PennController,56,0,test_val,NULL,PennController,67,_Header_,Start,1738003195805,undefined,515,flowers,concrete-positive,negative,positive,B,NULL
1738003602,223289f3f9c7a79a8ba51da705bc91a9,PennController,56,0,test_val,NULL,PennController,67,_Header_,End,1738003196055,undefined,515,flowers,concrete-positive,negative,positive,B,NULL
1738003602,223289f3f9c7a79a8ba51da705bc91a9,PennController,56,0,test_val,NULL,Selector,unnamed-Selector,Selection,positive,1738003197075,undefined,515,flowers,concrete-positive,negative,positive,B,negative;positive
1738003602,223289f3f9c7a79a8ba51da705bc91a9,PennController,56,0,test_val,NULL,PennController,67,_Trial_,End,1738003197077,undefined,515,flowers,concrete-positive,negative,positive,B,NULL
1738003602,223289f3f9c7a79a8ba51da705bc91a9,PennController,55,0,test_val,NULL,PennController,66,_Trial_,Start,1738003197079,undefined,586,laughter,concrete-positive,negative,positive,B,NULL
1738003602,223289f3f9c7a79a8ba51da705bc91a9,PennController,55,0,test_val,NULL,PennController,66,_Header_,Start,1738003197080,undefined,586,laughter,concrete-positive,negative,positive,B,NULL
1738003602,223289f3f9c7a79a8ba51da705bc91a9,PennController,55,0,test_val,NULL,PennController,66,_Header_,End,1738003197330,undefined,586,laughter,concrete-positive,negative,positive,B,NULL
1738003602,223289f3f9c7a79a8ba51da705bc91a9,PennController,55,0,test_val,NULL,Selector,unnamed-Selector,Selection,positive,1738003198425,undefined,586,laughter,concrete-positive,negative,positive,B,negative;positive
1738003602,223289f3f9c7a79a8ba51da705bc91a9,PennController,55,0,test_val,NULL,PennController,66,_Trial_,End,1738003198428,undefined,586,laughter,concrete-positive,negative,positive,B,NULL
1738003602,223289f3f9c7a79a8ba51da705bc91a9,PennController,73,0,test_val,NULL,PennController,84,_Trial_,Start,1738003198432,undefined,600,inspiration,abstract-positive,negative,positive,B,NULL
1738003602,223289f3f9c7a79a8ba51da705bc91a9,PennController,73,0,test_val,NULL,PennController,84,_Header_,Start,1738003198432,undefined,600,inspiration,abstract-positive,negative,positive,B,NULL
1738003602,223289f3f9c7a79a8ba51da705bc91a9,PennController,73,0,test_val,NULL,PennController,84,_Header_,End,1738003198686,undefined,600,inspiration,abstract-positive,negative,positive,B,NULL
1738003602,223289f3f9c7a79a8ba51da705bc91a9,PennController,73,0,test_val,NULL,Selector,unnamed-Selector,Selection,positive,1738003199790,undefined,600,inspiration,abstract-positive,negative,positive,B,negative;positive
1738003602,223289f3f9c7a79a8ba51da705bc91a9,PennController,73,0,test_val,NULL,PennController,84,_Trial_,End,1738003199800,undefined,600,inspiration,abstract-positive,negative,positive,B,NULL
1738003602,223289f3f9c7a79a8ba51da705bc91a9,PennController,49,0,test_val,NULL,PennController,60,_Trial_,Start,1738003199804,undefined,963,grief,abstract-negative,negative,positive,B,NULL
1738003602,223289f3f9c7a79a8ba51da705bc91a9,PennController,49,0,test_val,NULL,PennController,60,_Header_,Start,1738003199804,undefined,963,grief,abstract-negative,negative,positive,B,NULL
1738003602,223289f3f9c7a79a8ba51da705bc91a9,PennController,49,0,test_val,NULL,PennController,60,_Header_,End,1738003200055,undefined,963,grief,abstract-negative,negative,positive,B,NULL
1738003602,223289f3f9c7a79a8ba51da705bc91a9,PennController,49,0,test_val,NULL,Selector,unnamed-Selector,Selection,negative,1738003201525,undefined,963,grief,abstract-negative,negative,positive,B,negative;positive
1738003602,223289f3f9c7a79a8ba51da705bc91a9,PennController,49,0,test_val,NULL,PennController,60,_Trial_,End,1738003201528,undefined,963,grief,abstract-negative,negative,positive,B,NULL
1738003602,223289f3f9c7a79a8ba51da705bc91a9,PennController,64,0,test_val,NULL,PennController,75,_Trial_,Start,1738003201532,undefined,780,love,abstract-positive,negative,positive,B,NULL
1738003602,223289f3f9c7a79a8ba51da705bc91a9,PennController,64,0,test_val,NULL,PennController,75,_Header_,Start,1738003201532,undefined,780,love,abstract-positive,negative,positive,B,NULL
1738003602,223289f3f9c7a79a8ba51da705bc91a9,PennController,64,0,test_val,NULL,PennController,75,_Header_,End,1738003201783,undefined,780,love,abstract-positive,negative,positive,B,NULL
1738003602,223289f3f9c7a79a8ba51da705bc91a9,PennController,64,0,test_val,NULL,Selector,unnamed-Selector,Selection,positive,1738003203070,undefined,780,love,abstract-positive,negative,positive,B,negative;positive
1738003602,223289f3f9c7a79a8ba51da705bc91a9,PennController,64,0,test_val,NULL,PennController,75,_Trial_,End,1738003203073,undefined,780,love,abstract-positive,negative,positive,B,NULL
1738003602,223289f3f9c7a79a8ba51da705bc91a9,PennController,74,0,test_val,NULL,PennController,85,_Trial_,Start,1738003203075,undefined,769,smoke,concrete-negative,negative,positive,B,NULL
1738003602,223289f3f9c7a79a8ba51da705bc91a9,PennController,74,0,test_val,NULL,PennController,85,_Header_,Start,1738003203075,undefined,769,smoke,concrete-negative,negative,positive,B,NULL
1738003602,223289f3f9c7a79a8ba51da705bc91a9,PennController,74,0,test_val,NULL,PennController,85,_Header_,End,1738003203328,undefined,769,smoke,concrete-negative,negative,positive,B,NULL
1738003602,223289f3f9c7a79a8ba51da705bc91a9,PennController,74,0,test_val,NULL,Selector,unnamed-Selector,Selection,negative,1738003204604,undefined,769,smoke,concrete-negative,negative,positive,B,negative;positive
1738003602,223289f3f9c7a79a8ba51da705bc91a9,PennController,74,0,test_val,NULL,PennController,85,_Trial_,End,1738003204608,undefined,769,smoke,concrete-negative,negative,positive,B,NULL
1738003602,223289f3f9c7a79a8ba51da705bc91a9,PennController,82,0,test_val,NULL,PennController,93,_Trial_,Start,1738003204611,undefined,798,stench,concrete-negative,negative,positive,B,NULL
1738003602,223289f3f9c7a79a8ba51da705bc91a9,PennController,82,0,test_val,NULL,PennController,93,_Header_,Start,1738003204611,undefined,798,stench,concrete-negative,negative,positive,B,NULL
1738003602,223289f3f9c7a79a8ba51da705bc91a9,PennController,82,0,test_val,NULL,PennController,93,_Header_,End,1738003204862,undefined,798,stench,concrete-negative,negative,positive,B,NULL
1738003602,223289f3f9c7a79a8ba51da705bc91a9,PennController,82,0,test_val,NULL,Selector,unnamed-Selector,Selection,negative,1738003206168,undefined,798,stench,concrete-negative,negative,positive,B,negative;positive
1738003602,223289f3f9c7a79a8ba51da705bc91a9,PennController,82,0,test_val,NULL,PennController,93,_Trial_,End,1738003206172,undefined,798,stench,concrete-negative,negative,positive,B,NULL
1738003602,223289f3f9c7a79a8ba51da705bc91a9,PennController,57,0,test_val,NULL,PennController,68,_Trial_,Start,1738003206175,undefined,490,music,concrete-positive,negative,positive,B,NULL
1738003602,223289f3f9c7a79a8ba51da705bc91a9,PennController,57,0,test_val,NULL,PennController,68,_Header_,Start,1738003206175,undefined,490,music,concrete-positive,negative,positive,B,NULL
1738003602,223289f3f9c7a79a8ba51da705bc91a9,PennController,57,0,test_val,NULL,PennController,68,_Header_,End,1738003206428,undefined,490,music,concrete-positive,negative,positive,B,NULL
1738003602,223289f3f9c7a79a8ba51da705bc91a9,PennController,57,0,test_val,NULL,Selector,unnamed-Selector,Selection,positive,1738003207427,undefined,490,music,concrete-positive,negative,positive,B,negative;positive
1738003602,223289f3f9c7a79a8ba51da705bc91a9,PennController,57,0,test_val,NULL,PennController,68,_Trial_,End,1738003207431,undefined,490,music,concrete-positive,negative,positive,B,NULL
1738003602,223289f3f9c7a79a8ba51da705bc91a9,PennController,74,0,test_val,NULL,PennController,85,_Trial_,Start,1738003207433,undefined,642,smoke,concrete-negative,negative,positive,B,NULL
1738003602,223289f3f9c7a79a8ba51da705bc91a9,PennController,74,0,test_val,NULL,PennController,85,_Header_,Start,1738003207433,undefined,642,smoke,concrete-negative,negative,positive,B,NULL
1738003602,223289f3f9c7a79a8ba51da705bc91a9,PennController,74,0,test_val,NULL,PennController,85,_Header_,End,1738003207687,undefined,642,smoke,concrete-negative,negative,positive,B,NULL
1738003602,223289f3f9c7a79a8ba51da705bc91a9,PennController,74,0,test_val,NULL,Selector,unnamed-Selector,Selection,negative,1738003208837,undefined,642,smoke,concrete-negative,negative,positive,B,negative;positive
1738003602,223289f3f9c7a79a8ba51da705bc91a9,PennController,74,0,test_val,NULL,PennController,85,_Trial_,End,1738003208840,undefined,642,smoke,concrete-negative,negative,positive,B,NULL
1738003602,223289f3f9c7a79a8ba51da705bc91a9,PennController,58,0,test_val,NULL,PennController,69,_Trial_,Start,1738003208843,undefined,613,beach,concrete-positive,negative,positive,B,NULL
1738003602,223289f3f9c7a79a8ba51da705bc91a9,PennController,58,0,test_val,NULL,PennController,69,_Header_,Start,1738003208843,undefined,613,beach,concrete-positive,negative,positive,B,NULL
1738003602,223289f3f9c7a79a8ba51da705bc91a9,PennController,58,0,test_val,NULL,PennController,69,_Header_,End,1738003209097,undefined,613,beach,concrete-positive,negative,positive,B,NULL
1738003602,223289f3f9c7a79a8ba51da705bc91a9,PennController,58,0,test_val,NULL,Selector,unnamed-Selector,Selection,positive,1738003210217,undefined,613,beach,concrete-positive,negative,positive,B,negative;positive
1738003602,223289f3f9c7a79a8ba51da705bc91a9,PennController,58,0,test_val,NULL,PennController,69,_Trial_,End,1738003210221,undefined,613,beach,concrete-positive,negative,positive,B,NULL
1738003602,223289f3f9c7a79a8ba51da705bc91a9,PennController,65,0,test_val,NULL,PennController,76,_Trial_,Start,1738003210224,undefined,594,hope,abstract-positive,negative,positive,B,NULL
1738003602,223289f3f9c7a79a8ba51da705bc91a9,PennController,65,0,test_val,NULL,PennController,76,_Header_,Start,1738003210224,undefined,594,hope,abstract-positive,negative,positive,B,NULL
1738003602,223289f3f9c7a79a8ba51da705bc91a9,PennController,65,0,test_val,NULL,PennController,76,_Header_,End,1738003210478,undefined,594,hope,abstract-positive,negative,positive,B,NULL
1738003602,223289f3f9c7a79a8ba51da705bc91a9,PennController,65,0,test_val,NULL,Selector,unnamed-Selector,Selection,positive,1738003211577,undefined,594,hope,abstract-positive,negative,positive,B,negative;positive
1738003602,223289f3f9c7a79a8ba51da705bc91a9,PennController,65,0,test_val,NULL,PennController,76,_Trial_,End,1738003211580,undefined,594,hope,abstract-positive,negative,positive,B,NULL
1738003602,223289f3f9c7a79a8ba51da705bc91a9,PennController,53,0,test_val,NULL,PennController,64,_Trial_,Start,1738003211584,undefined,718,envy,abstract-negative,negative,positive,B,NULL
1738003602,223289f3f9c7a79a8ba51da705bc91a9,PennController,53,0,test_val,NULL,PennController,64,_Header_,Start,1738003211584,undefined,718,envy,abstract-negative,negative,positive,B,NULL
1738003602,223289f3f9c7a79a8ba51da705bc91a9,PennController,53,0,test_val,NULL,PennController,64,_Header_,End,1738003211838,undefined,718,envy,abstract-negative,negative,positive,B,NULL
1738003602,223289f3f9c7a79a8ba51da705bc91a9,PennController,53,0,test_val,NULL,Selector,unnamed-Selector,Selection,positive,1738003213060,undefined,718,envy,abstract-negative,negative,positive,B,negative;positive
1738003602,223289f3f9c7a79a8ba51da705bc91a9,PennController,53,0,test_val,NULL,PennController,64,_Trial_,End,1738003213063,undefined,718,envy,abstract-negative,negative,positive,B,NULL
1738003602,223289f3f9c7a79a8ba51da705bc91a9,PennController,59,0,test_val,NULL,PennController,70,_Trial_,Start,1738003213067,undefined,541,hug,concrete-positive,negative,positive,B,NULL
1738003602,223289f3f9c7a79a8ba51da705bc91a9,PennController,59,0,test_val,NULL,PennController,70,_Header_,Start,1738003213067,undefined,541,hug,concrete-positive,negative,positive,B,NULL
1738003602,223289f3f9c7a79a8ba51da705bc91a9,PennController,59,0,test_val,NULL,PennController,70,_Header_,End,1738003213320,undefined,541,hug,concrete-positive,negative,positive,B,NULL
1738003602,223289f3f9c7a79a8ba51da705bc91a9,PennController,59,0,test_val,NULL,Selector,unnamed-Selector,Selection,positive,1738003214367,undefined,541,hug,concrete-positive,negative,positive,B,negative;positive
1738003602,223289f3f9c7a79a8ba51da705bc91a9,PennController,59,0,test_val,NULL,PennController,70,_Trial_,End,1738003214370,undefined,541,hug,concrete-positive,negative,positive,B,NULL
1738003602,223289f3f9c7a79a8ba51da705bc91a9,PennController,56,0,test_val,NULL,PennController,67,_Trial_,Start,1738003214372,undefined,477,flowers,concrete-positive,negative,positive,B,NULL
1738003602,223289f3f9c7a79a8ba51da705bc91a9,PennController,56,0,test_val,NULL,PennController,67,_Header_,Start,1738003214372,undefined,477,flowers,concrete-positive,negative,positive,B,NULL
1738003602,223289f3f9c7a79a8ba51da705bc91a9,PennController,56,0,test_val,NULL,PennController,67,_Header_,End,1738003214625,undefined,477,flowers,concrete-positive,negative,positive,B,NULL
1738003602,223289f3f9c7a79a8ba51da705bc91a9,PennController,56,0,test_val,NULL,Selector,unnamed-Selector,Selection,positive,1738003215607,undefined,477,flowers,concrete-positive,negative,positive,B,negative;positive
1738003602,223289f3f9c7a79a8ba51da705bc91a9,PennController,56,0,test_val,NULL,PennController,67,_Trial_,End,1738003215610,undefined,477,flowers,concrete-positive,negative,positive,B,NULL
1738003602,223289f3f9c7a79a8ba51da705bc91a9,PennController,79,0,test_val,NULL,PennController,90,_Trial_,Start,1738003215613,undefined,570,rust,concrete-negative,negative,positive,B,NULL
1738003602,223289f3f9c7a79a8ba51da705bc91a9,PennController,79,0,test_val,NULL,PennController,90,_Header_,Start,1738003215613,undefined,570,rust,concrete-negative,negative,positive,B,NULL
1738003602,223289f3f9c7a79a8ba51da705bc91a9,PennController,79,0,test_val,NULL,PennController,90,_Header_,End,1738003215865,undefined,570,rust,concrete-negative,negative,positive,B,NULL
1738003602,223289f3f9c7a79a8ba51da705bc91a9,PennController,79,0,test_val,NULL,Selector,unnamed-Selector,Selection,negative,1738003216940,undefined,570,rust,concrete-negative,negative,positive,B,negative;positive
1738003602,223289f3f9c7a79a8ba51da705bc91a9,PennController,79,0,test_val,NULL,PennController,90,_Trial_,End,1738003216943,undefined,570,rust,concrete-negative,negative,positive,B,NULL
1738003602,223289f3f9c7a79a8ba51da705bc91a9,PennController,45,0,test_val,NULL,PennController,56,_Trial_,Start,1738003216946,undefined,592,regret,abstract-negative,negative,positive,B,NULL
1738003602,223289f3f9c7a79a8ba51da705bc91a9,PennController,45,0,test_val,NULL,PennController,56,_Header_,Start,1738003216946,undefined,592,regret,abstract-negative,negative,positive,B,NULL
1738003602,223289f3f9c7a79a8ba51da705bc91a9,PennController,45,0,test_val,NULL,PennController,56,_Header_,End,1738003217196,undefined,592,regret,abstract-negative,negative,positive,B,NULL
1738003602,223289f3f9c7a79a8ba51da705bc91a9,PennController,45,0,test_val,NULL,Selector,unnamed-Selector,Selection,negative,1738003218296,undefined,592,regret,abstract-negative,negative,positive,B,negative;positive
1738003602,223289f3f9c7a79a8ba51da705bc91a9,PennController,45,0,test_val,NULL,PennController,56,_Trial_,End,1738003218299,undefined,592,regret,abstract-negative,negative,positive,B,NULL
1738003602,223289f3f9c7a79a8ba51da705bc91a9,PennController,62,0,test_val,NULL,PennController,73,_Trial_,Start,1738003218304,undefined,657,chocolate,concrete-positive,negative,positive,B,NULL
1738003602,223289f3f9c7a79a8ba51da705bc91a9,PennController,62,0,test_val,NULL,PennController,73,_Header_,Start,1738003218304,undefined,657,chocolate,concrete-positive,negative,positive,B,NULL
1738003602,223289f3f9c7a79a8ba51da705bc91a9,PennController,62,0,test_val,NULL,PennController,73,_Header_,End,1738003218555,undefined,657,chocolate,concrete-positive,negative,positive,B,NULL
1738003602,223289f3f9c7a79a8ba51da705bc91a9,PennController,62,0,test_val,NULL,Selector,unnamed-Selector,Selection,positive,1738003219719,undefined,657,chocolate,concrete-positive,negative,positive,B,negative;positive
1738003602,223289f3f9c7a79a8ba51da705bc91a9,PennController,62,0,test_val,NULL,PennController,73,_Trial_,End,1738003219722,undefined,657,chocolate,concrete-positive,negative,positive,B,NULL
1738003602,223289f3f9c7a79a8ba51da705bc91a9,PennController,73,0,test_val,NULL,PennController,84,_Trial_,Start,1738003219726,undefined,722,inspiration,abstract-positive,negative,positive,B,NULL
1738003602,223289f3f9c7a79a8ba51da705bc91a9,PennController,73,0,test_val,NULL,PennController,84,_Header_,Start,1738003219726,undefined,722,inspiration,abstract-positive,negative,positive,B,NULL
1738003602,223289f3f9c7a79a8ba51da705bc91a9,PennController,73,0,test_val,NULL,PennController,84,_Header_,End,1738003219979,undefined,722,inspiration,abstract-positive,negative,positive,B,NULL
1738003602,223289f3f9c7a79a8ba51da705bc91a9,PennController,73,0,test_val,NULL,Selector,unnamed-Selector,Selection,positive,1738003221206,undefined,722,inspiration,abstract-positive,negative,positive,B,negative;positive
1738003602,223289f3f9c7a79a8ba51da705bc91a9,PennController,73,0,test_val,NULL,PennController,84,_Trial_,End,1738003221210,undefined,722,inspiration,abstract-positive,negative,positive,B,NULL
1738003602,223289f3f9c7a79a8ba51da705bc91a9,PennController,46,0,test_val,NULL,PennController,57,_Trial_,Start,1738003221213,undefined,547,anxiety,abstract-negative,negative,positive,B,NULL
1738003602,223289f3f9c7a79a8ba51da705bc91a9,PennController,46,0,test_val,NULL,PennController,57,_Header_,Start,1738003221213,undefined,547,anxiety,abstract-negative,negative,positive,B,NULL
1738003602,223289f3f9c7a79a8ba51da705bc91a9,PennController,46,0,test_val,NULL,PennController,57,_Header_,End,1738003221466,undefined,547,anxiety,abstract-negative,negative,positive,B,NULL
1738003602,223289f3f9c7a79a8ba51da705bc91a9,PennController,46,0,test_val,NULL,Selector,unnamed-Selector,Selection,negative,1738003222522,undefined,547,anxiety,abstract-negative,negative,positive,B,negative;positive
1738003602,223289f3f9c7a79a8ba51da705bc91a9,PennController,46,0,test_val,NULL,PennController,57,_Trial_,End,1738003222525,undefined,547,anxiety,abstract-negative,negative,positive,B,NULL
1738003602,223289f3f9c7a79a8ba51da705bc91a9,PennController,61,0,test_val,NULL,PennController,72,_Trial_,Start,1738003222528,undefined,557,rain,concrete-positive,negative,positive,B,NULL
1738003602,223289f3f9c7a79a8ba51da705bc91a9,PennController,61,0,test_val,NULL,PennController,72,_Header_,Start,1738003222528,undefined,557,rain,concrete-positive,negative,positive,B,NULL
1738003602,223289f3f9c7a79a8ba51da705bc91a9,PennController,61,0,test_val,NULL,PennController,72,_Header_,End,1738003222778,undefined,557,rain,concrete-positive,negative,positive,B,NULL
1738003602,223289f3f9c7a79a8ba51da705bc91a9,PennController,61,0,test_val,NULL,Selector,unnamed-Selector,Selection,negative,1738003223842,undefined,557,rain,concrete-positive,negative,positive,B,negative;positive
1738003602,223289f3f9c7a79a8ba51da705bc91a9,PennController,61,0,test_val,NULL,PennController,72,_Trial_,End,1738003223846,undefined,557,rain,concrete-positive,negative,positive,B,NULL
1738003602,223289f3f9c7a79a8ba51da705bc91a9,PennController,72,0,test_val,NULL,PennController,83,_Trial_,Start,1738003223849,undefined,625,gratitude,abstract-positive,negative,positive,B,NULL
1738003602,223289f3f9c7a79a8ba51da705bc91a9,PennController,72,0,test_val,NULL,PennController,83,_Header_,Start,1738003223849,undefined,625,gratitude,abstract-positive,negative,positive,B,NULL
1738003602,223289f3f9c7a79a8ba51da705bc91a9,PennController,72,0,test_val,NULL,PennController,83,_Header_,End,1738003224101,undefined,625,gratitude,abstract-positive,negative,positive,B,NULL
1738003602,223289f3f9c7a79a8ba51da705bc91a9,PennController,72,0,test_val,NULL,Selector,unnamed-Selector,Selection,positive,1738003225231,undefined,625,gratitude,abstract-positive,negative,positive,B,negative;positive
1738003602,223289f3f9c7a79a8ba51da705bc91a9,PennController,72,0,test_val,NULL,PennController,83,_Trial_,End,1738003225234,undefined,625,gratitude,abstract-positive,negative,positive,B,NULL
1738003602,223289f3f9c7a79a8ba51da705bc91a9,PennController,60,0,test_val,NULL,PennController,71,_Trial_,Start,1738003225238,undefined,536,home,concrete-positive,negative,positive,B,NULL
1738003602,223289f3f9c7a79a8ba51da705bc91a9,PennController,60,0,test_val,NULL,PennController,71,_Header_,Start,1738003225238,undefined,536,home,concrete-positive,negative,positive,B,NULL
1738003602,223289f3f9c7a79a8ba51da705bc91a9,PennController,60,0,test_val,NULL,PennController,71,_Header_,End,1738003225489,undefined,536,home,concrete-positive,negative,positive,B,NULL
1738003602,223289f3f9c7a79a8ba51da705bc91a9,PennController,60,0,test_val,NULL,Selector,unnamed-Selector,Selection,positive,1738003226530,undefined,536,home,concrete-positive,negative,positive,B,negative;positive
1738003602,223289f3f9c7a79a8ba51da705bc91a9,PennController,60,0,test_val,NULL,PennController,71,_Trial_,End,1738003226533,undefined,536,home,concrete-positive,negative,positive,B,NULL
1738003602,223289f3f9c7a79a8ba51da705bc91a9,PennController,44,0,test_val,NULL,PennController,55,_Trial_,Start,1738003226535,undefined,616,lonliness,abstract-negative,negative,positive,B,NULL
1738003602,223289f3f9c7a79a8ba51da705bc91a9,PennController,44,0,test_val,NULL,PennController,55,_Header_,Start,1738003226535,undefined,616,lonliness,abstract-negative,negative,positive,B,NULL
1738003602,223289f3f9c7a79a8ba51da705bc91a9,PennController,44,0,test_val,NULL,PennController,55,_Header_,End,1738003226788,undefined,616,lonliness,abstract-negative,negative,positive,B,NULL
1738003602,223289f3f9c7a79a8ba51da705bc91a9,PennController,44,0,test_val,NULL,Selector,unnamed-Selector,Selection,negative,1738003227912,undefined,616,lonliness,abstract-negative,negative,positive,B,negative;positive
1738003602,223289f3f9c7a79a8ba51da705bc91a9,PennController,44,0,test_val,NULL,PennController,55,_Trial_,End,1738003227915,undefined,616,lonliness,abstract-negative,negative,positive,B,NULL
1738003602,223289f3f9c7a79a8ba51da705bc91a9,PennController,68,0,test_val,NULL,PennController,79,_Trial_,Start,1738003227919,undefined,641,freedom,abstract-positive,negative,positive,B,NULL
1738003602,223289f3f9c7a79a8ba51da705bc91a9,PennController,68,0,test_val,NULL,PennController,79,_Header_,Start,1738003227919,undefined,641,freedom,abstract-positive,negative,positive,B,NULL
1738003602,223289f3f9c7a79a8ba51da705bc91a9,PennController,68,0,test_val,NULL,PennController,79,_Header_,End,1738003228169,undefined,641,freedom,abstract-positive,negative,positive,B,NULL
1738003602,223289f3f9c7a79a8ba51da705bc91a9,PennController,68,0,test_val,NULL,Selector,unnamed-Selector,Selection,positive,1738003229320,undefined,641,freedom,abstract-positive,negative,positive,B,negative;positive
1738003602,223289f3f9c7a79a8ba51da705bc91a9,PennController,68,0,test_val,NULL,PennController,79,_Trial_,End,1738003229323,undefined,641,freedom,abstract-positive,negative,positive,B,NULL
1738003602,223289f3f9c7a79a8ba51da705bc91a9,PennController,82,0,test_val,NULL,PennController,93,_Trial_,Start,1738003229326,undefined,583,stench,concrete-negative,negative,positive,B,NULL
1738003602,223289f3f9c7a79a8ba51da705bc91a9,PennController,82,0,test_val,NULL,PennController,93,_Header_,Start,1738003229326,undefined,583,stench,concrete-negative,negative,positive,B,NULL
1738003602,223289f3f9c7a79a8ba51da705bc91a9,PennController,82,0,test_val,NULL,PennController,93,_Header_,End,1738003229577,undefined,583,stench,concrete-negative,negative,positive,B,NULL
1738003602,223289f3f9c7a79a8ba51da705bc91a9,PennController,82,0,test_val,NULL,Selector,unnamed-Selector,Selection,negative,1738003230665,undefined,583,stench,concrete-negative,negative,positive,B,negative;positive
1738003602,223289f3f9c7a79a8ba51da705bc91a9,PennController,82,0,test_val,NULL,PennController,93,_Trial_,End,1738003230668,undefined,583,stench,concrete-negative,negative,positive,B,NULL
1738003602,223289f3f9c7a79a8ba51da705bc91a9,PennController,50,0,test_val,NULL,PennController,61,_Trial_,Start,1738003230670,undefined,662,resentment,abstract-negative,negative,positive,B,NULL
1738003602,223289f3f9c7a79a8ba51da705bc91a9,PennController,50,0,test_val,NULL,PennController,61,_Header_,Start,1738003230670,undefined,662,resentment,abstract-negative,negative,positive,B,NULL
1738003602,223289f3f9c7a79a8ba51da705bc91a9,PennController,50,0,test_val,NULL,PennController,61,_Header_,End,1738003230921,undefined,662,resentment,abstract-negative,negative,positive,B,NULL
1738003602,223289f3f9c7a79a8ba51da705bc91a9,PennController,50,0,test_val,NULL,Selector,unnamed-Selector,Selection,negative,1738003232090,undefined,662,resentment,abstract-negative,negative,positive,B,negative;positive
1738003602,223289f3f9c7a79a8ba51da705bc91a9,PennController,50,0,test_val,NULL,PennController,61,_Trial_,End,1738003232093,undefined,662,resentment,abstract-negative,negative,positive,B,NULL
1738003602,223289f3f9c7a79a8ba51da705bc91a9,PennController,47,0,test_val,NULL,PennController,58,_Trial_,Start,1738003232097,undefined,546,despair,abstract-negative,negative,positive,B,NULL
1738003602,223289f3f9c7a79a8ba51da705bc91a9,PennController,47,0,test_val,NULL,PennController,58,_Header_,Start,1738003232097,undefined,546,despair,abstract-negative,negative,positive,B,NULL
1738003602,223289f3f9c7a79a8ba51da705bc91a9,PennController,47,0,test_val,NULL,PennController,58,_Header_,End,1738003232347,undefined,546,despair,abstract-negative,negative,positive,B,NULL
1738003602,223289f3f9c7a79a8ba51da705bc91a9,PennController,47,0,test_val,NULL,Selector,unnamed-Selector,Selection,negative,1738003233401,undefined,546,despair,abstract-negative,negative,positive,B,negative;positive
1738003602,223289f3f9c7a79a8ba51da705bc91a9,PennController,47,0,test_val,NULL,PennController,58,_Trial_,End,1738003233404,undefined,546,despair,abstract-negative,negative,positive,B,NULL
1738003602,223289f3f9c7a79a8ba51da705bc91a9,PennController,54,0,test_val,NULL,PennController,65,_Trial_,Start,1738003233407,undefined,721,sunshine,concrete-positive,negative,positive,B,NULL
1738003602,223289f3f9c7a79a8ba51da705bc91a9,PennController,54,0,test_val,NULL,PennController,65,_Header_,Start,1738003233407,undefined,721,sunshine,concrete-positive,negative,positive,B,NULL
1738003602,223289f3f9c7a79a8ba51da705bc91a9,PennController,54,0,test_val,NULL,PennController,65,_Header_,End,1738003233658,undefined,721,sunshine,concrete-positive,negative,positive,B,NULL
1738003602,223289f3f9c7a79a8ba51da705bc91a9,PennController,54,0,test_val,NULL,Selector,unnamed-Selector,Selection,positive,1738003234885,undefined,721,sunshine,concrete-positive,negative,positive,B,negative;positive
1738003602,223289f3f9c7a79a8ba51da705bc91a9,PennController,54,0,test_val,NULL,PennController,65,_Trial_,End,1738003234888,undefined,721,sunshine,concrete-positive,negative,positive,B,NULL
1738003602,223289f3f9c7a79a8ba51da705bc91a9,PennController,77,0,test_val,NULL,PennController,88,_Trial_,Start,1738003234891,undefined,659,vomit,concrete-negative,negative,positive,B,NULL
1738003602,223289f3f9c7a79a8ba51da705bc91a9,PennController,77,0,test_val,NULL,PennController,88,_Header_,Start,1738003234891,undefined,659,vomit,concrete-negative,negative,positive,B,NULL
1738003602,223289f3f9c7a79a8ba51da705bc91a9,PennController,77,0,test_val,NULL,PennController,88,_Header_,End,1738003235142,undefined,659,vomit,concrete-negative,negative,positive,B,NULL
1738003602,223289f3f9c7a79a8ba51da705bc91a9,PennController,77,0,test_val,NULL,Selector,unnamed-Selector,Selection,negative,1738003236306,undefined,659,vomit,concrete-negative,negative,positive,B,negative;positive
1738003602,223289f3f9c7a79a8ba51da705bc91a9,PennController,77,0,test_val,NULL,PennController,88,_Trial_,End,1738003236310,undefined,659,vomit,concrete-negative,negative,positive,B,NULL
1738003602,223289f3f9c7a79a8ba51da705bc91a9,PennController,76,0,test_val,NULL,PennController,87,_Trial_,Start,1738003236314,undefined,683,mud,concrete-negative,negative,positive,B,NULL
1738003602,223289f3f9c7a79a8ba51da705bc91a9,PennController,76,0,test_val,NULL,PennController,87,_Header_,Start,1738003236314,undefined,683,mud,concrete-negative,negative,positive,B,NULL
1738003602,223289f3f9c7a79a8ba51da705bc91a9,PennController,76,0,test_val,NULL,PennController,87,_Header_,End,1738003236566,undefined,683,mud,concrete-negative,negative,positive,B,NULL
1738003602,223289f3f9c7a79a8ba51da705bc91a9,PennController,76,0,test_val,NULL,Selector,unnamed-Selector,Selection,negative,1738003237762,undefined,683,mud,concrete-negative,negative,positive,B,negative;positive
1738003602,223289f3f9c7a79a8ba51da705bc91a9,PennController,76,0,test_val,NULL,PennController,87,_Trial_,End,1738003237765,undefined,683,mud,concrete-negative,negative,positive,B,NULL
1738003602,223289f3f9c7a79a8ba51da705bc91a9,PennController,51,0,test_val,NULL,PennController,62,_Trial_,Start,1738003237769,undefined,590,failure,abstract-negative,negative,positive,B,NULL
1738003602,223289f3f9c7a79a8ba51da705bc91a9,PennController,51,0,test_val,NULL,PennController,62,_Header_,Start,1738003237769,undefined,590,failure,abstract-negative,negative,positive,B,NULL
1738003602,223289f3f9c7a79a8ba51da705bc91a9,PennController,51,0,test_val,NULL,PennController,62,_Header_,End,1738003238019,undefined,590,failure,abstract-negative,negative,positive,B,NULL
1738003602,223289f3f9c7a79a8ba51da705bc91a9,PennController,51,0,test_val,NULL,Selector,unnamed-Selector,Selection,negative,1738003239116,undefined,590,failure,abstract-negative,negative,positive,B,negative;positive
1738003602,223289f3f9c7a79a8ba51da705bc91a9,PennController,51,0,test_val,NULL,PennController,62,_Trial_,End,1738003239119,undefined,590,failure,abstract-negative,negative,positive,B,NULL
1738003602,223289f3f9c7a79a8ba51da705bc91a9,PennController,70,0,test_val,NULL,PennController,81,_Trial_,Start,1738003239122,undefined,581,happiness,abstract-positive,negative,positive,B,NULL
1738003602,223289f3f9c7a79a8ba51da705bc91a9,PennController,70,0,test_val,NULL,PennController,81,_Header_,Start,1738003239122,undefined,581,happiness,abstract-positive,negative,positive,B,NULL
1738003602,223289f3f9c7a79a8ba51da705bc91a9,PennController,70,0,test_val,NULL,PennController,81,_Header_,End,1738003239372,undefined,581,happiness,abstract-positive,negative,positive,B,NULL
1738003602,223289f3f9c7a79a8ba51da705bc91a9,PennController,70,0,test_val,NULL,Selector,unnamed-Selector,Selection,positive,1738003240458,undefined,581,happiness,abstract-positive,negative,positive,B,negative;positive
1738003602,223289f3f9c7a79a8ba51da705bc91a9,PennController,70,0,test_val,NULL,PennController,81,_Trial_,End,1738003240462,undefined,581,happiness,abstract-positive,negative,positive,B,NULL
1738003602,223289f3f9c7a79a8ba51da705bc91a9,PennController,55,0,test_val,NULL,PennController,66,_Trial_,Start,1738003240465,undefined,530,laughter,concrete-positive,negative,positive,B,NULL
1738003602,223289f3f9c7a79a8ba51da705bc91a9,PennController,55,0,test_val,NULL,PennController,66,_Header_,Start,1738003240465,undefined,530,laughter,concrete-positive,negative,positive,B,NULL
1738003602,223289f3f9c7a79a8ba51da705bc91a9,PennController,55,0,test_val,NULL,PennController,66,_Header_,End,1738003240716,undefined,530,laughter,concrete-positive,negative,positive,B,NULL
1738003602,223289f3f9c7a79a8ba51da705bc91a9,PennController,55,0,test_val,NULL,Selector,unnamed-Selector,Selection,positive,1738003241750,undefined,530,laughter,concrete-positive,negative,positive,B,negative;positive
1738003602,223289f3f9c7a79a8ba51da705bc91a9,PennController,55,0,test_val,NULL,PennController,66,_Trial_,End,1738003241753,undefined,530,laughter,concrete-positive,negative,positive,B,NULL
1738003602,223289f3f9c7a79a8ba51da705bc91a9,PennController,69,0,test_val,NULL,PennController,80,_Trial_,Start,1738003241755,undefined,583,kindness,abstract-positive,negative,positive,B,NULL
1738003602,223289f3f9c7a79a8ba51da705bc91a9,PennController,69,0,test_val,NULL,PennController,80,_Header_,Start,1738003241755,undefined,583,kindness,abstract-positive,negative,positive,B,NULL
1738003602,223289f3f9c7a79a8ba51da705bc91a9,PennController,69,0,test_val,NULL,PennController,80,_Header_,End,1738003242007,undefined,583,kindness,abstract-positive,negative,positive,B,NULL
1738003602,223289f3f9c7a79a8ba51da705bc91a9,PennController,69,0,test_val,NULL,Selector,unnamed-Selector,Selection,positive,1738003243095,undefined,583,kindness,abstract-positive,negative,positive,B,negative;positive
1738003602,223289f3f9c7a79a8ba51da705bc91a9,PennController,69,0,test_val,NULL,PennController,80,_Trial_,End,1738003243098,undefined,583,kindness,abstract-positive,negative,positive,B,NULL
1738003602,223289f3f9c7a79a8ba51da705bc91a9,PennController,80,0,test_val,NULL,PennController,91,_Trial_,Start,1738003243100,undefined,695,mold,concrete-negative,negative,positive,B,NULL
1738003602,223289f3f9c7a79a8ba51da705bc91a9,PennController,80,0,test_val,NULL,PennController,91,_Header_,Start,1738003243100,undefined,695,mold,concrete-negative,negative,positive,B,NULL
1738003602,223289f3f9c7a79a8ba51da705bc91a9,PennController,80,0,test_val,NULL,PennController,91,_Header_,End,1738003243352,undefined,695,mold,concrete-negative,negative,positive,B,NULL
1738003602,223289f3f9c7a79a8ba51da705bc91a9,PennController,80,0,test_val,NULL,Selector,unnamed-Selector,Selection,negative,1738003244555,undefined,695,mold,concrete-negative,negative,positive,B,negative;positive
1738003602,223289f3f9c7a79a8ba51da705bc91a9,PennController,80,0,test_val,NULL,PennController,91,_Trial_,End,1738003244558,undefined,695,mold,concrete-negative,negative,positive,B,NULL
1738003602,223289f3f9c7a79a8ba51da705bc91a9,PennController,83,0,test_val,NULL,PennController,94,_Trial_,Start,1738003244562,undefined,1126,filth,concrete-negative,negative,positive,B,NULL
1738003602,223289f3f9c7a79a8ba51da705bc91a9,PennController,83,0,test_val,NULL,PennController,94,_Header_,Start,1738003244562,undefined,1126,filth,concrete-negative,negative,positive,B,NULL
1738003602,223289f3f9c7a79a8ba51da705bc91a9,PennController,83,0,test_val,NULL,PennController,94,_Header_,End,1738003244813,undefined,1126,filth,concrete-negative,negative,positive,B,NULL
1738003602,223289f3f9c7a79a8ba51da705bc91a9,PennController,83,0,test_val,NULL,Selector,unnamed-Selector,Selection,negative,1738003246444,undefined,1126,filth,concrete-negative,negative,positive,B,negative;positive
1738003602,223289f3f9c7a79a8ba51da705bc91a9,PennController,83,0,test_val,NULL,PennController,94,_Trial_,End,1738003246447,undefined,1126,filth,concrete-negative,negative,positive,B,NULL
1738003602,223289f3f9c7a79a8ba51da705bc91a9,PennController,63,0,test_val,NULL,PennController,74,_Trial_,Start,1738003246449,undefined,505,fireplace,concrete-positive,negative,positive,B,NULL
1738003602,223289f3f9c7a79a8ba51da705bc91a9,PennController,63,0,test_val,NULL,PennController,74,_Header_,Start,1738003246449,undefined,505,fireplace,concrete-positive,negative,positive,B,NULL
1738003602,223289f3f9c7a79a8ba51da705bc91a9,PennController,63,0,test_val,NULL,PennController,74,_Header_,End,1738003246702,undefined,505,fireplace,concrete-positive,negative,positive,B,NULL
1738003602,223289f3f9c7a79a8ba51da705bc91a9,PennController,63,0,test_val,NULL,Selector,unnamed-Selector,Selection,negative,1738003247713,undefined,505,fireplace,concrete-positive,negative,positive,B,negative;positive
1738003602,223289f3f9c7a79a8ba51da705bc91a9,PennController,63,0,test_val,NULL,PennController,74,_Trial_,End,1738003247716,undefined,505,fireplace,concrete-positive,negative,positive,B,NULL
1738003602,223289f3f9c7a79a8ba51da705bc91a9,PennController,81,0,test_val,NULL,PennController,92,_Trial_,Start,1738003247718,undefined,674,injury,concrete-negative,negative,positive,B,NULL
1738003602,223289f3f9c7a79a8ba51da705bc91a9,PennController,81,0,test_val,NULL,PennController,92,_Header_,Start,1738003247718,undefined,674,injury,concrete-negative,negative,positive,B,NULL
1738003602,223289f3f9c7a79a8ba51da705bc91a9,PennController,81,0,test_val,NULL,PennController,92,_Header_,End,1738003247970,undefined,674,injury,concrete-negative,negative,positive,B,NULL
1738003602,223289f3f9c7a79a8ba51da705bc91a9,PennController,81,0,test_val,NULL,Selector,unnamed-Selector,Selection,negative,1738003249150,undefined,674,injury,concrete-negative,negative,positive,B,negative;positive
1738003602,223289f3f9c7a79a8ba51da705bc91a9,PennController,81,0,test_val,NULL,PennController,92,_Trial_,End,1738003249153,undefined,674,injury,concrete-negative,negative,positive,B,NULL
1738003602,223289f3f9c7a79a8ba51da705bc91a9,PennController,66,0,test_val,NULL,PennController,77,_Trial_,Start,1738003249156,undefined,674,joy,abstract-positive,negative,positive,B,NULL
1738003602,223289f3f9c7a79a8ba51da705bc91a9,PennController,66,0,test_val,NULL,PennController,77,_Header_,Start,1738003249156,undefined,674,joy,abstract-positive,negative,positive,B,NULL
1738003602,223289f3f9c7a79a8ba51da705bc91a9,PennController,66,0,test_val,NULL,PennController,77,_Header_,End,1738003249409,undefined,674,joy,abstract-positive,negative,positive,B,NULL
1738003602,223289f3f9c7a79a8ba51da705bc91a9,PennController,66,0,test_val,NULL,Selector,unnamed-Selector,Selection,positive,1738003250589,undefined,674,joy,abstract-positive,negative,positive,B,negative;positive
1738003602,223289f3f9c7a79a8ba51da705bc91a9,PennController,66,0,test_val,NULL,PennController,77,_Trial_,End,1738003250592,undefined,674,joy,abstract-positive,negative,positive,B,NULL
1738003602,223289f3f9c7a79a8ba51da705bc91a9,PennController,49,0,test_val,NULL,PennController,60,_Trial_,Start,1738003250596,undefined,652,grief,abstract-negative,negative,positive,B,NULL
1738003602,223289f3f9c7a79a8ba51da705bc91a9,PennController,49,0,test_val,NULL,PennController,60,_Header_,Start,1738003250596,undefined,652,grief,abstract-negative,negative,positive,B,NULL
1738003602,223289f3f9c7a79a8ba51da705bc91a9,PennController,49,0,test_val,NULL,PennController,60,_Header_,End,1738003250849,undefined,652,grief,abstract-negative,negative,positive,B,NULL
1738003602,223289f3f9c7a79a8ba51da705bc91a9,PennController,49,0,test_val,NULL,Selector,unnamed-Selector,Selection,negative,1738003252009,undefined,652,grief,abstract-negative,negative,positive,B,negative;positive
1738003602,223289f3f9c7a79a8ba51da705bc91a9,PennController,49,0,test_val,NULL,PennController,60,_Trial_,End,1738003252013,undefined,652,grief,abstract-negative,negative,positive,B,NULL
1738003602,223289f3f9c7a79a8ba51da705bc91a9,PennController,78,0,test_val,NULL,PennController,89,_Trial_,Start,1738003252016,undefined,668,garbage,concrete-negative,negative,positive,B,NULL
1738003602,223289f3f9c7a79a8ba51da705bc91a9,PennController,78,0,test_val,NULL,PennController,89,_Header_,Start,1738003252016,undefined,668,garbage,concrete-negative,negative,positive,B,NULL
1738003602,223289f3f9c7a79a8ba51da705bc91a9,PennController,78,0,test_val,NULL,PennController,89,_Header_,End,1738003252269,undefined,668,garbage,concrete-negative,negative,positive,B,NULL
1738003602,223289f3f9c7a79a8ba51da705bc91a9,PennController,78,0,test_val,NULL,Selector,unnamed-Selector,Selection,negative,1738003253442,undefined,668,garbage,concrete-negative,negative,positive,B,negative;positive
1738003602,223289f3f9c7a79a8ba51da705bc91a9,PennController,78,0,test_val,NULL,PennController,89,_Trial_,End,1738003253446,undefined,668,garbage,concrete-negative,negative,positive,B,NULL
1738003602,223289f3f9c7a79a8ba51da705bc91a9,PennController,48,0,test_val,NULL,PennController,59,_Trial_,Start,1738003253449,undefined,438,guilt,abstract-negative,negative,positive,B,NULL
1738003602,223289f3f9c7a79a8ba51da705bc91a9,PennController,48,0,test_val,NULL,PennController,59,_Header_,Start,1738003253449,undefined,438,guilt,abstract-negative,negative,positive,B,NULL
1738003602,223289f3f9c7a79a8ba51da705bc91a9,PennController,48,0,test_val,NULL,PennController,59,_Header_,End,1738003253702,undefined,438,guilt,abstract-negative,negative,positive,B,NULL
1738003602,223289f3f9c7a79a8ba51da705bc91a9,PennController,48,0,test_val,NULL,Selector,unnamed-Selector,Selection,negative,1738003254646,undefined,438,guilt,abstract-negative,negative,positive,B,negative;positive
1738003602,223289f3f9c7a79a8ba51da705bc91a9,PennController,48,0,test_val,NULL,PennController,59,_Trial_,End,1738003254649,undefined,438,guilt,abstract-negative,negative,positive,B,NULL
1738003602,223289f3f9c7a79a8ba51da705bc91a9,PennController,71,0,test_val,NULL,PennController,82,_Trial_,Start,1738003254652,undefined,488,compassion,abstract-positive,negative,positive,B,NULL
1738003602,223289f3f9c7a79a8ba51da705bc91a9,PennController,71,0,test_val,NULL,PennController,82,_Header_,Start,1738003254652,undefined,488,compassion,abstract-positive,negative,positive,B,NULL
1738003602,223289f3f9c7a79a8ba51da705bc91a9,PennController,71,0,test_val,NULL,PennController,82,_Header_,End,1738003254902,undefined,488,compassion,abstract-positive,negative,positive,B,NULL
1738003602,223289f3f9c7a79a8ba51da705bc91a9,PennController,71,0,test_val,NULL,Selector,unnamed-Selector,Selection,positive,1738003255895,undefined,488,compassion,abstract-positive,negative,positive,B,negative;positive
1738003602,223289f3f9c7a79a8ba51da705bc91a9,PennController,71,0,test_val,NULL,PennController,82,_Trial_,End,1738003255898,undefined,488,compassion,abstract-positive,negative,positive,B,NULL
1738003602,223289f3f9c7a79a8ba51da705bc91a9,PennController,64,0,test_val,NULL,PennController,75,_Trial_,Start,1738003255901,undefined,702,love,abstract-positive,negative,positive,B,NULL
1738003602,223289f3f9c7a79a8ba51da705bc91a9,PennController,64,0,test_val,NULL,PennController,75,_Header_,Start,1738003255901,undefined,702,love,abstract-positive,negative,positive,B,NULL
1738003602,223289f3f9c7a79a8ba51da705bc91a9,PennController,64,0,test_val,NULL,PennController,75,_Header_,End,1738003256155,undefined,702,love,abstract-positive,negative,positive,B,NULL
1738003602,223289f3f9c7a79a8ba51da705bc91a9,PennController,64,0,test_val,NULL,Selector,unnamed-Selector,Selection,positive,1738003257364,undefined,702,love,abstract-positive,negative,positive,B,negative;positive
1738003602,223289f3f9c7a79a8ba51da705bc91a9,PennController,64,0,test_val,NULL,PennController,75,_Trial_,End,1738003257368,undefined,702,love,abstract-positive,negative,positive,B,NULL
1738003602,223289f3f9c7a79a8ba51da705bc91a9,PennController,67,0,test_val,NULL,PennController,78,_Trial_,Start,1738003257370,undefined,465,peace,abstract-positive,negative,positive,B,NULL
1738003602,223289f3f9c7a79a8ba51da705bc91a9,PennController,67,0,test_val,NULL,PennController,78,_Header_,Start,1738003257370,undefined,465,peace,abstract-positive,negative,positive,B,NULL
