"","ID.true","Word","Label","Task","BlockOrder","EventTime","Value","ReactionTime","Key_value_F","Key_value_J","Comments","Group","LogReactionTime","TrialNumber"
"1","5a51ba7676d1c60001aaa660","invader","calibrator_val_feedback","Valence","VC",1737994323445,"positive",607,"positive","negative","positive;negative","A",6.4085287910595,1
"2","5a51ba7676d1c60001aaa660","icebox","calibrator_val_feedback","Valence","VC",1737994327420,"positive",1207,"positive","negative","positive;negative","A",7.09589322109753,2
"3","5a51ba7676d1c60001aaa660","joke","calibrator_val_feedback","Valence","VC",1737994331489,"positive",1301,"positive","negative","positive;negative","A",7.1708884785125,3
"4","5a51ba7676d1c60001aaa660","grin","calibrator_val_feedback","Valence","VC",1737994334955,"negative",699,"positive","negative","positive;negative","A",6.54965074223381,4
"5","5a51ba7676d1c60001aaa660","kitten","calibrator_val_feedback","Valence","VC",1737994338724,"positive",1003,"positive","negative","positive;negative","A",6.91075078796194,5
"6","5a51ba7676d1c60001aaa660","jail","calibrator_val_feedback","Valence","VC",1737994342549,"negative",1063,"positive","negative","positive;negative","A",6.96885037834195,6
"7","5a51ba7676d1c60001aaa660","hat","calibrator_val_feedback","Valence","VC",1737994346383,"negative",1069,"positive","negative","positive;negative","A",6.97447891102505,7
"8","5a51ba7676d1c60001aaa660","free","calibrator_val_feedback","Valence","VC",1737994350660,"positive",1513,"positive","negative","positive;negative","A",7.32184971378836,8
"9","5a51ba7676d1c60001aaa660","industry","calibrator_val_feedback","Valence","VC",1737994355797,"negative",2369,"positive","negative","positive;negative","A",7.77022320415879,9
"10","5a51ba7676d1c60001aaa660","insecure","calibrator_val_feedback","Valence","VC",1737994360323,"negative",1761,"positive","negative","positive;negative","A",7.47363710849621,10
"11","5a51ba7676d1c60001aaa660","grin","calibrator_val_no_feedback","Valence","VC",1737994364466,"negative",1375,"A","positive;negative","","A",7.22620901010067,11
"12","5a51ba7676d1c60001aaa660","invader","calibrator_val_no_feedback","Valence","VC",1737994366316,"negative",1091,"A","positive;negative","","A",6.99484998583307,12
"13","5a51ba7676d1c60001aaa660","hat","calibrator_val_no_feedback","Valence","VC",1737994368175,"positive",1098,"A","positive;negative","","A",7.00124562206948,13
"14","5a51ba7676d1c60001aaa660","icebox","calibrator_val_no_feedback","Valence","VC",1737994369886,"positive",953,"A","positive;negative","","A",6.8596149036542,14
"15","5a51ba7676d1c60001aaa660","jail","calibrator_val_no_feedback","Valence","VC",1737994371357,"negative",712,"A","positive;negative","","A",6.56807791141198,15
"16","5a51ba7676d1c60001aaa660","insecure","calibrator_val_no_feedback","Valence","VC",1737994372945,"negative",826,"A","positive;negative","","A",6.71659477352098,16
"17","5a51ba7676d1c60001aaa660","industry","calibrator_val_no_feedback","Valence","VC",1737994374952,"negative",1246,"A","positive;negative","","A",7.1276936993474,17
"18","5a51ba7676d1c60001aaa660","joke","calibrator_val_no_feedback","Valence","VC",1737994376427,"positive",715,"A","positive;negative","","A",6.57228254269401,18
"19","5a51ba7676d1c60001aaa660","kitten","calibrator_val_no_feedback","Valence","VC",1737994377854,"positive",665,"A","positive;negative","","A",6.49978704065585,19
"20","5a51ba7676d1c60001aaa660","free","calibrator_val_no_feedback","Valence","VC",1737994379381,"positive",769,"A","positive;negative","","A",6.64509096950564,20
"21","5a51ba7676d1c60001aaa660","polite","calibrator_conc_feedback","Concrete","VC",1737994600905,"abstract",1084,"concrete","abstract","concrete;abstract","A",6.98841318199959,21
"22","5a51ba7676d1c60001aaa660","theory","calibrator_conc_feedback","Concrete","VC",1737994604708,"abstract",1036,"concrete","abstract","concrete;abstract","A",6.94312242281943,22
"23","5a51ba7676d1c60001aaa660","gas","calibrator_conc_feedback","Concrete","VC",1737994610251,"concrete",2775,"concrete","abstract","concrete;abstract","A",7.92840602618053,23
"24","5a51ba7676d1c60001aaa660","grasshopper","calibrator_conc_feedback","Concrete","VC",1737994613896,"concrete",878,"concrete","abstract","concrete;abstract","A",6.77764659363512,24
"25","5a51ba7676d1c60001aaa660","kick","calibrator_conc_feedback","Concrete","VC",1737994617473,"concrete",812,"concrete","abstract","concrete;abstract","A",6.69950034016168,25
"26","5a51ba7676d1c60001aaa660","whistle","calibrator_conc_feedback","Concrete","VC",1737994620795,"abstract",557,"concrete","abstract","concrete;abstract","A",6.32256523992728,26
"27","5a51ba7676d1c60001aaa660","marriage","calibrator_conc_feedback","Concrete","VC",1737994626548,"abstract",2989,"concrete","abstract","concrete;abstract","A",8.00269416228394,27
"28","5a51ba7676d1c60001aaa660","insecure","calibrator_conc_feedback","Concrete","VC",1737994631020,"abstract",1705,"concrete","abstract","concrete;abstract","A",7.44132038971762,28
"29","5a51ba7676d1c60001aaa660","shirt","calibrator_conc_feedback","Concrete","VC",1737994634436,"concrete",651,"concrete","abstract","concrete;abstract","A",6.47850964220857,29
"30","5a51ba7676d1c60001aaa660","sugar","calibrator_conc_feedback","Concrete","VC",1737994638058,"concrete",858,"concrete","abstract","concrete;abstract","A",6.75460409948796,30
"31","5a51ba7676d1c60001aaa660","insecure","calibrator_conc_no_feedback","Concrete","VC",1737994641774,"abstract",951,"A","concrete;abstract","","A",6.85751406254539,31
"32","5a51ba7676d1c60001aaa660","theory","calibrator_conc_no_feedback","Concrete","VC",1737994643236,"abstract",703,"A","concrete;abstract","","A",6.55535689181067,32
"33","5a51ba7676d1c60001aaa660","whistle","calibrator_conc_no_feedback","Concrete","VC",1737994644871,"abstract",877,"A","concrete;abstract","","A",6.77650699237218,33
"34","5a51ba7676d1c60001aaa660","marriage","calibrator_conc_no_feedback","Concrete","VC",1737994646336,"abstract",705,"A","concrete;abstract","","A",6.55819780281227,34
"35","5a51ba7676d1c60001aaa660","kick","calibrator_conc_no_feedback","Concrete","VC",1737994647642,"concrete",545,"A","concrete;abstract","","A",6.30078579466324,35
"36","5a51ba7676d1c60001aaa660","gas","calibrator_conc_no_feedback","Concrete","VC",1737994649380,"concrete",977,"A","concrete;abstract","","A",6.88448665204278,36
"37","5a51ba7676d1c60001aaa660","shirt","calibrator_conc_no_feedback","Concrete","VC",1737994650805,"concrete",666,"A","concrete;abstract","","A",6.50128967054039,37
"38","5a51ba7676d1c60001aaa660","grasshopper","calibrator_conc_no_feedback","Concrete","VC",1737994652180,"concrete",615,"A","concrete;abstract","","A",6.42162226780652,38
"39","5a51ba7676d1c60001aaa660","sugar","calibrator_conc_no_feedback","Concrete","VC",1737994653535,"concrete",595,"A","concrete;abstract","","A",6.38856140554563,39
"40","5a51ba7676d1c60001aaa660","polite","calibrator_conc_no_feedback","Concrete","VC",1737994655016,"abstract",725,"A","concrete;abstract","","A",6.58617165485467,40
"41","5dcd91a0b7ebf606d16c971e","shirt","calibrator_conc_feedback","Concrete","CV",1742906471082,"concrete",1083,"concrete","abstract","concrete;abstract","A",6.98749024700099,1
"42","5dcd91a0b7ebf606d16c971e","theory","calibrator_conc_feedback","Concrete","CV",1742906475089,"abstract",1248,"concrete","abstract","concrete;abstract","A",7.12929754892937,2
"43","5dcd91a0b7ebf606d16c971e","kick","calibrator_conc_feedback","Concrete","CV",1742906480034,"concrete",2186,"concrete","abstract","concrete;abstract","A",7.68982866873648,3
"44","5dcd91a0b7ebf606d16c971e","gas","calibrator_conc_feedback","Concrete","CV",1742906483370,"concrete",574,"concrete","abstract","concrete;abstract","A",6.35262939631957,4
"45","5dcd91a0b7ebf606d16c971e","polite","calibrator_conc_feedback","Concrete","CV",1742906486802,"abstract",674,"concrete","abstract","concrete;abstract","A",6.51323011091231,5
"46","5dcd91a0b7ebf606d16c971e","marriage","calibrator_conc_feedback","Concrete","CV",1742906490762,"concrete",1202,"concrete","abstract","concrete;abstract","A",7.09174211509515,6
"47","5dcd91a0b7ebf606d16c971e","whistle","calibrator_conc_feedback","Concrete","CV",1742906494386,"concrete",865,"concrete","abstract","concrete;abstract","A",6.76272950693188,7
"48","5dcd91a0b7ebf606d16c971e","sugar","calibrator_conc_feedback","Concrete","CV",1742906497794,"concrete",651,"concrete","abstract","concrete;abstract","A",6.47850964220857,8
"49","5dcd91a0b7ebf606d16c971e","insecure","calibrator_conc_feedback","Concrete","CV",1742906501450,"abstract",897,"concrete","abstract","concrete;abstract","A",6.7990558620588,9
"50","5dcd91a0b7ebf606d16c971e","grasshopper","calibrator_conc_feedback","Concrete","CV",1742906504938,"concrete",729,"concrete","abstract","concrete;abstract","A",6.59167373200866,10
"51","5dcd91a0b7ebf606d16c971e","insecure","calibrator_conc_no_feedback","Concrete","CV",1742906508730,"abstract",1033,"A","concrete;abstract","","A",6.94022246911964,11
"52","5dcd91a0b7ebf606d16c971e","shirt","calibrator_conc_no_feedback","Concrete","CV",1742906510418,"concrete",931,"A","concrete;abstract","","A",6.83625927727707,12
"53","5dcd91a0b7ebf606d16c971e","kick","calibrator_conc_no_feedback","Concrete","CV",1742906511850,"concrete",673,"A","concrete;abstract","","A",6.51174532964473,13
"54","5dcd91a0b7ebf606d16c971e","gas","calibrator_conc_no_feedback","Concrete","CV",1742906513186,"concrete",574,"A","concrete;abstract","","A",6.35262939631957,14
"55","5dcd91a0b7ebf606d16c971e","grasshopper","calibrator_conc_no_feedback","Concrete","CV",1742906514554,"concrete",610,"A","concrete;abstract","","A",6.41345895716736,15
"56","5dcd91a0b7ebf606d16c971e","sugar","calibrator_conc_no_feedback","Concrete","CV",1742906515962,"concrete",654,"A","concrete;abstract","","A",6.4831073514572,16
"57","5dcd91a0b7ebf606d16c971e","marriage","calibrator_conc_no_feedback","Concrete","CV",1742906517746,"concrete",1028,"A","concrete;abstract","","A",6.93537044601511,17
"58","5dcd91a0b7ebf606d16c971e","polite","calibrator_conc_no_feedback","Concrete","CV",1742906519538,"abstract",1037,"A","concrete;abstract","","A",6.94408720822953,18
"59","5dcd91a0b7ebf606d16c971e","whistle","calibrator_conc_no_feedback","Concrete","CV",1742906520882,"concrete",588,"A","concrete;abstract","","A",6.37672694789863,19
"60","5dcd91a0b7ebf606d16c971e","theory","calibrator_conc_no_feedback","Concrete","CV",1742906522306,"abstract",670,"A","concrete;abstract","","A",6.50727771238501,20
"61","5dcd91a0b7ebf606d16c971e","industry","calibrator_val_feedback","Valence","CV",1742906911418,"positive",1659,"positive","negative","positive;negative","A",7.41397029019044,21
"62","5dcd91a0b7ebf606d16c971e","grin","calibrator_val_feedback","Valence","CV",1742906915242,"positive",1065,"positive","negative","positive;negative","A",6.97073007814353,22
"63","5dcd91a0b7ebf606d16c971e","insecure","calibrator_val_feedback","Valence","CV",1742906918723,"negative",723,"positive","negative","positive;negative","A",6.58340922215876,23
"64","5dcd91a0b7ebf606d16c971e","free","calibrator_val_feedback","Valence","CV",1742906922075,"positive",598,"positive","negative","positive;negative","A",6.39359075395063,24
"65","5dcd91a0b7ebf606d16c971e","icebox","calibrator_val_feedback","Valence","CV",1742906926330,"positive",1498,"positive","negative","positive;negative","A",7.31188616407716,25
"66","5dcd91a0b7ebf606d16c971e","invader","calibrator_val_feedback","Valence","CV",1742906930434,"negative",1350,"positive","negative","positive;negative","A",7.20785987143248,26
"67","5dcd91a0b7ebf606d16c971e","joke","calibrator_val_feedback","Valence","CV",1742906934507,"positive",1312,"positive","negative","positive;negative","A",7.17930796950403,27
"68","5dcd91a0b7ebf606d16c971e","jail","calibrator_val_feedback","Valence","CV",1742906938123,"negative",857,"positive","negative","positive;negative","A",6.75343791859778,28
"69","5dcd91a0b7ebf606d16c971e","hat","calibrator_val_feedback","Valence","CV",1742906943122,"positive",2242,"positive","negative","positive;negative","A",7.71512360363211,29
"70","5dcd91a0b7ebf606d16c971e","kitten","calibrator_val_feedback","Valence","CV",1742906946706,"positive",828,"positive","negative","positive;negative","A",6.71901315438526,30
"71","5dcd91a0b7ebf606d16c971e","hat","calibrator_val_no_feedback","Valence","CV",1742906950491,"negative",1025,"A","positive;negative","","A",6.93244789157251,31
"72","5dcd91a0b7ebf606d16c971e","industry","calibrator_val_no_feedback","Valence","CV",1742906954339,"positive",3096,"A","positive;negative","","A",8.03786623470962,32
"73","5dcd91a0b7ebf606d16c971e","icebox","calibrator_val_no_feedback","Valence","CV",1742906956402,"negative",1308,"A","positive;negative","","A",7.17625453201714,33
"74","5dcd91a0b7ebf606d16c971e","free","calibrator_val_no_feedback","Valence","CV",1742906958122,"positive",962,"A","positive;negative","","A",6.86901445066571,34
"75","5dcd91a0b7ebf606d16c971e","jail","calibrator_val_no_feedback","Valence","CV",1742906959466,"negative",588,"A","positive;negative","","A",6.37672694789863,35
"76","5dcd91a0b7ebf606d16c971e","invader","calibrator_val_no_feedback","Valence","CV",1742906960978,"negative",754,"A","positive;negative","","A",6.62539236800796,36
"77","5dcd91a0b7ebf606d16c971e","joke","calibrator_val_no_feedback","Valence","CV",1742906962394,"positive",659,"A","positive;negative","","A",6.49072353450251,37
"78","5dcd91a0b7ebf606d16c971e","insecure","calibrator_val_no_feedback","Valence","CV",1742906963778,"negative",626,"A","positive;negative","","A",6.4393503711001,38
"79","5dcd91a0b7ebf606d16c971e","grin","calibrator_val_no_feedback","Valence","CV",1742906965146,"positive",615,"A","positive;negative","","A",6.42162226780652,39
"80","5dcd91a0b7ebf606d16c971e","kitten","calibrator_val_no_feedback","Valence","CV",1742906966602,"positive",700,"A","positive;negative","","A",6.5510803350434,40
"81","63b9d3abc3ddc61c8c08fd84","insecure","calibrator_val_feedback","Valence","VC",1738004853742,"negative",3127,"negative","positive","negative;positive","B",8.04782935745784,1
"82","63b9d3abc3ddc61c8c08fd84","jail","calibrator_val_feedback","Valence","VC",1738004857543,"negative",1037,"negative","positive","negative;positive","B",6.94408720822953,2
"83","63b9d3abc3ddc61c8c08fd84","icebox","calibrator_val_feedback","Valence","VC",1738004861896,"positive",1559,"negative","positive","negative;positive","B",7.35179986905778,3
"84","63b9d3abc3ddc61c8c08fd84","joke","calibrator_val_feedback","Valence","VC",1738004865630,"positive",943,"negative","positive","negative;positive","B",6.84906628263346,4
"85","63b9d3abc3ddc61c8c08fd84","kitten","calibrator_val_feedback","Valence","VC",1738004869255,"positive",852,"negative","positive","negative;positive","B",6.74758652682932,5
"86","63b9d3abc3ddc61c8c08fd84","grin","calibrator_val_feedback","Valence","VC",1738004872886,"positive",845,"negative","positive","negative;positive","B",6.73933662735717,6
"87","63b9d3abc3ddc61c8c08fd84","hat","calibrator_val_feedback","Valence","VC",1738004877158,"positive",1492,"negative","positive","negative;positive","B",7.30787278076371,7
"88","63b9d3abc3ddc61c8c08fd84","free","calibrator_val_feedback","Valence","VC",1738004880866,"positive",939,"negative","positive","negative;positive","B",6.84481547920826,8
"89","63b9d3abc3ddc61c8c08fd84","industry","calibrator_val_feedback","Valence","VC",1738004884747,"positive",1098,"negative","positive","negative;positive","B",7.00124562206948,9
"90","63b9d3abc3ddc61c8c08fd84","invader","calibrator_val_feedback","Valence","VC",1738004890624,"negative",1351,"negative","positive","negative;positive","B",7.2086003379602,10
"91","63b9d3abc3ddc61c8c08fd84","jail","calibrator_val_no_feedback","Valence","VC",1738004892514,"negative",846,"A","negative;positive","","B",6.74051935960622,11
"92","63b9d3abc3ddc61c8c08fd84","icebox","calibrator_val_no_feedback","Valence","VC",1738004894455,"positive",1176,"A","negative;positive","","B",7.06987412845857,12
"93","63b9d3abc3ddc61c8c08fd84","hat","calibrator_val_no_feedback","Valence","VC",1738004896821,"positive",1606,"A","negative;positive","","B",7.38150189450671,13
"94","63b9d3abc3ddc61c8c08fd84","insecure","calibrator_val_no_feedback","Valence","VC",1738004898515,"negative",933,"A","negative;positive","","B",6.83840520084734,14
"95","63b9d3abc3ddc61c8c08fd84","free","calibrator_val_no_feedback","Valence","VC",1738004900334,"negative",1036,"A","negative;positive","","B",6.94312242281943,15
"96","63b9d3abc3ddc61c8c08fd84","kitten","calibrator_val_no_feedback","Valence","VC",1738004902189,"positive",1088,"A","negative;positive","","B",6.99209642741589,16
"97","63b9d3abc3ddc61c8c08fd84","grin","calibrator_val_no_feedback","Valence","VC",1738004903947,"positive",1003,"A","negative;positive","","B",6.91075078796194,17
"98","63b9d3abc3ddc61c8c08fd84","joke","calibrator_val_no_feedback","Valence","VC",1738004905563,"positive",841,"A","negative;positive","","B",6.73459165997295,18
"99","63b9d3abc3ddc61c8c08fd84","industry","calibrator_val_no_feedback","Valence","VC",1738004907441,"positive",1108,"A","negative;positive","","B",7.01031186730723,19
"100","63b9d3abc3ddc61c8c08fd84","invader","calibrator_val_no_feedback","Valence","VC",1738004909197,"negative",990,"A","negative;positive","","B",6.89770494312864,20
"101","63b9d3abc3ddc61c8c08fd84","gas","calibrator_conc_feedback","Concrete","VC",1738005133045,"abstract",2192,"abstract","concrete","abstract;concrete","B",7.69256964806791,21
"102","63b9d3abc3ddc61c8c08fd84","sugar","calibrator_conc_feedback","Concrete","VC",1738005137478,"concrete",1182,"abstract","concrete","abstract;concrete","B",7.07496319796604,22
"103","63b9d3abc3ddc61c8c08fd84","grasshopper","calibrator_conc_feedback","Concrete","VC",1738005141132,"concrete",1077,"abstract","concrete","abstract;concrete","B",6.98193467715639,23
"104","63b9d3abc3ddc61c8c08fd84","theory","calibrator_conc_feedback","Concrete","VC",1738005144760,"abstract",1079,"abstract","concrete","abstract;concrete","B",6.98378996525813,24
"105","63b9d3abc3ddc61c8c08fd84","polite","calibrator_conc_feedback","Concrete","VC",1738005147987,"abstract",1269,"abstract","concrete","abstract;concrete","B",7.14598446771439,25
"106","63b9d3abc3ddc61c8c08fd84","marriage","calibrator_conc_feedback","Concrete","VC",1738005152526,"abstract",1963,"abstract","concrete","abstract;concrete","B",7.58222919427646,26
"107","63b9d3abc3ddc61c8c08fd84","insecure","calibrator_conc_feedback","Concrete","VC",1738005156844,"abstract",1110,"abstract","concrete","abstract;concrete","B",7.01211529430638,27
"108","63b9d3abc3ddc61c8c08fd84","whistle","calibrator_conc_feedback","Concrete","VC",1738005161161,"concrete",1362,"abstract","concrete","abstract;concrete","B",7.21670948670946,28
"109","63b9d3abc3ddc61c8c08fd84","shirt","calibrator_conc_feedback","Concrete","VC",1738005164664,"concrete",820,"abstract","concrete","abstract;concrete","B",6.7093043402583,29
"110","63b9d3abc3ddc61c8c08fd84","kick","calibrator_conc_feedback","Concrete","VC",1738005169281,"concrete",1573,"abstract","concrete","abstract;concrete","B",7.36073990305828,30
"111","63b9d3abc3ddc61c8c08fd84","sugar","calibrator_conc_no_feedback","Concrete","VC",1738005171426,"concrete",694,"A","abstract;concrete","","B",6.5424719605068,31
"112","63b9d3abc3ddc61c8c08fd84","marriage","calibrator_conc_no_feedback","Concrete","VC",1738005173209,"abstract",1018,"A","abstract;concrete","","B",6.92559519711047,32
"113","63b9d3abc3ddc61c8c08fd84","kick","calibrator_conc_no_feedback","Concrete","VC",1738005174682,"concrete",712,"A","abstract;concrete","","B",6.56807791141198,33
"114","63b9d3abc3ddc61c8c08fd84","polite","calibrator_conc_no_feedback","Concrete","VC",1738005176570,"abstract",1118,"A","abstract;concrete","","B",7.01929665371504,34
"115","63b9d3abc3ddc61c8c08fd84","insecure","calibrator_conc_no_feedback","Concrete","VC",1738005178334,"abstract",996,"A","abstract;concrete","","B",6.9037472575846,35
"116","63b9d3abc3ddc61c8c08fd84","whistle","calibrator_conc_no_feedback","Concrete","VC",1738005179954,"concrete",855,"A","abstract;concrete","","B",6.75110146893676,36
"117","63b9d3abc3ddc61c8c08fd84","grasshopper","calibrator_conc_no_feedback","Concrete","VC",1738005181307,"concrete",596,"A","abstract;concrete","","B",6.39024066706535,37
"118","63b9d3abc3ddc61c8c08fd84","theory","calibrator_conc_no_feedback","Concrete","VC",1738005183271,"abstract",1185,"A","abstract;concrete","","B",7.07749805356923,38
"119","63b9d3abc3ddc61c8c08fd84","shirt","calibrator_conc_no_feedback","Concrete","VC",1738005184875,"concrete",826,"A","abstract;concrete","","B",6.71659477352098,39
"120","63b9d3abc3ddc61c8c08fd84","gas","calibrator_conc_no_feedback","Concrete","VC",1738005186550,"abstract",917,"A","abstract;concrete","","B",6.82110747225646,40
"121","60c382725a7a55abef2e8e99","joke","calibrator_val_feedback","Valence","VC",1737993374971,"positive",1103,"positive","negative","positive;negative","A",7.0057890192535,1
"122","60c382725a7a55abef2e8e99","invader","calibrator_val_feedback","Valence","VC",1737993377514,"negative",1058,"positive","negative","positive;negative","A",6.96413561241824,2
"123","60c382725a7a55abef2e8e99","kitten","calibrator_val_feedback","Valence","VC",1737993381896,"positive",731,"positive","negative","positive;negative","A",6.59441345974978,3
"124","60c382725a7a55abef2e8e99","insecure","calibrator_val_feedback","Valence","VC",1737993386122,"negative",1278,"positive","negative","positive;negative","A",7.15305163493748,4
"125","60c382725a7a55abef2e8e99","hat","calibrator_val_feedback","Valence","VC",1737993388924,"positive",1111,"positive","negative","positive;negative","A",7.01301578963963,5
"126","60c382725a7a55abef2e8e99","grin","calibrator_val_feedback","Valence","VC",1737993392720,"positive",1030,"positive","negative","positive;negative","A",6.93731408122368,6
"127","60c382725a7a55abef2e8e99","icebox","calibrator_val_feedback","Valence","VC",1737993397123,"negative",1642,"positive","negative","positive;negative","A",7.40367029001237,7
"128","60c382725a7a55abef2e8e99","free","calibrator_val_feedback","Valence","VC",1737993400772,"positive",884,"positive","negative","positive;negative","A",6.78445706263764,8
"129","60c382725a7a55abef2e8e99","jail","calibrator_val_feedback","Valence","VC",1737993404197,"negative",662,"positive","negative","positive;negative","A",6.49526555593701,9
"130","60c382725a7a55abef2e8e99","industry","calibrator_val_feedback","Valence","VC",1737993408199,"negative",1241,"positive","negative","positive;negative","A",7.12367278520461,10
"131","60c382725a7a55abef2e8e99","joke","calibrator_val_no_feedback","Valence","VC",1737993411640,"positive",675,"A","positive;negative","","A",6.51471269087253,11
"132","60c382725a7a55abef2e8e99","jail","calibrator_val_no_feedback","Valence","VC",1737993413137,"negative",737,"A","positive;negative","","A",6.60258789218934,12
"133","60c382725a7a55abef2e8e99","insecure","calibrator_val_no_feedback","Valence","VC",1737993414574,"negative",678,"A","positive;negative","","A",6.5191472879404,13
"134","60c382725a7a55abef2e8e99","icebox","calibrator_val_no_feedback","Valence","VC",1737993416258,"negative",923,"A","positive;negative","","A",6.82762923450285,14
"135","60c382725a7a55abef2e8e99","grin","calibrator_val_no_feedback","Valence","VC",1737993417624,"positive",607,"A","positive;negative","","A",6.4085287910595,15
"136","60c382725a7a55abef2e8e99","industry","calibrator_val_no_feedback","Valence","VC",1737993419204,"negative",822,"A","positive;negative","","A",6.71174039505618,16
"137","60c382725a7a55abef2e8e99","kitten","calibrator_val_no_feedback","Valence","VC",1737993420576,"positive",613,"A","positive;negative","","A",6.41836493593621,17
"138","60c382725a7a55abef2e8e99","free","calibrator_val_no_feedback","Valence","VC",1737993422055,"positive",720,"A","positive;negative","","A",6.5792512120101,18
"139","60c382725a7a55abef2e8e99","hat","calibrator_val_no_feedback","Valence","VC",1737993423446,"positive",634,"A","positive;negative","","A",6.45204895443723,19
"140","60c382725a7a55abef2e8e99","invader","calibrator_val_no_feedback","Valence","VC",1737993424826,"negative",619,"A","positive;negative","","A",6.4281052726846,20
"141","60c382725a7a55abef2e8e99","gas","calibrator_conc_feedback","Concrete","VC",1737993818378,"concrete",1254,"concrete","abstract","concrete;abstract","A",7.13409372119287,21
"142","60c382725a7a55abef2e8e99","sugar","calibrator_conc_feedback","Concrete","VC",1737993821189,"concrete",915,"concrete","abstract","concrete;abstract","A",6.81892406527552,22
"143","60c382725a7a55abef2e8e99","grasshopper","calibrator_conc_feedback","Concrete","VC",1737993825828,"concrete",740,"concrete","abstract","concrete;abstract","A",6.60665018619822,23
"144","60c382725a7a55abef2e8e99","whistle","calibrator_conc_feedback","Concrete","VC",1737993828258,"concrete",803,"concrete","abstract","concrete;abstract","A",6.68835471394676,24
"145","60c382725a7a55abef2e8e99","marriage","calibrator_conc_feedback","Concrete","VC",1737993833903,"concrete",1723,"concrete","abstract","concrete;abstract","A",7.45182223652793,25
"146","60c382725a7a55abef2e8e99","insecure","calibrator_conc_feedback","Concrete","VC",1737993836774,"abstract",1275,"concrete","abstract","concrete;abstract","A",7.15070145759253,26
"147","60c382725a7a55abef2e8e99","theory","calibrator_conc_feedback","Concrete","VC",1737993840204,"abstract",662,"concrete","abstract","concrete;abstract","A",6.49526555593701,27
"148","60c382725a7a55abef2e8e99","kick","calibrator_conc_feedback","Concrete","VC",1737993844353,"concrete",1390,"concrete","abstract","concrete;abstract","A",7.23705902612474,28
"149","60c382725a7a55abef2e8e99","polite","calibrator_conc_feedback","Concrete","VC",1737993848447,"abstract",1335,"concrete","abstract","concrete;abstract","A",7.19668657083435,29
"150","60c382725a7a55abef2e8e99","shirt","calibrator_conc_feedback","Concrete","VC",1737993851945,"concrete",742,"concrete","abstract","concrete;abstract","A",6.60934924316738,30
"151","60c382725a7a55abef2e8e99","sugar","calibrator_conc_no_feedback","Concrete","VC",1737993855385,"concrete",677,"A","concrete;abstract","","A",6.51767127291227,31
"152","60c382725a7a55abef2e8e99","kick","calibrator_conc_no_feedback","Concrete","VC",1737993857113,"concrete",973,"A","concrete;abstract","","A",6.880384082186,32
"153","60c382725a7a55abef2e8e99","gas","calibrator_conc_no_feedback","Concrete","VC",1737993858880,"concrete",1006,"A","concrete;abstract","","A",6.91373735065968,33
"154","60c382725a7a55abef2e8e99","polite","calibrator_conc_no_feedback","Concrete","VC",1737993860564,"abstract",924,"A","concrete;abstract","","A",6.82871207164168,34
"155","60c382725a7a55abef2e8e99","theory","calibrator_conc_no_feedback","Concrete","VC",1737993861949,"abstract",623,"A","concrete;abstract","","A",6.43454651878745,35
"156","60c382725a7a55abef2e8e99","marriage","calibrator_conc_no_feedback","Concrete","VC",1737993864380,"concrete",1672,"A","concrete;abstract","","A",7.42177579364465,36
"157","60c382725a7a55abef2e8e99","grasshopper","calibrator_conc_no_feedback","Concrete","VC",1737993865743,"concrete",604,"A","concrete;abstract","","A",6.40357419793482,37
"158","60c382725a7a55abef2e8e99","insecure","calibrator_conc_no_feedback","Concrete","VC",1737993867274,"abstract",770,"A","concrete;abstract","","A",6.64639051484773,38
"159","60c382725a7a55abef2e8e99","whistle","calibrator_conc_no_feedback","Concrete","VC",1737993868822,"concrete",791,"A","concrete;abstract","","A",6.67329796776765,39
"160","60c382725a7a55abef2e8e99","shirt","calibrator_conc_no_feedback","Concrete","VC",1737993870440,"concrete",857,"A","concrete;abstract","","A",6.75343791859778,40
"161","63bf40687b33e43442effb9b","sugar","calibrator_conc_feedback","Concrete","CV",1742909185002,"abstract",295,"concrete","abstract","concrete;abstract","A",5.68697535633982,1
"162","63bf40687b33e43442effb9b","shirt","calibrator_conc_feedback","Concrete","CV",1742909187790,"abstract",409,"concrete","abstract","concrete;abstract","A",6.0137151560428,2
"163","63bf40687b33e43442effb9b","theory","calibrator_conc_feedback","Concrete","CV",1742909190855,"abstract",307,"concrete","abstract","concrete;abstract","A",5.7268477475872,3
"164","63bf40687b33e43442effb9b","marriage","calibrator_conc_feedback","Concrete","CV",1742909194002,"abstract",370,"concrete","abstract","concrete;abstract","A",5.91350300563827,4
"165","63bf40687b33e43442effb9b","grasshopper","calibrator_conc_feedback","Concrete","CV",1742909197111,"abstract",371,"concrete","abstract","concrete;abstract","A",5.91620206260743,5
"166","63bf40687b33e43442effb9b","gas","calibrator_conc_feedback","Concrete","CV",1742909200519,"abstract",649,"concrete","abstract","concrete;abstract","A",6.47543271670409,6
"167","63bf40687b33e43442effb9b","whistle","calibrator_conc_feedback","Concrete","CV",1742909203720,"abstract",442,"concrete","abstract","concrete;abstract","A",6.0913098820777,7
"168","63bf40687b33e43442effb9b","insecure","calibrator_conc_feedback","Concrete","CV",1742909206751,"abstract",271,"concrete","abstract","concrete;abstract","A",5.6021188208797,8
"169","63bf40687b33e43442effb9b","polite","calibrator_conc_feedback","Concrete","CV",1742909209781,"concrete",271,"concrete","abstract","concrete;abstract","A",5.6021188208797,9
"170","63bf40687b33e43442effb9b","kick","calibrator_conc_feedback","Concrete","CV",1742909213760,"concrete",1218,"concrete","abstract","concrete;abstract","A",7.10496544826984,10
"171","63bf40687b33e43442effb9b","shirt","calibrator_conc_no_feedback","Concrete","CV",1742909216757,"concrete",241,"A","concrete;abstract","","A",5.48479693349065,11
"172","63bf40687b33e43442effb9b","marriage","calibrator_conc_no_feedback","Concrete","CV",1742909217853,"concrete",339,"A","concrete;abstract","","A",5.82600010738045,12
"173","63bf40687b33e43442effb9b","kick","calibrator_conc_no_feedback","Concrete","CV",1742909218877,"concrete",268,"A","concrete;abstract","","A",5.59098698051086,13
"174","63bf40687b33e43442effb9b","sugar","calibrator_conc_no_feedback","Concrete","CV",1742909219803,"concrete",169,"A","concrete;abstract","","A",5.12989871492307,14
"175","63bf40687b33e43442effb9b","grasshopper","calibrator_conc_no_feedback","Concrete","CV",1742909220741,"concrete",184,"A","concrete;abstract","","A",5.21493575760899,15
"176","63bf40687b33e43442effb9b","whistle","calibrator_conc_no_feedback","Concrete","CV",1742909221619,"concrete",121,"A","concrete;abstract","","A",4.79579054559674,16
"177","63bf40687b33e43442effb9b","gas","calibrator_conc_no_feedback","Concrete","CV",1742909222453,"concrete",75,"A","concrete;abstract","","A",4.31748811353631,17
"178","63bf40687b33e43442effb9b","theory","calibrator_conc_no_feedback","Concrete","CV",1742909223243,"concrete",29,"A","concrete;abstract","","A",3.36729582998647,18
"179","63bf40687b33e43442effb9b","insecure","calibrator_conc_no_feedback","Concrete","CV",1742909224013,"concrete",13,"A","concrete;abstract","","A",2.56494935746154,19
"180","63bf40687b33e43442effb9b","polite","calibrator_conc_no_feedback","Concrete","CV",1742909224930,"concrete",164,"A","concrete;abstract","","A",5.0998664278242,20
"181","63bf40687b33e43442effb9b","kitten","calibrator_val_feedback","Valence","CV",1742909644907,"negative",72,"positive","negative","positive;negative","A",4.27666611901606,21
"182","63bf40687b33e43442effb9b","insecure","calibrator_val_feedback","Valence","CV",1742909647579,"negative",120,"positive","negative","positive;negative","A",4.78749174278205,22
"183","63bf40687b33e43442effb9b","grin","calibrator_val_feedback","Valence","CV",1742909649010,"negative",156,"positive","negative","positive;negative","A",5.04985600724954,23
"184","63bf40687b33e43442effb9b","jail","calibrator_val_feedback","Valence","CV",1742909652409,"negative",545,"positive","negative","positive;negative","A",6.30078579466324,24
"185","63bf40687b33e43442effb9b","joke","calibrator_val_feedback","Valence","CV",1742909655522,"negative",137,"positive","negative","positive;negative","A",4.91998092582813,25
"186","63bf40687b33e43442effb9b","icebox","calibrator_val_feedback","Valence","CV",1742909657912,"negative",228,"positive","negative","positive;negative","A",5.42934562895444,26
"187","63bf40687b33e43442effb9b","invader","calibrator_val_feedback","Valence","CV",1742909660913,"negative",217,"positive","negative","positive;negative","A",5.37989735354046,27
"188","63bf40687b33e43442effb9b","free","calibrator_val_feedback","Valence","CV",1742909664082,"negative",409,"positive","negative","positive;negative","A",6.0137151560428,28
"189","63bf40687b33e43442effb9b","industry","calibrator_val_feedback","Valence","CV",1742909667885,"positive",1059,"positive","negative","positive;negative","A",6.96508034560141,29
"190","63bf40687b33e43442effb9b","hat","calibrator_val_feedback","Valence","CV",1742909673717,"negative",1213,"positive","negative","positive;negative","A",7.10085190894405,30
"191","63bf40687b33e43442effb9b","joke","calibrator_val_no_feedback","Valence","CV",1742909674788,"positive",167,"A","positive;negative","","A",5.11799381241676,31
"192","63bf40687b33e43442effb9b","grin","calibrator_val_no_feedback","Valence","CV",1742909675715,"negative",170,"A","positive;negative","","A",5.13579843705026,32
"193","63bf40687b33e43442effb9b","insecure","calibrator_val_no_feedback","Valence","CV",1742909676602,"positive",130,"A","positive;negative","","A",4.86753445045558,33
"194","63bf40687b33e43442effb9b","invader","calibrator_val_no_feedback","Valence","CV",1742909677516,"positive",153,"A","positive;negative","","A",5.03043792139244,34
"195","63bf40687b33e43442effb9b","industry","calibrator_val_no_feedback","Valence","CV",1742909678419,"positive",146,"A","positive;negative","","A",4.98360662170834,35
"196","63bf40687b33e43442effb9b","free","calibrator_val_no_feedback","Valence","CV",1742909679339,"positive",162,"A","positive;negative","","A",5.08759633523238,36
"197","63bf40687b33e43442effb9b","kitten","calibrator_val_no_feedback","Valence","CV",1742909680261,"positive",167,"A","positive;negative","","A",5.11799381241676,37
"198","63bf40687b33e43442effb9b","hat","calibrator_val_no_feedback","Valence","CV",1742909681027,"positive",8,"A","positive;negative","","A",2.07944154167984,38
"199","63bf40687b33e43442effb9b","icebox","calibrator_val_no_feedback","Valence","CV",1742909681955,"positive",170,"A","positive;negative","","A",5.13579843705026,39
"200","63bf40687b33e43442effb9b","jail","calibrator_val_no_feedback","Valence","CV",1742909682723,"positive",10,"A","positive;negative","","A",2.30258509299405,40
"201","62bdeb6839de2a6585202286","insecure","calibrator_conc_feedback","Concrete","CV",1738015016202,"abstract",2994,"abstract","concrete","abstract;concrete","B",8.00436556497957,1
"202","62bdeb6839de2a6585202286","theory","calibrator_conc_feedback","Concrete","CV",1738015020752,"abstract",1776,"abstract","concrete","abstract;concrete","B",7.48211892355212,2
"203","62bdeb6839de2a6585202286","marriage","calibrator_conc_feedback","Concrete","CV",1738015024945,"abstract",1422,"abstract","concrete","abstract;concrete","B",7.25981961036319,3
"204","62bdeb6839de2a6585202286","gas","calibrator_conc_feedback","Concrete","CV",1738015028745,"concrete",1032,"abstract","concrete","abstract;concrete","B",6.93925394604151,4
"205","62bdeb6839de2a6585202286","whistle","calibrator_conc_feedback","Concrete","CV",1738015032826,"concrete",1311,"abstract","concrete","abstract;concrete","B",7.1785454837637,5
"206","62bdeb6839de2a6585202286","shirt","calibrator_conc_feedback","Concrete","CV",1738015036818,"concrete",1225,"abstract","concrete","abstract;concrete","B",7.11069612297883,6
"207","62bdeb6839de2a6585202286","kick","calibrator_conc_feedback","Concrete","CV",1738015040793,"concrete",1210,"abstract","concrete","abstract;concrete","B",7.09837563859079,7
"208","62bdeb6839de2a6585202286","sugar","calibrator_conc_feedback","Concrete","CV",1738015044587,"concrete",1031,"abstract","concrete","abstract;concrete","B",6.93828448401696,8
"209","62bdeb6839de2a6585202286","polite","calibrator_conc_feedback","Concrete","CV",1738015048386,"abstract",1035,"abstract","concrete","abstract;concrete","B",6.94215670569947,9
"210","62bdeb6839de2a6585202286","grasshopper","calibrator_conc_feedback","Concrete","CV",1738015052201,"concrete",1050,"abstract","concrete","abstract;concrete","B",6.95654544315157,10
"211","62bdeb6839de2a6585202286","kick","calibrator_conc_no_feedback","Concrete","CV",1738015055698,"concrete",731,"A","abstract;concrete","","B",6.59441345974978,11
"212","62bdeb6839de2a6585202286","theory","calibrator_conc_no_feedback","Concrete","CV",1738015057298,"abstract",839,"A","abstract;concrete","","B",6.73221070646721,12
"213","62bdeb6839de2a6585202286","grasshopper","calibrator_conc_no_feedback","Concrete","CV",1738015058858,"concrete",796,"A","abstract;concrete","","B",6.67959918584438,13
"214","62bdeb6839de2a6585202286","marriage","calibrator_conc_no_feedback","Concrete","CV",1738015060450,"abstract",830,"A","abstract;concrete","","B",6.72142570079064,14
"215","62bdeb6839de2a6585202286","shirt","calibrator_conc_no_feedback","Concrete","CV",1738015061978,"concrete",765,"A","abstract;concrete","","B",6.63987583382654,15
"216","62bdeb6839de2a6585202286","sugar","calibrator_conc_no_feedback","Concrete","CV",1738015063530,"concrete",791,"A","abstract;concrete","","B",6.67329796776765,16
"217","62bdeb6839de2a6585202286","gas","calibrator_conc_no_feedback","Concrete","CV",1738015065099,"concrete",806,"A","abstract;concrete","","B",6.69208374250663,17
"218","62bdeb6839de2a6585202286","polite","calibrator_conc_no_feedback","Concrete","CV",1738015067331,"abstract",1470,"A","abstract;concrete","","B",7.29301767977278,18
"219","62bdeb6839de2a6585202286","whistle","calibrator_conc_no_feedback","Concrete","CV",1738015068899,"concrete",808,"A","abstract;concrete","","B",6.69456205852109,19
"220","62bdeb6839de2a6585202286","insecure","calibrator_conc_no_feedback","Concrete","CV",1738015071099,"abstract",1439,"A","abstract;concrete","","B",7.27170370688737,20
"221","62bdeb6839de2a6585202286","icebox","calibrator_val_feedback","Valence","CV",1738015402854,"positive",2009,"negative","positive","negative;positive","B",7.60539236481493,21
"222","62bdeb6839de2a6585202286","invader","calibrator_val_feedback","Valence","CV",1738015407062,"negative",1436,"negative","positive","negative;positive","B",7.26961674960817,22
"223","62bdeb6839de2a6585202286","kitten","calibrator_val_feedback","Valence","CV",1738015410726,"positive",898,"negative","positive","negative;positive","B",6.8001700683022,23
"224","62bdeb6839de2a6585202286","free","calibrator_val_feedback","Valence","CV",1738015414455,"positive",963,"negative","positive","negative;positive","B",6.87005341179813,24
"225","62bdeb6839de2a6585202286","hat","calibrator_val_feedback","Valence","CV",1738015418286,"positive",1065,"negative","positive","negative;positive","B",6.97073007814353,25
"226","62bdeb6839de2a6585202286","industry","calibrator_val_feedback","Valence","CV",1738015422326,"positive",1276,"negative","positive","negative;positive","B",7.15148546390474,26
"227","62bdeb6839de2a6585202286","jail","calibrator_val_feedback","Valence","CV",1738015425903,"negative",811,"negative","positive","negative;positive","B",6.69826805411541,27
"228","62bdeb6839de2a6585202286","grin","calibrator_val_feedback","Valence","CV",1738015429943,"positive",1270,"negative","positive","negative;positive","B",7.14677217945264,28
"229","62bdeb6839de2a6585202286","joke","calibrator_val_feedback","Valence","CV",1738015433798,"positive",1094,"negative","positive","negative;positive","B",6.99759598298193,29
"230","62bdeb6839de2a6585202286","insecure","calibrator_val_feedback","Valence","CV",1738015437343,"negative",784,"negative","positive","negative;positive","B",6.66440902035041,30
"231","62bdeb6839de2a6585202286","grin","calibrator_val_no_feedback","Valence","CV",1738015441023,"positive",909,"A","negative;positive","","B",6.81234509417748,31
"232","62bdeb6839de2a6585202286","jail","calibrator_val_no_feedback","Valence","CV",1738015442911,"negative",1129,"A","negative;positive","","B",7.02908756414966,32
"233","62bdeb6839de2a6585202286","hat","calibrator_val_no_feedback","Valence","CV",1738015444775,"positive",1101,"A","negative;positive","","B",7.00397413672268,33
"234","62bdeb6839de2a6585202286","industry","calibrator_val_no_feedback","Valence","CV",1738015446743,"positive",1206,"A","negative;positive","","B",7.09506437728713,34
"235","62bdeb6839de2a6585202286","free","calibrator_val_no_feedback","Valence","CV",1738015448183,"positive",675,"A","negative;positive","","B",6.51471269087253,35
"236","62bdeb6839de2a6585202286","invader","calibrator_val_no_feedback","Valence","CV",1738015449655,"negative",710,"A","negative;positive","","B",6.56526497003536,36
"237","62bdeb6839de2a6585202286","icebox","calibrator_val_no_feedback","Valence","CV",1738015451295,"positive",878,"A","negative;positive","","B",6.77764659363512,37
"238","62bdeb6839de2a6585202286","kitten","calibrator_val_no_feedback","Valence","CV",1738015452807,"positive",749,"A","negative;positive","","B",6.61873898351722,38
"239","62bdeb6839de2a6585202286","insecure","calibrator_val_no_feedback","Valence","CV",1738015454303,"negative",738,"A","negative;positive","","B",6.60394382460047,39
"240","62bdeb6839de2a6585202286","joke","calibrator_val_no_feedback","Valence","CV",1738015455711,"positive",648,"A","negative;positive","","B",6.47389069635227,40
"241","5c7c73b6f48c6d0001f6f49c","kick","calibrator_conc_feedback","Concrete","CV",1742901092743,"concrete",2242,"abstract","concrete","abstract;concrete","B",7.71512360363211,1
"242","5c7c73b6f48c6d0001f6f49c","grasshopper","calibrator_conc_feedback","Concrete","CV",1742901095346,"concrete",1308,"abstract","concrete","abstract;concrete","B",7.17625453201714,2
"243","5c7c73b6f48c6d0001f6f49c","shirt","calibrator_conc_feedback","Concrete","CV",1742901099346,"concrete",1236,"abstract","concrete","abstract;concrete","B",7.11963563801764,3
"244","5c7c73b6f48c6d0001f6f49c","theory","calibrator_conc_feedback","Concrete","CV",1742901105953,"abstract",3844,"abstract","concrete","abstract;concrete","B",8.25426877009018,4
"245","5c7c73b6f48c6d0001f6f49c","whistle","calibrator_conc_feedback","Concrete","CV",1742901110704,"abstract",1990,"abstract","concrete","abstract;concrete","B",7.59588991771854,5
"246","5c7c73b6f48c6d0001f6f49c","insecure","calibrator_conc_feedback","Concrete","CV",1742901115483,"abstract",2019,"abstract","concrete","abstract;concrete","B",7.61035761831284,6
"247","5c7c73b6f48c6d0001f6f49c","polite","calibrator_conc_feedback","Concrete","CV",1742901119547,"abstract",1304,"abstract","concrete","abstract;concrete","B",7.1731917424866,7
"248","5c7c73b6f48c6d0001f6f49c","sugar","calibrator_conc_feedback","Concrete","CV",1742901123165,"concrete",856,"abstract","concrete","abstract;concrete","B",6.75227037614174,8
"249","5c7c73b6f48c6d0001f6f49c","marriage","calibrator_conc_feedback","Concrete","CV",1742901126949,"abstract",1020,"abstract","concrete","abstract;concrete","B",6.92755790627832,9
"250","5c7c73b6f48c6d0001f6f49c","gas","calibrator_conc_feedback","Concrete","CV",1742901131728,"concrete",2021,"abstract","concrete","abstract;concrete","B",7.61134771740362,10
"251","5c7c73b6f48c6d0001f6f49c","gas","calibrator_conc_no_feedback","Concrete","CV",1742901135282,"concrete",788,"B","abstract;concrete","","B",6.66949808985788,11
"252","5c7c73b6f48c6d0001f6f49c","marriage","calibrator_conc_no_feedback","Concrete","CV",1742901137585,"abstract",1547,"B","abstract;concrete","","B",7.34407285057307,12
"253","5c7c73b6f48c6d0001f6f49c","sugar","calibrator_conc_no_feedback","Concrete","CV",1742901140068,"concrete",1719,"B","abstract;concrete","","B",7.44949800538285,13
"254","5c7c73b6f48c6d0001f6f49c","whistle","calibrator_conc_no_feedback","Concrete","CV",1742901141515,"abstract",685,"B","abstract;concrete","","B",6.52941883826223,14
"255","5c7c73b6f48c6d0001f6f49c","polite","calibrator_conc_no_feedback","Concrete","CV",1742901143529,"abstract",1253,"B","abstract;concrete","","B",7.13329595489607,15
"256","5c7c73b6f48c6d0001f6f49c","insecure","calibrator_conc_no_feedback","Concrete","CV",1742901145568,"abstract",1276,"B","abstract;concrete","","B",7.15148546390474,16
"257","5c7c73b6f48c6d0001f6f49c","theory","calibrator_conc_no_feedback","Concrete","CV",1742901148281,"abstract",1950,"B","abstract;concrete","","B",7.57558465155779,17
"258","5c7c73b6f48c6d0001f6f49c","kick","calibrator_conc_no_feedback","Concrete","CV",1742901150020,"concrete",977,"B","abstract;concrete","","B",6.88448665204278,18
"259","5c7c73b6f48c6d0001f6f49c","grasshopper","calibrator_conc_no_feedback","Concrete","CV",1742901151401,"concrete",619,"B","abstract;concrete","","B",6.4281052726846,19
"260","5c7c73b6f48c6d0001f6f49c","shirt","calibrator_conc_no_feedback","Concrete","CV",1742901152848,"concrete",690,"B","abstract;concrete","","B",6.5366915975913,20
"261","5c7c73b6f48c6d0001f6f49c","jail","calibrator_val_feedback","Valence","CV",1742901487878,"negative",999,"negative","positive","negative;positive","B",6.90675477864855,21
"262","5c7c73b6f48c6d0001f6f49c","hat","calibrator_val_feedback","Valence","CV",1742901491767,"positive",1131,"negative","positive","negative;positive","B",7.03085747611612,22
"263","5c7c73b6f48c6d0001f6f49c","kitten","calibrator_val_feedback","Valence","CV",1742901495238,"positive",706,"negative","positive","negative;positive","B",6.55961523749324,23
"264","5c7c73b6f48c6d0001f6f49c","icebox","calibrator_val_feedback","Valence","CV",1742901499041,"negative",1044,"negative","positive","negative;positive","B",6.95081476844258,24
"265","5c7c73b6f48c6d0001f6f49c","joke","calibrator_val_feedback","Valence","CV",1742901502473,"positive",670,"negative","positive","negative;positive","B",6.50727771238501,25
"266","5c7c73b6f48c6d0001f6f49c","industry","calibrator_val_feedback","Valence","CV",1742901506615,"positive",1376,"negative","positive","negative;positive","B",7.22693601849329,26
"267","5c7c73b6f48c6d0001f6f49c","invader","calibrator_val_feedback","Valence","CV",1742901510693,"negative",1314,"negative","positive","negative;positive","B",7.18083119904456,27
"268","5c7c73b6f48c6d0001f6f49c","insecure","calibrator_val_feedback","Valence","CV",1742901514194,"negative",733,"negative","positive","negative;positive","B",6.59714570188665,28
"269","5c7c73b6f48c6d0001f6f49c","free","calibrator_val_feedback","Valence","CV",1742901517739,"positive",785,"negative","positive","negative;positive","B",6.66568371778241,29
"270","5c7c73b6f48c6d0001f6f49c","grin","calibrator_val_feedback","Valence","CV",1742901521315,"positive",813,"negative","positive","negative;positive","B",6.70073110954781,30
"271","5c7c73b6f48c6d0001f6f49c","industry","calibrator_val_no_feedback","Valence","CV",1742901525807,"positive",1731,"B","negative;positive","","B",7.45645455517621,31
"272","5c7c73b6f48c6d0001f6f49c","grin","calibrator_val_no_feedback","Valence","CV",1742901527358,"positive",788,"B","negative;positive","","B",6.66949808985788,32
"273","5c7c73b6f48c6d0001f6f49c","free","calibrator_val_no_feedback","Valence","CV",1742901528729,"positive",612,"B","negative;positive","","B",6.41673228251233,33
"274","5c7c73b6f48c6d0001f6f49c","jail","calibrator_val_no_feedback","Valence","CV",1742901530239,"negative",750,"B","negative;positive","","B",6.62007320653036,34
"275","5c7c73b6f48c6d0001f6f49c","hat","calibrator_val_no_feedback","Valence","CV",1742901531894,"positive",899,"B","negative;positive","","B",6.80128303447162,35
"276","5c7c73b6f48c6d0001f6f49c","invader","calibrator_val_no_feedback","Valence","CV",1742901533246,"negative",592,"B","negative;positive","","B",6.38350663488401,36
"277","5c7c73b6f48c6d0001f6f49c","kitten","calibrator_val_no_feedback","Valence","CV",1742901534583,"positive",580,"B","negative;positive","","B",6.36302810354046,37
"278","5c7c73b6f48c6d0001f6f49c","insecure","calibrator_val_no_feedback","Valence","CV",1742901536202,"negative",862,"B","negative;positive","","B",6.75925527066369,38
"279","5c7c73b6f48c6d0001f6f49c","icebox","calibrator_val_no_feedback","Valence","CV",1742901538112,"negative",1149,"B","negative;positive","","B",7.04664727784876,39
"280","5c7c73b6f48c6d0001f6f49c","joke","calibrator_val_no_feedback","Valence","CV",1742901540246,"positive",1369,"B","negative;positive","","B",7.22183582528845,40
"281","5731e4005b8b06000f7e36b3","grin","calibrator_val_feedback","Valence","VC",1742828559381,"positive",2627,"negative","positive","negative;positive","B",7.87359778968554,1
"282","5731e4005b8b06000f7e36b3","hat","calibrator_val_feedback","Valence","VC",1742828563572,"positive",1433,"negative","positive","negative;positive","B",7.26752542782817,2
"283","5731e4005b8b06000f7e36b3","icebox","calibrator_val_feedback","Valence","VC",1742828567620,"positive",1288,"negative","positive","negative;positive","B",7.1608459066643,3
"284","5731e4005b8b06000f7e36b3","industry","calibrator_val_feedback","Valence","VC",1742828571332,"positive",955,"negative","positive","negative;positive","B",6.86171134048073,4
"285","5731e4005b8b06000f7e36b3","jail","calibrator_val_feedback","Valence","VC",1742828575260,"negative",1172,"negative","positive","negative;positive","B",7.06646697013696,5
"286","5731e4005b8b06000f7e36b3","invader","calibrator_val_feedback","Valence","VC",1742828578828,"negative",811,"negative","positive","negative;positive","B",6.69826805411541,6
"287","5731e4005b8b06000f7e36b3","insecure","calibrator_val_feedback","Valence","VC",1742828582403,"negative",815,"negative","positive","negative;positive","B",6.70318811324086,7
"288","5731e4005b8b06000f7e36b3","joke","calibrator_val_feedback","Valence","VC",1742828586043,"positive",880,"negative","positive","negative;positive","B",6.77992190747225,8
"289","5731e4005b8b06000f7e36b3","kitten","calibrator_val_feedback","Valence","VC",1742828589619,"positive",816,"negative","positive","negative;positive","B",6.70441435496411,9
"290","5731e4005b8b06000f7e36b3","free","calibrator_val_feedback","Valence","VC",1742828593276,"positive",895,"negative","positive","negative;positive","B",6.79682371827486,10
"291","5731e4005b8b06000f7e36b3","joke","calibrator_val_no_feedback","Valence","VC",1742828596866,"positive",833,"B","negative;positive","","B",6.72503364216684,11
"292","5731e4005b8b06000f7e36b3","icebox","calibrator_val_no_feedback","Valence","VC",1742828599042,"positive",1424,"B","negative;positive","","B",7.26122509197192,12
"293","5731e4005b8b06000f7e36b3","grin","calibrator_val_no_feedback","Valence","VC",1742828600738,"positive",943,"B","negative;positive","","B",6.84906628263346,13
"294","5731e4005b8b06000f7e36b3","jail","calibrator_val_no_feedback","Valence","VC",1742828602410,"negative",916,"B","negative;positive","","B",6.82001636467413,14
"295","5731e4005b8b06000f7e36b3","free","calibrator_val_no_feedback","Valence","VC",1742828603921,"positive",759,"B","negative;positive","","B",6.63200177739563,15
"296","5731e4005b8b06000f7e36b3","insecure","calibrator_val_no_feedback","Valence","VC",1742828605490,"negative",815,"B","negative;positive","","B",6.70318811324086,16
"297","5731e4005b8b06000f7e36b3","kitten","calibrator_val_no_feedback","Valence","VC",1742828607001,"positive",753,"B","negative;positive","","B",6.62406522779989,17
"298","5731e4005b8b06000f7e36b3","invader","calibrator_val_no_feedback","Valence","VC",1742828608410,"negative",651,"B","negative;positive","","B",6.47850964220857,18
"299","5731e4005b8b06000f7e36b3","hat","calibrator_val_no_feedback","Valence","VC",1742828609825,"positive",660,"B","negative;positive","","B",6.49223983502047,19
"300","5731e4005b8b06000f7e36b3","industry","calibrator_val_no_feedback","Valence","VC",1742828611553,"positive",972,"B","negative;positive","","B",6.87935580446044,20
"301","5731e4005b8b06000f7e36b3","grasshopper","calibrator_conc_feedback","Concrete","VC",1742828812834,"concrete",1261,"abstract","concrete","abstract;concrete","B",7.13966033596492,21
"302","5731e4005b8b06000f7e36b3","marriage","calibrator_conc_feedback","Concrete","VC",1742828817602,"abstract",2014,"abstract","concrete","abstract;concrete","B",7.60787807327851,22
"303","5731e4005b8b06000f7e36b3","insecure","calibrator_conc_feedback","Concrete","VC",1742828821554,"abstract",1194,"abstract","concrete","abstract;concrete","B",7.08506429395255,23
"304","5731e4005b8b06000f7e36b3","whistle","calibrator_conc_feedback","Concrete","VC",1742828825161,"concrete",851,"abstract","concrete","abstract;concrete","B",6.74641212857337,24
"305","5731e4005b8b06000f7e36b3","sugar","calibrator_conc_feedback","Concrete","VC",1742828828513,"concrete",596,"abstract","concrete","abstract;concrete","B",6.39024066706535,25
"306","5731e4005b8b06000f7e36b3","theory","calibrator_conc_feedback","Concrete","VC",1742828832705,"abstract",1433,"abstract","concrete","abstract;concrete","B",7.26752542782817,26
"307","5731e4005b8b06000f7e36b3","kick","calibrator_conc_feedback","Concrete","VC",1742828837233,"concrete",1769,"abstract","concrete","abstract;concrete","B",7.47816969415979,27
"308","5731e4005b8b06000f7e36b3","gas","calibrator_conc_feedback","Concrete","VC",1742828841160,"concrete",1174,"abstract","concrete","abstract;concrete","B",7.06817200038804,28
"309","5731e4005b8b06000f7e36b3","polite","calibrator_conc_feedback","Concrete","VC",1742828845056,"abstract",1141,"abstract","concrete","abstract;concrete","B",7.03966034986208,29
"310","5731e4005b8b06000f7e36b3","shirt","calibrator_conc_feedback","Concrete","VC",1742828848487,"concrete",678,"abstract","concrete","abstract;concrete","B",6.5191472879404,30
"311","5731e4005b8b06000f7e36b3","shirt","calibrator_conc_no_feedback","Concrete","VC",1742828852032,"concrete",787,"B","abstract;concrete","","B",6.6682282484174,31
"312","5731e4005b8b06000f7e36b3","theory","calibrator_conc_no_feedback","Concrete","VC",1742828854455,"abstract",1671,"B","abstract;concrete","","B",7.42117752859539,32
"313","5731e4005b8b06000f7e36b3","gas","calibrator_conc_no_feedback","Concrete","VC",1742828856007,"concrete",800,"B","abstract;concrete","","B",6.68461172766793,33
"314","5731e4005b8b06000f7e36b3","marriage","calibrator_conc_no_feedback","Concrete","VC",1742828858183,"concrete",1420,"B","abstract;concrete","","B",7.25841215059531,34
"315","5731e4005b8b06000f7e36b3","whistle","calibrator_conc_no_feedback","Concrete","VC",1742828859655,"concrete",721,"B","abstract;concrete","","B",6.58063913728495,35
"316","5731e4005b8b06000f7e36b3","sugar","calibrator_conc_no_feedback","Concrete","VC",1742828861102,"concrete",697,"B","abstract;concrete","","B",6.54678541076052,36
"317","5731e4005b8b06000f7e36b3","kick","calibrator_conc_no_feedback","Concrete","VC",1742828862614,"concrete",754,"B","abstract;concrete","","B",6.62539236800796,37
"318","5731e4005b8b06000f7e36b3","insecure","calibrator_conc_no_feedback","Concrete","VC",1742828864126,"abstract",760,"B","abstract;concrete","","B",6.63331843328038,38
"319","5731e4005b8b06000f7e36b3","grasshopper","calibrator_conc_no_feedback","Concrete","VC",1742828865494,"concrete",612,"B","abstract;concrete","","B",6.41673228251233,39
"320","5731e4005b8b06000f7e36b3","polite","calibrator_conc_no_feedback","Concrete","VC",1742828866926,"abstract",676,"B","abstract;concrete","","B",6.51619307604296,40
"321","60516195621d17646079b995","industry","calibrator_val_feedback","Valence","VC",1738003088860,"negative",1800,"negative","positive","negative;positive","B",7.49554194388426,1
"322","60516195621d17646079b995","joke","calibrator_val_feedback","Valence","VC",1738003092618,"positive",982,"negative","positive","negative;positive","B",6.88959130835447,2
"323","60516195621d17646079b995","hat","calibrator_val_feedback","Valence","VC",1738003096704,"positive",1311,"negative","positive","negative;positive","B",7.1785454837637,3
"324","60516195621d17646079b995","grin","calibrator_val_feedback","Valence","VC",1738003100415,"positive",937,"negative","positive","negative;positive","B",6.84268328223842,4
"325","60516195621d17646079b995","insecure","calibrator_val_feedback","Valence","VC",1738003104023,"negative",828,"negative","positive","negative;positive","B",6.71901315438526,5
"326","60516195621d17646079b995","kitten","calibrator_val_feedback","Valence","VC",1738003107588,"positive",798,"negative","positive","negative;positive","B",6.68210859744981,6
"327","60516195621d17646079b995","invader","calibrator_val_feedback","Valence","VC",1738003111390,"negative",1026,"negative","positive","negative;positive","B",6.93342302573071,7
"328","60516195621d17646079b995","icebox","calibrator_val_feedback","Valence","VC",1738003115114,"positive",953,"negative","positive","negative;positive","B",6.8596149036542,8
"329","60516195621d17646079b995","free","calibrator_val_feedback","Valence","VC",1738003119005,"positive",1115,"negative","positive","negative;positive","B",7.01660968389422,9
"330","60516195621d17646079b995","jail","calibrator_val_feedback","Valence","VC",1738003122498,"negative",722,"negative","positive","negative;positive","B",6.58202513889283,10
"331","60516195621d17646079b995","industry","calibrator_val_no_feedback","Valence","VC",1738003126697,"positive",1424,"A","negative;positive","","B",7.26122509197192,11
"332","60516195621d17646079b995","kitten","calibrator_val_no_feedback","Valence","VC",1738003128261,"positive",798,"A","negative;positive","","B",6.68210859744981,12
"333","60516195621d17646079b995","icebox","calibrator_val_no_feedback","Valence","VC",1738003129825,"positive",800,"A","negative;positive","","B",6.68461172766793,13
"334","60516195621d17646079b995","invader","calibrator_val_no_feedback","Valence","VC",1738003131506,"negative",919,"A","negative;positive","","B",6.82328612235569,14
"335","60516195621d17646079b995","free","calibrator_val_no_feedback","Valence","VC",1738003133186,"positive",915,"A","negative;positive","","B",6.81892406527552,15
"336","60516195621d17646079b995","insecure","calibrator_val_no_feedback","Valence","VC",1738003134663,"negative",714,"A","negative;positive","","B",6.57088296233958,16
"337","60516195621d17646079b995","grin","calibrator_val_no_feedback","Valence","VC",1738003136096,"positive",668,"A","negative;positive","","B",6.50428817353665,17
"338","60516195621d17646079b995","joke","calibrator_val_no_feedback","Valence","VC",1738003137535,"positive",673,"A","negative;positive","","B",6.51174532964473,18
"339","60516195621d17646079b995","jail","calibrator_val_no_feedback","Valence","VC",1738003139086,"negative",786,"A","negative;positive","","B",6.66695679242921,19
"340","60516195621d17646079b995","hat","calibrator_val_no_feedback","Valence","VC",1738003140559,"positive",706,"A","negative;positive","","B",6.55961523749324,20
"341","60516195621d17646079b995","grasshopper","calibrator_conc_feedback","Concrete","VC",1738003336739,"concrete",1588,"abstract","concrete","abstract;concrete","B",7.37023064180708,21
"342","60516195621d17646079b995","insecure","calibrator_conc_feedback","Concrete","VC",1738003341374,"abstract",1859,"abstract","concrete","abstract;concrete","B",7.52779398772144,22
"343","60516195621d17646079b995","marriage","calibrator_conc_feedback","Concrete","VC",1738003346377,"concrete",2236,"abstract","concrete","abstract;concrete","B",7.71244383427499,23
"344","60516195621d17646079b995","whistle","calibrator_conc_feedback","Concrete","VC",1738003350162,"concrete",1013,"abstract","concrete","abstract;concrete","B",6.92067150424868,24
"345","60516195621d17646079b995","gas","calibrator_conc_feedback","Concrete","VC",1738003355392,"concrete",2461,"abstract","concrete","abstract;concrete","B",7.80832305039106,25
"346","60516195621d17646079b995","kick","calibrator_conc_feedback","Concrete","VC",1738003359044,"concrete",884,"abstract","concrete","abstract;concrete","B",6.78445706263764,26
"347","60516195621d17646079b995","theory","calibrator_conc_feedback","Concrete","VC",1738003362759,"abstract",944,"abstract","concrete","abstract;concrete","B",6.8501261661455,27
"348","60516195621d17646079b995","sugar","calibrator_conc_feedback","Concrete","VC",1738003366507,"concrete",977,"abstract","concrete","abstract;concrete","B",6.88448665204278,28
"349","60516195621d17646079b995","polite","calibrator_conc_feedback","Concrete","VC",1738003370708,"abstract",1430,"abstract","concrete","abstract;concrete","B",7.26542972325395,29
"350","60516195621d17646079b995","shirt","calibrator_conc_feedback","Concrete","VC",1738003374359,"concrete",875,"abstract","concrete","abstract;concrete","B",6.77422388635761,30
"351","60516195621d17646079b995","sugar","calibrator_conc_no_feedback","Concrete","VC",1738003377799,"concrete",674,"A","abstract;concrete","","B",6.51323011091231,31
"352","60516195621d17646079b995","theory","calibrator_conc_no_feedback","Concrete","VC",1738003379308,"abstract",743,"A","abstract;concrete","","B",6.61069604471776,32
"353","60516195621d17646079b995","grasshopper","calibrator_conc_no_feedback","Concrete","VC",1738003380638,"concrete",564,"A","abstract;concrete","","B",6.33505425149806,33
"354","60516195621d17646079b995","polite","calibrator_conc_no_feedback","Concrete","VC",1738003382173,"abstract",771,"A","abstract;concrete","","B",6.64768837356333,34
"355","60516195621d17646079b995","whistle","calibrator_conc_no_feedback","Concrete","VC",1738003383590,"concrete",653,"A","abstract;concrete","","B",6.48157712927643,35
"356","60516195621d17646079b995","insecure","calibrator_conc_no_feedback","Concrete","VC",1738003385004,"abstract",648,"A","abstract;concrete","","B",6.47389069635227,36
"357","60516195621d17646079b995","kick","calibrator_conc_no_feedback","Concrete","VC",1738003386434,"concrete",665,"A","abstract;concrete","","B",6.49978704065585,37
"358","60516195621d17646079b995","marriage","calibrator_conc_no_feedback","Concrete","VC",1738003387858,"concrete",659,"A","abstract;concrete","","B",6.49072353450251,38
"359","60516195621d17646079b995","shirt","calibrator_conc_no_feedback","Concrete","VC",1738003389256,"concrete",630,"A","abstract;concrete","","B",6.44571981938558,39
"360","60516195621d17646079b995","gas","calibrator_conc_no_feedback","Concrete","VC",1738003391135,"concrete",1117,"A","abstract;concrete","","B",7.0184017990692,40
"361","663a5c3ef84d9c74ea3c07a1","jail","calibrator_val_feedback","Valence","VC",1742828631392,"negative",1240,"negative","positive","negative;positive","B",7.12286665859908,1
"362","663a5c3ef84d9c74ea3c07a1","kitten","calibrator_val_feedback","Valence","VC",1742828636079,"positive",2006,"negative","positive","negative;positive","B",7.60389796852188,2
"363","663a5c3ef84d9c74ea3c07a1","hat","calibrator_val_feedback","Valence","VC",1742828639209,"positive",738,"negative","positive","negative;positive","B",6.60394382460047,3
"364","663a5c3ef84d9c74ea3c07a1","invader","calibrator_val_feedback","Valence","VC",1742828641977,"negative",1447,"negative","positive","negative;positive","B",7.27724772663148,4
"365","663a5c3ef84d9c74ea3c07a1","insecure","calibrator_val_feedback","Valence","VC",1742828646509,"negative",1769,"negative","positive","negative;positive","B",7.47816969415979,5
"366","663a5c3ef84d9c74ea3c07a1","free","calibrator_val_feedback","Valence","VC",1742828650262,"positive",992,"negative","positive","negative;positive","B",6.89972310728487,6
"367","663a5c3ef84d9c74ea3c07a1","joke","calibrator_val_feedback","Valence","VC",1742828655856,"negative",2833,"negative","positive","negative;positive","B",7.94909149983052,7
"368","663a5c3ef84d9c74ea3c07a1","grin","calibrator_val_feedback","Valence","VC",1742828663581,"positive",4966,"negative","positive","negative;positive","B",8.51036996606811,8
"369","663a5c3ef84d9c74ea3c07a1","icebox","calibrator_val_feedback","Valence","VC",1742828685718,"positive",19372,"negative","positive","negative;positive","B",9.87158400352312,9
"370","663a5c3ef84d9c74ea3c07a1","industry","calibrator_val_feedback","Valence","VC",1742828696967,"positive",8485,"negative","positive","negative;positive","B",9.04605517766833,10
"371","663a5c3ef84d9c74ea3c07a1","insecure","calibrator_val_no_feedback","Valence","VC",1742828700544,"negative",819,"B","negative;positive","","B",6.70808408385307,11
"372","663a5c3ef84d9c74ea3c07a1","free","calibrator_val_no_feedback","Valence","VC",1742828702452,"positive",1151,"B","negative;positive","","B",7.04838640872188,12
"373","663a5c3ef84d9c74ea3c07a1","industry","calibrator_val_no_feedback","Valence","VC",1742828703853,"positive",648,"B","negative;positive","","B",6.47389069635227,13
"374","663a5c3ef84d9c74ea3c07a1","joke","calibrator_val_no_feedback","Valence","VC",1742828705198,"negative",586,"B","negative;positive","","B",6.37331978957701,14
"375","663a5c3ef84d9c74ea3c07a1","icebox","calibrator_val_no_feedback","Valence","VC",1742828706696,"positive",738,"B","negative;positive","","B",6.60394382460047,15
"376","663a5c3ef84d9c74ea3c07a1","jail","calibrator_val_no_feedback","Valence","VC",1742828708022,"negative",567,"B","negative;positive","","B",6.34035930372775,16
"377","663a5c3ef84d9c74ea3c07a1","hat","calibrator_val_no_feedback","Valence","VC",1742828709452,"positive",672,"B","negative;positive","","B",6.51025834052315,17
"378","663a5c3ef84d9c74ea3c07a1","invader","calibrator_val_no_feedback","Valence","VC",1742828711108,"negative",898,"B","negative;positive","","B",6.8001700683022,18
"379","663a5c3ef84d9c74ea3c07a1","grin","calibrator_val_no_feedback","Valence","VC",1742828713346,"positive",1481,"B","negative;positive","","B",7.3004728142678,19
"380","663a5c3ef84d9c74ea3c07a1","kitten","calibrator_val_no_feedback","Valence","VC",1742828715728,"positive",1625,"B","negative;positive","","B",7.39326309476384,20
"381","663a5c3ef84d9c74ea3c07a1","whistle","calibrator_conc_feedback","Concrete","VC",1742829040746,"concrete",1495,"abstract","concrete","abstract;concrete","B",7.30988148582479,21
"382","663a5c3ef84d9c74ea3c07a1","grasshopper","calibrator_conc_feedback","Concrete","VC",1742829042608,"abstract",726,"abstract","concrete","abstract;concrete","B",6.5875500148248,22
"383","663a5c3ef84d9c74ea3c07a1","insecure","calibrator_conc_feedback","Concrete","VC",1742829047014,"concrete",1650,"abstract","concrete","abstract;concrete","B",7.40853056689463,23
"384","663a5c3ef84d9c74ea3c07a1","polite","calibrator_conc_feedback","Concrete","VC",1742829050351,"concrete",577,"abstract","concrete","abstract;concrete","B",6.3578422665081,24
"385","663a5c3ef84d9c74ea3c07a1","sugar","calibrator_conc_feedback","Concrete","VC",1742829053462,"abstract",350,"abstract","concrete","abstract;concrete","B",5.85793315448346,25
"386","663a5c3ef84d9c74ea3c07a1","kick","calibrator_conc_feedback","Concrete","VC",1742829057119,"concrete",435,"abstract","concrete","abstract;concrete","B",6.07534603108868,26
"387","663a5c3ef84d9c74ea3c07a1","gas","calibrator_conc_feedback","Concrete","VC",1742829059884,"abstract",470,"abstract","concrete","abstract;concrete","B",6.1527326947041,27
"388","663a5c3ef84d9c74ea3c07a1","marriage","calibrator_conc_feedback","Concrete","VC",1742829067998,"concrete",5360,"abstract","concrete","abstract;concrete","B",8.58671925406485,28
"389","663a5c3ef84d9c74ea3c07a1","shirt","calibrator_conc_feedback","Concrete","VC",1742829076114,"abstract",4882,"abstract","concrete","abstract;concrete","B",8.49331025095291,29
"390","663a5c3ef84d9c74ea3c07a1","theory","calibrator_conc_feedback","Concrete","VC",1742829080998,"abstract",2606,"abstract","concrete","abstract;concrete","B",7.86557175768479,30
"391","663a5c3ef84d9c74ea3c07a1","grasshopper","calibrator_conc_no_feedback","Concrete","VC",1742829089050,"concrete",5294,"B","abstract;concrete","","B",8.57432938278705,31
"392","663a5c3ef84d9c74ea3c07a1","shirt","calibrator_conc_no_feedback","Concrete","VC",1742829092955,"concrete",3147,"B","abstract;concrete","","B",8.05420489706441,32
"393","663a5c3ef84d9c74ea3c07a1","theory","calibrator_conc_no_feedback","Concrete","VC",1742829094561,"abstract",849,"B","abstract;concrete","","B",6.74405918631135,33
"394","663a5c3ef84d9c74ea3c07a1","whistle","calibrator_conc_no_feedback","Concrete","VC",1742829096890,"concrete",1570,"B","abstract;concrete","","B",7.35883089834235,34
"395","663a5c3ef84d9c74ea3c07a1","kick","calibrator_conc_no_feedback","Concrete","VC",1742829099389,"concrete",1746,"B","abstract;concrete","","B",7.46508273639955,35
"396","663a5c3ef84d9c74ea3c07a1","insecure","calibrator_conc_no_feedback","Concrete","VC",1742829101288,"abstract",1144,"B","abstract;concrete","","B",7.04228617193974,36
"397","663a5c3ef84d9c74ea3c07a1","polite","calibrator_conc_no_feedback","Concrete","VC",1742829103176,"abstract",1129,"B","abstract;concrete","","B",7.02908756414966,37
"398","663a5c3ef84d9c74ea3c07a1","gas","calibrator_conc_no_feedback","Concrete","VC",1742829105568,"concrete",1635,"B","abstract;concrete","","B",7.39939808333135,38
"399","663a5c3ef84d9c74ea3c07a1","marriage","calibrator_conc_no_feedback","Concrete","VC",1742829108138,"abstract",1815,"B","abstract;concrete","","B",7.50384074669895,39
"400","663a5c3ef84d9c74ea3c07a1","sugar","calibrator_conc_no_feedback","Concrete","VC",1742829110321,"concrete",1428,"B","abstract;concrete","","B",7.26403014289953,40
"401","6078b85e024d1d094113c3aa","jail","calibrator_val_feedback","Valence","VC",1737993516089,"negative",1466,"positive","negative","positive;negative","A",7.2902928824466,1
"402","6078b85e024d1d094113c3aa","insecure","calibrator_val_feedback","Valence","VC",1737993519482,"negative",630,"positive","negative","positive;negative","A",6.44571981938558,2
"403","6078b85e024d1d094113c3aa","joke","calibrator_val_feedback","Valence","VC",1737993523041,"positive",798,"positive","negative","positive;negative","A",6.68210859744981,3
"404","6078b85e024d1d094113c3aa","grin","calibrator_val_feedback","Valence","VC",1737993526599,"positive",796,"positive","negative","positive;negative","A",6.67959918584438,4
"405","6078b85e024d1d094113c3aa","kitten","calibrator_val_feedback","Valence","VC",1737993530121,"positive",761,"positive","negative","positive;negative","A",6.63463335786169,5
"406","6078b85e024d1d094113c3aa","industry","calibrator_val_feedback","Valence","VC",1737993533393,"negative",510,"positive","negative","positive;negative","A",6.23441072571837,6
"407","6078b85e024d1d094113c3aa","free","calibrator_val_feedback","Valence","VC",1737993536809,"positive",655,"positive","negative","positive;negative","A",6.48463523563525,7
"408","6078b85e024d1d094113c3aa","invader","calibrator_val_feedback","Valence","VC",1737993540266,"negative",697,"positive","negative","positive;negative","A",6.54678541076052,8
"409","6078b85e024d1d094113c3aa","icebox","calibrator_val_feedback","Valence","VC",1737993543961,"positive",931,"positive","negative","positive;negative","A",6.83625927727707,9
"410","6078b85e024d1d094113c3aa","hat","calibrator_val_feedback","Valence","VC",1737993548992,"positive",2274,"positive","negative","positive;negative","A",7.72929567431048,10
"411","6078b85e024d1d094113c3aa","jail","calibrator_val_no_feedback","Valence","VC",1737993552568,"negative",821,"A","positive;negative","","A",6.71052310945243,11
"412","6078b85e024d1d094113c3aa","insecure","calibrator_val_no_feedback","Valence","VC",1737993553935,"negative",613,"A","positive;negative","","A",6.41836493593621,12
"413","6078b85e024d1d094113c3aa","joke","calibrator_val_no_feedback","Valence","VC",1737993555281,"positive",590,"A","positive;negative","","A",6.38012253689976,13
"414","6078b85e024d1d094113c3aa","grin","calibrator_val_no_feedback","Valence","VC",1737993556569,"positive",530,"A","positive;negative","","A",6.27287700654617,14
"415","6078b85e024d1d094113c3aa","hat","calibrator_val_no_feedback","Valence","VC",1737993558433,"positive",1112,"A","positive;negative","","A",7.01391547481053,15
"416","6078b85e024d1d094113c3aa","invader","calibrator_val_no_feedback","Valence","VC",1737993559708,"negative",513,"A","positive;negative","","A",6.24027584517077,16
"417","6078b85e024d1d094113c3aa","icebox","calibrator_val_no_feedback","Valence","VC",1737993561065,"positive",601,"A","positive;negative","","A",6.39859493453521,17
"418","6078b85e024d1d094113c3aa","free","calibrator_val_no_feedback","Valence","VC",1737993562345,"positive",522,"A","positive;negative","","A",6.25766758788264,18
"419","6078b85e024d1d094113c3aa","kitten","calibrator_val_no_feedback","Valence","VC",1737993563730,"positive",629,"A","positive;negative","","A",6.44413125670044,19
"420","6078b85e024d1d094113c3aa","industry","calibrator_val_no_feedback","Valence","VC",1737993565098,"positive",612,"A","positive;negative","","A",6.41673228251233,20
"421","6078b85e024d1d094113c3aa","grasshopper","calibrator_conc_feedback","Concrete","VC",1737993775993,"concrete",824,"concrete","abstract","concrete;abstract","A",6.71417052990947,21
"422","6078b85e024d1d094113c3aa","shirt","calibrator_conc_feedback","Concrete","VC",1737993779376,"concrete",622,"concrete","abstract","concrete;abstract","A",6.43294009273918,22
"423","6078b85e024d1d094113c3aa","insecure","calibrator_conc_feedback","Concrete","VC",1737993782762,"abstract",631,"concrete","abstract","concrete;abstract","A",6.44730586254121,23
"424","6078b85e024d1d094113c3aa","whistle","calibrator_conc_feedback","Concrete","VC",1737993786345,"concrete",826,"concrete","abstract","concrete;abstract","A",6.71659477352098,24
"425","6078b85e024d1d094113c3aa","sugar","calibrator_conc_feedback","Concrete","VC",1737993789852,"concrete",748,"concrete","abstract","concrete;abstract","A",6.61740297797448,25
"426","6078b85e024d1d094113c3aa","kick","calibrator_conc_feedback","Concrete","VC",1737993793731,"concrete",1116,"concrete","abstract","concrete;abstract","A",7.01750614294126,26
"427","6078b85e024d1d094113c3aa","gas","calibrator_conc_feedback","Concrete","VC",1737993797258,"concrete",769,"concrete","abstract","concrete;abstract","A",6.64509096950564,27
"428","6078b85e024d1d094113c3aa","polite","calibrator_conc_feedback","Concrete","VC",1737993800905,"abstract",887,"concrete","abstract","concrete;abstract","A",6.78784498230958,28
"429","6078b85e024d1d094113c3aa","marriage","calibrator_conc_feedback","Concrete","VC",1737993804280,"abstract",615,"concrete","abstract","concrete;abstract","A",6.42162226780652,29
"430","6078b85e024d1d094113c3aa","theory","calibrator_conc_feedback","Concrete","VC",1737993810474,"abstract",3434,"concrete","abstract","concrete;abstract","A",8.14148104145742,30
"431","6078b85e024d1d094113c3aa","whistle","calibrator_conc_no_feedback","Concrete","VC",1737993813929,"concrete",695,"A","concrete;abstract","","A",6.54391184556479,31
"432","6078b85e024d1d094113c3aa","polite","calibrator_conc_no_feedback","Concrete","VC",1737993815393,"abstract",706,"A","concrete;abstract","","A",6.55961523749324,32
"433","6078b85e024d1d094113c3aa","gas","calibrator_conc_no_feedback","Concrete","VC",1737993816896,"concrete",744,"A","concrete;abstract","","A",6.61204103483309,33
"434","6078b85e024d1d094113c3aa","marriage","calibrator_conc_no_feedback","Concrete","VC",1737993818320,"abstract",668,"A","concrete;abstract","","A",6.50428817353665,34
"435","6078b85e024d1d094113c3aa","grasshopper","calibrator_conc_no_feedback","Concrete","VC",1737993819695,"concrete",622,"A","concrete;abstract","","A",6.43294009273918,35
"436","6078b85e024d1d094113c3aa","shirt","calibrator_conc_no_feedback","Concrete","VC",1737993821074,"concrete",618,"A","concrete;abstract","","A",6.42648845745769,36
"437","6078b85e024d1d094113c3aa","kick","calibrator_conc_no_feedback","Concrete","VC",1737993822591,"concrete",757,"A","concrete;abstract","","A",6.62936325343745,37
"438","6078b85e024d1d094113c3aa","theory","calibrator_conc_no_feedback","Concrete","VC",1737993824208,"abstract",861,"A","concrete;abstract","","A",6.75809450442773,38
"439","6078b85e024d1d094113c3aa","insecure","calibrator_conc_no_feedback","Concrete","VC",1737993825611,"abstract",643,"A","concrete;abstract","","A",6.46614472423762,39
"440","6078b85e024d1d094113c3aa","sugar","calibrator_conc_no_feedback","Concrete","VC",1737993827004,"concrete",636,"A","concrete;abstract","","A",6.45519856334012,40
"441","63b7d7a4ab0b515649d4f4de","icebox","calibrator_val_feedback","Valence","VC",1742825710318,"positive",1953,"positive","negative","positive;negative","A",7.57712193087668,1
"442","63b7d7a4ab0b515649d4f4de","joke","calibrator_val_feedback","Valence","VC",1742825714410,"positive",1317,"positive","negative","positive;negative","A",7.18311170174328,2
"443","63b7d7a4ab0b515649d4f4de","jail","calibrator_val_feedback","Valence","VC",1742825717941,"negative",756,"positive","negative","positive;negative","A",6.62804137617953,3
"444","63b7d7a4ab0b515649d4f4de","grin","calibrator_val_feedback","Valence","VC",1742825721513,"positive",798,"positive","negative","positive;negative","A",6.68210859744981,4
"445","63b7d7a4ab0b515649d4f4de","industry","calibrator_val_feedback","Valence","VC",1742825725386,"positive",1096,"positive","negative","positive;negative","A",6.99942246750796,5
"446","63b7d7a4ab0b515649d4f4de","hat","calibrator_val_feedback","Valence","VC",1742825728890,"positive",725,"positive","negative","positive;negative","A",6.58617165485467,6
"447","63b7d7a4ab0b515649d4f4de","invader","calibrator_val_feedback","Valence","VC",1742825732471,"negative",801,"positive","negative","positive;negative","A",6.68586094706836,7
"448","63b7d7a4ab0b515649d4f4de","free","calibrator_val_feedback","Valence","VC",1742825735855,"positive",607,"positive","negative","positive;negative","A",6.4085287910595,8
"449","63b7d7a4ab0b515649d4f4de","insecure","calibrator_val_feedback","Valence","VC",1742825739384,"negative",766,"positive","negative","positive;negative","A",6.64118216974059,9
"450","63b7d7a4ab0b515649d4f4de","kitten","calibrator_val_feedback","Valence","VC",1742825742755,"positive",601,"positive","negative","positive;negative","A",6.39859493453521,10
"451","63b7d7a4ab0b515649d4f4de","industry","calibrator_val_no_feedback","Valence","VC",1742825746243,"positive",717,"A","positive;negative","","A",6.57507584059962,11
"452","63b7d7a4ab0b515649d4f4de","hat","calibrator_val_no_feedback","Valence","VC",1742825747643,"positive",628,"A","positive;negative","","A",6.4425401664682,12
"453","63b7d7a4ab0b515649d4f4de","insecure","calibrator_val_no_feedback","Valence","VC",1742825749251,"negative",839,"A","positive;negative","","A",6.73221070646721,13
"454","63b7d7a4ab0b515649d4f4de","grin","calibrator_val_no_feedback","Valence","VC",1742825750705,"positive",688,"A","positive;negative","","A",6.53378883793334,14
"455","63b7d7a4ab0b515649d4f4de","invader","calibrator_val_no_feedback","Valence","VC",1742825752023,"negative",546,"A","positive;negative","","A",6.30261897574491,15
"456","63b7d7a4ab0b515649d4f4de","icebox","calibrator_val_no_feedback","Valence","VC",1742825753433,"negative",639,"A","positive;negative","","A",6.45990445437753,16
"457","63b7d7a4ab0b515649d4f4de","kitten","calibrator_val_no_feedback","Valence","VC",1742825754865,"positive",666,"A","positive;negative","","A",6.50128967054039,17
"458","63b7d7a4ab0b515649d4f4de","free","calibrator_val_no_feedback","Valence","VC",1742825756242,"positive",607,"A","positive;negative","","A",6.4085287910595,18
"459","63b7d7a4ab0b515649d4f4de","jail","calibrator_val_no_feedback","Valence","VC",1742825757573,"negative",564,"A","positive;negative","","A",6.33505425149806,19
"460","63b7d7a4ab0b515649d4f4de","joke","calibrator_val_no_feedback","Valence","VC",1742825758993,"positive",650,"A","positive;negative","","A",6.47697236288968,20
"461","63b7d7a4ab0b515649d4f4de","polite","calibrator_conc_feedback","Concrete","VC",1742826075835,"abstract",4036,"concrete","abstract","concrete;abstract","A",8.3030093814735,21
"462","63b7d7a4ab0b515649d4f4de","grasshopper","calibrator_conc_feedback","Concrete","VC",1742826081000,"concrete",894,"concrete","abstract","concrete;abstract","A",6.79570577517351,22
"463","63b7d7a4ab0b515649d4f4de","kick","calibrator_conc_feedback","Concrete","VC",1742826083544,"abstract",1278,"concrete","abstract","concrete;abstract","A",7.15305163493748,23
"464","63b7d7a4ab0b515649d4f4de","marriage","calibrator_conc_feedback","Concrete","VC",1742826088496,"concrete",2181,"concrete","abstract","concrete;abstract","A",7.68753876620163,24
"465","63b7d7a4ab0b515649d4f4de","sugar","calibrator_conc_feedback","Concrete","VC",1742826092050,"concrete",778,"concrete","abstract","concrete;abstract","A",6.65672652417839,25
"466","63b7d7a4ab0b515649d4f4de","insecure","calibrator_conc_feedback","Concrete","VC",1742826098211,"abstract",3391,"concrete","abstract","concrete;abstract","A",8.12888014212564,26
"467","63b7d7a4ab0b515649d4f4de","shirt","calibrator_conc_feedback","Concrete","VC",1742826101782,"concrete",797,"concrete","abstract","concrete;abstract","A",6.68085467879022,27
"468","63b7d7a4ab0b515649d4f4de","theory","calibrator_conc_feedback","Concrete","VC",1742826105204,"abstract",649,"concrete","abstract","concrete;abstract","A",6.47543271670409,28
"469","63b7d7a4ab0b515649d4f4de","whistle","calibrator_conc_feedback","Concrete","VC",1742826109921,"abstract",1950,"concrete","abstract","concrete;abstract","A",7.57558465155779,29
"470","63b7d7a4ab0b515649d4f4de","gas","calibrator_conc_feedback","Concrete","VC",1742826114367,"abstract",1665,"concrete","abstract","concrete;abstract","A",7.41758040241454,30
"471","63b7d7a4ab0b515649d4f4de","sugar","calibrator_conc_no_feedback","Concrete","VC",1742826117777,"concrete",635,"A","concrete;abstract","","A",6.45362499889269,31
"472","63b7d7a4ab0b515649d4f4de","marriage","calibrator_conc_no_feedback","Concrete","VC",1742826119845,"concrete",1301,"A","concrete;abstract","","A",7.1708884785125,32
"473","63b7d7a4ab0b515649d4f4de","theory","calibrator_conc_no_feedback","Concrete","VC",1742826122042,"abstract",1430,"A","concrete;abstract","","A",7.26542972325395,33
"474","63b7d7a4ab0b515649d4f4de","kick","calibrator_conc_no_feedback","Concrete","VC",1742826124110,"concrete",1306,"A","concrete;abstract","","A",7.17472430983638,34
"475","63b7d7a4ab0b515649d4f4de","whistle","calibrator_conc_no_feedback","Concrete","VC",1742826125576,"abstract",697,"A","concrete;abstract","","A",6.54678541076052,35
"476","63b7d7a4ab0b515649d4f4de","polite","calibrator_conc_no_feedback","Concrete","VC",1742826127095,"abstract",750,"A","concrete;abstract","","A",6.62007320653036,36
"477","63b7d7a4ab0b515649d4f4de","insecure","calibrator_conc_no_feedback","Concrete","VC",1742826128620,"abstract",755,"A","concrete;abstract","","A",6.62671774924902,37
"478","63b7d7a4ab0b515649d4f4de","gas","calibrator_conc_no_feedback","Concrete","VC",1742826130099,"abstract",711,"A","concrete;abstract","","A",6.56667242980324,38
"479","63b7d7a4ab0b515649d4f4de","shirt","calibrator_conc_no_feedback","Concrete","VC",1742826131549,"concrete",680,"A","concrete;abstract","","A",6.52209279817015,39
"480","63b7d7a4ab0b515649d4f4de","grasshopper","calibrator_conc_no_feedback","Concrete","VC",1742826134151,"concrete",1830,"A","concrete;abstract","","A",7.51207124583547,40
"481","63b7d7a4ab0b515649d4f4de","insecure","calibrator_conc_feedback","Concrete","VC",1742827522233,"abstract",966,"concrete","abstract","concrete;abstract","A",6.87316383421252,41
"482","63b7d7a4ab0b515649d4f4de","kick","calibrator_conc_feedback","Concrete","VC",1742827525756,"concrete",759,"concrete","abstract","concrete;abstract","A",6.63200177739563,42
"483","63b7d7a4ab0b515649d4f4de","grasshopper","calibrator_conc_feedback","Concrete","VC",1742827529224,"concrete",695,"concrete","abstract","concrete;abstract","A",6.54391184556479,43
"484","63b7d7a4ab0b515649d4f4de","whistle","calibrator_conc_feedback","Concrete","VC",1742827533230,"abstract",1246,"concrete","abstract","concrete;abstract","A",7.1276936993474,44
"485","63b7d7a4ab0b515649d4f4de","theory","calibrator_conc_feedback","Concrete","VC",1742827654103,"abstract",118111,"concrete","abstract","concrete;abstract","A",11.6793801392537,45
"486","63b7d7a4ab0b515649d4f4de","gas","calibrator_conc_feedback","Concrete","VC",1742827658428,"abstract",1553,"concrete","abstract","concrete;abstract","A",7.34794382314869,46
"487","63b7d7a4ab0b515649d4f4de","sugar","calibrator_conc_feedback","Concrete","VC",1742827661933,"concrete",731,"concrete","abstract","concrete;abstract","A",6.59441345974978,47
"488","63b7d7a4ab0b515649d4f4de","polite","calibrator_conc_feedback","Concrete","VC",1742827665846,"abstract",1139,"concrete","abstract","concrete;abstract","A",7.03790596344718,48
"489","63b7d7a4ab0b515649d4f4de","marriage","calibrator_conc_feedback","Concrete","VC",1742827670501,"abstract",1894,"concrete","abstract","concrete;abstract","A",7.54644627374602,49
"490","63b7d7a4ab0b515649d4f4de","shirt","calibrator_conc_feedback","Concrete","VC",1742827673941,"concrete",669,"concrete","abstract","concrete;abstract","A",6.50578406012823,50
"491","63b7d7a4ab0b515649d4f4de","whistle","calibrator_conc_no_feedback","Concrete","VC",1742827677481,"abstract",764,"A","concrete;abstract","","A",6.63856778916652,51
"492","63b7d7a4ab0b515649d4f4de","shirt","calibrator_conc_no_feedback","Concrete","VC",1742827678922,"concrete",686,"A","concrete;abstract","","A",6.53087762772588,52
"493","63b7d7a4ab0b515649d4f4de","insecure","calibrator_conc_no_feedback","Concrete","VC",1742827680342,"abstract",663,"A","concrete;abstract","","A",6.49677499018586,53
"494","63b7d7a4ab0b515649d4f4de","sugar","calibrator_conc_no_feedback","Concrete","VC",1742827681757,"concrete",649,"A","concrete;abstract","","A",6.47543271670409,54
"495","63b7d7a4ab0b515649d4f4de","polite","calibrator_conc_no_feedback","Concrete","VC",1742827683336,"abstract",819,"A","concrete;abstract","","A",6.70808408385307,55
"496","63b7d7a4ab0b515649d4f4de","theory","calibrator_conc_no_feedback","Concrete","VC",1742827872063,"abstract",187963,"A","concrete;abstract","","A",12.1440004139321,56
"497","63b7d7a4ab0b515649d4f4de","marriage","calibrator_conc_no_feedback","Concrete","VC",1742827873640,"abstract",811,"A","concrete;abstract","","A",6.69826805411541,57
"498","63b7d7a4ab0b515649d4f4de","grasshopper","calibrator_conc_no_feedback","Concrete","VC",1742827875043,"concrete",643,"A","concrete;abstract","","A",6.46614472423762,58
"499","63b7d7a4ab0b515649d4f4de","gas","calibrator_conc_no_feedback","Concrete","VC",1742827876465,"abstract",666,"A","concrete;abstract","","A",6.50128967054039,59
"500","63b7d7a4ab0b515649d4f4de","kick","calibrator_conc_no_feedback","Concrete","VC",1742827878155,"concrete",919,"A","concrete;abstract","","A",6.82328612235569,60
"501","63b7d7a4ab0b515649d4f4de","hat","calibrator_val_feedback","Valence","VC",1742827135105,"positive",609,"positive","negative","positive;negative","A",6.4118182677099,61
"502","63b7d7a4ab0b515649d4f4de","industry","calibrator_val_feedback","Valence","VC",1742827138749,"positive",867,"positive","negative","positive;negative","A",6.76503897678054,62
"503","63b7d7a4ab0b515649d4f4de","icebox","calibrator_val_feedback","Valence","VC",1742827142314,"positive",787,"positive","negative","positive;negative","A",6.6682282484174,63
"504","63b7d7a4ab0b515649d4f4de","insecure","calibrator_val_feedback","Valence","VC",1742827145834,"negative",743,"positive","negative","positive;negative","A",6.61069604471776,64
"505","63b7d7a4ab0b515649d4f4de","joke","calibrator_val_feedback","Valence","VC",1742827149241,"positive",630,"positive","negative","positive;negative","A",6.44571981938558,65
"506","63b7d7a4ab0b515649d4f4de","kitten","calibrator_val_feedback","Valence","VC",1742827152881,"positive",859,"positive","negative","positive;negative","A",6.75576892198425,66
"507","63b7d7a4ab0b515649d4f4de","free","calibrator_val_feedback","Valence","VC",1742827156757,"positive",1098,"positive","negative","positive;negative","A",7.00124562206948,67
"508","63b7d7a4ab0b515649d4f4de","invader","calibrator_val_feedback","Valence","VC",1742827160238,"negative",712,"positive","negative","positive;negative","A",6.56807791141198,68
"509","63b7d7a4ab0b515649d4f4de","grin","calibrator_val_feedback","Valence","VC",1742827164191,"positive",1177,"positive","negative","positive;negative","A",7.07072410726028,69
"510","63b7d7a4ab0b515649d4f4de","jail","calibrator_val_feedback","Valence","VC",1742827167645,"negative",681,"positive","negative","positive;negative","A",6.52356230614951,70
"511","63b7d7a4ab0b515649d4f4de","jail","calibrator_val_no_feedback","Valence","VC",1742827171935,"negative",1516,"A","positive;negative","","A",7.32383056620232,71
"512","63b7d7a4ab0b515649d4f4de","kitten","calibrator_val_no_feedback","Valence","VC",1742827173260,"positive",550,"A","positive;negative","","A",6.30991827822652,72
"513","63b7d7a4ab0b515649d4f4de","hat","calibrator_val_no_feedback","Valence","VC",1742827174565,"positive",538,"A","positive;negative","","A",6.28785856016178,73
"514","63b7d7a4ab0b515649d4f4de","industry","calibrator_val_no_feedback","Valence","VC",1742827175942,"positive",608,"A","positive;negative","","A",6.41017488196617,74
"515","63b7d7a4ab0b515649d4f4de","insecure","calibrator_val_no_feedback","Valence","VC",1742827177402,"negative",694,"A","positive;negative","","A",6.5424719605068,75
"516","63b7d7a4ab0b515649d4f4de","invader","calibrator_val_no_feedback","Valence","VC",1742827178764,"negative",597,"A","positive;negative","","A",6.3919171133926,76
"517","63b7d7a4ab0b515649d4f4de","icebox","calibrator_val_no_feedback","Valence","VC",1742827180255,"positive",720,"A","positive;negative","","A",6.5792512120101,77
"518","63b7d7a4ab0b515649d4f4de","free","calibrator_val_no_feedback","Valence","VC",1742827181693,"positive",668,"A","positive;negative","","A",6.50428817353665,78
"519","63b7d7a4ab0b515649d4f4de","grin","calibrator_val_no_feedback","Valence","VC",1742827183150,"negative",688,"A","positive;negative","","A",6.53378883793334,79
"520","63b7d7a4ab0b515649d4f4de","joke","calibrator_val_no_feedback","Valence","VC",1742827184588,"positive",662,"A","positive;negative","","A",6.49526555593701,80
"521","6330f30b973410dadd20eb64","polite","calibrator_conc_feedback","Concrete","CV",1742907474390,"abstract",1593,"concrete","abstract","concrete;abstract","A",7.37337430991005,1
"522","6330f30b973410dadd20eb64","grasshopper","calibrator_conc_feedback","Concrete","CV",1742907478120,"concrete",949,"concrete","abstract","concrete;abstract","A",6.85540879860993,2
"523","6330f30b973410dadd20eb64","gas","calibrator_conc_feedback","Concrete","CV",1742907482232,"concrete",1322,"concrete","abstract","concrete;abstract","A",7.18690102041163,3
"524","6330f30b973410dadd20eb64","kick","calibrator_conc_feedback","Concrete","CV",1742907486493,"abstract",1487,"concrete","abstract","concrete;abstract","A",7.30451594646016,4
"525","6330f30b973410dadd20eb64","marriage","calibrator_conc_feedback","Concrete","CV",1742907490838,"abstract",1561,"concrete","abstract","concrete;abstract","A",7.35308192051543,5
"526","6330f30b973410dadd20eb64","whistle","calibrator_conc_feedback","Concrete","CV",1742907495128,"concrete",1506,"concrete","abstract","concrete;abstract","A",7.31721240835984,6
"527","6330f30b973410dadd20eb64","theory","calibrator_conc_feedback","Concrete","CV",1742907498732,"abstract",823,"concrete","abstract","concrete;abstract","A",6.71295620067707,7
"528","6330f30b973410dadd20eb64","insecure","calibrator_conc_feedback","Concrete","CV",1742907502471,"abstract",952,"concrete","abstract","concrete;abstract","A",6.85856503479136,8
"529","6330f30b973410dadd20eb64","sugar","calibrator_conc_feedback","Concrete","CV",1742907506306,"concrete",1054,"concrete","abstract","concrete;abstract","A",6.96034772910131,9
"530","6330f30b973410dadd20eb64","shirt","calibrator_conc_feedback","Concrete","CV",1742907510010,"concrete",930,"concrete","abstract","concrete;abstract","A",6.8351845861473,10
"531","6330f30b973410dadd20eb64","marriage","calibrator_conc_no_feedback","Concrete","CV",1742907513796,"concrete",1008,"A","concrete;abstract","","A",6.91572344863131,11
"532","6330f30b973410dadd20eb64","whistle","calibrator_conc_no_feedback","Concrete","CV",1742907515639,"concrete",1070,"A","concrete;abstract","","A",6.97541392745595,12
"533","6330f30b973410dadd20eb64","kick","calibrator_conc_no_feedback","Concrete","CV",1742907517322,"concrete",911,"A","concrete;abstract","","A",6.81454289725996,13
"534","6330f30b973410dadd20eb64","sugar","calibrator_conc_no_feedback","Concrete","CV",1742907518763,"concrete",666,"A","concrete;abstract","","A",6.50128967054039,14
"535","6330f30b973410dadd20eb64","theory","calibrator_conc_no_feedback","Concrete","CV",1742907520253,"abstract",719,"A","concrete;abstract","","A",6.57786135772105,15
"536","6330f30b973410dadd20eb64","insecure","calibrator_conc_no_feedback","Concrete","CV",1742907521829,"abstract",807,"A","concrete;abstract","","A",6.69332366826995,16
"537","6330f30b973410dadd20eb64","polite","calibrator_conc_no_feedback","Concrete","CV",1742907523269,"abstract",670,"A","concrete;abstract","","A",6.50727771238501,17
"538","6330f30b973410dadd20eb64","grasshopper","calibrator_conc_no_feedback","Concrete","CV",1742907524692,"concrete",656,"A","concrete;abstract","","A",6.48616078894409,18
"539","6330f30b973410dadd20eb64","shirt","calibrator_conc_no_feedback","Concrete","CV",1742907526143,"concrete",678,"A","concrete;abstract","","A",6.5191472879404,19
"540","6330f30b973410dadd20eb64","gas","calibrator_conc_no_feedback","Concrete","CV",1742907527724,"concrete",803,"A","concrete;abstract","","A",6.68835471394676,20
"541","6330f30b973410dadd20eb64","joke","calibrator_val_feedback","Valence","CV",1742907760110,"positive",905,"positive","negative","positive;negative","A",6.80793494369993,21
"542","6330f30b973410dadd20eb64","industry","calibrator_val_feedback","Valence","CV",1742907764017,"positive",1122,"positive","negative","positive;negative","A",7.02286808608264,22
"543","6330f30b973410dadd20eb64","kitten","calibrator_val_feedback","Valence","CV",1742907767433,"positive",630,"positive","negative","positive;negative","A",6.44571981938558,23
"544","6330f30b973410dadd20eb64","hat","calibrator_val_feedback","Valence","CV",1742907770780,"positive",564,"positive","negative","positive;negative","A",6.33505425149806,24
"545","6330f30b973410dadd20eb64","icebox","calibrator_val_feedback","Valence","CV",1742907774390,"positive",832,"positive","negative","positive;negative","A",6.72383244082121,25
"546","6330f30b973410dadd20eb64","invader","calibrator_val_feedback","Valence","CV",1742907777972,"negative",792,"positive","negative","positive;negative","A",6.67456139181443,26
"547","6330f30b973410dadd20eb64","free","calibrator_val_feedback","Valence","CV",1742907781674,"positive",924,"positive","negative","positive;negative","A",6.82871207164168,27
"548","6330f30b973410dadd20eb64","insecure","calibrator_val_feedback","Valence","CV",1742907785355,"negative",892,"positive","negative","positive;negative","A",6.79346613258001,28
"549","6330f30b973410dadd20eb64","jail","calibrator_val_feedback","Valence","CV",1742907788921,"negative",784,"positive","negative","positive;negative","A",6.66440902035041,29
"550","6330f30b973410dadd20eb64","grin","calibrator_val_feedback","Valence","CV",1742907792327,"positive",628,"positive","negative","positive;negative","A",6.4425401664682,30
"551","6330f30b973410dadd20eb64","kitten","calibrator_val_no_feedback","Valence","CV",1742907795759,"positive",641,"A","positive;negative","","A",6.46302945692067,31
"552","6330f30b973410dadd20eb64","joke","calibrator_val_no_feedback","Valence","CV",1742907797096,"positive",569,"A","positive;negative","","A",6.34388043412633,32
"553","6330f30b973410dadd20eb64","free","calibrator_val_no_feedback","Valence","CV",1742907798350,"positive",488,"A","positive;negative","","A",6.19031540585315,33
"554","6330f30b973410dadd20eb64","industry","calibrator_val_no_feedback","Valence","CV",1742907800006,"negative",889,"A","positive;negative","","A",6.7900972355139,34
"555","6330f30b973410dadd20eb64","invader","calibrator_val_no_feedback","Valence","CV",1742907801403,"negative",630,"A","positive;negative","","A",6.44571981938558,35
"556","6330f30b973410dadd20eb64","hat","calibrator_val_no_feedback","Valence","CV",1742907803036,"positive",874,"A","positive;negative","","A",6.77308037565554,36
"557","6330f30b973410dadd20eb64","jail","calibrator_val_no_feedback","Valence","CV",1742907804669,"negative",867,"A","positive;negative","","A",6.76503897678054,37
"558","6330f30b973410dadd20eb64","insecure","calibrator_val_no_feedback","Valence","CV",1742907806427,"negative",983,"A","positive;negative","","A",6.89060912014717,38
"559","6330f30b973410dadd20eb64","icebox","calibrator_val_no_feedback","Valence","CV",1742907808019,"positive",819,"A","positive;negative","","A",6.70808408385307,39
"560","6330f30b973410dadd20eb64","grin","calibrator_val_no_feedback","Valence","CV",1742907809680,"positive",894,"A","positive;negative","","A",6.79570577517351,40
"561","5db48b4d14dab8000de45fdf","insecure","calibrator_conc_feedback","Concrete","CV",1738014128490,"concrete",1670,"abstract","concrete","abstract;concrete","B",7.4205789054108,1
"562","5db48b4d14dab8000de45fdf","theory","calibrator_conc_feedback","Concrete","CV",1738014133201,"concrete",1950,"abstract","concrete","abstract;concrete","B",7.57558465155779,2
"563","5db48b4d14dab8000de45fdf","polite","calibrator_conc_feedback","Concrete","CV",1738014137733,"abstract",1774,"abstract","concrete","abstract;concrete","B",7.48099216286952,3
"564","5db48b4d14dab8000de45fdf","sugar","calibrator_conc_feedback","Concrete","CV",1738014142364,"concrete",1867,"abstract","concrete","abstract;concrete","B",7.53208814354172,4
"565","5db48b4d14dab8000de45fdf","shirt","calibrator_conc_feedback","Concrete","CV",1738014146390,"concrete",1265,"abstract","concrete","abstract;concrete","B",7.14282740116162,5
"566","5db48b4d14dab8000de45fdf","whistle","calibrator_conc_feedback","Concrete","CV",1738014150709,"concrete",1556,"abstract","concrete","abstract;concrete","B",7.34987370473834,6
"567","5db48b4d14dab8000de45fdf","grasshopper","calibrator_conc_feedback","Concrete","CV",1738014155172,"concrete",1703,"abstract","concrete","abstract;concrete","B",7.44014668066269,7
"568","5db48b4d14dab8000de45fdf","gas","calibrator_conc_feedback","Concrete","CV",1738014159694,"abstract",1761,"abstract","concrete","abstract;concrete","B",7.47363710849621,8
"569","5db48b4d14dab8000de45fdf","kick","calibrator_conc_feedback","Concrete","CV",1738014164435,"concrete",1984,"abstract","concrete","abstract;concrete","B",7.59287028784482,9
"570","5db48b4d14dab8000de45fdf","marriage","calibrator_conc_feedback","Concrete","CV",1738014169376,"concrete",2181,"abstract","concrete","abstract;concrete","B",7.68753876620163,10
"571","5db48b4d14dab8000de45fdf","kick","calibrator_conc_no_feedback","Concrete","CV",1738014173477,"concrete",1341,"A","abstract;concrete","","B",7.20117088328168,11
"572","5db48b4d14dab8000de45fdf","insecure","calibrator_conc_no_feedback","Concrete","CV",1738014176065,"abstract",1829,"A","abstract;concrete","","B",7.51152464839087,12
"573","5db48b4d14dab8000de45fdf","polite","calibrator_conc_no_feedback","Concrete","CV",1738014178428,"abstract",1606,"A","abstract;concrete","","B",7.38150189450671,13
"574","5db48b4d14dab8000de45fdf","grasshopper","calibrator_conc_no_feedback","Concrete","CV",1738014180439,"concrete",1256,"A","abstract;concrete","","B",7.13568734702814,14
"575","5db48b4d14dab8000de45fdf","whistle","calibrator_conc_no_feedback","Concrete","CV",1738014182371,"concrete",1176,"A","abstract;concrete","","B",7.06987412845857,15
"576","5db48b4d14dab8000de45fdf","sugar","calibrator_conc_no_feedback","Concrete","CV",1738014184603,"concrete",1474,"A","abstract;concrete","","B",7.29573507274928,16
"577","5db48b4d14dab8000de45fdf","gas","calibrator_conc_no_feedback","Concrete","CV",1738014186227,"abstract",868,"A","abstract;concrete","","B",6.76619171466035,17
