"","ID.true","Word","Label","Animacy","Valence","Task","BlockOrder","Group","Response","Accuracy","EventTime","Value","RT","ReactionTime","Key_value_F","Key_value_J","Comments","LogReactionTime","LogRT","TrialNumber"
"1","63fcf7251ace1792db0941b0","intruder","test_val","animate","negative","Valence","VC","","negative",1,1738770141578,"negative",1769,1311,"B","negative;positive","",7.1785454837637,7.47816969415979,1
"2","63fcf7251ace1792db0941b0","gunshot","test_val","inanimate","negative","Valence","VC","","negative",1,1738770144059,"negative",1710.16666666667,1705,"B","negative;positive","",7.44132038971762,7.44434611063415,2
"3","63fcf7251ace1792db0941b0","princess","test_val","animate","positive","Valence","VC","","positive",1,1738770145834,"positive",1505.83333333333,1011,"B","negative;positive","",6.91869521902047,7.31710173379827,3
"4","63fcf7251ace1792db0941b0","sibling","test_val","animate","positive","Valence","VC","","positive",1,1738770147850,"positive",1651.33333333333,1254,"B","negative;positive","",7.13409372119287,7.4093383213812,4
"5","63fcf7251ace1792db0941b0","dictator","test_val","animate","negative","Valence","VC","","negative",1,1738770149618,"negative",1643,1008,"B","negative;positive","",6.91572344863131,7.40427911803727,5
"6","63fcf7251ace1792db0941b0","chipmunk","test_val","animate","positive","Valence","VC","","positive",1,1738770151290,"positive",1486.16666666667,912,"B","negative;positive","",6.81563999007433,7.30395537690682,6
"7","63fcf7251ace1792db0941b0","puppy","test_val","animate","positive","Valence","VC","","positive",1,1738770152962,"positive",1420,913,"B","negative;positive","",6.81673588059497,7.25841215059531,7
"8","63fcf7251ace1792db0941b0","award","test_val","inanimate","positive","Valence","VC","","positive",1,1738770154522,"positive",1514,801,"B","negative;positive","",6.68586094706836,7.32251043399739,8
"9","63fcf7251ace1792db0941b0","child","test_val","animate","positive","Valence","VC","","positive",1,1738770155930,"positive",1400.66666666667,646,"B","negative;positive","",6.4707995037826,7.24470359273684,9
"10","63fcf7251ace1792db0941b0","sandwich","test_val","inanimate","positive","Valence","VC","","positive",1,1738770157370,"positive",1539.5,678,"B","negative;positive","",6.5191472879404,7.33921296736456,10
"11","63fcf7251ace1792db0941b0","slave","test_val","animate","negative","Valence","VC","","negative",1,1738770158826,"negative",1551.33333333333,695,"B","negative;positive","",6.54391184556479,7.34687005519413,11
"12","63fcf7251ace1792db0941b0","feast","test_val","inanimate","positive","Valence","VC","","positive",1,1738770160521,"positive",1645.66666666667,936,"B","negative;positive","",6.84161547647759,7.40590084959075,12
"13","63fcf7251ace1792db0941b0","sunshine","test_val","inanimate","positive","Valence","VC","","positive",1,1738770162034,"positive",1672.83333333333,754,"B","negative;positive","",6.62539236800796,7.42227407458575,13
"14","63fcf7251ace1792db0941b0","comedian","test_val","animate","positive","Valence","VC","","positive",1,1738770163530,"positive",1547.16666666667,739,"B","negative;positive","",6.6052979209482,7.34418058017188,14
"15","63fcf7251ace1792db0941b0","wiretap","test_val","inanimate","negative","Valence","VC","","negative",1,1738770165138,"negative",1576.66666666667,845,"B","negative;positive","",6.73933662735717,7.36306819281787,15
"16","63fcf7251ace1792db0941b0","corpse","test_val","inanimate","negative","Valence","VC","","negative",1,1738770166578,"negative",1789.66666666667,677,"B","negative;positive","",6.51767127291227,7.48978466175446,16
"17","63fcf7251ace1792db0941b0","flood","test_val","inanimate","negative","Valence","VC","","negative",1,1738770168185,"negative",1540,834,"B","negative;positive","",6.72623340235875,7.33953769540767,17
"18","63fcf7251ace1792db0941b0","swastika","test_val","inanimate","negative","Valence","VC","","negative",1,1738770169681,"negative",1480.33333333333,736,"B","negative;positive","",6.60123011872888,7.30002256662399,18
"19","63fcf7251ace1792db0941b0","smallpox","test_val","inanimate","negative","Valence","VC","","negative",1,1738770171357,"negative",1618.33333333333,915,"B","negative;positive","",6.81892406527552,7.38915209205732,19
"20","63fcf7251ace1792db0941b0","widow","test_val","animate","negative","Valence","VC","","negative",1,1738770173066,"negative",1806.5,948,"B","negative;positive","",6.85435450225502,7.4991465505877,20
"21","63fcf7251ace1792db0941b0","duckling","test_val","animate","positive","Valence","VC","","positive",1,1738770174738,"positive",1461.83333333333,910,"B","negative;positive","",6.8134445995109,7.28744663472333,21
"22","63fcf7251ace1792db0941b0","pizza","test_val","inanimate","positive","Valence","VC","","positive",1,1738770176227,"positive",1548.5,727,"B","negative;positive","",6.58892647753352,7.34504199941326,22
"23","63fcf7251ace1792db0941b0","poison","test_val","inanimate","negative","Valence","VC","","negative",1,1738770177666,"negative",1472.33333333333,679,"B","negative;positive","",6.5206211275587,7.29460372292842,23
"24","63fcf7251ace1792db0941b0","leech","test_val","animate","negative","Valence","VC","","negative",1,1738770179194,"negative",1523.66666666667,765,"B","negative;positive","",6.63987583382654,7.32887498966363,24
"25","63fcf7251ace1792db0941b0","meadow","test_val","inanimate","positive","Valence","VC","","positive",1,1738770180786,"positive",1723,834,"B","negative;positive","",6.72623340235875,7.45182223652793,25
"26","63fcf7251ace1792db0941b0","asshole","test_val","animate","negative","Valence","VC","","negative",1,1738770182250,"negative",1668.16666666667,705,"B","negative;positive","",6.55819780281227,7.41948049799096,26
"27","63fcf7251ace1792db0941b0","prize","test_val","inanimate","positive","Valence","VC","","positive",1,1738770183810,"positive",1615.83333333333,800,"B","negative;positive","",6.68461172766793,7.3876060984487,27
"28","63fcf7251ace1792db0941b0","laughter","test_val","inanimate","positive","Valence","VC","","positive",1,1738770185338,"positive",1580.83333333333,770,"B","negative;positive","",6.64639051484773,7.36570741314106,28
"29","63fcf7251ace1792db0941b0","mugger","test_val","animate","negative","Valence","VC","","negative",1,1738770186850,"negative",1691,751,"B","negative;positive","",6.62140565176413,7.43307534889858,29
"30","63fcf7251ace1792db0941b0","inmate","test_val","animate","negative","Valence","VC","","negative",1,1738770188290,"negative",1590,680,"B","negative;positive","",6.52209279817015,7.37148929521428,30
"31","63fcf7251ace1792db0941b0","bunny","test_val","animate","positive","Valence","VC","","positive",1,1738770189754,"positive",1436,707,"B","negative;positive","",6.56103066589657,7.26961674960817,31
"32","63fcf7251ace1792db0941b0","husband","test_val","animate","positive","Valence","VC","","positive",1,1738770191218,"positive",1490.33333333333,702,"B","negative;positive","",6.55393340402581,7.30675508756587,32
"33","63fcf7251ace1792db0941b0","cocaine","test_val","inanimate","negative","Valence","VC","","negative",1,1738770192706,"negative",1508.66666666667,726,"B","negative;positive","",6.5875500148248,7.31898153752537,33
"34","63fcf7251ace1792db0941b0","maggot","test_val","animate","negative","Valence","VC","","negative",1,1738770194274,"negative",1499.5,808,"B","negative;positive","",6.69456205852109,7.31288699818906,34
"35","63fcf7251ace1792db0941b0","doughnut","test_val","inanimate","positive","Valence","VC","","positive",1,1738770195746,"positive",1495.16666666667,711,"B","negative;positive","",6.56667242980324,7.30999296233123,35
"36","63fcf7251ace1792db0941b0","kitten","test_val","animate","positive","Valence","VC","","positive",1,1738770197298,"positive",1404.66666666667,794,"B","negative;positive","",6.67708346124714,7.24755530569603,36
"37","63fcf7251ace1792db0941b0","tapeworm","test_val","animate","negative","Valence","VC","","negative",1,1738770198802,"negative",1573.16666666667,742,"B","negative;positive","",6.60934924316738,7.36084585209689,37
"38","63fcf7251ace1792db0941b0","excrement","test_val","inanimate","negative","Valence","VC","","negative",1,1738770200370,"negative",1582.16666666667,808,"B","negative;positive","",6.69456205852109,7.36655049465374,38
"39","63fcf7251ace1792db0941b0","heroin","test_val","inanimate","negative","Valence","VC","","negative",1,1738770201850,"negative",1510,720,"B","negative;positive","",6.5792512120101,7.31986492980897,39
"40","63fcf7251ace1792db0941b0","dollar","test_val","inanimate","positive","Valence","VC","","positive",1,1738770203369,"positive",1451.33333333333,760,"B","negative;positive","",6.63331843328038,7.28023795312638,40
"41","63fcf7251ace1792db0941b0","dollar","test_val","inanimate","positive","Valence","VC","","positive",1,1738770204682,"positive",1451.33333333333,552,"B","negative;positive","",6.31354804627709,7.28023795312638,41
"42","63fcf7251ace1792db0941b0","bunny","test_val","animate","positive","Valence","VC","","positive",1,1738770206090,"positive",1436,649,"B","negative;positive","",6.47543271670409,7.26961674960817,42
"43","63fcf7251ace1792db0941b0","kitten","test_val","animate","positive","Valence","VC","","positive",1,1738770207426,"positive",1404.66666666667,578,"B","negative;positive","",6.35957386867238,7.24755530569603,43
"44","63fcf7251ace1792db0941b0","puppy","test_val","animate","positive","Valence","VC","","positive",1,1738770208769,"positive",1420,582,"B","negative;positive","",6.36647044773144,7.25841215059531,44
"45","63fcf7251ace1792db0941b0","gunshot","test_val","inanimate","negative","Valence","VC","","negative",1,1738770210306,"negative",1710.16666666667,778,"B","negative;positive","",6.65672652417839,7.44434611063415,45
"46","63fcf7251ace1792db0941b0","feast","test_val","inanimate","positive","Valence","VC","","positive",1,1738770211979,"positive",1645.66666666667,913,"B","negative;positive","",6.81673588059497,7.40590084959075,46
"47","63fcf7251ace1792db0941b0","leech","test_val","animate","negative","Valence","VC","","negative",1,1738770213474,"negative",1523.66666666667,735,"B","negative;positive","",6.59987049921284,7.32887498966363,47
"48","63fcf7251ace1792db0941b0","pizza","test_val","inanimate","positive","Valence","VC","","positive",1,1738770214962,"positive",1548.5,730,"B","negative;positive","",6.59304453414244,7.34504199941326,48
"49","63fcf7251ace1792db0941b0","sunshine","test_val","inanimate","positive","Valence","VC","","positive",1,1738770216410,"positive",1672.83333333333,685,"B","negative;positive","",6.52941883826223,7.42227407458575,49
"50","63fcf7251ace1792db0941b0","meadow","test_val","inanimate","positive","Valence","VC","","positive",1,1738770217746,"positive",1723,577,"B","negative;positive","",6.3578422665081,7.45182223652793,50
"51","63fcf7251ace1792db0941b0","wiretap","test_val","inanimate","negative","Valence","VC","","negative",1,1738770219226,"negative",1576.66666666667,723,"B","negative;positive","",6.58340922215876,7.36306819281787,51
"52","63fcf7251ace1792db0941b0","flood","test_val","inanimate","negative","Valence","VC","","negative",1,1738770220674,"negative",1540,688,"B","negative;positive","",6.53378883793334,7.33953769540767,52
"53","63fcf7251ace1792db0941b0","corpse","test_val","inanimate","negative","Valence","VC","","negative",1,1738770222042,"negative",1789.66666666667,607,"B","negative;positive","",6.4085287910595,7.48978466175446,53
"54","63fcf7251ace1792db0941b0","tapeworm","test_val","animate","negative","Valence","VC","","negative",1,1738770223330,"negative",1573.16666666667,527,"B","negative;positive","",6.26720054854136,7.36084585209689,54
"55","63fcf7251ace1792db0941b0","husband","test_val","animate","positive","Valence","VC","","positive",1,1738770224730,"positive",1490.33333333333,638,"B","negative;positive","",6.45833828334479,7.30675508756587,55
"56","63fcf7251ace1792db0941b0","poison","test_val","inanimate","negative","Valence","VC","","negative",1,1738770226154,"negative",1472.33333333333,665,"B","negative;positive","",6.49978704065585,7.29460372292842,56
"57","63fcf7251ace1792db0941b0","princess","test_val","animate","positive","Valence","VC","","positive",1,1738770227562,"positive",1505.83333333333,650,"B","negative;positive","",6.47697236288968,7.31710173379827,57
"58","63fcf7251ace1792db0941b0","cocaine","test_val","inanimate","negative","Valence","VC","","negative",1,1738770229034,"negative",1508.66666666667,710,"B","negative;positive","",6.56526497003536,7.31898153752537,58
"59","63fcf7251ace1792db0941b0","chipmunk","test_val","animate","positive","Valence","VC","","positive",1,1738770230490,"positive",1486.16666666667,697,"B","negative;positive","",6.54678541076052,7.30395537690682,59
"60","63fcf7251ace1792db0941b0","inmate","test_val","animate","negative","Valence","VC","","negative",1,1738770232002,"negative",1590,755,"B","negative;positive","",6.62671774924902,7.37148929521428,60
"61","63fcf7251ace1792db0941b0","doughnut","test_val","inanimate","positive","Valence","VC","","positive",1,1738770233450,"positive",1495.16666666667,687,"B","negative;positive","",6.53233429222235,7.30999296233123,61
"62","63fcf7251ace1792db0941b0","intruder","test_val","animate","negative","Valence","VC","","negative",1,1738770234969,"negative",1769,763,"B","negative;positive","",6.63725803128446,7.47816969415979,62
"63","63fcf7251ace1792db0941b0","slave","test_val","animate","negative","Valence","VC","","negative",1,1738770236282,"negative",1551.33333333333,555,"B","negative;positive","",6.31896811374643,7.34687005519413,63
"64","63fcf7251ace1792db0941b0","asshole","test_val","animate","negative","Valence","VC","","negative",1,1738770237634,"negative",1668.16666666667,594,"B","negative;positive","",6.38687931936265,7.41948049799096,64
"65","63fcf7251ace1792db0941b0","laughter","test_val","inanimate","positive","Valence","VC","","positive",1,1738770238978,"positive",1580.83333333333,582,"B","negative;positive","",6.36647044773144,7.36570741314106,65
"66","63fcf7251ace1792db0941b0","dictator","test_val","animate","negative","Valence","VC","","negative",1,1738770240362,"negative",1643,624,"B","negative;positive","",6.43615036836943,7.40427911803727,66
"67","63fcf7251ace1792db0941b0","excrement","test_val","inanimate","negative","Valence","VC","","negative",1,1738770241962,"negative",1582.16666666667,843,"B","negative;positive","",6.73696695800186,7.36655049465374,67
"68","63fcf7251ace1792db0941b0","mugger","test_val","animate","negative","Valence","VC","","negative",1,1738770243594,"negative",1691,870,"B","negative;positive","",6.76849321164863,7.43307534889858,68
"69","63fcf7251ace1792db0941b0","prize","test_val","inanimate","positive","Valence","VC","","positive",1,1738770245050,"positive",1615.83333333333,696,"B","negative;positive","",6.54534966033442,7.3876060984487,69
"70","63fcf7251ace1792db0941b0","heroin","test_val","inanimate","negative","Valence","VC","","negative",1,1738770246522,"negative",1510,715,"B","negative;positive","",6.57228254269401,7.31986492980897,70
"71","63fcf7251ace1792db0941b0","swastika","test_val","inanimate","negative","Valence","VC","","negative",1,1738770247962,"negative",1480.33333333333,680,"B","negative;positive","",6.52209279817015,7.30002256662399,71
"72","63fcf7251ace1792db0941b0","duckling","test_val","animate","positive","Valence","VC","","positive",1,1738770249386,"positive",1461.83333333333,661,"B","negative;positive","",6.49375383985169,7.28744663472333,72
"73","63fcf7251ace1792db0941b0","award","test_val","inanimate","positive","Valence","VC","","positive",1,1738770250826,"positive",1514,680,"B","negative;positive","",6.52209279817015,7.32251043399739,73
"74","63fcf7251ace1792db0941b0","child","test_val","animate","positive","Valence","VC","","positive",1,1738770252170,"positive",1400.66666666667,584,"B","negative;positive","",6.36990098282823,7.24470359273684,74
"75","63fcf7251ace1792db0941b0","sibling","test_val","animate","positive","Valence","VC","","positive",1,1738770253730,"positive",1651.33333333333,803,"B","negative;positive","",6.68835471394676,7.4093383213812,75
"76","63fcf7251ace1792db0941b0","maggot","test_val","animate","negative","Valence","VC","","negative",1,1738770255106,"negative",1499.5,617,"B","negative;positive","",6.42486902390539,7.31288699818906,76
"77","63fcf7251ace1792db0941b0","smallpox","test_val","inanimate","negative","Valence","VC","","positive",0,1738770256778,"positive",1618.33333333333,914,"B","negative;positive","",6.81783057145415,7.38915209205732,77
"78","63fcf7251ace1792db0941b0","widow","test_val","animate","negative","Valence","VC","","positive",0,1738770258682,"positive",1806.5,1146,"B","negative;positive","",7.04403289727469,7.4991465505877,78
"79","63fcf7251ace1792db0941b0","sandwich","test_val","inanimate","positive","Valence","VC","","positive",1,1738770260355,"positive",1539.5,915,"B","negative;positive","",6.81892406527552,7.33921296736456,79
"80","63fcf7251ace1792db0941b0","comedian","test_val","animate","positive","Valence","VC","","positive",1,1738770261963,"positive",1547.16666666667,849,"B","negative;positive","",6.74405918631135,7.34418058017188,80
"81","63fcf7251ace1792db0941b0","inmate","test_val","animate","negative","Valence","VC","","negative",1,1738770263498,"negative",1590,775,"B","negative;positive","",6.65286302935335,7.37148929521428,81
"82","63fcf7251ace1792db0941b0","bunny","test_val","animate","positive","Valence","VC","","positive",1,1738770264906,"positive",1436,643,"B","negative;positive","",6.46614472423762,7.26961674960817,82
"83","63fcf7251ace1792db0941b0","child","test_val","animate","positive","Valence","VC","","positive",1,1738770266442,"positive",1400.66666666667,779,"B","negative;positive","",6.65801104587075,7.24470359273684,83
"84","63fcf7251ace1792db0941b0","cocaine","test_val","inanimate","negative","Valence","VC","","negative",1,1738770267874,"negative",1508.66666666667,672,"B","negative;positive","",6.51025834052315,7.31898153752537,84
"85","63fcf7251ace1792db0941b0","pizza","test_val","inanimate","positive","Valence","VC","","positive",1,1738770269355,"positive",1548.5,720,"B","negative;positive","",6.5792512120101,7.34504199941326,85
"86","63fcf7251ace1792db0941b0","prize","test_val","inanimate","positive","Valence","VC","","positive",1,1738770271578,"positive",1615.83333333333,1462,"B","negative;positive","",7.28756064030972,7.3876060984487,86
"87","63fcf7251ace1792db0941b0","mugger","test_val","animate","negative","Valence","VC","","negative",1,1738770273083,"negative",1691,747,"B","negative;positive","",6.61606518513282,7.43307534889858,87
"88","63fcf7251ace1792db0941b0","asshole","test_val","animate","negative","Valence","VC","","negative",1,1738770274474,"negative",1668.16666666667,618,"B","negative;positive","",6.42648845745769,7.41948049799096,88
"89","63fcf7251ace1792db0941b0","swastika","test_val","inanimate","negative","Valence","VC","","negative",1,1738770275842,"negative",1480.33333333333,608,"B","negative;positive","",6.41017488196617,7.30002256662399,89
"90","63fcf7251ace1792db0941b0","kitten","test_val","animate","positive","Valence","VC","","positive",1,1738770277234,"positive",1404.66666666667,633,"B","negative;positive","",6.45047042214418,7.24755530569603,90
"91","63fcf7251ace1792db0941b0","smallpox","test_val","inanimate","negative","Valence","VC","","negative",1,1738770278818,"negative",1618.33333333333,825,"B","negative;positive","",6.71538338633468,7.38915209205732,91
"92","63fcf7251ace1792db0941b0","dictator","test_val","animate","negative","Valence","VC","","negative",1,1738770280194,"negative",1643,614,"B","negative;positive","",6.41999492814714,7.40427911803727,92
"93","63fcf7251ace1792db0941b0","sandwich","test_val","inanimate","positive","Valence","VC","","positive",1,1738770281538,"positive",1539.5,584,"B","negative;positive","",6.36990098282823,7.33921296736456,93
"94","63fcf7251ace1792db0941b0","maggot","test_val","animate","negative","Valence","VC","","negative",1,1738770282938,"negative",1499.5,643,"B","negative;positive","",6.46614472423762,7.31288699818906,94
"95","63fcf7251ace1792db0941b0","doughnut","test_val","inanimate","positive","Valence","VC","","positive",1,1738770284418,"positive",1495.16666666667,720,"B","negative;positive","",6.5792512120101,7.30999296233123,95
"96","63fcf7251ace1792db0941b0","gunshot","test_val","inanimate","negative","Valence","VC","","negative",1,1738770285810,"negative",1710.16666666667,633,"B","negative;positive","",6.45047042214418,7.44434611063415,96
"97","63fcf7251ace1792db0941b0","heroin","test_val","inanimate","negative","Valence","VC","","negative",1,1738770287210,"negative",1510,640,"B","negative;positive","",6.46146817635372,7.31986492980897,97
"98","63fcf7251ace1792db0941b0","leech","test_val","animate","negative","Valence","VC","","negative",1,1738770288570,"negative",1523.66666666667,601,"B","negative;positive","",6.39859493453521,7.32887498966363,98
"99","63fcf7251ace1792db0941b0","duckling","test_val","animate","positive","Valence","VC","","positive",1,1738770289994,"positive",1461.83333333333,666,"B","negative;positive","",6.50128967054039,7.28744663472333,99
"100","63fcf7251ace1792db0941b0","corpse","test_val","inanimate","negative","Valence","VC","","negative",1,1738770291378,"negative",1789.66666666667,627,"B","negative;positive","",6.44094654063292,7.48978466175446,100
"101","63fcf7251ace1792db0941b0","chipmunk","test_val","animate","positive","Valence","VC","","positive",1,1738770292778,"positive",1486.16666666667,642,"B","negative;positive","",6.46458830368996,7.30395537690682,101
"102","63fcf7251ace1792db0941b0","sibling","test_val","animate","positive","Valence","VC","","positive",1,1738770294426,"positive",1651.33333333333,884,"B","negative;positive","",6.78445706263764,7.4093383213812,102
"103","63fcf7251ace1792db0941b0","intruder","test_val","animate","negative","Valence","VC","","negative",1,1738770295946,"negative",1769,759,"B","negative;positive","",6.63200177739563,7.47816969415979,103
"104","63fcf7251ace1792db0941b0","comedian","test_val","animate","positive","Valence","VC","","positive",1,1738770297354,"positive",1547.16666666667,647,"B","negative;positive","",6.4723462945009,7.34418058017188,104
"105","63fcf7251ace1792db0941b0","flood","test_val","inanimate","negative","Valence","VC","","negative",1,1738770298898,"negative",1540,783,"B","negative;positive","",6.6631326959908,7.33953769540767,105
"106","63fcf7251ace1792db0941b0","excrement","test_val","inanimate","negative","Valence","VC","","negative",1,1738770300330,"negative",1582.16666666667,674,"B","negative;positive","",6.51323011091231,7.36655049465374,106
"107","63fcf7251ace1792db0941b0","slave","test_val","animate","negative","Valence","VC","","negative",1,1738770301882,"negative",1551.33333333333,797,"B","negative;positive","",6.68085467879022,7.34687005519413,107
"108","63fcf7251ace1792db0941b0","tapeworm","test_val","animate","negative","Valence","VC","","negative",1,1738770303355,"negative",1573.16666666667,714,"B","negative;positive","",6.57088296233958,7.36084585209689,108
"109","63fcf7251ace1792db0941b0","wiretap","test_val","inanimate","negative","Valence","VC","","negative",1,1738770304730,"negative",1576.66666666667,614,"B","negative;positive","",6.41999492814714,7.36306819281787,109
"110","63fcf7251ace1792db0941b0","princess","test_val","animate","positive","Valence","VC","","positive",1,1738770306178,"positive",1505.83333333333,687,"B","negative;positive","",6.53233429222235,7.31710173379827,110
"111","63fcf7251ace1792db0941b0","feast","test_val","inanimate","positive","Valence","VC","","positive",1,1738770307770,"positive",1645.66666666667,832,"B","negative;positive","",6.72383244082121,7.40590084959075,111
"112","63fcf7251ace1792db0941b0","award","test_val","inanimate","positive","Valence","VC","","positive",1,1738770309194,"positive",1514,662,"B","negative;positive","",6.49526555593701,7.32251043399739,112
"113","63fcf7251ace1792db0941b0","sunshine","test_val","inanimate","positive","Valence","VC","","positive",1,1738770310570,"positive",1672.83333333333,614,"B","negative;positive","",6.41999492814714,7.42227407458575,113
"114","63fcf7251ace1792db0941b0","poison","test_val","inanimate","negative","Valence","VC","","negative",1,1738770312050,"negative",1472.33333333333,719,"B","negative;positive","",6.57786135772105,7.29460372292842,114
"115","63fcf7251ace1792db0941b0","widow","test_val","animate","negative","Valence","VC","","negative",1,1738770314546,"negative",1806.5,1737,"B","negative;positive","",7.4599147662411,7.4991465505877,115
"116","63fcf7251ace1792db0941b0","meadow","test_val","inanimate","positive","Valence","VC","","positive",1,1738770316210,"positive",1723,906,"B","negative;positive","",6.80903930604298,7.45182223652793,116
"117","63fcf7251ace1792db0941b0","husband","test_val","animate","positive","Valence","VC","","positive",1,1738770317954,"positive",1490.33333333333,986,"B","negative;positive","",6.89365635460264,7.30675508756587,117
"118","63fcf7251ace1792db0941b0","puppy","test_val","animate","positive","Valence","VC","","positive",1,1738770319290,"positive",1420,579,"B","negative;positive","",6.361302477573,7.25841215059531,118
"119","63fcf7251ace1792db0941b0","dollar","test_val","inanimate","positive","Valence","VC","","positive",1,1738770320594,"positive",1451.33333333333,540,"B","negative;positive","",6.29156913955832,7.28023795312638,119
"120","63fcf7251ace1792db0941b0","laughter","test_val","inanimate","positive","Valence","VC","","positive",1,1738770321970,"positive",1580.83333333333,618,"B","negative;positive","",6.42648845745769,7.36570741314106,120
"121","63fcf7251ace1792db0941b0","husband","test_ani","animate","positive","Animacy","VC","","animate",1,1738770447770,"animate",1490.33333333333,864,"B","inanimate;animate","",6.76157276880406,7.30675508756587,121
"122","63fcf7251ace1792db0941b0","princess","test_ani","animate","positive","Animacy","VC","","animate",1,1738770449082,"animate",1505.83333333333,552,"B","inanimate;animate","",6.31354804627709,7.31710173379827,122
"123","63fcf7251ace1792db0941b0","sandwich","test_ani","inanimate","positive","Animacy","VC","","animate",1,1738770450442,"animate",1539.5,599,"B","inanimate;animate","",6.39526159811545,7.33921296736456,123
"124","63fcf7251ace1792db0941b0","mugger","test_ani","animate","negative","Animacy","VC","","animate",1,1738770452866,"animate",1691,1662,"B","inanimate;animate","",7.41577697541539,7.43307534889858,124
"125","63fcf7251ace1792db0941b0","widow","test_ani","animate","negative","Animacy","VC","","animate",1,1738770454458,"animate",1806.5,832,"B","inanimate;animate","",6.72383244082121,7.4991465505877,125
"126","63fcf7251ace1792db0941b0","laughter","test_ani","inanimate","positive","Animacy","VC","","inanimate",1,1738770456082,"inanimate",1580.83333333333,862,"B","inanimate;animate","",6.75925527066369,7.36570741314106,126
"127","63fcf7251ace1792db0941b0","sunshine","test_ani","inanimate","positive","Animacy","VC","","inanimate",1,1738770457906,"inanimate",1672.83333333333,1065,"B","inanimate;animate","",6.97073007814353,7.42227407458575,127
"128","63fcf7251ace1792db0941b0","chipmunk","test_ani","animate","positive","Animacy","VC","","animate",1,1738770459402,"animate",1486.16666666667,738,"B","inanimate;animate","",6.60394382460047,7.30395537690682,128
"129","63fcf7251ace1792db0941b0","gunshot","test_ani","inanimate","negative","Animacy","VC","","inanimate",1,1738770461138,"inanimate",1710.16666666667,974,"B","inanimate;animate","",6.88141130364254,7.44434611063415,129
"130","63fcf7251ace1792db0941b0","bunny","test_ani","animate","positive","Animacy","VC","","animate",1,1738770462675,"animate",1436,768,"B","inanimate;animate","",6.64378973314767,7.26961674960817,130
"131","63fcf7251ace1792db0941b0","flood","test_ani","inanimate","negative","Animacy","VC","","inanimate",1,1738770464106,"inanimate",1540,673,"B","inanimate;animate","",6.51174532964473,7.33953769540767,131
"132","63fcf7251ace1792db0941b0","smallpox","test_ani","inanimate","negative","Animacy","VC","","inanimate",1,1738770465658,"inanimate",1618.33333333333,790,"B","inanimate;animate","",6.67203294546107,7.38915209205732,132
"133","63fcf7251ace1792db0941b0","maggot","test_ani","animate","negative","Animacy","VC","","inanimate",0,1738770467090,"inanimate",1499.5,673,"B","inanimate;animate","",6.51174532964473,7.31288699818906,133
"134","63fcf7251ace1792db0941b0","slave","test_ani","animate","negative","Animacy","VC","","inanimate",0,1738770468650,"inanimate",1551.33333333333,799,"B","inanimate;animate","",6.68336094576627,7.34687005519413,134
"135","63fcf7251ace1792db0941b0","heroin","test_ani","inanimate","negative","Animacy","VC","","inanimate",1,1738770470370,"inanimate",1510,962,"B","inanimate;animate","",6.86901445066571,7.31986492980897,135
"136","63fcf7251ace1792db0941b0","swastika","test_ani","inanimate","negative","Animacy","VC","","inanimate",1,1738770471890,"inanimate",1480.33333333333,762,"B","inanimate;animate","",6.63594655568665,7.30002256662399,136
"137","63fcf7251ace1792db0941b0","prize","test_ani","inanimate","positive","Animacy","VC","","inanimate",1,1738770473338,"inanimate",1615.83333333333,685,"B","inanimate;animate","",6.52941883826223,7.3876060984487,137
"138","63fcf7251ace1792db0941b0","duckling","test_ani","animate","positive","Animacy","VC","","animate",1,1738770474850,"animate",1461.83333333333,755,"B","inanimate;animate","",6.62671774924902,7.28744663472333,138
"139","63fcf7251ace1792db0941b0","award","test_ani","inanimate","positive","Animacy","VC","","inanimate",1,1738770476402,"inanimate",1514,792,"B","inanimate;animate","",6.67456139181443,7.32251043399739,139
"140","63fcf7251ace1792db0941b0","asshole","test_ani","animate","negative","Animacy","VC","","inanimate",0,1738770477882,"inanimate",1668.16666666667,720,"B","inanimate;animate","",6.5792512120101,7.41948049799096,140
"141","63fcf7251ace1792db0941b0","tapeworm","test_ani","animate","negative","Animacy","VC","","animate",1,1738770479810,"animate",1573.16666666667,1171,"B","inanimate;animate","",7.06561336359772,7.36084585209689,141
"142","63fcf7251ace1792db0941b0","intruder","test_ani","animate","negative","Animacy","VC","","animate",1,1738770481442,"animate",1769,870,"B","inanimate;animate","",6.76849321164863,7.47816969415979,142
"143","63fcf7251ace1792db0941b0","feast","test_ani","inanimate","positive","Animacy","VC","","inanimate",1,1738770482978,"inanimate",1645.66666666667,774,"B","inanimate;animate","",6.65157187358973,7.40590084959075,143
"144","63fcf7251ace1792db0941b0","dictator","test_ani","animate","negative","Animacy","VC","","animate",1,1738770484970,"animate",1643,1231,"B","inanimate;animate","",7.11558212618445,7.40427911803727,144
"145","63fcf7251ace1792db0941b0","leech","test_ani","animate","negative","Animacy","VC","","animate",1,1738770486682,"animate",1523.66666666667,952,"B","inanimate;animate","",6.85856503479136,7.32887498966363,145
"146","63fcf7251ace1792db0941b0","dollar","test_ani","inanimate","positive","Animacy","VC","","inanimate",1,1738770488138,"inanimate",1451.33333333333,698,"B","inanimate;animate","",6.54821910276237,7.28023795312638,146
"147","63fcf7251ace1792db0941b0","sibling","test_ani","animate","positive","Animacy","VC","","animate",1,1738770489586,"animate",1651.33333333333,690,"B","inanimate;animate","",6.5366915975913,7.4093383213812,147
"148","63fcf7251ace1792db0941b0","doughnut","test_ani","inanimate","positive","Animacy","VC","","animate",1,1738770490971,"animate",1495.16666666667,623,"B","inanimate;animate","",6.43454651878745,7.30999296233123,148
"149","63fcf7251ace1792db0941b0","meadow","test_ani","inanimate","positive","Animacy","VC","","inanimate",1,1738770493210,"inanimate",1723,1476,"B","inanimate;animate","",7.29709100516042,7.45182223652793,149
"150","63fcf7251ace1792db0941b0","pizza","test_ani","inanimate","positive","Animacy","VC","","inanimate",1,1738770495162,"inanimate",1548.5,1194,"B","inanimate;animate","",7.08506429395255,7.34504199941326,150
"151","63fcf7251ace1792db0941b0","cocaine","test_ani","inanimate","negative","Animacy","VC","","inanimate",1,1738770496650,"inanimate",1508.66666666667,731,"B","inanimate;animate","",6.59441345974978,7.31898153752537,151
"152","63fcf7251ace1792db0941b0","wiretap","test_ani","inanimate","negative","Animacy","VC","","inanimate",1,1738770498362,"inanimate",1576.66666666667,954,"B","inanimate;animate","",6.86066367144829,7.36306819281787,152
"153","63fcf7251ace1792db0941b0","kitten","test_ani","animate","positive","Animacy","VC","","animate",1,1738770499827,"animate",1404.66666666667,707,"B","inanimate;animate","",6.56103066589657,7.24755530569603,153
"154","63fcf7251ace1792db0941b0","comedian","test_ani","animate","positive","Animacy","VC","","animate",1,1738770501522,"animate",1547.16666666667,936,"B","inanimate;animate","",6.84161547647759,7.34418058017188,154
"155","63fcf7251ace1792db0941b0","excrement","test_ani","inanimate","negative","Animacy","VC","","inanimate",1,1738770503194,"inanimate",1582.16666666667,913,"B","inanimate;animate","",6.81673588059497,7.36655049465374,155
"156","63fcf7251ace1792db0941b0","child","test_ani","animate","positive","Animacy","VC","","animate",1,1738770504714,"animate",1400.66666666667,758,"B","inanimate;animate","",6.63068338564237,7.24470359273684,156
"157","63fcf7251ace1792db0941b0","inmate","test_ani","animate","negative","Animacy","VC","","animate",1,1738770506266,"animate",1590,791,"B","inanimate;animate","",6.67329796776765,7.37148929521428,157
"158","63fcf7251ace1792db0941b0","corpse","test_ani","inanimate","negative","Animacy","VC","","inanimate",1,1738770508842,"inanimate",1789.66666666667,1818,"B","inanimate;animate","",7.50549227473742,7.48978466175446,158
"159","63fcf7251ace1792db0941b0","poison","test_ani","inanimate","negative","Animacy","VC","","inanimate",1,1738770510546,"inanimate",1472.33333333333,943,"B","inanimate;animate","",6.84906628263346,7.29460372292842,159
"160","63fcf7251ace1792db0941b0","puppy","test_ani","animate","positive","Animacy","VC","","animate",1,1738770512050,"animate",1420,750,"B","inanimate;animate","",6.62007320653036,7.25841215059531,160
"161","63fcf7251ace1792db0941b0","heroin","test_ani","inanimate","negative","Animacy","VC","","inanimate",1,1738770513603,"inanimate",1510,794,"B","inanimate;animate","",6.67708346124714,7.31986492980897,161
"162","63fcf7251ace1792db0941b0","bunny","test_ani","animate","positive","Animacy","VC","","animate",1,1738770514930,"animate",1436,568,"B","inanimate;animate","",6.34212141872115,7.26961674960817,162
"163","63fcf7251ace1792db0941b0","doughnut","test_ani","inanimate","positive","Animacy","VC","","inanimate",1,1738770516482,"inanimate",1495.16666666667,795,"B","inanimate;animate","",6.67834211465433,7.30999296233123,163
"164","63fcf7251ace1792db0941b0","tapeworm","test_ani","animate","negative","Animacy","VC","","animate",1,1738770518186,"animate",1573.16666666667,945,"B","inanimate;animate","",6.85118492749374,7.36084585209689,164
"165","63fcf7251ace1792db0941b0","sandwich","test_ani","inanimate","positive","Animacy","VC","","inanimate",1,1738770519627,"inanimate",1539.5,681,"B","inanimate;animate","",6.52356230614951,7.33921296736456,165
"166","63fcf7251ace1792db0941b0","smallpox","test_ani","inanimate","negative","Animacy","VC","","inanimate",1,1738770521162,"inanimate",1618.33333333333,764,"B","inanimate;animate","",6.63856778916652,7.38915209205732,166
"167","63fcf7251ace1792db0941b0","intruder","test_ani","animate","negative","Animacy","VC","","animate",1,1738770523426,"animate",1769,1505,"B","inanimate;animate","",7.31654817718298,7.47816969415979,167
"168","63fcf7251ace1792db0941b0","poison","test_ani","inanimate","negative","Animacy","VC","","inanimate",1,1738770524834,"inanimate",1472.33333333333,646,"B","inanimate;animate","",6.4707995037826,7.29460372292842,168
"169","63fcf7251ace1792db0941b0","laughter","test_ani","inanimate","positive","Animacy","VC","","inanimate",1,1738770526586,"inanimate",1580.83333333333,990,"B","inanimate;animate","",6.89770494312864,7.36570741314106,169
"170","63fcf7251ace1792db0941b0","corpse","test_ani","inanimate","negative","Animacy","VC","","inanimate",1,1738770528994,"inanimate",1789.66666666667,1648,"B","inanimate;animate","",7.40731771046942,7.48978466175446,170
"171","63fcf7251ace1792db0941b0","widow","test_ani","animate","negative","Animacy","VC","","animate",1,1738770530586,"animate",1806.5,832,"B","inanimate;animate","",6.72383244082121,7.4991465505877,171
"172","63fcf7251ace1792db0941b0","flood","test_ani","inanimate","negative","Animacy","VC","","inanimate",1,1738770532098,"inanimate",1540,755,"B","inanimate;animate","",6.62671774924902,7.33953769540767,172
"173","63fcf7251ace1792db0941b0","dictator","test_ani","animate","negative","Animacy","VC","","animate",1,1738770533706,"animate",1643,846,"B","inanimate;animate","",6.74051935960622,7.40427911803727,173
"174","63fcf7251ace1792db0941b0","dollar","test_ani","inanimate","positive","Animacy","VC","","inanimate",1,1738770535218,"inanimate",1451.33333333333,750,"B","inanimate;animate","",6.62007320653036,7.28023795312638,174
"175","63fcf7251ace1792db0941b0","comedian","test_ani","animate","positive","Animacy","VC","","animate",1,1738770536722,"animate",1547.16666666667,742,"B","inanimate;animate","",6.60934924316738,7.34418058017188,175
"176","63fcf7251ace1792db0941b0","husband","test_ani","animate","positive","Animacy","VC","","animate",1,1738770538058,"animate",1490.33333333333,574,"B","inanimate;animate","",6.35262939631957,7.30675508756587,176
"177","63fcf7251ace1792db0941b0","puppy","test_ani","animate","positive","Animacy","VC","","animate",1,1738770539370,"animate",1420,554,"B","inanimate;animate","",6.31716468674728,7.25841215059531,177
"178","63fcf7251ace1792db0941b0","maggot","test_ani","animate","negative","Animacy","VC","","animate",1,1738770540954,"animate",1499.5,826,"B","inanimate;animate","",6.71659477352098,7.31288699818906,178
"179","63fcf7251ace1792db0941b0","pizza","test_ani","inanimate","positive","Animacy","VC","","inanimate",1,1738770542398,"inanimate",1548.5,689,"B","inanimate;animate","",6.53524127101366,7.34504199941326,179
"180","63fcf7251ace1792db0941b0","prize","test_ani","inanimate","positive","Animacy","VC","","inanimate",1,1738770543882,"inanimate",1615.83333333333,723,"B","inanimate;animate","",6.58340922215876,7.3876060984487,180
"181","63fcf7251ace1792db0941b0","asshole","test_ani","animate","negative","Animacy","VC","","animate",1,1738770545730,"animate",1668.16666666667,1087,"B","inanimate;animate","",6.99117688712121,7.41948049799096,181
"182","63fcf7251ace1792db0941b0","wiretap","test_ani","inanimate","negative","Animacy","VC","","inanimate",1,1738770547538,"inanimate",1576.66666666667,1047,"B","inanimate;animate","",6.95368421087054,7.36306819281787,182
"183","63fcf7251ace1792db0941b0","slave","test_ani","animate","negative","Animacy","VC","","animate",1,1738770549379,"animate",1551.33333333333,1080,"B","inanimate;animate","",6.98471632011827,7.34687005519413,183
"184","63fcf7251ace1792db0941b0","kitten","test_ani","animate","positive","Animacy","VC","","animate",1,1738770550698,"animate",1404.66666666667,559,"B","inanimate;animate","",6.3261494731551,7.24755530569603,184
"185","63fcf7251ace1792db0941b0","child","test_ani","animate","positive","Animacy","VC","","animate",1,1738770552018,"animate",1400.66666666667,562,"B","inanimate;animate","",6.33150184989369,7.24470359273684,185
"186","63fcf7251ace1792db0941b0","meadow","test_ani","inanimate","positive","Animacy","VC","","inanimate",1,1738770553563,"inanimate",1723,784,"B","inanimate;animate","",6.66440902035041,7.45182223652793,186
"187","63fcf7251ace1792db0941b0","swastika","test_ani","inanimate","negative","Animacy","VC","","inanimate",1,1738770555146,"inanimate",1480.33333333333,823,"B","inanimate;animate","",6.71295620067707,7.30002256662399,187
"188","63fcf7251ace1792db0941b0","sibling","test_ani","animate","positive","Animacy","VC","","animate",1,1738770556747,"animate",1651.33333333333,840,"B","inanimate;animate","",6.73340189183736,7.4093383213812,188
"189","63fcf7251ace1792db0941b0","inmate","test_ani","animate","negative","Animacy","VC","","animate",1,1738770558762,"animate",1590,1255,"B","inanimate;animate","",7.13489085156588,7.37148929521428,189
"190","63fcf7251ace1792db0941b0","leech","test_ani","animate","negative","Animacy","VC","","animate",1,1738770560290,"animate",1523.66666666667,770,"B","inanimate;animate","",6.64639051484773,7.32887498966363,190
"191","63fcf7251ace1792db0941b0","excrement","test_ani","inanimate","negative","Animacy","VC","","inanimate",1,1738770561931,"inanimate",1582.16666666667,881,"B","inanimate;animate","",6.78105762593618,7.36655049465374,191
"192","63fcf7251ace1792db0941b0","duckling","test_ani","animate","positive","Animacy","VC","","animate",1,1738770563338,"animate",1461.83333333333,651,"B","inanimate;animate","",6.47850964220857,7.28744663472333,192
"193","63fcf7251ace1792db0941b0","sunshine","test_ani","inanimate","positive","Animacy","VC","","animate",1,1738770564747,"animate",1672.83333333333,648,"B","inanimate;animate","",6.47389069635227,7.42227407458575,193
"194","63fcf7251ace1792db0941b0","princess","test_ani","animate","positive","Animacy","VC","","animate",1,1738770566434,"animate",1505.83333333333,930,"B","inanimate;animate","",6.8351845861473,7.31710173379827,194
"195","63fcf7251ace1792db0941b0","mugger","test_ani","animate","negative","Animacy","VC","","animate",1,1738770568034,"animate",1691,838,"B","inanimate;animate","",6.73101810048208,7.43307534889858,195
"196","63fcf7251ace1792db0941b0","award","test_ani","inanimate","positive","Animacy","VC","","inanimate",1,1738770569562,"inanimate",1514,765,"B","inanimate;animate","",6.63987583382654,7.32251043399739,196
"197","63fcf7251ace1792db0941b0","gunshot","test_ani","inanimate","negative","Animacy","VC","","inanimate",1,1738770571162,"inanimate",1710.16666666667,841,"B","inanimate;animate","",6.73459165997295,7.44434611063415,197
"198","63fcf7251ace1792db0941b0","chipmunk","test_ani","animate","positive","Animacy","VC","","animate",1,1738770572618,"animate",1486.16666666667,695,"B","inanimate;animate","",6.54391184556479,7.30395537690682,198
"199","63fcf7251ace1792db0941b0","feast","test_ani","inanimate","positive","Animacy","VC","","inanimate",1,1738770574290,"inanimate",1645.66666666667,914,"B","inanimate;animate","",6.81783057145415,7.40590084959075,199
"200","63fcf7251ace1792db0941b0","cocaine","test_ani","inanimate","negative","Animacy","VC","","inanimate",1,1738770575906,"inanimate",1508.66666666667,855,"B","inanimate;animate","",6.75110146893676,7.31898153752537,200
"201","63fcf7251ace1792db0941b0","asshole","test_ani","animate","negative","Animacy","VC","","animate",1,1738770578400,"animate",1668.16666666667,1737,"B","inanimate;animate","",7.4599147662411,7.41948049799096,201
"202","63fcf7251ace1792db0941b0","inmate","test_ani","animate","negative","Animacy","VC","","animate",1,1738770579906,"animate",1590,745,"B","inanimate;animate","",6.61338421837956,7.37148929521428,202
"203","63fcf7251ace1792db0941b0","mugger","test_ani","animate","negative","Animacy","VC","","animate",1,1738770581399,"animate",1691,735,"B","inanimate;animate","",6.59987049921284,7.43307534889858,203
"204","63fcf7251ace1792db0941b0","pizza","test_ani","inanimate","positive","Animacy","VC","","inanimate",1,1738770582858,"inanimate",1548.5,697,"B","inanimate;animate","",6.54678541076052,7.34504199941326,204
"205","63fcf7251ace1792db0941b0","sandwich","test_ani","inanimate","positive","Animacy","VC","","inanimate",1,1738770584858,"inanimate",1539.5,1238,"B","inanimate;animate","",7.12125245324454,7.33921296736456,205
"206","63fcf7251ace1792db0941b0","chipmunk","test_ani","animate","positive","Animacy","VC","","animate",1,1738770586315,"animate",1486.16666666667,697,"B","inanimate;animate","",6.54678541076052,7.30395537690682,206
"207","63fcf7251ace1792db0941b0","husband","test_ani","animate","positive","Animacy","VC","","animate",1,1738770587706,"animate",1490.33333333333,630,"B","inanimate;animate","",6.44571981938558,7.30675508756587,207
"208","63fcf7251ace1792db0941b0","child","test_ani","animate","positive","Animacy","VC","","animate",1,1738770589002,"animate",1400.66666666667,540,"B","inanimate;animate","",6.29156913955832,7.24470359273684,208
"209","63fcf7251ace1792db0941b0","swastika","test_ani","inanimate","negative","Animacy","VC","","inanimate",1,1738770590499,"inanimate",1480.33333333333,737,"B","inanimate;animate","",6.60258789218934,7.30002256662399,209
"210","63fcf7251ace1792db0941b0","award","test_ani","inanimate","positive","Animacy","VC","","inanimate",1,1738770592098,"inanimate",1514,838,"B","inanimate;animate","",6.73101810048208,7.32251043399739,210
"211","63fcf7251ace1792db0941b0","feast","test_ani","inanimate","positive","Animacy","VC","","inanimate",1,1738770593826,"inanimate",1645.66666666667,968,"B","inanimate;animate","",6.87523208727658,7.40590084959075,211
"212","63fcf7251ace1792db0941b0","smallpox","test_ani","inanimate","negative","Animacy","VC","","inanimate",1,1738770595538,"inanimate",1618.33333333333,952,"B","inanimate;animate","",6.85856503479136,7.38915209205732,212
"213","63fcf7251ace1792db0941b0","prize","test_ani","inanimate","positive","Animacy","VC","","inanimate",1,1738770597082,"inanimate",1615.83333333333,786,"B","inanimate;animate","",6.66695679242921,7.3876060984487,213
"214","63fcf7251ace1792db0941b0","bunny","test_ani","animate","positive","Animacy","VC","","animate",1,1738770598578,"animate",1436,738,"B","inanimate;animate","",6.60394382460047,7.26961674960817,214
"215","63fcf7251ace1792db0941b0","comedian","test_ani","animate","positive","Animacy","VC","","animate",1,1738770600170,"animate",1547.16666666667,831,"B","inanimate;animate","",6.72262979485545,7.34418058017188,215
"216","63fcf7251ace1792db0941b0","puppy","test_ani","animate","positive","Animacy","VC","","animate",1,1738770601546,"animate",1420,621,"B","inanimate;animate","",6.43133108193348,7.25841215059531,216
"217","63fcf7251ace1792db0941b0","wiretap","test_ani","inanimate","negative","Animacy","VC","","inanimate",1,1738770603042,"inanimate",1576.66666666667,738,"B","inanimate;animate","",6.60394382460047,7.36306819281787,217
"218","63fcf7251ace1792db0941b0","slave","test_ani","animate","negative","Animacy","VC","","animate",1,1738770604650,"animate",1551.33333333333,849,"B","inanimate;animate","",6.74405918631135,7.34687005519413,218
"219","63fcf7251ace1792db0941b0","intruder","test_ani","animate","negative","Animacy","VC","","animate",1,1738770606274,"animate",1769,862,"B","inanimate;animate","",6.75925527066369,7.47816969415979,219
"220","63fcf7251ace1792db0941b0","gunshot","test_ani","inanimate","negative","Animacy","VC","","inanimate",1,1738770607810,"inanimate",1710.16666666667,774,"B","inanimate;animate","",6.65157187358973,7.44434611063415,220
"221","63fcf7251ace1792db0941b0","flood","test_ani","inanimate","negative","Animacy","VC","","inanimate",1,1738770609530,"inanimate",1540,960,"B","inanimate;animate","",6.86693328446188,7.33953769540767,221
"222","63fcf7251ace1792db0941b0","maggot","test_ani","animate","negative","Animacy","VC","","animate",1,1738770611186,"animate",1499.5,898,"B","inanimate;animate","",6.8001700683022,7.31288699818906,222
"223","63fcf7251ace1792db0941b0","sunshine","test_ani","inanimate","positive","Animacy","VC","","inanimate",1,1738770613674,"inanimate",1672.83333333333,1731,"B","inanimate;animate","",7.45645455517621,7.42227407458575,223
"224","63fcf7251ace1792db0941b0","heroin","test_ani","inanimate","negative","Animacy","VC","","inanimate",1,1738770615130,"inanimate",1510,699,"B","inanimate;animate","",6.54965074223381,7.31986492980897,224
"225","63fcf7251ace1792db0941b0","corpse","test_ani","inanimate","negative","Animacy","VC","","animate",1,1738770616714,"animate",1789.66666666667,821,"B","inanimate;animate","",6.71052310945243,7.48978466175446,225
"226","63fcf7251ace1792db0941b0","dollar","test_ani","inanimate","positive","Animacy","VC","","inanimate",1,1738770618338,"inanimate",1451.33333333333,860,"B","inanimate;animate","",6.75693238924755,7.28023795312638,226
"227","63fcf7251ace1792db0941b0","widow","test_ani","animate","negative","Animacy","VC","","animate",1,1738770619906,"animate",1806.5,808,"B","inanimate;animate","",6.69456205852109,7.4991465505877,227
"228","63fcf7251ace1792db0941b0","duckling","test_ani","animate","positive","Animacy","VC","","animate",1,1738770621258,"animate",1461.83333333333,592,"B","inanimate;animate","",6.38350663488401,7.28744663472333,228
"229","63fcf7251ace1792db0941b0","dictator","test_ani","animate","negative","Animacy","VC","","animate",1,1738770623010,"animate",1643,991,"B","inanimate;animate","",6.89871453432999,7.40427911803727,229
"230","63fcf7251ace1792db0941b0","excrement","test_ani","inanimate","negative","Animacy","VC","","inanimate",1,1738770624610,"inanimate",1582.16666666667,837,"B","inanimate;animate","",6.72982407048948,7.36655049465374,230
"231","63fcf7251ace1792db0941b0","meadow","test_ani","inanimate","positive","Animacy","VC","","animate",1,1738770626594,"animate",1723,1228,"B","inanimate;animate","",7.11314210870709,7.45182223652793,231
"232","63fcf7251ace1792db0941b0","sibling","test_ani","animate","positive","Animacy","VC","","animate",1,1738770628251,"animate",1651.33333333333,896,"B","inanimate;animate","",6.79794041297493,7.4093383213812,232
"233","63fcf7251ace1792db0941b0","doughnut","test_ani","inanimate","positive","Animacy","VC","","inanimate",1,1738770629906,"inanimate",1495.16666666667,896,"B","inanimate;animate","",6.79794041297493,7.30999296233123,233
"234","63fcf7251ace1792db0941b0","tapeworm","test_ani","animate","negative","Animacy","VC","","animate",1,1738770631467,"animate",1573.16666666667,798,"B","inanimate;animate","",6.68210859744981,7.36084585209689,234
"235","63fcf7251ace1792db0941b0","cocaine","test_ani","inanimate","negative","Animacy","VC","","inanimate",1,1738770633042,"inanimate",1508.66666666667,814,"B","inanimate;animate","",6.70196036600254,7.31898153752537,235
"236","63fcf7251ace1792db0941b0","kitten","test_ani","animate","positive","Animacy","VC","","animate",1,1738770634426,"animate",1404.66666666667,625,"B","inanimate;animate","",6.4377516497364,7.24755530569603,236
"237","63fcf7251ace1792db0941b0","princess","test_ani","animate","positive","Animacy","VC","","animate",1,1738770635851,"animate",1505.83333333333,669,"B","inanimate;animate","",6.50578406012823,7.31710173379827,237
"238","63fcf7251ace1792db0941b0","poison","test_ani","inanimate","negative","Animacy","VC","","inanimate",1,1738770637250,"inanimate",1472.33333333333,640,"B","inanimate;animate","",6.46146817635372,7.29460372292842,238
"239","63fcf7251ace1792db0941b0","laughter","test_ani","inanimate","positive","Animacy","VC","","inanimate",1,1738770639130,"inanimate",1580.83333333333,1122,"B","inanimate;animate","",7.02286808608264,7.36570741314106,239
"240","63fcf7251ace1792db0941b0","leech","test_ani","animate","negative","Animacy","VC","","animate",1,1738770640667,"animate",1523.66666666667,764,"B","inanimate;animate","",6.63856778916652,7.32887498966363,240
"241","60fe22beeb612ead4d261590","corpse","test_ani","inanimate","negative","Animacy","CV","","animate",1,1738786022892,"animate",1358.66666666667,681,"A","animate;inanimate","",6.52356230614951,7.21425910567451,1
"242","60fe22beeb612ead4d261590","heroin","test_ani","inanimate","negative","Animacy","CV","","inanimate",1,1738786024448,"inanimate",1339.83333333333,801,"A","animate;inanimate","",6.68586094706836,7.20030050709991,2
"243","60fe22beeb612ead4d261590","sunshine","test_ani","inanimate","positive","Animacy","CV","","inanimate",1,1738786025934,"inanimate",1294.5,724,"A","animate;inanimate","",6.58479139238572,7.16587979919159,3
"244","60fe22beeb612ead4d261590","mugger","test_ani","animate","negative","Animacy","CV","","animate",1,1738786027395,"animate",1333.33333333333,706,"A","animate;inanimate","",6.55961523749324,7.19543735143392,4
"245","60fe22beeb612ead4d261590","cocaine","test_ani","inanimate","negative","Animacy","CV","","inanimate",1,1738786028909,"inanimate",1349.16666666667,757,"A","animate;inanimate","",6.62936325343745,7.20724239688368,5
"246","60fe22beeb612ead4d261590","doughnut","test_ani","inanimate","positive","Animacy","CV","","inanimate",1,1738786030555,"inanimate",1369.5,891,"A","animate;inanimate","",6.79234442747081,7.22220098870313,6
"247","60fe22beeb612ead4d261590","husband","test_ani","animate","positive","Animacy","CV","","animate",1,1738786031842,"animate",1270.16666666667,534,"A","animate;inanimate","",6.2803958389602,7.14690340443806,7
"248","60fe22beeb612ead4d261590","widow","test_ani","animate","negative","Animacy","CV","","animate",1,1738786033151,"animate",1357.66666666667,556,"A","animate;inanimate","",6.32076829425058,7.2135228189803,8
"249","60fe22beeb612ead4d261590","inmate","test_ani","animate","negative","Animacy","CV","","animate",1,1738786034854,"animate",1400.83333333333,947,"A","animate;inanimate","",6.85329909318608,7.24482257661466,9
"250","60fe22beeb612ead4d261590","tapeworm","test_ani","animate","negative","Animacy","CV","","animate",1,1738786036526,"animate",1403.66666666667,913,"A","animate;inanimate","",6.81673588059497,7.24684313949382,10
"251","60fe22beeb612ead4d261590","princess","test_ani","animate","positive","Animacy","CV","","animate",1,1738786037776,"animate",1274.5,494,"A","animate;inanimate","",6.20253551718792,7.15030922381617,11
"252","60fe22beeb612ead4d261590","child","test_ani","animate","positive","Animacy","CV","","animate",1,1738786039042,"animate",1274.66666666667,509,"A","animate;inanimate","",6.23244801655052,7.15043998550318,12
"253","60fe22beeb612ead4d261590","sandwich","test_ani","inanimate","positive","Animacy","CV","","inanimate",1,1738786040437,"inanimate",1339.16666666667,638,"A","animate;inanimate","",6.45833828334479,7.19980280894356,13
"254","60fe22beeb612ead4d261590","laughter","test_ani","inanimate","positive","Animacy","CV","","inanimate",1,1738786042148,"inanimate",1428.16666666667,954,"A","animate;inanimate","",6.86066367144829,7.26414684944106,14
"255","60fe22beeb612ead4d261590","kitten","test_ani","animate","positive","Animacy","CV","","animate",1,1738786043642,"animate",1322.5,736,"A","animate;inanimate","",6.60123011872888,7.18727916373245,15
"256","60fe22beeb612ead4d261590","dollar","test_ani","inanimate","positive","Animacy","CV","","inanimate",1,1738786045219,"inanimate",1386.83333333333,817,"A","animate;inanimate","",6.70563909486,7.23477824967237,16
"257","60fe22beeb612ead4d261590","dictator","test_ani","animate","negative","Animacy","CV","","animate",1,1738786046723,"animate",1351.66666666667,744,"A","animate;inanimate","",6.61204103483309,7.2090936778814,17
"258","60fe22beeb612ead4d261590","bunny","test_ani","animate","positive","Animacy","CV","","animate",1,1738786048166,"animate",1294,683,"A","animate;inanimate","",6.52649485957079,7.16549347506085,18
"259","60fe22beeb612ead4d261590","asshole","test_ani","animate","negative","Animacy","CV","","inanimate",0,1738786050963,"inanimate",1579.16666666667,2036,"A","animate;inanimate","",7.61874237767041,7.36465256072257,19
"260","60fe22beeb612ead4d261590","comedian","test_ani","animate","positive","Animacy","CV","","animate",1,1738786052943,"animate",1412.33333333333,1225,"A","animate;inanimate","",7.11069612297883,7.25299846195845,20
"261","60fe22beeb612ead4d261590","pizza","test_ani","inanimate","positive","Animacy","CV","","inanimate",1,1738786054458,"inanimate",1493.16666666667,756,"A","animate;inanimate","",6.62804137617953,7.30865442336952,21
"262","60fe22beeb612ead4d261590","duckling","test_ani","animate","positive","Animacy","CV","","inanimate",0,1738786055795,"inanimate",1320,584,"A","animate;inanimate","",6.36990098282823,7.18538701558042,22
"263","60fe22beeb612ead4d261590","smallpox","test_ani","inanimate","negative","Animacy","CV","","inanimate",1,1738786057331,"inanimate",1397.16666666667,777,"A","animate;inanimate","",6.65544035036765,7.2422016554098,23
"264","60fe22beeb612ead4d261590","prize","test_ani","inanimate","positive","Animacy","CV","","inanimate",1,1738786058826,"inanimate",1325.5,737,"A","animate;inanimate","",6.60258789218934,7.18954502572908,24
"265","60fe22beeb612ead4d261590","excrement","test_ani","inanimate","negative","Animacy","CV","","inanimate",1,1738786060867,"inanimate",1464.33333333333,1283,"A","animate;inanimate","",7.15695636461564,7.28915535530767,25
"266","60fe22beeb612ead4d261590","swastika","test_ani","inanimate","negative","Animacy","CV","","inanimate",1,1738786062407,"inanimate",1322.66666666667,784,"A","animate;inanimate","",6.66440902035041,7.18740517973665,26
"267","60fe22beeb612ead4d261590","feast","test_ani","inanimate","positive","Animacy","CV","","inanimate",1,1738786064006,"inanimate",1376.33333333333,841,"A","animate;inanimate","",6.73459165997295,7.22717823721798,27
"268","60fe22beeb612ead4d261590","chipmunk","test_ani","animate","positive","Animacy","CV","","animate",1,1738786065445,"animate",1299,680,"A","animate;inanimate","",6.52209279817015,7.1693500166706,28
"269","60fe22beeb612ead4d261590","intruder","test_ani","animate","negative","Animacy","CV","","animate",1,1738786066834,"animate",1449.66666666667,627,"A","animate;inanimate","",6.44094654063292,7.27908892392953,29
"270","60fe22beeb612ead4d261590","award","test_ani","inanimate","positive","Animacy","CV","","inanimate",1,1738786068277,"inanimate",1370.5,690,"A","animate;inanimate","",6.5366915975913,7.22293091574284,30
"271","60fe22beeb612ead4d261590","poison","test_ani","inanimate","negative","Animacy","CV","","inanimate",1,1738786069761,"inanimate",1332.66666666667,728,"A","animate;inanimate","",6.59030104819669,7.19493722639224,31
"272","60fe22beeb612ead4d261590","puppy","test_ani","animate","positive","Animacy","CV","","animate",1,1738786071060,"animate",1304.16666666667,543,"A","animate;inanimate","",6.29710931993394,7.1733195461803,32
"273","60fe22beeb612ead4d261590","gunshot","test_ani","inanimate","negative","Animacy","CV","","inanimate",1,1738786073139,"inanimate",1409.66666666667,1319,"A","animate;inanimate","",7.18462915271731,7.25110854880438,33
"274","60fe22beeb612ead4d261590","slave","test_ani","animate","negative","Animacy","CV","","animate",1,1738786074702,"animate",1357.66666666667,804,"A","animate;inanimate","",6.68959926917897,7.2135228189803,34
"275","60fe22beeb612ead4d261590","wiretap","test_ani","inanimate","negative","Animacy","CV","","inanimate",1,1738786076212,"inanimate",1323.33333333333,754,"A","animate;inanimate","",6.62539236800796,7.18790908501313,35
"276","60fe22beeb612ead4d261590","sibling","test_ani","animate","positive","Animacy","CV","","animate",1,1738786077593,"animate",1298.33333333333,624,"A","animate;inanimate","",6.43615036836943,7.16883666963674,36
"277","60fe22beeb612ead4d261590","meadow","test_ani","inanimate","positive","Animacy","CV","","inanimate",1,1738786079002,"inanimate",1394,649,"A","animate;inanimate","",6.47543271670409,7.23993259132047,37
"278","60fe22beeb612ead4d261590","leech","test_ani","animate","negative","Animacy","CV","","animate",1,1738786080863,"animate",1420,1103,"A","animate;inanimate","",7.0057890192535,7.25841215059531,38
"279","60fe22beeb612ead4d261590","flood","test_ani","inanimate","negative","Animacy","CV","","inanimate",1,1738786082198,"inanimate",1398.5,578,"A","animate;inanimate","",6.35957386867238,7.24315551264201,39
"280","60fe22beeb612ead4d261590","maggot","test_ani","animate","negative","Animacy","CV","","animate",1,1738786083564,"animate",1321.66666666667,604,"A","animate;inanimate","",6.40357419793482,7.18664884540084,40
"281","60fe22beeb612ead4d261590","corpse","test_ani","inanimate","negative","Animacy","CV","","inanimate",1,1738786084960,"inanimate",1358.66666666667,637,"A","animate;inanimate","",6.45676965557216,7.21425910567451,41
"282","60fe22beeb612ead4d261590","meadow","test_ani","inanimate","positive","Animacy","CV","","inanimate",1,1738786086502,"inanimate",1394,786,"A","animate;inanimate","",6.66695679242921,7.23993259132047,42
"283","60fe22beeb612ead4d261590","flood","test_ani","inanimate","negative","Animacy","CV","","inanimate",1,1738786088209,"inanimate",1398.5,950,"A","animate;inanimate","",6.85646198459459,7.24315551264201,43
"284","60fe22beeb612ead4d261590","dictator","test_ani","animate","negative","Animacy","CV","","animate",1,1738786089469,"animate",1351.66666666667,501,"A","animate;inanimate","",6.21660610108486,7.2090936778814,44
"285","60fe22beeb612ead4d261590","laughter","test_ani","inanimate","positive","Animacy","CV","","inanimate",1,1738786090976,"inanimate",1428.16666666667,748,"A","animate;inanimate","",6.61740297797448,7.26414684944106,45
"286","60fe22beeb612ead4d261590","tapeworm","test_ani","animate","negative","Animacy","CV","","animate",1,1738786092421,"animate",1403.66666666667,687,"A","animate;inanimate","",6.53233429222235,7.24684313949382,46
"287","60fe22beeb612ead4d261590","slave","test_ani","animate","negative","Animacy","CV","","animate",1,1738786093807,"animate",1357.66666666667,631,"A","animate;inanimate","",6.44730586254121,7.2135228189803,47
"288","60fe22beeb612ead4d261590","dollar","test_ani","inanimate","positive","Animacy","CV","","inanimate",1,1738786095098,"inanimate",1386.83333333333,532,"A","animate;inanimate","",6.27664348934164,7.23477824967237,48
"289","60fe22beeb612ead4d261590","leech","test_ani","animate","negative","Animacy","CV","","animate",1,1738786096526,"animate",1420,672,"A","animate;inanimate","",6.51025834052315,7.25841215059531,49
"290","60fe22beeb612ead4d261590","duckling","test_ani","animate","positive","Animacy","CV","","animate",1,1738786097933,"animate",1320,650,"A","animate;inanimate","",6.47697236288968,7.18538701558042,50
"291","60fe22beeb612ead4d261590","puppy","test_ani","animate","positive","Animacy","CV","","animate",1,1738786099251,"animate",1304.16666666667,561,"A","animate;inanimate","",6.3297209055227,7.1733195461803,51
"292","60fe22beeb612ead4d261590","pizza","test_ani","inanimate","positive","Animacy","CV","","inanimate",1,1738786100580,"inanimate",1493.16666666667,574,"A","animate;inanimate","",6.35262939631957,7.30865442336952,52
"293","60fe22beeb612ead4d261590","swastika","test_ani","inanimate","negative","Animacy","CV","","inanimate",1,1738786101891,"inanimate",1322.66666666667,551,"A","animate;inanimate","",6.31173480915291,7.18740517973665,53
"294","60fe22beeb612ead4d261590","maggot","test_ani","animate","negative","Animacy","CV","","animate",1,1738786103351,"animate",1321.66666666667,699,"A","animate;inanimate","",6.54965074223381,7.18664884540084,54
"295","60fe22beeb612ead4d261590","husband","test_ani","animate","positive","Animacy","CV","","animate",1,1738786104608,"animate",1270.16666666667,501,"A","animate;inanimate","",6.21660610108486,7.14690340443806,55
"296","60fe22beeb612ead4d261590","cocaine","test_ani","inanimate","negative","Animacy","CV","","inanimate",1,1738786105906,"inanimate",1349.16666666667,542,"A","animate;inanimate","",6.29526600143965,7.20724239688368,56
"297","60fe22beeb612ead4d261590","widow","test_ani","animate","negative","Animacy","CV","","animate",1,1738786107233,"animate",1357.66666666667,570,"A","animate;inanimate","",6.3456363608286,7.2135228189803,57
"298","60fe22beeb612ead4d261590","princess","test_ani","animate","positive","Animacy","CV","","animate",1,1738786108529,"animate",1274.5,540,"A","animate;inanimate","",6.29156913955832,7.15030922381617,58
"299","60fe22beeb612ead4d261590","bunny","test_ani","animate","positive","Animacy","CV","","animate",1,1738786109813,"animate",1294,529,"A","animate;inanimate","",6.2709884318583,7.16549347506085,59
"300","60fe22beeb612ead4d261590","kitten","test_ani","animate","positive","Animacy","CV","","animate",1,1738786111213,"animate",1322.5,641,"A","animate;inanimate","",6.46302945692067,7.18727916373245,60
"301","60fe22beeb612ead4d261590","intruder","test_ani","animate","negative","Animacy","CV","","animate",1,1738786112548,"animate",1449.66666666667,576,"A","animate;inanimate","",6.35610766069589,7.27908892392953,61
"302","60fe22beeb612ead4d261590","comedian","test_ani","animate","positive","Animacy","CV","","animate",1,1738786113897,"animate",1412.33333333333,590,"A","animate;inanimate","",6.38012253689976,7.25299846195845,62
"303","60fe22beeb612ead4d261590","asshole","test_ani","animate","negative","Animacy","CV","","inanimate",0,1738786115354,"inanimate",1579.16666666667,698,"A","animate;inanimate","",6.54821910276237,7.36465256072257,63
"304","60fe22beeb612ead4d261590","feast","test_ani","inanimate","positive","Animacy","CV","","inanimate",1,1738786116681,"inanimate",1376.33333333333,569,"A","animate;inanimate","",6.34388043412633,7.22717823721798,64
"305","60fe22beeb612ead4d261590","mugger","test_ani","animate","negative","Animacy","CV","","animate",1,1738786118003,"animate",1333.33333333333,564,"A","animate;inanimate","",6.33505425149806,7.19543735143392,65
"306","60fe22beeb612ead4d261590","smallpox","test_ani","inanimate","negative","Animacy","CV","","inanimate",1,1738786119553,"inanimate",1397.16666666667,794,"A","animate;inanimate","",6.67708346124714,7.2422016554098,66
"307","60fe22beeb612ead4d261590","doughnut","test_ani","inanimate","positive","Animacy","CV","","inanimate",1,1738786120845,"inanimate",1369.5,533,"A","animate;inanimate","",6.27852142416584,7.22220098870313,67
"308","60fe22beeb612ead4d261590","excrement","test_ani","inanimate","negative","Animacy","CV","","inanimate",1,1738786122243,"inanimate",1464.33333333333,645,"A","animate;inanimate","",6.46925031679577,7.28915535530767,68
"309","60fe22beeb612ead4d261590","heroin","test_ani","inanimate","negative","Animacy","CV","","inanimate",1,1738786123538,"inanimate",1339.83333333333,538,"A","animate;inanimate","",6.28785856016178,7.20030050709991,69
"310","60fe22beeb612ead4d261590","chipmunk","test_ani","animate","positive","Animacy","CV","","animate",1,1738786124841,"animate",1299,544,"A","animate;inanimate","",6.29894924685594,7.1693500166706,70
"311","60fe22beeb612ead4d261590","sandwich","test_ani","inanimate","positive","Animacy","CV","","inanimate",1,1738786126159,"inanimate",1339.16666666667,562,"A","animate;inanimate","",6.33150184989369,7.19980280894356,71
"312","60fe22beeb612ead4d261590","sunshine","test_ani","inanimate","positive","Animacy","CV","","inanimate",1,1738786127525,"inanimate",1294.5,609,"A","animate;inanimate","",6.4118182677099,7.16587979919159,72
"313","60fe22beeb612ead4d261590","child","test_ani","animate","positive","Animacy","CV","","animate",1,1738786128886,"animate",1274.66666666667,602,"A","animate;inanimate","",6.40025744530882,7.15043998550318,73
"314","60fe22beeb612ead4d261590","award","test_ani","inanimate","positive","Animacy","CV","","inanimate",1,1738786130189,"inanimate",1370.5,547,"A","animate;inanimate","",6.30444880242198,7.22293091574284,74
"315","60fe22beeb612ead4d261590","gunshot","test_ani","inanimate","negative","Animacy","CV","","inanimate",1,1738786131469,"inanimate",1409.66666666667,523,"A","animate;inanimate","",6.25958146406492,7.25110854880438,75
"316","60fe22beeb612ead4d261590","sibling","test_ani","animate","positive","Animacy","CV","","animate",1,1738786132811,"animate",1298.33333333333,584,"A","animate;inanimate","",6.36990098282823,7.16883666963674,76
"317","60fe22beeb612ead4d261590","poison","test_ani","inanimate","negative","Animacy","CV","","inanimate",1,1738786134071,"inanimate",1332.66666666667,503,"A","animate;inanimate","",6.22059017009974,7.19493722639224,77
"318","60fe22beeb612ead4d261590","wiretap","test_ani","inanimate","negative","Animacy","CV","","inanimate",1,1738786135372,"inanimate",1323.33333333333,544,"A","animate;inanimate","",6.29894924685594,7.18790908501313,78
"319","60fe22beeb612ead4d261590","prize","test_ani","inanimate","positive","Animacy","CV","","inanimate",1,1738786136678,"inanimate",1325.5,545,"A","animate;inanimate","",6.30078579466324,7.18954502572908,79
"320","60fe22beeb612ead4d261590","inmate","test_ani","animate","negative","Animacy","CV","","animate",1,1738786138018,"animate",1400.83333333333,586,"A","animate;inanimate","",6.37331978957701,7.24482257661466,80
"321","60fe22beeb612ead4d261590","widow","test_ani","animate","negative","Animacy","CV","","animate",1,1738786139303,"animate",1357.66666666667,527,"A","animate;inanimate","",6.26720054854136,7.2135228189803,81
"322","60fe22beeb612ead4d261590","maggot","test_ani","animate","negative","Animacy","CV","","animate",1,1738786140617,"animate",1321.66666666667,556,"A","animate;inanimate","",6.32076829425058,7.18664884540084,82
"323","60fe22beeb612ead4d261590","smallpox","test_ani","inanimate","negative","Animacy","CV","","inanimate",1,1738786142032,"inanimate",1397.16666666667,660,"A","animate;inanimate","",6.49223983502047,7.2422016554098,83
"324","60fe22beeb612ead4d261590","doughnut","test_ani","inanimate","positive","Animacy","CV","","inanimate",1,1738786143333,"inanimate",1369.5,542,"A","animate;inanimate","",6.29526600143965,7.22220098870313,84
"325","60fe22beeb612ead4d261590","award","test_ani","inanimate","positive","Animacy","CV","","inanimate",1,1738786144641,"inanimate",1370.5,554,"A","animate;inanimate","",6.31716468674728,7.22293091574284,85
"326","60fe22beeb612ead4d261590","child","test_ani","animate","positive","Animacy","CV","","animate",1,1738786145875,"animate",1274.66666666667,476,"A","animate;inanimate","",6.16541785423142,7.15043998550318,86
"327","60fe22beeb612ead4d261590","duckling","test_ani","animate","positive","Animacy","CV","","animate",1,1738786147113,"animate",1320,480,"A","animate;inanimate","",6.17378610390194,7.18538701558042,87
"328","60fe22beeb612ead4d261590","kitten","test_ani","animate","positive","Animacy","CV","","animate",1,1738786148346,"animate",1322.5,475,"A","animate;inanimate","",6.16331480403464,7.18727916373245,88
"329","60fe22beeb612ead4d261590","princess","test_ani","animate","positive","Animacy","CV","","animate",1,1738786149580,"animate",1274.5,474,"A","animate;inanimate","",6.16120732169508,7.15030922381617,89
"330","60fe22beeb612ead4d261590","dictator","test_ani","animate","negative","Animacy","CV","","animate",1,1738786150822,"animate",1351.66666666667,482,"A","animate;inanimate","",6.1779441140506,7.2090936778814,90
"331","60fe22beeb612ead4d261590","corpse","test_ani","inanimate","negative","Animacy","CV","","inanimate",1,1738786152202,"inanimate",1358.66666666667,626,"A","animate;inanimate","",6.4393503711001,7.21425910567451,91
"332","60fe22beeb612ead4d261590","puppy","test_ani","animate","positive","Animacy","CV","","animate",1,1738786153531,"animate",1304.16666666667,567,"A","animate;inanimate","",6.34035930372775,7.1733195461803,92
"333","60fe22beeb612ead4d261590","chipmunk","test_ani","animate","positive","Animacy","CV","","animate",1,1738786154741,"animate",1299,451,"A","animate;inanimate","",6.11146733950268,7.1693500166706,93
"334","60fe22beeb612ead4d261590","laughter","test_ani","inanimate","positive","Animacy","CV","","inanimate",1,1738786155988,"inanimate",1428.16666666667,488,"A","animate;inanimate","",6.19031540585315,7.26414684944106,94
"335","60fe22beeb612ead4d261590","heroin","test_ani","inanimate","negative","Animacy","CV","","inanimate",1,1738786157265,"inanimate",1339.83333333333,522,"A","animate;inanimate","",6.25766758788264,7.20030050709991,95
"336","60fe22beeb612ead4d261590","dollar","test_ani","inanimate","positive","Animacy","CV","","inanimate",1,1738786158571,"inanimate",1386.83333333333,546,"A","animate;inanimate","",6.30261897574491,7.23477824967237,96
"337","60fe22beeb612ead4d261590","sibling","test_ani","animate","positive","Animacy","CV","","animate",1,1738786159834,"animate",1298.33333333333,505,"A","animate;inanimate","",6.22455842927536,7.16883666963674,97
"338","60fe22beeb612ead4d261590","swastika","test_ani","inanimate","negative","Animacy","CV","","inanimate",1,1738786161083,"inanimate",1322.66666666667,494,"A","animate;inanimate","",6.20253551718792,7.18740517973665,98
"339","60fe22beeb612ead4d261590","leech","test_ani","animate","negative","Animacy","CV","","animate",1,1738786162441,"animate",1420,596,"A","animate;inanimate","",6.39024066706535,7.25841215059531,99
"340","60fe22beeb612ead4d261590","pizza","test_ani","inanimate","positive","Animacy","CV","","inanimate",1,1738786164246,"inanimate",1493.16666666667,1045,"A","animate;inanimate","",6.95177216439891,7.30865442336952,100
"341","60fe22beeb612ead4d261590","inmate","test_ani","animate","negative","Animacy","CV","","animate",1,1738786165619,"animate",1400.83333333333,615,"A","animate;inanimate","",6.42162226780652,7.24482257661466,101
"342","60fe22beeb612ead4d261590","comedian","test_ani","animate","positive","Animacy","CV","","animate",1,1738786166832,"animate",1412.33333333333,458,"A","animate;inanimate","",6.12686918411419,7.25299846195845,102
"343","60fe22beeb612ead4d261590","gunshot","test_ani","inanimate","negative","Animacy","CV","","inanimate",1,1738786168072,"inanimate",1409.66666666667,482,"A","animate;inanimate","",6.1779441140506,7.25110854880438,103
"344","60fe22beeb612ead4d261590","bunny","test_ani","animate","positive","Animacy","CV","","animate",1,1738786169316,"animate",1294,484,"A","animate;inanimate","",6.18208490671663,7.16549347506085,104
"345","60fe22beeb612ead4d261590","slave","test_ani","animate","negative","Animacy","CV","","animate",1,1738786170672,"animate",1357.66666666667,597,"A","animate;inanimate","",6.3919171133926,7.2135228189803,105
"346","60fe22beeb612ead4d261590","tapeworm","test_ani","animate","negative","Animacy","CV","","animate",1,1738786172007,"animate",1403.66666666667,579,"A","animate;inanimate","",6.361302477573,7.24684313949382,106
"347","60fe22beeb612ead4d261590","meadow","test_ani","inanimate","positive","Animacy","CV","","inanimate",1,1738786173269,"inanimate",1394,505,"A","animate;inanimate","",6.22455842927536,7.23993259132047,107
"348","60fe22beeb612ead4d261590","excrement","test_ani","inanimate","negative","Animacy","CV","","animate",1,1738786174523,"animate",1464.33333333333,496,"A","animate;inanimate","",6.20657592672493,7.28915535530767,108
"349","60fe22beeb612ead4d261590","cocaine","test_ani","inanimate","negative","Animacy","CV","","inanimate",1,1738786175836,"inanimate",1349.16666666667,553,"A","animate;inanimate","",6.31535800152233,7.20724239688368,109
"350","60fe22beeb612ead4d261590","asshole","test_ani","animate","negative","Animacy","CV","","inanimate",0,1738786177148,"inanimate",1579.16666666667,553,"A","animate;inanimate","",6.31535800152233,7.36465256072257,110
"351","60fe22beeb612ead4d261590","prize","test_ani","inanimate","positive","Animacy","CV","","inanimate",1,1738786178442,"inanimate",1325.5,539,"A","animate;inanimate","",6.289715570909,7.18954502572908,111
"352","60fe22beeb612ead4d261590","wiretap","test_ani","inanimate","negative","Animacy","CV","","inanimate",1,1738786179779,"inanimate",1323.33333333333,580,"A","animate;inanimate","",6.36302810354046,7.18790908501313,112
"353","60fe22beeb612ead4d261590","poison","test_ani","inanimate","negative","Animacy","CV","","inanimate",1,1738786181033,"inanimate",1332.66666666667,496,"A","animate;inanimate","",6.20657592672493,7.19493722639224,113
"354","60fe22beeb612ead4d261590","intruder","test_ani","animate","negative","Animacy","CV","","animate",1,1738786182413,"animate",1449.66666666667,624,"A","animate;inanimate","",6.43615036836943,7.27908892392953,114
"355","60fe22beeb612ead4d261590","sandwich","test_ani","inanimate","positive","Animacy","CV","","inanimate",1,1738786183713,"inanimate",1339.16666666667,541,"A","animate;inanimate","",6.29341927884648,7.19980280894356,115
"356","60fe22beeb612ead4d261590","husband","test_ani","animate","positive","Animacy","CV","","animate",1,1738786184981,"animate",1270.16666666667,515,"A","animate;inanimate","",6.24416690066374,7.14690340443806,116
"357","60fe22beeb612ead4d261590","sunshine","test_ani","inanimate","positive","Animacy","CV","","inanimate",1,1738786186174,"inanimate",1294.5,434,"A","animate;inanimate","",6.07304453410041,7.16587979919159,117
"358","60fe22beeb612ead4d261590","mugger","test_ani","animate","negative","Animacy","CV","","animate",1,1738786187442,"animate",1333.33333333333,512,"A","animate;inanimate","",6.23832462503951,7.19543735143392,118
"359","60fe22beeb612ead4d261590","flood","test_ani","inanimate","negative","Animacy","CV","","inanimate",1,1738786188666,"inanimate",1398.5,469,"A","animate;inanimate","",6.15060276844628,7.24315551264201,119
"360","60fe22beeb612ead4d261590","feast","test_ani","inanimate","positive","Animacy","CV","","inanimate",1,1738786190016,"inanimate",1376.33333333333,587,"A","animate;inanimate","",6.3750248198281,7.22717823721798,120
"361","60fe22beeb612ead4d261590","mugger","test_val","animate","negative","Valence","CV","","negative",1,1738786289963,"negative",1333.33333333333,633,"A","positive;negative","",6.45047042214418,7.19543735143392,121
"362","60fe22beeb612ead4d261590","flood","test_val","inanimate","negative","Valence","CV","","negative",1,1738786291467,"negative",1398.5,745,"A","positive;negative","",6.61338421837956,7.24315551264201,122
"363","60fe22beeb612ead4d261590","leech","test_val","animate","negative","Valence","CV","","negative",1,1738786292834,"negative",1420,605,"A","positive;negative","",6.40522845803084,7.25841215059531,123
"364","60fe22beeb612ead4d261590","prize","test_val","inanimate","positive","Valence","CV","","positive",1,1738786294145,"positive",1325.5,551,"A","positive;negative","",6.31173480915291,7.18954502572908,124
"365","60fe22beeb612ead4d261590","cocaine","test_val","inanimate","negative","Valence","CV","","negative",1,1738786295481,"negative",1349.16666666667,578,"A","positive;negative","",6.35957386867238,7.20724239688368,125
"366","60fe22beeb612ead4d261590","widow","test_val","animate","negative","Valence","CV","","negative",1,1738786296895,"negative",1357.66666666667,655,"A","positive;negative","",6.48463523563525,7.2135228189803,126
"367","60fe22beeb612ead4d261590","award","test_val","inanimate","positive","Valence","CV","","positive",1,1738786298480,"positive",1370.5,826,"A","positive;negative","",6.71659477352098,7.22293091574284,127
"368","60fe22beeb612ead4d261590","kitten","test_val","animate","positive","Valence","CV","","positive",1,1738786299721,"positive",1322.5,485,"A","positive;negative","",6.18414889093748,7.18727916373245,128
"369","60fe22beeb612ead4d261590","poison","test_val","inanimate","negative","Valence","CV","","negative",1,1738786301042,"negative",1332.66666666667,564,"A","positive;negative","",6.33505425149806,7.19493722639224,129
"370","60fe22beeb612ead4d261590","bunny","test_val","animate","positive","Valence","CV","","positive",1,1738786302336,"positive",1294,536,"A","positive;negative","",6.2841341610708,7.16549347506085,130
"371","60fe22beeb612ead4d261590","heroin","test_val","inanimate","negative","Valence","CV","","negative",1,1738786303673,"negative",1339.83333333333,579,"A","positive;negative","",6.361302477573,7.20030050709991,131
"372","60fe22beeb612ead4d261590","inmate","test_val","animate","negative","Valence","CV","","negative",1,1738786305043,"negative",1400.83333333333,614,"A","positive;negative","",6.41999492814714,7.24482257661466,132
"373","60fe22beeb612ead4d261590","meadow","test_val","inanimate","positive","Valence","CV","","positive",1,1738786306480,"positive",1394,678,"A","positive;negative","",6.5191472879404,7.23993259132047,133
"374","60fe22beeb612ead4d261590","dollar","test_val","inanimate","positive","Valence","CV","","positive",1,1738786307921,"positive",1386.83333333333,686,"A","positive;negative","",6.53087762772588,7.23477824967237,134
"375","60fe22beeb612ead4d261590","sandwich","test_val","inanimate","positive","Valence","CV","","positive",1,1738786309277,"positive",1339.16666666667,598,"A","positive;negative","",6.39359075395063,7.19980280894356,135
"376","60fe22beeb612ead4d261590","princess","test_val","animate","positive","Valence","CV","","positive",1,1738786310526,"positive",1274.5,493,"A","positive;negative","",6.20050917404269,7.15030922381617,136
"377","60fe22beeb612ead4d261590","doughnut","test_val","inanimate","positive","Valence","CV","","positive",1,1738786311951,"positive",1369.5,666,"A","positive;negative","",6.50128967054039,7.22220098870313,137
"378","60fe22beeb612ead4d261590","feast","test_val","inanimate","positive","Valence","CV","","positive",1,1738786313283,"positive",1376.33333333333,576,"A","positive;negative","",6.35610766069589,7.22717823721798,138
"379","60fe22beeb612ead4d261590","sunshine","test_val","inanimate","positive","Valence","CV","","positive",1,1738786314522,"positive",1294.5,483,"A","positive;negative","",6.18001665365257,7.16587979919159,139
"380","60fe22beeb612ead4d261590","husband","test_val","animate","positive","Valence","CV","","positive",1,1738786315766,"positive",1270.16666666667,485,"A","positive;negative","",6.18414889093748,7.14690340443806,140
"381","60fe22beeb612ead4d261590","sibling","test_val","animate","positive","Valence","CV","","positive",1,1738786317033,"positive",1298.33333333333,511,"A","positive;negative","",6.2363695902037,7.16883666963674,141
"382","60fe22beeb612ead4d261590","excrement","test_val","inanimate","negative","Valence","CV","","negative",1,1738786318499,"negative",1464.33333333333,709,"A","positive;negative","",6.56385552653213,7.28915535530767,142
"383","60fe22beeb612ead4d261590","child","test_val","animate","positive","Valence","CV","","positive",1,1738786319759,"positive",1274.66666666667,500,"A","positive;negative","",6.21460809842219,7.15043998550318,143
"384","60fe22beeb612ead4d261590","duckling","test_val","animate","positive","Valence","CV","","positive",1,1738786321070,"positive",1320,550,"A","positive;negative","",6.30991827822652,7.18538701558042,144
"385","60fe22beeb612ead4d261590","gunshot","test_val","inanimate","negative","Valence","CV","","negative",1,1738786322365,"negative",1409.66666666667,540,"A","positive;negative","",6.29156913955832,7.25110854880438,145
"386","60fe22beeb612ead4d261590","comedian","test_val","animate","positive","Valence","CV","","positive",1,1738786323719,"positive",1412.33333333333,592,"A","positive;negative","",6.38350663488401,7.25299846195845,146
"387","60fe22beeb612ead4d261590","intruder","test_val","animate","negative","Valence","CV","","negative",1,1738786325094,"negative",1449.66666666667,616,"A","positive;negative","",6.42324696353352,7.27908892392953,147
"388","60fe22beeb612ead4d261590","dictator","test_val","animate","negative","Valence","CV","","negative",1,1738786326516,"negative",1351.66666666667,668,"A","positive;negative","",6.50428817353665,7.2090936778814,148
"389","60fe22beeb612ead4d261590","laughter","test_val","inanimate","positive","Valence","CV","","positive",1,1738786327954,"positive",1428.16666666667,681,"A","positive;negative","",6.52356230614951,7.26414684944106,149
"390","60fe22beeb612ead4d261590","smallpox","test_val","inanimate","negative","Valence","CV","","negative",1,1738786329342,"negative",1397.16666666667,631,"A","positive;negative","",6.44730586254121,7.2422016554098,150
"391","60fe22beeb612ead4d261590","asshole","test_val","animate","negative","Valence","CV","","negative",1,1738786330701,"negative",1579.16666666667,601,"A","positive;negative","",6.39859493453521,7.36465256072257,151
"392","60fe22beeb612ead4d261590","tapeworm","test_val","animate","negative","Valence","CV","","negative",1,1738786331999,"negative",1403.66666666667,537,"A","positive;negative","",6.28599809450886,7.24684313949382,152
"393","60fe22beeb612ead4d261590","chipmunk","test_val","animate","positive","Valence","CV","","positive",1,1738786333275,"positive",1299,519,"A","positive;negative","",6.25190388316589,7.1693500166706,153
"394","60fe22beeb612ead4d261590","swastika","test_val","inanimate","negative","Valence","CV","","negative",1,1738786334571,"negative",1322.66666666667,537,"A","positive;negative","",6.28599809450886,7.18740517973665,154
"395","60fe22beeb612ead4d261590","wiretap","test_val","inanimate","negative","Valence","CV","","negative",1,1738786335887,"negative",1323.33333333333,560,"A","positive;negative","",6.32793678372919,7.18790908501313,155
"396","60fe22beeb612ead4d261590","corpse","test_val","inanimate","negative","Valence","CV","","negative",1,1738786337241,"negative",1358.66666666667,598,"A","positive;negative","",6.39359075395063,7.21425910567451,156
"397","60fe22beeb612ead4d261590","puppy","test_val","animate","positive","Valence","CV","","positive",1,1738786338510,"positive",1304.16666666667,513,"A","positive;negative","",6.24027584517077,7.1733195461803,157
"398","60fe22beeb612ead4d261590","pizza","test_val","inanimate","positive","Valence","CV","","positive",1,1738786339837,"positive",1493.16666666667,569,"A","positive;negative","",6.34388043412633,7.30865442336952,158
"399","60fe22beeb612ead4d261590","maggot","test_val","animate","negative","Valence","CV","","negative",1,1738786341141,"negative",1321.66666666667,546,"A","positive;negative","",6.30261897574491,7.18664884540084,159
"400","60fe22beeb612ead4d261590","slave","test_val","animate","negative","Valence","CV","","negative",1,1738786342392,"negative",1357.66666666667,493,"A","positive;negative","",6.20050917404269,7.2135228189803,160
"401","60fe22beeb612ead4d261590","sandwich","test_val","inanimate","positive","Valence","CV","","positive",1,1738786343698,"positive",1339.16666666667,547,"A","positive;negative","",6.30444880242198,7.19980280894356,161
"402","60fe22beeb612ead4d261590","asshole","test_val","animate","negative","Valence","CV","","negative",1,1738786344998,"negative",1579.16666666667,542,"A","positive;negative","",6.29526600143965,7.36465256072257,162
"403","60fe22beeb612ead4d261590","kitten","test_val","animate","positive","Valence","CV","","positive",1,1738786346267,"positive",1322.5,515,"A","positive;negative","",6.24416690066374,7.18727916373245,163
"404","60fe22beeb612ead4d261590","princess","test_val","animate","positive","Valence","CV","","positive",1,1738786347507,"positive",1274.5,482,"A","positive;negative","",6.1779441140506,7.15030922381617,164
"405","60fe22beeb612ead4d261590","slave","test_val","animate","negative","Valence","CV","","negative",1,1738786348829,"negative",1357.66666666667,563,"A","positive;negative","",6.33327962813969,7.2135228189803,165
"406","60fe22beeb612ead4d261590","maggot","test_val","animate","negative","Valence","CV","","negative",1,1738786350053,"negative",1321.66666666667,467,"A","positive;negative","",6.1463292576689,7.18664884540084,166
"407","60fe22beeb612ead4d261590","wiretap","test_val","inanimate","negative","Valence","CV","","negative",1,1738786351284,"negative",1323.33333333333,474,"A","positive;negative","",6.16120732169508,7.18790908501313,167
"408","60fe22beeb612ead4d261590","smallpox","test_val","inanimate","negative","Valence","CV","","negative",1,1738786352504,"negative",1397.16666666667,465,"A","positive;negative","",6.14203740558736,7.2422016554098,168
"409","60fe22beeb612ead4d261590","dollar","test_val","inanimate","positive","Valence","CV","","positive",1,1738786353862,"positive",1386.83333333333,601,"A","positive;negative","",6.39859493453521,7.23477824967237,169
"410","60fe22beeb612ead4d261590","prize","test_val","inanimate","positive","Valence","CV","","positive",1,1738786355158,"positive",1325.5,540,"A","positive;negative","",6.29156913955832,7.18954502572908,170
"411","60fe22beeb612ead4d261590","cocaine","test_val","inanimate","negative","Valence","CV","","negative",1,1738786356563,"negative",1349.16666666667,648,"A","positive;negative","",6.47389069635227,7.20724239688368,171
"412","60fe22beeb612ead4d261590","sibling","test_val","animate","positive","Valence","CV","","positive",1,1738786357841,"positive",1298.33333333333,518,"A","positive;negative","",6.24997524225948,7.16883666963674,172
"413","60fe22beeb612ead4d261590","leech","test_val","animate","negative","Valence","CV","","negative",1,1738786359083,"negative",1420,486,"A","positive;negative","",6.18620862390049,7.25841215059531,173
"414","60fe22beeb612ead4d261590","swastika","test_val","inanimate","negative","Valence","CV","","negative",1,1738786360328,"negative",1322.66666666667,490,"A","positive;negative","",6.19440539110467,7.18740517973665,174
"415","60fe22beeb612ead4d261590","tapeworm","test_val","animate","negative","Valence","CV","","negative",1,1738786361640,"negative",1403.66666666667,556,"A","positive;negative","",6.32076829425058,7.24684313949382,175
"416","60fe22beeb612ead4d261590","laughter","test_val","inanimate","positive","Valence","CV","","positive",1,1738786363008,"positive",1428.16666666667,613,"A","positive;negative","",6.41836493593621,7.26414684944106,176
"417","60fe22beeb612ead4d261590","award","test_val","inanimate","positive","Valence","CV","","positive",1,1738786364277,"positive",1370.5,512,"A","positive;negative","",6.23832462503951,7.22293091574284,177
"418","60fe22beeb612ead4d261590","bunny","test_val","animate","positive","Valence","CV","","positive",1,1738786365518,"positive",1294,487,"A","positive;negative","",6.18826412308259,7.16549347506085,178
"419","60fe22beeb612ead4d261590","flood","test_val","inanimate","negative","Valence","CV","","negative",1,1738786366836,"negative",1398.5,559,"A","positive;negative","",6.3261494731551,7.24315551264201,179
"420","60fe22beeb612ead4d261590","meadow","test_val","inanimate","positive","Valence","CV","","positive",1,1738786368197,"positive",1394,602,"A","positive;negative","",6.40025744530882,7.23993259132047,180
"421","60fe22beeb612ead4d261590","doughnut","test_val","inanimate","positive","Valence","CV","","positive",1,1738786369431,"positive",1369.5,476,"A","positive;negative","",6.16541785423142,7.22220098870313,181
"422","60fe22beeb612ead4d261590","corpse","test_val","inanimate","negative","Valence","CV","","negative",1,1738786370715,"negative",1358.66666666667,526,"A","positive;negative","",6.26530121273771,7.21425910567451,182
"423","60fe22beeb612ead4d261590","sunshine","test_val","inanimate","positive","Valence","CV","","positive",1,1738786371954,"positive",1294.5,483,"A","positive;negative","",6.18001665365257,7.16587979919159,183
"424","60fe22beeb612ead4d261590","feast","test_val","inanimate","positive","Valence","CV","","positive",1,1738786373246,"positive",1376.33333333333,536,"A","positive;negative","",6.2841341610708,7.22717823721798,184
"425","60fe22beeb612ead4d261590","husband","test_val","animate","positive","Valence","CV","","positive",1,1738786374522,"positive",1270.16666666667,521,"A","positive;negative","",6.25575004175337,7.14690340443806,185
"426","60fe22beeb612ead4d261590","child","test_val","animate","positive","Valence","CV","","positive",1,1738786375741,"positive",1274.66666666667,463,"A","positive;negative","",6.13772705408623,7.15043998550318,186
"427","60fe22beeb612ead4d261590","comedian","test_val","animate","positive","Valence","CV","","positive",1,1738786377048,"positive",1412.33333333333,547,"A","positive;negative","",6.30444880242198,7.25299846195845,187
"428","60fe22beeb612ead4d261590","dictator","test_val","animate","negative","Valence","CV","","positive",0,1738786378344,"positive",1351.66666666667,534,"A","positive;negative","",6.2803958389602,7.2090936778814,188
"429","60fe22beeb612ead4d261590","pizza","test_val","inanimate","positive","Valence","CV","","positive",1,1738786379745,"positive",1493.16666666667,644,"A","positive;negative","",6.46769872610435,7.30865442336952,189
"430","60fe22beeb612ead4d261590","widow","test_val","animate","negative","Valence","CV","","negative",1,1738786381249,"negative",1357.66666666667,748,"A","positive;negative","",6.61740297797448,7.2135228189803,190
"431","60fe22beeb612ead4d261590","chipmunk","test_val","animate","positive","Valence","CV","","positive",1,1738786382516,"positive",1299,513,"A","positive;negative","",6.24027584517077,7.1693500166706,191
"432","60fe22beeb612ead4d261590","mugger","test_val","animate","negative","Valence","CV","","negative",1,1738786383820,"negative",1333.33333333333,549,"A","positive;negative","",6.30809844150953,7.19543735143392,192
"433","60fe22beeb612ead4d261590","excrement","test_val","inanimate","negative","Valence","CV","","negative",1,1738786385115,"negative",1464.33333333333,540,"A","positive;negative","",6.29156913955832,7.28915535530767,193
"434","60fe22beeb612ead4d261590","intruder","test_val","animate","negative","Valence","CV","","negative",1,1738786386959,"negative",1449.66666666667,1087,"A","positive;negative","",6.99117688712121,7.27908892392953,194
"435","60fe22beeb612ead4d261590","puppy","test_val","animate","positive","Valence","CV","","positive",1,1738786388274,"positive",1304.16666666667,558,"A","positive;negative","",6.32435896238131,7.1733195461803,195
"436","60fe22beeb612ead4d261590","inmate","test_val","animate","negative","Valence","CV","","negative",1,1738786389603,"negative",1400.83333333333,574,"A","positive;negative","",6.35262939631957,7.24482257661466,196
"437","60fe22beeb612ead4d261590","gunshot","test_val","inanimate","negative","Valence","CV","","negative",1,1738786390871,"negative",1409.66666666667,512,"A","positive;negative","",6.23832462503951,7.25110854880438,197
"438","60fe22beeb612ead4d261590","duckling","test_val","animate","positive","Valence","CV","","positive",1,1738786392186,"positive",1320,559,"A","positive;negative","",6.3261494731551,7.18538701558042,198
"439","60fe22beeb612ead4d261590","poison","test_val","inanimate","negative","Valence","CV","","negative",1,1738786393634,"negative",1332.66666666667,689,"A","positive;negative","",6.53524127101366,7.19493722639224,199
"440","60fe22beeb612ead4d261590","heroin","test_val","inanimate","negative","Valence","CV","","negative",1,1738786394923,"negative",1339.83333333333,534,"A","positive;negative","",6.2803958389602,7.20030050709991,200
"441","60fe22beeb612ead4d261590","gunshot","test_val","inanimate","negative","Valence","CV","","negative",1,1738786396232,"negative",1409.66666666667,550,"A","positive;negative","",6.30991827822652,7.25110854880438,201
"442","60fe22beeb612ead4d261590","maggot","test_val","animate","negative","Valence","CV","","negative",1,1738786397505,"negative",1321.66666666667,518,"A","positive;negative","",6.24997524225948,7.18664884540084,202
"443","60fe22beeb612ead4d261590","comedian","test_val","animate","positive","Valence","CV","","positive",1,1738786398792,"positive",1412.33333333333,526,"A","positive;negative","",6.26530121273771,7.25299846195845,203
"444","60fe22beeb612ead4d261590","prize","test_val","inanimate","positive","Valence","CV","","positive",1,1738786400057,"positive",1325.5,507,"A","positive;negative","",6.22851100359118,7.18954502572908,204
"445","60fe22beeb612ead4d261590","intruder","test_val","animate","negative","Valence","CV","","negative",1,1738786401445,"negative",1449.66666666667,629,"A","positive;negative","",6.44413125670044,7.27908892392953,205
"446","60fe22beeb612ead4d261590","tapeworm","test_val","animate","negative","Valence","CV","","negative",1,1738786402820,"negative",1403.66666666667,616,"A","positive;negative","",6.42324696353352,7.24684313949382,206
"447","60fe22beeb612ead4d261590","doughnut","test_val","inanimate","positive","Valence","CV","","positive",1,1738786404153,"positive",1369.5,578,"A","positive;negative","",6.35957386867238,7.22220098870313,207
"448","60fe22beeb612ead4d261590","pizza","test_val","inanimate","positive","Valence","CV","","positive",1,1738786405749,"positive",1493.16666666667,842,"A","positive;negative","",6.73578001424233,7.30865442336952,208
"449","60fe22beeb612ead4d261590","chipmunk","test_val","animate","positive","Valence","CV","","positive",1,1738786407060,"positive",1299,554,"A","positive;negative","",6.31716468674728,7.1693500166706,209
"450","60fe22beeb612ead4d261590","swastika","test_val","inanimate","negative","Valence","CV","","negative",1,1738786408372,"negative",1322.66666666667,552,"A","positive;negative","",6.31354804627709,7.18740517973665,210
"451","60fe22beeb612ead4d261590","corpse","test_val","inanimate","negative","Valence","CV","","negative",1,1738786409682,"negative",1358.66666666667,550,"A","positive;negative","",6.30991827822652,7.21425910567451,211
"452","60fe22beeb612ead4d261590","cocaine","test_val","inanimate","negative","Valence","CV","","negative",1,1738786410925,"negative",1349.16666666667,487,"A","positive;negative","",6.18826412308259,7.20724239688368,212
"453","60fe22beeb612ead4d261590","slave","test_val","animate","negative","Valence","CV","","negative",1,1738786412209,"negative",1357.66666666667,528,"A","positive;negative","",6.26909628370626,7.2135228189803,213
"454","60fe22beeb612ead4d261590","laughter","test_val","inanimate","positive","Valence","CV","","positive",1,1738786413524,"positive",1428.16666666667,560,"A","positive;negative","",6.32793678372919,7.26414684944106,214
"455","60fe22beeb612ead4d261590","princess","test_val","animate","positive","Valence","CV","","positive",1,1738786414915,"positive",1274.5,635,"A","positive;negative","",6.45362499889269,7.15030922381617,215
"456","60fe22beeb612ead4d261590","kitten","test_val","animate","positive","Valence","CV","","positive",1,1738786416230,"positive",1322.5,556,"A","positive;negative","",6.32076829425058,7.18727916373245,216
"457","60fe22beeb612ead4d261590","sibling","test_val","animate","positive","Valence","CV","","positive",1,1738786417499,"positive",1298.33333333333,510,"A","positive;negative","",6.23441072571837,7.16883666963674,217
"458","60fe22beeb612ead4d261590","leech","test_val","animate","negative","Valence","CV","","negative",1,1738786418775,"negative",1420,518,"A","positive;negative","",6.24997524225948,7.25841215059531,218
"459","60fe22beeb612ead4d261590","widow","test_val","animate","negative","Valence","CV","","negative",1,1738786420094,"negative",1357.66666666667,563,"A","positive;negative","",6.33327962813969,7.2135228189803,219
"460","60fe22beeb612ead4d261590","meadow","test_val","inanimate","positive","Valence","CV","","positive",1,1738786421460,"positive",1394,612,"A","positive;negative","",6.41673228251233,7.23993259132047,220
"461","60fe22beeb612ead4d261590","sunshine","test_val","inanimate","positive","Valence","CV","","positive",1,1738786422717,"positive",1294.5,500,"A","positive;negative","",6.21460809842219,7.16587979919159,221
"462","60fe22beeb612ead4d261590","award","test_val","inanimate","positive","Valence","CV","","positive",1,1738786424046,"positive",1370.5,570,"A","positive;negative","",6.3456363608286,7.22293091574284,222
"463","60fe22beeb612ead4d261590","duckling","test_val","animate","positive","Valence","CV","","positive",1,1738786425370,"positive",1320,566,"A","positive;negative","",6.33859407820318,7.18538701558042,223
"464","60fe22beeb612ead4d261590","child","test_val","animate","positive","Valence","CV","","positive",1,1738786426690,"positive",1274.66666666667,565,"A","positive;negative","",6.33682573114644,7.15043998550318,224
"465","60fe22beeb612ead4d261590","feast","test_val","inanimate","positive","Valence","CV","","positive",1,1738786428061,"positive",1376.33333333333,616,"A","positive;negative","",6.42324696353352,7.22717823721798,225
"466","60fe22beeb612ead4d261590","excrement","test_val","inanimate","negative","Valence","CV","","negative",1,1738786429405,"negative",1464.33333333333,590,"A","positive;negative","",6.38012253689976,7.28915535530767,226
"467","60fe22beeb612ead4d261590","poison","test_val","inanimate","negative","Valence","CV","","negative",1,1738786430648,"negative",1332.66666666667,489,"A","positive;negative","",6.19236248947487,7.19493722639224,227
"468","60fe22beeb612ead4d261590","wiretap","test_val","inanimate","negative","Valence","CV","","negative",1,1738786431905,"negative",1323.33333333333,500,"A","positive;negative","",6.21460809842219,7.18790908501313,228
