#
# Results on Tue, 08 Apr 2025 18:19:14 GMT
# USER AGENT: Mozilla/5.0 (Windows NT 10.0; Win64; x64; rv:136.0) Gecko/20100101 Firefox/136.0
# Design number was non-random = 0
#
# Columns below this comment are as follows:
# 1. Results reception time.
# 2. MD5 hash of participant's IP address.
# 3. Controller name.
# 4. Order number of item.
# 5. Inner element number.
# 6. Label.
# 7. Latin Square Group.
# 8. PennElementType.
# 9. PennElementName.
# 10. Parameter.
# 11. Value.
# 12. EventTime.
# 13. Comments.
1744136354,dd21839baf751e1d7eac3d604802d194,PennController,1,0,welcome,NULL,PennController,0,_Trial_,Start,1744135686993,NULL
1744136354,dd21839baf751e1d7eac3d604802d194,PennController,1,0,welcome,NULL,PennController,0,_Header_,Start,1744135686993,NULL
1744136354,dd21839baf751e1d7eac3d604802d194,PennController,1,0,welcome,NULL,PennController,0,_Header_,End,1744135687247,NULL
1744136354,dd21839baf751e1d7eac3d604802d194,PennController,1,0,welcome,NULL,PennController,0,_Trial_,End,1744135703618,NULL
# 13. ID.
# 14. Comments.
1744136354,dd21839baf751e1d7eac3d604802d194,PennController,124,0,consent,NULL,PennController,2,_Trial_,Start,1744135703624,663a73c05e670e0f32b6ae4f,NULL
1744136354,dd21839baf751e1d7eac3d604802d194,PennController,124,0,consent,NULL,PennController,2,_Header_,Start,1744135703624,663a73c05e670e0f32b6ae4f,NULL
1744136354,dd21839baf751e1d7eac3d604802d194,PennController,124,0,consent,NULL,PennController,2,_Header_,End,1744135703884,663a73c05e670e0f32b6ae4f,NULL
1744136354,dd21839baf751e1d7eac3d604802d194,PennController,124,0,consent,NULL,TextInput,ID,First,,1744135715086,663a73c05e670e0f32b6ae4f,Control
1744136354,dd21839baf751e1d7eac3d604802d194,PennController,124,0,consent,NULL,TextInput,ID,Final,663a73c05e670e0f32b6ae4f,1744135720936,663a73c05e670e0f32b6ae4f,NULL
1744136354,dd21839baf751e1d7eac3d604802d194,PennController,124,0,consent,NULL,PennController,2,_Trial_,End,1744135720936,663a73c05e670e0f32b6ae4f,NULL
# 13. Comments.
1744136354,dd21839baf751e1d7eac3d604802d194,PennController,132,0,instructions1_so,NULL,PennController,10,_Trial_,Start,1744135720938,NULL
1744136354,dd21839baf751e1d7eac3d604802d194,PennController,132,0,instructions1_so,NULL,PennController,10,_Header_,Start,1744135720938,NULL
1744136354,dd21839baf751e1d7eac3d604802d194,PennController,132,0,instructions1_so,NULL,PennController,10,_Header_,End,1744135721198,NULL
1744136354,dd21839baf751e1d7eac3d604802d194,PennController,132,0,instructions1_so,NULL,PennController,10,_Trial_,End,1744135734450,NULL
1744136354,dd21839baf751e1d7eac3d604802d194,PennController,133,0,instructions2_so,NULL,PennController,11,_Trial_,Start,1744135734452,NULL
1744136354,dd21839baf751e1d7eac3d604802d194,PennController,133,0,instructions2_so,NULL,PennController,11,_Header_,Start,1744135734452,NULL
1744136354,dd21839baf751e1d7eac3d604802d194,PennController,133,0,instructions2_so,NULL,PennController,11,_Header_,End,1744135734702,NULL
1744136354,dd21839baf751e1d7eac3d604802d194,PennController,133,0,instructions2_so,NULL,PennController,11,_Trial_,End,1744135741587,NULL
1744136354,dd21839baf751e1d7eac3d604802d194,PennController,128,0,instructions3_hands,NULL,PennController,6,_Trial_,Start,1744135741588,NULL
1744136354,dd21839baf751e1d7eac3d604802d194,PennController,128,0,instructions3_hands,NULL,PennController,6,_Header_,Start,1744135741588,NULL
1744136354,dd21839baf751e1d7eac3d604802d194,PennController,128,0,instructions3_hands,NULL,PennController,6,_Header_,End,1744135741846,NULL
1744136354,dd21839baf751e1d7eac3d604802d194,PennController,128,0,instructions3_hands,NULL,PennController,6,_Trial_,End,1744135746228,NULL
1744136354,dd21839baf751e1d7eac3d604802d194,PennController,135,0,practice_intro_so,NULL,PennController,13,_Trial_,Start,1744135746229,NULL
1744136354,dd21839baf751e1d7eac3d604802d194,PennController,135,0,practice_intro_so,NULL,PennController,13,_Header_,Start,1744135746229,NULL
1744136354,dd21839baf751e1d7eac3d604802d194,PennController,135,0,practice_intro_so,NULL,PennController,13,_Header_,End,1744135746486,NULL
1744136354,dd21839baf751e1d7eac3d604802d194,PennController,135,0,practice_intro_so,NULL,PennController,13,_Trial_,End,1744135747977,NULL
# 13. ID.
# 14. ReactionTime.
# 15. Word.
# 16. selectedKey.
# 17. selectedValue.
# 18. Key_value_F.
# 19. Key_value_J.
# 20. Group.
# 21. Comments.
1744136354,dd21839baf751e1d7eac3d604802d194,PennController,91,0,calibrator_so_feedback,NULL,PennController,102,_Trial_,Start,1744135747979,undefined,1986,tacky,undefined,subjective,objective,subjective,A,NULL
1744136354,dd21839baf751e1d7eac3d604802d194,PennController,91,0,calibrator_so_feedback,NULL,PennController,102,_Header_,Start,1744135747979,undefined,1986,tacky,undefined,subjective,objective,subjective,A,NULL
1744136354,dd21839baf751e1d7eac3d604802d194,PennController,91,0,calibrator_so_feedback,NULL,PennController,102,_Header_,End,1744135748238,undefined,1986,tacky,undefined,subjective,objective,subjective,A,NULL
1744136354,dd21839baf751e1d7eac3d604802d194,PennController,91,0,calibrator_so_feedback,NULL,Selector,Selection,Selection,subjective,1744135750737,undefined,1986,tacky,undefined,subjective,objective,subjective,A,objective;subjective
1744136354,dd21839baf751e1d7eac3d604802d194,PennController,91,0,calibrator_so_feedback,NULL,PennController,102,_Trial_,End,1744135752752,undefined,1986,tacky,undefined,subjective,objective,subjective,A,NULL
1744136354,dd21839baf751e1d7eac3d604802d194,PennController,92,0,calibrator_so_feedback,NULL,PennController,103,_Trial_,Start,1744135752756,undefined,982,overrated,undefined,subjective,objective,subjective,A,NULL
1744136354,dd21839baf751e1d7eac3d604802d194,PennController,92,0,calibrator_so_feedback,NULL,PennController,103,_Header_,Start,1744135752756,undefined,982,overrated,undefined,subjective,objective,subjective,A,NULL
1744136354,dd21839baf751e1d7eac3d604802d194,PennController,92,0,calibrator_so_feedback,NULL,PennController,103,_Header_,End,1744135753012,undefined,982,overrated,undefined,subjective,objective,subjective,A,NULL
1744136354,dd21839baf751e1d7eac3d604802d194,PennController,92,0,calibrator_so_feedback,NULL,Selector,Selection,Selection,subjective,1744135754501,undefined,982,overrated,undefined,subjective,objective,subjective,A,objective;subjective
1744136354,dd21839baf751e1d7eac3d604802d194,PennController,92,0,calibrator_so_feedback,NULL,PennController,103,_Trial_,End,1744135756514,undefined,982,overrated,undefined,subjective,objective,subjective,A,NULL
1744136354,dd21839baf751e1d7eac3d604802d194,PennController,84,0,calibrator_so_feedback,NULL,PennController,95,_Trial_,Start,1744135756516,undefined,1032,triangular,undefined,subjective,objective,subjective,A,NULL
1744136354,dd21839baf751e1d7eac3d604802d194,PennController,84,0,calibrator_so_feedback,NULL,PennController,95,_Header_,Start,1744135756516,undefined,1032,triangular,undefined,subjective,objective,subjective,A,NULL
1744136354,dd21839baf751e1d7eac3d604802d194,PennController,84,0,calibrator_so_feedback,NULL,PennController,95,_Header_,End,1744135756778,undefined,1032,triangular,undefined,subjective,objective,subjective,A,NULL
1744136354,dd21839baf751e1d7eac3d604802d194,PennController,84,0,calibrator_so_feedback,NULL,Selector,Selection,Selection,objective,1744135758317,undefined,1032,triangular,undefined,subjective,objective,subjective,A,objective;subjective
1744136354,dd21839baf751e1d7eac3d604802d194,PennController,84,0,calibrator_so_feedback,NULL,PennController,95,_Trial_,End,1744135760336,undefined,1032,triangular,undefined,subjective,objective,subjective,A,NULL
1744136354,dd21839baf751e1d7eac3d604802d194,PennController,86,0,calibrator_so_feedback,NULL,PennController,97,_Trial_,Start,1744135760342,undefined,1077,wet,undefined,subjective,objective,subjective,A,NULL
1744136354,dd21839baf751e1d7eac3d604802d194,PennController,86,0,calibrator_so_feedback,NULL,PennController,97,_Header_,Start,1744135760342,undefined,1077,wet,undefined,subjective,objective,subjective,A,NULL
1744136354,dd21839baf751e1d7eac3d604802d194,PennController,86,0,calibrator_so_feedback,NULL,PennController,97,_Header_,End,1744135760594,undefined,1077,wet,undefined,subjective,objective,subjective,A,NULL
1744136354,dd21839baf751e1d7eac3d604802d194,PennController,86,0,calibrator_so_feedback,NULL,Selector,Selection,Selection,objective,1744135762181,undefined,1077,wet,undefined,subjective,objective,subjective,A,objective;subjective
1744136354,dd21839baf751e1d7eac3d604802d194,PennController,86,0,calibrator_so_feedback,NULL,PennController,97,_Trial_,End,1744135764193,undefined,1077,wet,undefined,subjective,objective,subjective,A,NULL
1744136354,dd21839baf751e1d7eac3d604802d194,PennController,88,0,calibrator_so_feedback,NULL,PennController,99,_Trial_,Start,1744135764195,undefined,1092,empty,undefined,subjective,objective,subjective,A,NULL
1744136354,dd21839baf751e1d7eac3d604802d194,PennController,88,0,calibrator_so_feedback,NULL,PennController,99,_Header_,Start,1744135764195,undefined,1092,empty,undefined,subjective,objective,subjective,A,NULL
1744136354,dd21839baf751e1d7eac3d604802d194,PennController,88,0,calibrator_so_feedback,NULL,PennController,99,_Header_,End,1744135764454,undefined,1092,empty,undefined,subjective,objective,subjective,A,NULL
1744136354,dd21839baf751e1d7eac3d604802d194,PennController,88,0,calibrator_so_feedback,NULL,Selector,Selection,Selection,objective,1744135766056,undefined,1092,empty,undefined,subjective,objective,subjective,A,objective;subjective
1744136354,dd21839baf751e1d7eac3d604802d194,PennController,88,0,calibrator_so_feedback,NULL,PennController,99,_Trial_,End,1744135768057,undefined,1092,empty,undefined,subjective,objective,subjective,A,NULL
1744136354,dd21839baf751e1d7eac3d604802d194,PennController,85,0,calibrator_so_feedback,NULL,PennController,96,_Trial_,Start,1744135768059,undefined,798,metallic,undefined,subjective,objective,subjective,A,NULL
1744136354,dd21839baf751e1d7eac3d604802d194,PennController,85,0,calibrator_so_feedback,NULL,PennController,96,_Header_,Start,1744135768059,undefined,798,metallic,undefined,subjective,objective,subjective,A,NULL
1744136354,dd21839baf751e1d7eac3d604802d194,PennController,85,0,calibrator_so_feedback,NULL,PennController,96,_Header_,End,1744135768312,undefined,798,metallic,undefined,subjective,objective,subjective,A,NULL
1744136354,dd21839baf751e1d7eac3d604802d194,PennController,85,0,calibrator_so_feedback,NULL,Selector,Selection,Selection,objective,1744135769622,undefined,798,metallic,undefined,subjective,objective,subjective,A,objective;subjective
1744136354,dd21839baf751e1d7eac3d604802d194,PennController,85,0,calibrator_so_feedback,NULL,PennController,96,_Trial_,End,1744135771635,undefined,798,metallic,undefined,subjective,objective,subjective,A,NULL
1744136354,dd21839baf751e1d7eac3d604802d194,PennController,87,0,calibrator_so_feedback,NULL,PennController,98,_Trial_,Start,1744135771638,undefined,805,frozen,undefined,subjective,objective,subjective,A,NULL
1744136354,dd21839baf751e1d7eac3d604802d194,PennController,87,0,calibrator_so_feedback,NULL,PennController,98,_Header_,Start,1744135771638,undefined,805,frozen,undefined,subjective,objective,subjective,A,NULL
1744136354,dd21839baf751e1d7eac3d604802d194,PennController,87,0,calibrator_so_feedback,NULL,PennController,98,_Header_,End,1744135771898,undefined,805,frozen,undefined,subjective,objective,subjective,A,NULL
1744136354,dd21839baf751e1d7eac3d604802d194,PennController,87,0,calibrator_so_feedback,NULL,Selector,Selection,Selection,objective,1744135773216,undefined,805,frozen,undefined,subjective,objective,subjective,A,objective;subjective
1744136354,dd21839baf751e1d7eac3d604802d194,PennController,87,0,calibrator_so_feedback,NULL,PennController,98,_Trial_,End,1744135775221,undefined,805,frozen,undefined,subjective,objective,subjective,A,NULL
1744136354,dd21839baf751e1d7eac3d604802d194,PennController,90,0,calibrator_so_feedback,NULL,PennController,101,_Trial_,Start,1744135775223,undefined,785,ugly,undefined,subjective,objective,subjective,A,NULL
1744136354,dd21839baf751e1d7eac3d604802d194,PennController,90,0,calibrator_so_feedback,NULL,PennController,101,_Header_,Start,1744135775223,undefined,785,ugly,undefined,subjective,objective,subjective,A,NULL
1744136354,dd21839baf751e1d7eac3d604802d194,PennController,90,0,calibrator_so_feedback,NULL,PennController,101,_Header_,End,1744135775479,undefined,785,ugly,undefined,subjective,objective,subjective,A,NULL
1744136354,dd21839baf751e1d7eac3d604802d194,PennController,90,0,calibrator_so_feedback,NULL,Selector,Selection,Selection,subjective,1744135776766,undefined,785,ugly,undefined,subjective,objective,subjective,A,objective;subjective
1744136354,dd21839baf751e1d7eac3d604802d194,PennController,90,0,calibrator_so_feedback,NULL,PennController,101,_Trial_,End,1744135778780,undefined,785,ugly,undefined,subjective,objective,subjective,A,NULL
1744136354,dd21839baf751e1d7eac3d604802d194,PennController,93,0,calibrator_so_feedback,NULL,PennController,104,_Trial_,Start,1744135778782,undefined,1157,comforting,undefined,subjective,objective,subjective,A,NULL
1744136354,dd21839baf751e1d7eac3d604802d194,PennController,93,0,calibrator_so_feedback,NULL,PennController,104,_Header_,Start,1744135778782,undefined,1157,comforting,undefined,subjective,objective,subjective,A,NULL
1744136354,dd21839baf751e1d7eac3d604802d194,PennController,93,0,calibrator_so_feedback,NULL,PennController,104,_Header_,End,1744135779035,undefined,1157,comforting,undefined,subjective,objective,subjective,A,NULL
1744136354,dd21839baf751e1d7eac3d604802d194,PennController,93,0,calibrator_so_feedback,NULL,Selector,Selection,Selection,subjective,1744135780707,undefined,1157,comforting,undefined,subjective,objective,subjective,A,objective;subjective
1744136354,dd21839baf751e1d7eac3d604802d194,PennController,93,0,calibrator_so_feedback,NULL,PennController,104,_Trial_,End,1744135782719,undefined,1157,comforting,undefined,subjective,objective,subjective,A,NULL
1744136354,dd21839baf751e1d7eac3d604802d194,PennController,89,0,calibrator_so_feedback,NULL,PennController,100,_Trial_,Start,1744135782721,undefined,843,pretty,undefined,subjective,objective,subjective,A,NULL
1744136354,dd21839baf751e1d7eac3d604802d194,PennController,89,0,calibrator_so_feedback,NULL,PennController,100,_Header_,Start,1744135782721,undefined,843,pretty,undefined,subjective,objective,subjective,A,NULL
1744136354,dd21839baf751e1d7eac3d604802d194,PennController,89,0,calibrator_so_feedback,NULL,PennController,100,_Header_,End,1744135782976,undefined,843,pretty,undefined,subjective,objective,subjective,A,NULL
1744136354,dd21839baf751e1d7eac3d604802d194,PennController,89,0,calibrator_so_feedback,NULL,Selector,Selection,Selection,subjective,1744135784332,undefined,843,pretty,undefined,subjective,objective,subjective,A,objective;subjective
1744136354,dd21839baf751e1d7eac3d604802d194,PennController,89,0,calibrator_so_feedback,NULL,PennController,100,_Trial_,End,1744135786345,undefined,843,pretty,undefined,subjective,objective,subjective,A,NULL
# 16. Key_value_F.
# 17. Key_value_J.
# 18. Group.
# 19. Comments.
1744136354,dd21839baf751e1d7eac3d604802d194,PennController,101,0,calibrator_so_no_feedback,NULL,PennController,112,_Trial_,Start,1744135786348,undefined,1221,tacky,objective,subjective,A,NULL
1744136354,dd21839baf751e1d7eac3d604802d194,PennController,101,0,calibrator_so_no_feedback,NULL,PennController,112,_Header_,Start,1744135786348,undefined,1221,tacky,objective,subjective,A,NULL
1744136354,dd21839baf751e1d7eac3d604802d194,PennController,101,0,calibrator_so_no_feedback,NULL,PennController,112,_Header_,End,1744135786606,undefined,1221,tacky,objective,subjective,A,NULL
1744136354,dd21839baf751e1d7eac3d604802d194,PennController,101,0,calibrator_so_no_feedback,NULL,Selector,unnamed-Selector,Selection,subjective,1744135788337,undefined,1221,tacky,objective,subjective,A,objective;subjective
1744136354,dd21839baf751e1d7eac3d604802d194,PennController,101,0,calibrator_so_no_feedback,NULL,PennController,112,_Trial_,End,1744135788338,undefined,1221,tacky,objective,subjective,A,NULL
1744136354,dd21839baf751e1d7eac3d604802d194,PennController,94,0,calibrator_so_no_feedback,NULL,PennController,105,_Trial_,Start,1744135788340,undefined,714,triangular,objective,subjective,A,NULL
1744136354,dd21839baf751e1d7eac3d604802d194,PennController,94,0,calibrator_so_no_feedback,NULL,PennController,105,_Header_,Start,1744135788340,undefined,714,triangular,objective,subjective,A,NULL
1744136354,dd21839baf751e1d7eac3d604802d194,PennController,94,0,calibrator_so_no_feedback,NULL,PennController,105,_Header_,End,1744135788599,undefined,714,triangular,objective,subjective,A,NULL
1744136354,dd21839baf751e1d7eac3d604802d194,PennController,94,0,calibrator_so_no_feedback,NULL,Selector,unnamed-Selector,Selection,objective,1744135789818,undefined,714,triangular,objective,subjective,A,objective;subjective
1744136354,dd21839baf751e1d7eac3d604802d194,PennController,94,0,calibrator_so_no_feedback,NULL,PennController,105,_Trial_,End,1744135789818,undefined,714,triangular,objective,subjective,A,NULL
1744136354,dd21839baf751e1d7eac3d604802d194,PennController,103,0,calibrator_so_no_feedback,NULL,PennController,114,_Trial_,Start,1744135789820,undefined,601,comforting,objective,subjective,A,NULL
1744136354,dd21839baf751e1d7eac3d604802d194,PennController,103,0,calibrator_so_no_feedback,NULL,PennController,114,_Header_,Start,1744135789820,undefined,601,comforting,objective,subjective,A,NULL
1744136354,dd21839baf751e1d7eac3d604802d194,PennController,103,0,calibrator_so_no_feedback,NULL,PennController,114,_Header_,End,1744135790070,undefined,601,comforting,objective,subjective,A,NULL
1744136354,dd21839baf751e1d7eac3d604802d194,PennController,103,0,calibrator_so_no_feedback,NULL,Selector,unnamed-Selector,Selection,subjective,1744135791186,undefined,601,comforting,objective,subjective,A,objective;subjective
1744136354,dd21839baf751e1d7eac3d604802d194,PennController,103,0,calibrator_so_no_feedback,NULL,PennController,114,_Trial_,End,1744135791187,undefined,601,comforting,objective,subjective,A,NULL
1744136354,dd21839baf751e1d7eac3d604802d194,PennController,96,0,calibrator_so_no_feedback,NULL,PennController,107,_Trial_,Start,1744135791189,undefined,645,wet,objective,subjective,A,NULL
1744136354,dd21839baf751e1d7eac3d604802d194,PennController,96,0,calibrator_so_no_feedback,NULL,PennController,107,_Header_,Start,1744135791189,undefined,645,wet,objective,subjective,A,NULL
1744136354,dd21839baf751e1d7eac3d604802d194,PennController,96,0,calibrator_so_no_feedback,NULL,PennController,107,_Header_,End,1744135791450,undefined,645,wet,objective,subjective,A,NULL
1744136354,dd21839baf751e1d7eac3d604802d194,PennController,96,0,calibrator_so_no_feedback,NULL,Selector,unnamed-Selector,Selection,objective,1744135792603,undefined,645,wet,objective,subjective,A,objective;subjective
1744136354,dd21839baf751e1d7eac3d604802d194,PennController,96,0,calibrator_so_no_feedback,NULL,PennController,107,_Trial_,End,1744135792605,undefined,645,wet,objective,subjective,A,NULL
1744136354,dd21839baf751e1d7eac3d604802d194,PennController,98,0,calibrator_so_no_feedback,NULL,PennController,109,_Trial_,Start,1744135792606,undefined,699,empty,objective,subjective,A,NULL
1744136354,dd21839baf751e1d7eac3d604802d194,PennController,98,0,calibrator_so_no_feedback,NULL,PennController,109,_Header_,Start,1744135792606,undefined,699,empty,objective,subjective,A,NULL
1744136354,dd21839baf751e1d7eac3d604802d194,PennController,98,0,calibrator_so_no_feedback,NULL,PennController,109,_Header_,End,1744135792870,undefined,699,empty,objective,subjective,A,NULL
1744136354,dd21839baf751e1d7eac3d604802d194,PennController,98,0,calibrator_so_no_feedback,NULL,Selector,unnamed-Selector,Selection,objective,1744135794084,undefined,699,empty,objective,subjective,A,objective;subjective
1744136354,dd21839baf751e1d7eac3d604802d194,PennController,98,0,calibrator_so_no_feedback,NULL,PennController,109,_Trial_,End,1744135794085,undefined,699,empty,objective,subjective,A,NULL
1744136354,dd21839baf751e1d7eac3d604802d194,PennController,99,0,calibrator_so_no_feedback,NULL,PennController,110,_Trial_,Start,1744135794087,undefined,542,pretty,objective,subjective,A,NULL
1744136354,dd21839baf751e1d7eac3d604802d194,PennController,99,0,calibrator_so_no_feedback,NULL,PennController,110,_Header_,Start,1744135794087,undefined,542,pretty,objective,subjective,A,NULL
1744136354,dd21839baf751e1d7eac3d604802d194,PennController,99,0,calibrator_so_no_feedback,NULL,PennController,110,_Header_,End,1744135794342,undefined,542,pretty,objective,subjective,A,NULL
1744136354,dd21839baf751e1d7eac3d604802d194,PennController,99,0,calibrator_so_no_feedback,NULL,Selector,unnamed-Selector,Selection,subjective,1744135795387,undefined,542,pretty,objective,subjective,A,objective;subjective
1744136354,dd21839baf751e1d7eac3d604802d194,PennController,99,0,calibrator_so_no_feedback,NULL,PennController,110,_Trial_,End,1744135795388,undefined,542,pretty,objective,subjective,A,NULL
1744136354,dd21839baf751e1d7eac3d604802d194,PennController,95,0,calibrator_so_no_feedback,NULL,PennController,106,_Trial_,Start,1744135795390,undefined,571,metallic,objective,subjective,A,NULL
1744136354,dd21839baf751e1d7eac3d604802d194,PennController,95,0,calibrator_so_no_feedback,NULL,PennController,106,_Header_,Start,1744135795390,undefined,571,metallic,objective,subjective,A,NULL
1744136354,dd21839baf751e1d7eac3d604802d194,PennController,95,0,calibrator_so_no_feedback,NULL,PennController,106,_Header_,End,1744135795641,undefined,571,metallic,objective,subjective,A,NULL
1744136354,dd21839baf751e1d7eac3d604802d194,PennController,95,0,calibrator_so_no_feedback,NULL,Selector,unnamed-Selector,Selection,objective,1744135796713,undefined,571,metallic,objective,subjective,A,objective;subjective
1744136354,dd21839baf751e1d7eac3d604802d194,PennController,95,0,calibrator_so_no_feedback,NULL,PennController,106,_Trial_,End,1744135796714,undefined,571,metallic,objective,subjective,A,NULL
1744136354,dd21839baf751e1d7eac3d604802d194,PennController,102,0,calibrator_so_no_feedback,NULL,PennController,113,_Trial_,Start,1744135796715,undefined,590,overrated,objective,subjective,A,NULL
1744136354,dd21839baf751e1d7eac3d604802d194,PennController,102,0,calibrator_so_no_feedback,NULL,PennController,113,_Header_,Start,1744135796715,undefined,590,overrated,objective,subjective,A,NULL
1744136354,dd21839baf751e1d7eac3d604802d194,PennController,102,0,calibrator_so_no_feedback,NULL,PennController,113,_Header_,End,1744135796978,undefined,590,overrated,objective,subjective,A,NULL
1744136354,dd21839baf751e1d7eac3d604802d194,PennController,102,0,calibrator_so_no_feedback,NULL,Selector,unnamed-Selector,Selection,subjective,1744135798074,undefined,590,overrated,objective,subjective,A,objective;subjective
1744136354,dd21839baf751e1d7eac3d604802d194,PennController,102,0,calibrator_so_no_feedback,NULL,PennController,113,_Trial_,End,1744135798076,undefined,590,overrated,objective,subjective,A,NULL
1744136354,dd21839baf751e1d7eac3d604802d194,PennController,100,0,calibrator_so_no_feedback,NULL,PennController,111,_Trial_,Start,1744135798077,undefined,788,ugly,objective,subjective,A,NULL
1744136354,dd21839baf751e1d7eac3d604802d194,PennController,100,0,calibrator_so_no_feedback,NULL,PennController,111,_Header_,Start,1744135798077,undefined,788,ugly,objective,subjective,A,NULL
1744136354,dd21839baf751e1d7eac3d604802d194,PennController,100,0,calibrator_so_no_feedback,NULL,PennController,111,_Header_,End,1744135798333,undefined,788,ugly,objective,subjective,A,NULL
1744136354,dd21839baf751e1d7eac3d604802d194,PennController,100,0,calibrator_so_no_feedback,NULL,Selector,unnamed-Selector,Selection,subjective,1744135799639,undefined,788,ugly,objective,subjective,A,objective;subjective
1744136354,dd21839baf751e1d7eac3d604802d194,PennController,100,0,calibrator_so_no_feedback,NULL,PennController,111,_Trial_,End,1744135799641,undefined,788,ugly,objective,subjective,A,NULL
1744136354,dd21839baf751e1d7eac3d604802d194,PennController,97,0,calibrator_so_no_feedback,NULL,PennController,108,_Trial_,Start,1744135799642,undefined,829,frozen,objective,subjective,A,NULL
1744136354,dd21839baf751e1d7eac3d604802d194,PennController,97,0,calibrator_so_no_feedback,NULL,PennController,108,_Header_,Start,1744135799642,undefined,829,frozen,objective,subjective,A,NULL
1744136354,dd21839baf751e1d7eac3d604802d194,PennController,97,0,calibrator_so_no_feedback,NULL,PennController,108,_Header_,End,1744135799899,undefined,829,frozen,objective,subjective,A,NULL
1744136354,dd21839baf751e1d7eac3d604802d194,PennController,97,0,calibrator_so_no_feedback,NULL,Selector,unnamed-Selector,Selection,objective,1744135801234,undefined,829,frozen,objective,subjective,A,objective;subjective
1744136354,dd21839baf751e1d7eac3d604802d194,PennController,97,0,calibrator_so_no_feedback,NULL,PennController,108,_Trial_,End,1744135801235,undefined,829,frozen,objective,subjective,A,NULL
# 13. Comments.
1744136354,dd21839baf751e1d7eac3d604802d194,PennController,136,0,endinstructions_so,NULL,PennController,14,_Trial_,Start,1744135801236,NULL
1744136354,dd21839baf751e1d7eac3d604802d194,PennController,136,0,endinstructions_so,NULL,PennController,14,_Header_,Start,1744135801236,NULL
1744136354,dd21839baf751e1d7eac3d604802d194,PennController,136,0,endinstructions_so,NULL,PennController,14,_Header_,End,1744135801493,NULL
1744136354,dd21839baf751e1d7eac3d604802d194,PennController,136,0,endinstructions_so,NULL,PennController,14,_Trial_,End,1744135806253,NULL
# 13. ID.
# 14. ReactionTime.
# 15. Word.
# 16. ConcValCombo.
# 17. Key_value_F.
# 18. Key_value_J.
# 19. Group.
# 20. Comments.
1744136354,dd21839baf751e1d7eac3d604802d194,PennController,25,0,test_so,NULL,PennController,36,_Trial_,Start,1744135806254,undefined,665,pathetic,subjective-negative,objective,subjective,A,NULL
1744136354,dd21839baf751e1d7eac3d604802d194,PennController,25,0,test_so,NULL,PennController,36,_Header_,Start,1744135806254,undefined,665,pathetic,subjective-negative,objective,subjective,A,NULL
1744136354,dd21839baf751e1d7eac3d604802d194,PennController,25,0,test_so,NULL,PennController,36,_Header_,End,1744135806508,undefined,665,pathetic,subjective-negative,objective,subjective,A,NULL
1744136354,dd21839baf751e1d7eac3d604802d194,PennController,25,0,test_so,NULL,Selector,unnamed-Selector,Selection,subjective,1744135807682,undefined,665,pathetic,subjective-negative,objective,subjective,A,objective;subjective
1744136354,dd21839baf751e1d7eac3d604802d194,PennController,25,0,test_so,NULL,PennController,36,_Trial_,End,1744135807685,undefined,665,pathetic,subjective-negative,objective,subjective,A,NULL
1744136354,dd21839baf751e1d7eac3d604802d194,PennController,8,0,test_so,NULL,PennController,19,_Trial_,Start,1744135807687,undefined,1030,deadly,objective-negative,objective,subjective,A,NULL
1744136354,dd21839baf751e1d7eac3d604802d194,PennController,8,0,test_so,NULL,PennController,19,_Header_,Start,1744135807687,undefined,1030,deadly,objective-negative,objective,subjective,A,NULL
1744136354,dd21839baf751e1d7eac3d604802d194,PennController,8,0,test_so,NULL,PennController,19,_Header_,End,1744135807938,undefined,1030,deadly,objective-negative,objective,subjective,A,NULL
1744136354,dd21839baf751e1d7eac3d604802d194,PennController,8,0,test_so,NULL,Selector,unnamed-Selector,Selection,objective,1744135809479,undefined,1030,deadly,objective-negative,objective,subjective,A,objective;subjective
1744136354,dd21839baf751e1d7eac3d604802d194,PennController,8,0,test_so,NULL,PennController,19,_Trial_,End,1744135809481,undefined,1030,deadly,objective-negative,objective,subjective,A,NULL
1744136354,dd21839baf751e1d7eac3d604802d194,PennController,32,0,test_so,NULL,PennController,43,_Trial_,Start,1744135809482,undefined,1096,cynical,subjective-negative,objective,subjective,A,NULL
1744136354,dd21839baf751e1d7eac3d604802d194,PennController,32,0,test_so,NULL,PennController,43,_Header_,Start,1744135809482,undefined,1096,cynical,subjective-negative,objective,subjective,A,NULL
1744136354,dd21839baf751e1d7eac3d604802d194,PennController,32,0,test_so,NULL,PennController,43,_Header_,End,1744135809739,undefined,1096,cynical,subjective-negative,objective,subjective,A,NULL
1744136354,dd21839baf751e1d7eac3d604802d194,PennController,32,0,test_so,NULL,Selector,unnamed-Selector,Selection,subjective,1744135811346,undefined,1096,cynical,subjective-negative,objective,subjective,A,objective;subjective
1744136354,dd21839baf751e1d7eac3d604802d194,PennController,32,0,test_so,NULL,PennController,43,_Trial_,End,1744135811347,undefined,1096,cynical,subjective-negative,objective,subjective,A,NULL
1744136354,dd21839baf751e1d7eac3d604802d194,PennController,6,0,test_so,NULL,PennController,17,_Trial_,Start,1744135811349,undefined,1426,bankrupt,objective-negative,objective,subjective,A,NULL
1744136354,dd21839baf751e1d7eac3d604802d194,PennController,6,0,test_so,NULL,PennController,17,_Header_,Start,1744135811349,undefined,1426,bankrupt,objective-negative,objective,subjective,A,NULL
1744136354,dd21839baf751e1d7eac3d604802d194,PennController,6,0,test_so,NULL,PennController,17,_Header_,End,1744135811604,undefined,1426,bankrupt,objective-negative,objective,subjective,A,NULL
1744136354,dd21839baf751e1d7eac3d604802d194,PennController,6,0,test_so,NULL,Selector,unnamed-Selector,Selection,objective,1744135813534,undefined,1426,bankrupt,objective-negative,objective,subjective,A,objective;subjective
1744136354,dd21839baf751e1d7eac3d604802d194,PennController,6,0,test_so,NULL,PennController,17,_Trial_,End,1744135813535,undefined,1426,bankrupt,objective-negative,objective,subjective,A,NULL
1744136354,dd21839baf751e1d7eac3d604802d194,PennController,36,0,test_so,NULL,PennController,47,_Trial_,Start,1744135813537,undefined,863,brilliant,subjective-positive,objective,subjective,A,NULL
1744136354,dd21839baf751e1d7eac3d604802d194,PennController,36,0,test_so,NULL,PennController,47,_Header_,Start,1744135813537,undefined,863,brilliant,subjective-positive,objective,subjective,A,NULL
1744136354,dd21839baf751e1d7eac3d604802d194,PennController,36,0,test_so,NULL,PennController,47,_Header_,End,1744135813797,undefined,863,brilliant,subjective-positive,objective,subjective,A,NULL
1744136354,dd21839baf751e1d7eac3d604802d194,PennController,36,0,test_so,NULL,Selector,unnamed-Selector,Selection,subjective,1744135815175,undefined,863,brilliant,subjective-positive,objective,subjective,A,objective;subjective
1744136354,dd21839baf751e1d7eac3d604802d194,PennController,36,0,test_so,NULL,PennController,47,_Trial_,End,1744135815176,undefined,863,brilliant,subjective-positive,objective,subjective,A,NULL
1744136354,dd21839baf751e1d7eac3d604802d194,PennController,19,0,test_so,NULL,PennController,30,_Trial_,Start,1744135815177,undefined,1393,efficient,objective-positive,objective,subjective,A,NULL
1744136354,dd21839baf751e1d7eac3d604802d194,PennController,19,0,test_so,NULL,PennController,30,_Header_,Start,1744135815177,undefined,1393,efficient,objective-positive,objective,subjective,A,NULL
1744136354,dd21839baf751e1d7eac3d604802d194,PennController,19,0,test_so,NULL,PennController,30,_Header_,End,1744135815433,undefined,1393,efficient,objective-positive,objective,subjective,A,NULL
1744136354,dd21839baf751e1d7eac3d604802d194,PennController,19,0,test_so,NULL,Selector,unnamed-Selector,Selection,objective,1744135817331,undefined,1393,efficient,objective-positive,objective,subjective,A,objective;subjective
1744136354,dd21839baf751e1d7eac3d604802d194,PennController,19,0,test_so,NULL,PennController,30,_Trial_,End,1744135817332,undefined,1393,efficient,objective-positive,objective,subjective,A,NULL
1744136354,dd21839baf751e1d7eac3d604802d194,PennController,18,0,test_so,NULL,PennController,29,_Trial_,Start,1744135817333,undefined,931,effective,objective-positive,objective,subjective,A,NULL
1744136354,dd21839baf751e1d7eac3d604802d194,PennController,18,0,test_so,NULL,PennController,29,_Header_,Start,1744135817333,undefined,931,effective,objective-positive,objective,subjective,A,NULL
1744136354,dd21839baf751e1d7eac3d604802d194,PennController,18,0,test_so,NULL,PennController,29,_Header_,End,1744135817589,undefined,931,effective,objective-positive,objective,subjective,A,NULL
1744136354,dd21839baf751e1d7eac3d604802d194,PennController,18,0,test_so,NULL,Selector,unnamed-Selector,Selection,subjective,1744135819028,undefined,931,effective,objective-positive,objective,subjective,A,objective;subjective
1744136354,dd21839baf751e1d7eac3d604802d194,PennController,18,0,test_so,NULL,PennController,29,_Trial_,End,1744135819029,undefined,931,effective,objective-positive,objective,subjective,A,NULL
1744136354,dd21839baf751e1d7eac3d604802d194,PennController,9,0,test_so,NULL,PennController,20,_Trial_,Start,1744135819030,undefined,1587,faulty,objective-negative,objective,subjective,A,NULL
1744136354,dd21839baf751e1d7eac3d604802d194,PennController,9,0,test_so,NULL,PennController,20,_Header_,Start,1744135819030,undefined,1587,faulty,objective-negative,objective,subjective,A,NULL
1744136354,dd21839baf751e1d7eac3d604802d194,PennController,9,0,test_so,NULL,PennController,20,_Header_,End,1744135819283,undefined,1587,faulty,objective-negative,objective,subjective,A,NULL
1744136354,dd21839baf751e1d7eac3d604802d194,PennController,9,0,test_so,NULL,Selector,unnamed-Selector,Selection,objective,1744135821381,undefined,1587,faulty,objective-negative,objective,subjective,A,objective;subjective
1744136354,dd21839baf751e1d7eac3d604802d194,PennController,9,0,test_so,NULL,PennController,20,_Trial_,End,1744135821382,undefined,1587,faulty,objective-negative,objective,subjective,A,NULL
1744136354,dd21839baf751e1d7eac3d604802d194,PennController,4,0,test_so,NULL,PennController,15,_Trial_,Start,1744135821383,undefined,2357,adverse,objective-negative,objective,subjective,A,NULL
1744136354,dd21839baf751e1d7eac3d604802d194,PennController,4,0,test_so,NULL,PennController,15,_Header_,Start,1744135821383,undefined,2357,adverse,objective-negative,objective,subjective,A,NULL
1744136354,dd21839baf751e1d7eac3d604802d194,PennController,4,0,test_so,NULL,PennController,15,_Header_,End,1744135821645,undefined,2357,adverse,objective-negative,objective,subjective,A,NULL
1744136354,dd21839baf751e1d7eac3d604802d194,PennController,4,0,test_so,NULL,Selector,unnamed-Selector,Selection,objective,1744135824511,undefined,2357,adverse,objective-negative,objective,subjective,A,objective;subjective
1744136354,dd21839baf751e1d7eac3d604802d194,PennController,4,0,test_so,NULL,PennController,15,_Trial_,End,1744135824512,undefined,2357,adverse,objective-negative,objective,subjective,A,NULL
1744136354,dd21839baf751e1d7eac3d604802d194,PennController,29,0,test_so,NULL,PennController,40,_Trial_,Start,1744135824513,undefined,1914,impatient,subjective-negative,objective,subjective,A,NULL
1744136354,dd21839baf751e1d7eac3d604802d194,PennController,29,0,test_so,NULL,PennController,40,_Header_,Start,1744135824513,undefined,1914,impatient,subjective-negative,objective,subjective,A,NULL
1744136354,dd21839baf751e1d7eac3d604802d194,PennController,29,0,test_so,NULL,PennController,40,_Header_,End,1744135824770,undefined,1914,impatient,subjective-negative,objective,subjective,A,NULL
1744136354,dd21839baf751e1d7eac3d604802d194,PennController,29,0,test_so,NULL,Selector,unnamed-Selector,Selection,objective,1744135827198,undefined,1914,impatient,subjective-negative,objective,subjective,A,objective;subjective
1744136354,dd21839baf751e1d7eac3d604802d194,PennController,29,0,test_so,NULL,PennController,40,_Trial_,End,1744135827199,undefined,1914,impatient,subjective-negative,objective,subjective,A,NULL
1744136354,dd21839baf751e1d7eac3d604802d194,PennController,31,0,test_so,NULL,PennController,42,_Trial_,Start,1744135827200,undefined,1098,selfish,subjective-negative,objective,subjective,A,NULL
1744136354,dd21839baf751e1d7eac3d604802d194,PennController,31,0,test_so,NULL,PennController,42,_Header_,Start,1744135827200,undefined,1098,selfish,subjective-negative,objective,subjective,A,NULL
1744136354,dd21839baf751e1d7eac3d604802d194,PennController,31,0,test_so,NULL,PennController,42,_Header_,End,1744135827450,undefined,1098,selfish,subjective-negative,objective,subjective,A,NULL
1744136354,dd21839baf751e1d7eac3d604802d194,PennController,31,0,test_so,NULL,Selector,unnamed-Selector,Selection,subjective,1744135829063,undefined,1098,selfish,subjective-negative,objective,subjective,A,objective;subjective
1744136354,dd21839baf751e1d7eac3d604802d194,PennController,31,0,test_so,NULL,PennController,42,_Trial_,End,1744135829063,undefined,1098,selfish,subjective-negative,objective,subjective,A,NULL
1744136354,dd21839baf751e1d7eac3d604802d194,PennController,40,0,test_so,NULL,PennController,51,_Trial_,Start,1744135829064,undefined,1413,harmonious,subjective-positive,objective,subjective,A,NULL
1744136354,dd21839baf751e1d7eac3d604802d194,PennController,40,0,test_so,NULL,PennController,51,_Header_,Start,1744135829064,undefined,1413,harmonious,subjective-positive,objective,subjective,A,NULL
1744136354,dd21839baf751e1d7eac3d604802d194,PennController,40,0,test_so,NULL,PennController,51,_Header_,End,1744135829321,undefined,1413,harmonious,subjective-positive,objective,subjective,A,NULL
1744136354,dd21839baf751e1d7eac3d604802d194,PennController,40,0,test_so,NULL,Selector,unnamed-Selector,Selection,objective,1744135831239,undefined,1413,harmonious,subjective-positive,objective,subjective,A,objective;subjective
1744136354,dd21839baf751e1d7eac3d604802d194,PennController,40,0,test_so,NULL,PennController,51,_Trial_,End,1744135831240,undefined,1413,harmonious,subjective-positive,objective,subjective,A,NULL
1744136354,dd21839baf751e1d7eac3d604802d194,PennController,37,0,test_so,NULL,PennController,48,_Trial_,Start,1744135831241,undefined,1952,authentic,subjective-positive,objective,subjective,A,NULL
1744136354,dd21839baf751e1d7eac3d604802d194,PennController,37,0,test_so,NULL,PennController,48,_Header_,Start,1744135831241,undefined,1952,authentic,subjective-positive,objective,subjective,A,NULL
1744136354,dd21839baf751e1d7eac3d604802d194,PennController,37,0,test_so,NULL,PennController,48,_Header_,End,1744135831492,undefined,1952,authentic,subjective-positive,objective,subjective,A,NULL
1744136354,dd21839baf751e1d7eac3d604802d194,PennController,37,0,test_so,NULL,Selector,unnamed-Selector,Selection,objective,1744135833957,undefined,1952,authentic,subjective-positive,objective,subjective,A,objective;subjective
1744136354,dd21839baf751e1d7eac3d604802d194,PennController,37,0,test_so,NULL,PennController,48,_Trial_,End,1744135833958,undefined,1952,authentic,subjective-positive,objective,subjective,A,NULL
1744136354,dd21839baf751e1d7eac3d604802d194,PennController,41,0,test_so,NULL,PennController,52,_Trial_,Start,1744135833958,undefined,1295,optimistic,subjective-positive,objective,subjective,A,NULL
1744136354,dd21839baf751e1d7eac3d604802d194,PennController,41,0,test_so,NULL,PennController,52,_Header_,Start,1744135833958,undefined,1295,optimistic,subjective-positive,objective,subjective,A,NULL
1744136354,dd21839baf751e1d7eac3d604802d194,PennController,41,0,test_so,NULL,PennController,52,_Header_,End,1744135834214,undefined,1295,optimistic,subjective-positive,objective,subjective,A,NULL
1744136354,dd21839baf751e1d7eac3d604802d194,PennController,41,0,test_so,NULL,Selector,unnamed-Selector,Selection,subjective,1744135836020,undefined,1295,optimistic,subjective-positive,objective,subjective,A,objective;subjective
1744136354,dd21839baf751e1d7eac3d604802d194,PennController,41,0,test_so,NULL,PennController,52,_Trial_,End,1744135836021,undefined,1295,optimistic,subjective-positive,objective,subjective,A,NULL
1744136354,dd21839baf751e1d7eac3d604802d194,PennController,28,0,test_so,NULL,PennController,39,_Trial_,Start,1744135836023,undefined,1493,pointless,subjective-negative,objective,subjective,A,NULL
1744136354,dd21839baf751e1d7eac3d604802d194,PennController,28,0,test_so,NULL,PennController,39,_Header_,Start,1744135836023,undefined,1493,pointless,subjective-negative,objective,subjective,A,NULL
1744136354,dd21839baf751e1d7eac3d604802d194,PennController,28,0,test_so,NULL,PennController,39,_Header_,End,1744135836289,undefined,1493,pointless,subjective-negative,objective,subjective,A,NULL
1744136354,dd21839baf751e1d7eac3d604802d194,PennController,28,0,test_so,NULL,Selector,unnamed-Selector,Selection,subjective,1744135838290,undefined,1493,pointless,subjective-negative,objective,subjective,A,objective;subjective
1744136354,dd21839baf751e1d7eac3d604802d194,PennController,28,0,test_so,NULL,PennController,39,_Trial_,End,1744135838292,undefined,1493,pointless,subjective-negative,objective,subjective,A,NULL
1744136354,dd21839baf751e1d7eac3d604802d194,PennController,14,0,test_so,NULL,PennController,25,_Trial_,Start,1744135838294,undefined,954,valuable,objective-positive,objective,subjective,A,NULL
1744136354,dd21839baf751e1d7eac3d604802d194,PennController,14,0,test_so,NULL,PennController,25,_Header_,Start,1744135838294,undefined,954,valuable,objective-positive,objective,subjective,A,NULL
1744136354,dd21839baf751e1d7eac3d604802d194,PennController,14,0,test_so,NULL,PennController,25,_Header_,End,1744135838553,undefined,954,valuable,objective-positive,objective,subjective,A,NULL
1744136354,dd21839baf751e1d7eac3d604802d194,PennController,14,0,test_so,NULL,Selector,unnamed-Selector,Selection,subjective,1744135840016,undefined,954,valuable,objective-positive,objective,subjective,A,objective;subjective
1744136354,dd21839baf751e1d7eac3d604802d194,PennController,14,0,test_so,NULL,PennController,25,_Trial_,End,1744135840018,undefined,954,valuable,objective-positive,objective,subjective,A,NULL
1744136354,dd21839baf751e1d7eac3d604802d194,PennController,15,0,test_so,NULL,PennController,26,_Trial_,Start,1744135840019,undefined,1468,accurate,objective-positive,objective,subjective,A,NULL
1744136354,dd21839baf751e1d7eac3d604802d194,PennController,15,0,test_so,NULL,PennController,26,_Header_,Start,1744135840019,undefined,1468,accurate,objective-positive,objective,subjective,A,NULL
1744136354,dd21839baf751e1d7eac3d604802d194,PennController,15,0,test_so,NULL,PennController,26,_Header_,End,1744135840281,undefined,1468,accurate,objective-positive,objective,subjective,A,NULL
1744136354,dd21839baf751e1d7eac3d604802d194,PennController,15,0,test_so,NULL,Selector,unnamed-Selector,Selection,objective,1744135842254,undefined,1468,accurate,objective-positive,objective,subjective,A,objective;subjective
1744136354,dd21839baf751e1d7eac3d604802d194,PennController,15,0,test_so,NULL,PennController,26,_Trial_,End,1744135842255,undefined,1468,accurate,objective-positive,objective,subjective,A,NULL
1744136354,dd21839baf751e1d7eac3d604802d194,PennController,35,0,test_so,NULL,PennController,46,_Trial_,Start,1744135842256,undefined,955,beautiful,subjective-positive,objective,subjective,A,NULL
1744136354,dd21839baf751e1d7eac3d604802d194,PennController,35,0,test_so,NULL,PennController,46,_Header_,Start,1744135842256,undefined,955,beautiful,subjective-positive,objective,subjective,A,NULL
1744136354,dd21839baf751e1d7eac3d604802d194,PennController,35,0,test_so,NULL,PennController,46,_Header_,End,1744135842518,undefined,955,beautiful,subjective-positive,objective,subjective,A,NULL
1744136354,dd21839baf751e1d7eac3d604802d194,PennController,35,0,test_so,NULL,Selector,unnamed-Selector,Selection,subjective,1744135843982,undefined,955,beautiful,subjective-positive,objective,subjective,A,objective;subjective
1744136354,dd21839baf751e1d7eac3d604802d194,PennController,35,0,test_so,NULL,PennController,46,_Trial_,End,1744135843984,undefined,955,beautiful,subjective-positive,objective,subjective,A,NULL
1744136354,dd21839baf751e1d7eac3d604802d194,PennController,33,0,test_so,NULL,PennController,44,_Trial_,Start,1744135843985,undefined,766,disgusting,subjective-negative,objective,subjective,A,NULL
1744136354,dd21839baf751e1d7eac3d604802d194,PennController,33,0,test_so,NULL,PennController,44,_Header_,Start,1744135843985,undefined,766,disgusting,subjective-negative,objective,subjective,A,NULL
1744136354,dd21839baf751e1d7eac3d604802d194,PennController,33,0,test_so,NULL,PennController,44,_Header_,End,1744135844235,undefined,766,disgusting,subjective-negative,objective,subjective,A,NULL
1744136354,dd21839baf751e1d7eac3d604802d194,PennController,33,0,test_so,NULL,Selector,unnamed-Selector,Selection,subjective,1744135845514,undefined,766,disgusting,subjective-negative,objective,subjective,A,objective;subjective
1744136354,dd21839baf751e1d7eac3d604802d194,PennController,33,0,test_so,NULL,PennController,44,_Trial_,End,1744135845515,undefined,766,disgusting,subjective-negative,objective,subjective,A,NULL
1744136354,dd21839baf751e1d7eac3d604802d194,PennController,7,0,test_so,NULL,PennController,18,_Trial_,Start,1744135845515,undefined,1571,unstable,objective-negative,objective,subjective,A,NULL
1744136354,dd21839baf751e1d7eac3d604802d194,PennController,7,0,test_so,NULL,PennController,18,_Header_,Start,1744135845515,undefined,1571,unstable,objective-negative,objective,subjective,A,NULL
1744136354,dd21839baf751e1d7eac3d604802d194,PennController,7,0,test_so,NULL,PennController,18,_Header_,End,1744135845766,undefined,1571,unstable,objective-negative,objective,subjective,A,NULL
1744136354,dd21839baf751e1d7eac3d604802d194,PennController,7,0,test_so,NULL,Selector,unnamed-Selector,Selection,objective,1744135847842,undefined,1571,unstable,objective-negative,objective,subjective,A,objective;subjective
1744136354,dd21839baf751e1d7eac3d604802d194,PennController,7,0,test_so,NULL,PennController,18,_Trial_,End,1744135847843,undefined,1571,unstable,objective-negative,objective,subjective,A,NULL
1744136354,dd21839baf751e1d7eac3d604802d194,PennController,30,0,test_so,NULL,PennController,41,_Trial_,Start,1744135847844,undefined,2096,hostile,subjective-negative,objective,subjective,A,NULL
1744136354,dd21839baf751e1d7eac3d604802d194,PennController,30,0,test_so,NULL,PennController,41,_Header_,Start,1744135847844,undefined,2096,hostile,subjective-negative,objective,subjective,A,NULL
1744136354,dd21839baf751e1d7eac3d604802d194,PennController,30,0,test_so,NULL,PennController,41,_Header_,End,1744135848099,undefined,2096,hostile,subjective-negative,objective,subjective,A,NULL
1744136354,dd21839baf751e1d7eac3d604802d194,PennController,30,0,test_so,NULL,Selector,unnamed-Selector,Selection,objective,1744135850707,undefined,2096,hostile,subjective-negative,objective,subjective,A,objective;subjective
1744136354,dd21839baf751e1d7eac3d604802d194,PennController,30,0,test_so,NULL,PennController,41,_Trial_,End,1744135850707,undefined,2096,hostile,subjective-negative,objective,subjective,A,NULL
1744136354,dd21839baf751e1d7eac3d604802d194,PennController,22,0,test_so,NULL,PennController,33,_Trial_,Start,1744135850708,undefined,1160,profitable,objective-positive,objective,subjective,A,NULL
1744136354,dd21839baf751e1d7eac3d604802d194,PennController,22,0,test_so,NULL,PennController,33,_Header_,Start,1744135850708,undefined,1160,profitable,objective-positive,objective,subjective,A,NULL
1744136354,dd21839baf751e1d7eac3d604802d194,PennController,22,0,test_so,NULL,PennController,33,_Header_,End,1744135850959,undefined,1160,profitable,objective-positive,objective,subjective,A,NULL
1744136354,dd21839baf751e1d7eac3d604802d194,PennController,22,0,test_so,NULL,Selector,unnamed-Selector,Selection,objective,1744135852628,undefined,1160,profitable,objective-positive,objective,subjective,A,objective;subjective
1744136354,dd21839baf751e1d7eac3d604802d194,PennController,22,0,test_so,NULL,PennController,33,_Trial_,End,1744135852629,undefined,1160,profitable,objective-positive,objective,subjective,A,NULL
1744136354,dd21839baf751e1d7eac3d604802d194,PennController,34,0,test_so,NULL,PennController,45,_Trial_,Start,1744135852630,undefined,814,delicious,subjective-positive,objective,subjective,A,NULL
1744136354,dd21839baf751e1d7eac3d604802d194,PennController,34,0,test_so,NULL,PennController,45,_Header_,Start,1744135852630,undefined,814,delicious,subjective-positive,objective,subjective,A,NULL
1744136354,dd21839baf751e1d7eac3d604802d194,PennController,34,0,test_so,NULL,PennController,45,_Header_,End,1744135852890,undefined,814,delicious,subjective-positive,objective,subjective,A,NULL
1744136354,dd21839baf751e1d7eac3d604802d194,PennController,34,0,test_so,NULL,Selector,unnamed-Selector,Selection,subjective,1744135854217,undefined,814,delicious,subjective-positive,objective,subjective,A,objective;subjective
1744136354,dd21839baf751e1d7eac3d604802d194,PennController,34,0,test_so,NULL,PennController,45,_Trial_,End,1744135854218,undefined,814,delicious,subjective-positive,objective,subjective,A,NULL
1744136354,dd21839baf751e1d7eac3d604802d194,PennController,42,0,test_so,NULL,PennController,53,_Trial_,Start,1744135854219,undefined,825,thoughtful,subjective-positive,objective,subjective,A,NULL
1744136354,dd21839baf751e1d7eac3d604802d194,PennController,42,0,test_so,NULL,PennController,53,_Header_,Start,1744135854219,undefined,825,thoughtful,subjective-positive,objective,subjective,A,NULL
1744136354,dd21839baf751e1d7eac3d604802d194,PennController,42,0,test_so,NULL,PennController,53,_Header_,End,1744135854475,undefined,825,thoughtful,subjective-positive,objective,subjective,A,NULL
1744136354,dd21839baf751e1d7eac3d604802d194,PennController,42,0,test_so,NULL,Selector,unnamed-Selector,Selection,subjective,1744135855805,undefined,825,thoughtful,subjective-positive,objective,subjective,A,objective;subjective
1744136354,dd21839baf751e1d7eac3d604802d194,PennController,42,0,test_so,NULL,PennController,53,_Trial_,End,1744135855806,undefined,825,thoughtful,subjective-positive,objective,subjective,A,NULL
1744136354,dd21839baf751e1d7eac3d604802d194,PennController,16,0,test_so,NULL,PennController,27,_Trial_,Start,1744135855807,undefined,857,accurate,objective-positive,objective,subjective,A,NULL
1744136354,dd21839baf751e1d7eac3d604802d194,PennController,16,0,test_so,NULL,PennController,27,_Header_,Start,1744135855807,undefined,857,accurate,objective-positive,objective,subjective,A,NULL
1744136354,dd21839baf751e1d7eac3d604802d194,PennController,16,0,test_so,NULL,PennController,27,_Header_,End,1744135856063,undefined,857,accurate,objective-positive,objective,subjective,A,NULL
1744136354,dd21839baf751e1d7eac3d604802d194,PennController,16,0,test_so,NULL,Selector,unnamed-Selector,Selection,objective,1744135857428,undefined,857,accurate,objective-positive,objective,subjective,A,objective;subjective
1744136354,dd21839baf751e1d7eac3d604802d194,PennController,16,0,test_so,NULL,PennController,27,_Trial_,End,1744135857428,undefined,857,accurate,objective-positive,objective,subjective,A,NULL
1744136354,dd21839baf751e1d7eac3d604802d194,PennController,5,0,test_so,NULL,PennController,16,_Trial_,Start,1744135857429,undefined,1550,corrupt,objective-negative,objective,subjective,A,NULL
1744136354,dd21839baf751e1d7eac3d604802d194,PennController,5,0,test_so,NULL,PennController,16,_Header_,Start,1744135857429,undefined,1550,corrupt,objective-negative,objective,subjective,A,NULL
1744136354,dd21839baf751e1d7eac3d604802d194,PennController,5,0,test_so,NULL,PennController,16,_Header_,End,1744135857680,undefined,1550,corrupt,objective-negative,objective,subjective,A,NULL
1744136354,dd21839baf751e1d7eac3d604802d194,PennController,5,0,test_so,NULL,Selector,unnamed-Selector,Selection,objective,1744135859732,undefined,1550,corrupt,objective-negative,objective,subjective,A,objective;subjective
1744136354,dd21839baf751e1d7eac3d604802d194,PennController,5,0,test_so,NULL,PennController,16,_Trial_,End,1744135859733,undefined,1550,corrupt,objective-negative,objective,subjective,A,NULL
1744136354,dd21839baf751e1d7eac3d604802d194,PennController,24,0,test_so,NULL,PennController,35,_Trial_,Start,1744135859734,undefined,825,annoying,subjective-negative,objective,subjective,A,NULL
1744136354,dd21839baf751e1d7eac3d604802d194,PennController,24,0,test_so,NULL,PennController,35,_Header_,Start,1744135859734,undefined,825,annoying,subjective-negative,objective,subjective,A,NULL
1744136354,dd21839baf751e1d7eac3d604802d194,PennController,24,0,test_so,NULL,PennController,35,_Header_,End,1744135859992,undefined,825,annoying,subjective-negative,objective,subjective,A,NULL
1744136354,dd21839baf751e1d7eac3d604802d194,PennController,24,0,test_so,NULL,Selector,unnamed-Selector,Selection,subjective,1744135861321,undefined,825,annoying,subjective-negative,objective,subjective,A,objective;subjective
1744136354,dd21839baf751e1d7eac3d604802d194,PennController,24,0,test_so,NULL,PennController,35,_Trial_,End,1744135861322,undefined,825,annoying,subjective-negative,objective,subjective,A,NULL
1744136354,dd21839baf751e1d7eac3d604802d194,PennController,13,0,test_so,NULL,PennController,24,_Trial_,Start,1744135861323,undefined,1795,unfit,objective-negative,objective,subjective,A,NULL
1744136354,dd21839baf751e1d7eac3d604802d194,PennController,13,0,test_so,NULL,PennController,24,_Header_,Start,1744135861323,undefined,1795,unfit,objective-negative,objective,subjective,A,NULL
1744136354,dd21839baf751e1d7eac3d604802d194,PennController,13,0,test_so,NULL,PennController,24,_Header_,End,1744135861582,undefined,1795,unfit,objective-negative,objective,subjective,A,NULL
1744136354,dd21839baf751e1d7eac3d604802d194,PennController,13,0,test_so,NULL,Selector,unnamed-Selector,Selection,objective,1744135863882,undefined,1795,unfit,objective-negative,objective,subjective,A,objective;subjective
1744136354,dd21839baf751e1d7eac3d604802d194,PennController,13,0,test_so,NULL,PennController,24,_Trial_,End,1744135863884,undefined,1795,unfit,objective-negative,objective,subjective,A,NULL
1744136354,dd21839baf751e1d7eac3d604802d194,PennController,23,0,test_so,NULL,PennController,34,_Trial_,Start,1744135863885,undefined,1816,successful,objective-positive,objective,subjective,A,NULL
1744136354,dd21839baf751e1d7eac3d604802d194,PennController,23,0,test_so,NULL,PennController,34,_Header_,Start,1744135863885,undefined,1816,successful,objective-positive,objective,subjective,A,NULL
1744136354,dd21839baf751e1d7eac3d604802d194,PennController,23,0,test_so,NULL,PennController,34,_Header_,End,1744135864135,undefined,1816,successful,objective-positive,objective,subjective,A,NULL
1744136354,dd21839baf751e1d7eac3d604802d194,PennController,23,0,test_so,NULL,Selector,unnamed-Selector,Selection,subjective,1744135866455,undefined,1816,successful,objective-positive,objective,subjective,A,objective;subjective
1744136354,dd21839baf751e1d7eac3d604802d194,PennController,23,0,test_so,NULL,PennController,34,_Trial_,End,1744135866456,undefined,1816,successful,objective-positive,objective,subjective,A,NULL
1744136354,dd21839baf751e1d7eac3d604802d194,PennController,10,0,test_so,NULL,PennController,21,_Trial_,Start,1744135866456,undefined,1140,defective,objective-negative,objective,subjective,A,NULL
1744136354,dd21839baf751e1d7eac3d604802d194,PennController,10,0,test_so,NULL,PennController,21,_Header_,Start,1744135866456,undefined,1140,defective,objective-negative,objective,subjective,A,NULL
1744136354,dd21839baf751e1d7eac3d604802d194,PennController,10,0,test_so,NULL,PennController,21,_Header_,End,1744135866711,undefined,1140,defective,objective-negative,objective,subjective,A,NULL
1744136354,dd21839baf751e1d7eac3d604802d194,PennController,10,0,test_so,NULL,Selector,unnamed-Selector,Selection,objective,1744135868364,undefined,1140,defective,objective-negative,objective,subjective,A,objective;subjective
1744136354,dd21839baf751e1d7eac3d604802d194,PennController,10,0,test_so,NULL,PennController,21,_Trial_,End,1744135868364,undefined,1140,defective,objective-negative,objective,subjective,A,NULL
1744136354,dd21839baf751e1d7eac3d604802d194,PennController,21,0,test_so,NULL,PennController,32,_Trial_,Start,1744135868365,undefined,1769,healthy,objective-positive,objective,subjective,A,NULL
1744136354,dd21839baf751e1d7eac3d604802d194,PennController,21,0,test_so,NULL,PennController,32,_Header_,Start,1744135868365,undefined,1769,healthy,objective-positive,objective,subjective,A,NULL
1744136354,dd21839baf751e1d7eac3d604802d194,PennController,21,0,test_so,NULL,PennController,32,_Header_,End,1744135868621,undefined,1769,healthy,objective-positive,objective,subjective,A,NULL
1744136354,dd21839baf751e1d7eac3d604802d194,PennController,21,0,test_so,NULL,Selector,unnamed-Selector,Selection,objective,1744135870900,undefined,1769,healthy,objective-positive,objective,subjective,A,objective;subjective
1744136354,dd21839baf751e1d7eac3d604802d194,PennController,21,0,test_so,NULL,PennController,32,_Trial_,End,1744135870901,undefined,1769,healthy,objective-positive,objective,subjective,A,NULL
1744136354,dd21839baf751e1d7eac3d604802d194,PennController,43,0,test_so,NULL,PennController,54,_Trial_,Start,1744135870902,undefined,1229,passionate,subjective-positive,objective,subjective,A,NULL
1744136354,dd21839baf751e1d7eac3d604802d194,PennController,43,0,test_so,NULL,PennController,54,_Header_,Start,1744135870902,undefined,1229,passionate,subjective-positive,objective,subjective,A,NULL
1744136354,dd21839baf751e1d7eac3d604802d194,PennController,43,0,test_so,NULL,PennController,54,_Header_,End,1744135871164,undefined,1229,passionate,subjective-positive,objective,subjective,A,NULL
1744136354,dd21839baf751e1d7eac3d604802d194,PennController,43,0,test_so,NULL,Selector,unnamed-Selector,Selection,subjective,1744135872903,undefined,1229,passionate,subjective-positive,objective,subjective,A,objective;subjective
1744136354,dd21839baf751e1d7eac3d604802d194,PennController,43,0,test_so,NULL,PennController,54,_Trial_,End,1744135872903,undefined,1229,passionate,subjective-positive,objective,subjective,A,NULL
1744136354,dd21839baf751e1d7eac3d604802d194,PennController,26,0,test_so,NULL,PennController,37,_Trial_,Start,1744135872906,undefined,1759,hopeless,subjective-negative,objective,subjective,A,NULL
1744136354,dd21839baf751e1d7eac3d604802d194,PennController,26,0,test_so,NULL,PennController,37,_Header_,Start,1744135872906,undefined,1759,hopeless,subjective-negative,objective,subjective,A,NULL
1744136354,dd21839baf751e1d7eac3d604802d194,PennController,26,0,test_so,NULL,PennController,37,_Header_,End,1744135873158,undefined,1759,hopeless,subjective-negative,objective,subjective,A,NULL
1744136354,dd21839baf751e1d7eac3d604802d194,PennController,26,0,test_so,NULL,Selector,unnamed-Selector,Selection,objective,1744135875425,undefined,1759,hopeless,subjective-negative,objective,subjective,A,objective;subjective
1744136354,dd21839baf751e1d7eac3d604802d194,PennController,26,0,test_so,NULL,PennController,37,_Trial_,End,1744135875427,undefined,1759,hopeless,subjective-negative,objective,subjective,A,NULL
1744136354,dd21839baf751e1d7eac3d604802d194,PennController,20,0,test_so,NULL,PennController,31,_Trial_,Start,1744135875427,undefined,1931,efficient,objective-positive,objective,subjective,A,NULL
1744136354,dd21839baf751e1d7eac3d604802d194,PennController,20,0,test_so,NULL,PennController,31,_Header_,Start,1744135875427,undefined,1931,efficient,objective-positive,objective,subjective,A,NULL
1744136354,dd21839baf751e1d7eac3d604802d194,PennController,20,0,test_so,NULL,PennController,31,_Header_,End,1744135875687,undefined,1931,efficient,objective-positive,objective,subjective,A,NULL
1744136354,dd21839baf751e1d7eac3d604802d194,PennController,20,0,test_so,NULL,Selector,unnamed-Selector,Selection,objective,1744135878129,undefined,1931,efficient,objective-positive,objective,subjective,A,objective;subjective
1744136354,dd21839baf751e1d7eac3d604802d194,PennController,20,0,test_so,NULL,PennController,31,_Trial_,End,1744135878130,undefined,1931,efficient,objective-positive,objective,subjective,A,NULL
1744136354,dd21839baf751e1d7eac3d604802d194,PennController,11,0,test_so,NULL,PennController,22,_Trial_,Start,1744135878131,undefined,1923,incurable,objective-negative,objective,subjective,A,NULL
1744136354,dd21839baf751e1d7eac3d604802d194,PennController,11,0,test_so,NULL,PennController,22,_Header_,Start,1744135878131,undefined,1923,incurable,objective-negative,objective,subjective,A,NULL
1744136354,dd21839baf751e1d7eac3d604802d194,PennController,11,0,test_so,NULL,PennController,22,_Header_,End,1744135878384,undefined,1923,incurable,objective-negative,objective,subjective,A,NULL
1744136354,dd21839baf751e1d7eac3d604802d194,PennController,11,0,test_so,NULL,Selector,unnamed-Selector,Selection,objective,1744135880823,undefined,1923,incurable,objective-negative,objective,subjective,A,objective;subjective
1744136354,dd21839baf751e1d7eac3d604802d194,PennController,11,0,test_so,NULL,PennController,22,_Trial_,End,1744135880824,undefined,1923,incurable,objective-negative,objective,subjective,A,NULL
1744136354,dd21839baf751e1d7eac3d604802d194,PennController,17,0,test_so,NULL,PennController,28,_Trial_,Start,1744135880826,undefined,1494,reliable,objective-positive,objective,subjective,A,NULL
1744136354,dd21839baf751e1d7eac3d604802d194,PennController,17,0,test_so,NULL,PennController,28,_Header_,Start,1744135880826,undefined,1494,reliable,objective-positive,objective,subjective,A,NULL
1744136354,dd21839baf751e1d7eac3d604802d194,PennController,17,0,test_so,NULL,PennController,28,_Header_,End,1744135881083,undefined,1494,reliable,objective-positive,objective,subjective,A,NULL
1744136354,dd21839baf751e1d7eac3d604802d194,PennController,17,0,test_so,NULL,Selector,unnamed-Selector,Selection,objective,1744135883083,undefined,1494,reliable,objective-positive,objective,subjective,A,objective;subjective
1744136354,dd21839baf751e1d7eac3d604802d194,PennController,17,0,test_so,NULL,PennController,28,_Trial_,End,1744135883085,undefined,1494,reliable,objective-positive,objective,subjective,A,NULL
1744136354,dd21839baf751e1d7eac3d604802d194,PennController,12,0,test_so,NULL,PennController,23,_Trial_,Start,1744135883086,undefined,1006,toxic,objective-negative,objective,subjective,A,NULL
1744136354,dd21839baf751e1d7eac3d604802d194,PennController,12,0,test_so,NULL,PennController,23,_Header_,Start,1744135883086,undefined,1006,toxic,objective-negative,objective,subjective,A,NULL
1744136354,dd21839baf751e1d7eac3d604802d194,PennController,12,0,test_so,NULL,PennController,23,_Header_,End,1744135883348,undefined,1006,toxic,objective-negative,objective,subjective,A,NULL
1744136354,dd21839baf751e1d7eac3d604802d194,PennController,12,0,test_so,NULL,Selector,unnamed-Selector,Selection,subjective,1744135884857,undefined,1006,toxic,objective-negative,objective,subjective,A,objective;subjective
1744136354,dd21839baf751e1d7eac3d604802d194,PennController,12,0,test_so,NULL,PennController,23,_Trial_,End,1744135884858,undefined,1006,toxic,objective-negative,objective,subjective,A,NULL
1744136354,dd21839baf751e1d7eac3d604802d194,PennController,39,0,test_so,NULL,PennController,50,_Trial_,Start,1744135884859,undefined,1659,refreshing,subjective-positive,objective,subjective,A,NULL
1744136354,dd21839baf751e1d7eac3d604802d194,PennController,39,0,test_so,NULL,PennController,50,_Header_,Start,1744135884859,undefined,1659,refreshing,subjective-positive,objective,subjective,A,NULL
1744136354,dd21839baf751e1d7eac3d604802d194,PennController,39,0,test_so,NULL,PennController,50,_Header_,End,1744135885119,undefined,1659,refreshing,subjective-positive,objective,subjective,A,NULL
1744136354,dd21839baf751e1d7eac3d604802d194,PennController,39,0,test_so,NULL,Selector,unnamed-Selector,Selection,subjective,1744135887289,undefined,1659,refreshing,subjective-positive,objective,subjective,A,objective;subjective
1744136354,dd21839baf751e1d7eac3d604802d194,PennController,39,0,test_so,NULL,PennController,50,_Trial_,End,1744135887290,undefined,1659,refreshing,subjective-positive,objective,subjective,A,NULL
1744136354,dd21839baf751e1d7eac3d604802d194,PennController,27,0,test_so,NULL,PennController,38,_Trial_,Start,1744135887290,undefined,1484,arrogant,subjective-negative,objective,subjective,A,NULL
1744136354,dd21839baf751e1d7eac3d604802d194,PennController,27,0,test_so,NULL,PennController,38,_Header_,Start,1744135887290,undefined,1484,arrogant,subjective-negative,objective,subjective,A,NULL
1744136354,dd21839baf751e1d7eac3d604802d194,PennController,27,0,test_so,NULL,PennController,38,_Header_,End,1744135887553,undefined,1484,arrogant,subjective-negative,objective,subjective,A,NULL
1744136354,dd21839baf751e1d7eac3d604802d194,PennController,27,0,test_so,NULL,Selector,unnamed-Selector,Selection,subjective,1744135889545,undefined,1484,arrogant,subjective-negative,objective,subjective,A,objective;subjective
1744136354,dd21839baf751e1d7eac3d604802d194,PennController,27,0,test_so,NULL,PennController,38,_Trial_,End,1744135889547,undefined,1484,arrogant,subjective-negative,objective,subjective,A,NULL
1744136354,dd21839baf751e1d7eac3d604802d194,PennController,38,0,test_so,NULL,PennController,49,_Trial_,Start,1744135889547,undefined,918,admirable,subjective-positive,objective,subjective,A,NULL
1744136354,dd21839baf751e1d7eac3d604802d194,PennController,38,0,test_so,NULL,PennController,49,_Header_,Start,1744135889547,undefined,918,admirable,subjective-positive,objective,subjective,A,NULL
1744136354,dd21839baf751e1d7eac3d604802d194,PennController,38,0,test_so,NULL,PennController,49,_Header_,End,1744135889798,undefined,918,admirable,subjective-positive,objective,subjective,A,NULL
1744136354,dd21839baf751e1d7eac3d604802d194,PennController,38,0,test_so,NULL,Selector,unnamed-Selector,Selection,subjective,1744135891218,undefined,918,admirable,subjective-positive,objective,subjective,A,objective;subjective
1744136354,dd21839baf751e1d7eac3d604802d194,PennController,38,0,test_so,NULL,PennController,49,_Trial_,End,1744135891219,undefined,918,admirable,subjective-positive,objective,subjective,A,NULL
1744136354,dd21839baf751e1d7eac3d604802d194,PennController,26,0,test_so,NULL,PennController,37,_Trial_,Start,1744135891221,undefined,1326,hopeless,subjective-negative,objective,subjective,A,NULL
1744136354,dd21839baf751e1d7eac3d604802d194,PennController,26,0,test_so,NULL,PennController,37,_Header_,Start,1744135891221,undefined,1326,hopeless,subjective-negative,objective,subjective,A,NULL
1744136354,dd21839baf751e1d7eac3d604802d194,PennController,26,0,test_so,NULL,PennController,37,_Header_,End,1744135891471,undefined,1326,hopeless,subjective-negative,objective,subjective,A,NULL
1744136354,dd21839baf751e1d7eac3d604802d194,PennController,26,0,test_so,NULL,Selector,unnamed-Selector,Selection,objective,1744135893309,undefined,1326,hopeless,subjective-negative,objective,subjective,A,objective;subjective
1744136354,dd21839baf751e1d7eac3d604802d194,PennController,26,0,test_so,NULL,PennController,37,_Trial_,End,1744135893310,undefined,1326,hopeless,subjective-negative,objective,subjective,A,NULL
1744136354,dd21839baf751e1d7eac3d604802d194,PennController,30,0,test_so,NULL,PennController,41,_Trial_,Start,1744135893310,undefined,1432,hostile,subjective-negative,objective,subjective,A,NULL
1744136354,dd21839baf751e1d7eac3d604802d194,PennController,30,0,test_so,NULL,PennController,41,_Header_,Start,1744135893310,undefined,1432,hostile,subjective-negative,objective,subjective,A,NULL
1744136354,dd21839baf751e1d7eac3d604802d194,PennController,30,0,test_so,NULL,PennController,41,_Header_,End,1744135893564,undefined,1432,hostile,subjective-negative,objective,subjective,A,NULL
1744136354,dd21839baf751e1d7eac3d604802d194,PennController,30,0,test_so,NULL,Selector,unnamed-Selector,Selection,subjective,1744135895501,undefined,1432,hostile,subjective-negative,objective,subjective,A,objective;subjective
1744136354,dd21839baf751e1d7eac3d604802d194,PennController,30,0,test_so,NULL,PennController,41,_Trial_,End,1744135895503,undefined,1432,hostile,subjective-negative,objective,subjective,A,NULL
1744136354,dd21839baf751e1d7eac3d604802d194,PennController,35,0,test_so,NULL,PennController,46,_Trial_,Start,1744135895504,undefined,625,beautiful,subjective-positive,objective,subjective,A,NULL
1744136354,dd21839baf751e1d7eac3d604802d194,PennController,35,0,test_so,NULL,PennController,46,_Header_,Start,1744135895504,undefined,625,beautiful,subjective-positive,objective,subjective,A,NULL
1744136354,dd21839baf751e1d7eac3d604802d194,PennController,35,0,test_so,NULL,PennController,46,_Header_,End,1744135895759,undefined,625,beautiful,subjective-positive,objective,subjective,A,NULL
1744136354,dd21839baf751e1d7eac3d604802d194,PennController,35,0,test_so,NULL,Selector,unnamed-Selector,Selection,subjective,1744135896896,undefined,625,beautiful,subjective-positive,objective,subjective,A,objective;subjective
1744136354,dd21839baf751e1d7eac3d604802d194,PennController,35,0,test_so,NULL,PennController,46,_Trial_,End,1744135896896,undefined,625,beautiful,subjective-positive,objective,subjective,A,NULL
1744136354,dd21839baf751e1d7eac3d604802d194,PennController,37,0,test_so,NULL,PennController,48,_Trial_,Start,1744135896897,undefined,3242,authentic,subjective-positive,objective,subjective,A,NULL
1744136354,dd21839baf751e1d7eac3d604802d194,PennController,37,0,test_so,NULL,PennController,48,_Header_,Start,1744135896897,undefined,3242,authentic,subjective-positive,objective,subjective,A,NULL
1744136354,dd21839baf751e1d7eac3d604802d194,PennController,37,0,test_so,NULL,PennController,48,_Header_,End,1744135897154,undefined,3242,authentic,subjective-positive,objective,subjective,A,NULL
1744136354,dd21839baf751e1d7eac3d604802d194,PennController,37,0,test_so,NULL,Selector,unnamed-Selector,Selection,objective,1744135900907,undefined,3242,authentic,subjective-positive,objective,subjective,A,objective;subjective
1744136354,dd21839baf751e1d7eac3d604802d194,PennController,37,0,test_so,NULL,PennController,48,_Trial_,End,1744135900908,undefined,3242,authentic,subjective-positive,objective,subjective,A,NULL
1744136354,dd21839baf751e1d7eac3d604802d194,PennController,39,0,test_so,NULL,PennController,50,_Trial_,Start,1744135900910,undefined,1669,refreshing,subjective-positive,objective,subjective,A,NULL
1744136354,dd21839baf751e1d7eac3d604802d194,PennController,39,0,test_so,NULL,PennController,50,_Header_,Start,1744135900910,undefined,1669,refreshing,subjective-positive,objective,subjective,A,NULL
1744136354,dd21839baf751e1d7eac3d604802d194,PennController,39,0,test_so,NULL,PennController,50,_Header_,End,1744135901164,undefined,1669,refreshing,subjective-positive,objective,subjective,A,NULL
1744136354,dd21839baf751e1d7eac3d604802d194,PennController,39,0,test_so,NULL,Selector,unnamed-Selector,Selection,subjective,1744135903347,undefined,1669,refreshing,subjective-positive,objective,subjective,A,objective;subjective
1744136354,dd21839baf751e1d7eac3d604802d194,PennController,39,0,test_so,NULL,PennController,50,_Trial_,End,1744135903350,undefined,1669,refreshing,subjective-positive,objective,subjective,A,NULL
1744136354,dd21839baf751e1d7eac3d604802d194,PennController,14,0,test_so,NULL,PennController,25,_Trial_,Start,1744135903352,undefined,1169,valuable,objective-positive,objective,subjective,A,NULL
1744136354,dd21839baf751e1d7eac3d604802d194,PennController,14,0,test_so,NULL,PennController,25,_Header_,Start,1744135903352,undefined,1169,valuable,objective-positive,objective,subjective,A,NULL
1744136354,dd21839baf751e1d7eac3d604802d194,PennController,14,0,test_so,NULL,PennController,25,_Header_,End,1744135903607,undefined,1169,valuable,objective-positive,objective,subjective,A,NULL
1744136354,dd21839baf751e1d7eac3d604802d194,PennController,14,0,test_so,NULL,Selector,unnamed-Selector,Selection,subjective,1744135905290,undefined,1169,valuable,objective-positive,objective,subjective,A,objective;subjective
1744136354,dd21839baf751e1d7eac3d604802d194,PennController,14,0,test_so,NULL,PennController,25,_Trial_,End,1744135905292,undefined,1169,valuable,objective-positive,objective,subjective,A,NULL
1744136354,dd21839baf751e1d7eac3d604802d194,PennController,13,0,test_so,NULL,PennController,24,_Trial_,Start,1744135905293,undefined,1888,unfit,objective-negative,objective,subjective,A,NULL
1744136354,dd21839baf751e1d7eac3d604802d194,PennController,13,0,test_so,NULL,PennController,24,_Header_,Start,1744135905293,undefined,1888,unfit,objective-negative,objective,subjective,A,NULL
1744136354,dd21839baf751e1d7eac3d604802d194,PennController,13,0,test_so,NULL,PennController,24,_Header_,End,1744135905550,undefined,1888,unfit,objective-negative,objective,subjective,A,NULL
1744136354,dd21839baf751e1d7eac3d604802d194,PennController,13,0,test_so,NULL,Selector,unnamed-Selector,Selection,objective,1744135907949,undefined,1888,unfit,objective-negative,objective,subjective,A,objective;subjective
1744136354,dd21839baf751e1d7eac3d604802d194,PennController,13,0,test_so,NULL,PennController,24,_Trial_,End,1744135907950,undefined,1888,unfit,objective-negative,objective,subjective,A,NULL
1744136354,dd21839baf751e1d7eac3d604802d194,PennController,11,0,test_so,NULL,PennController,22,_Trial_,Start,1744135907951,undefined,1014,incurable,objective-negative,objective,subjective,A,NULL
1744136354,dd21839baf751e1d7eac3d604802d194,PennController,11,0,test_so,NULL,PennController,22,_Header_,Start,1744135907951,undefined,1014,incurable,objective-negative,objective,subjective,A,NULL
1744136354,dd21839baf751e1d7eac3d604802d194,PennController,11,0,test_so,NULL,PennController,22,_Header_,End,1744135908214,undefined,1014,incurable,objective-negative,objective,subjective,A,NULL
1744136354,dd21839baf751e1d7eac3d604802d194,PennController,11,0,test_so,NULL,Selector,unnamed-Selector,Selection,objective,1744135909743,undefined,1014,incurable,objective-negative,objective,subjective,A,objective;subjective
1744136354,dd21839baf751e1d7eac3d604802d194,PennController,11,0,test_so,NULL,PennController,22,_Trial_,End,1744135909744,undefined,1014,incurable,objective-negative,objective,subjective,A,NULL
1744136354,dd21839baf751e1d7eac3d604802d194,PennController,16,0,test_so,NULL,PennController,27,_Trial_,Start,1744135909745,undefined,1221,accurate,objective-positive,objective,subjective,A,NULL
1744136354,dd21839baf751e1d7eac3d604802d194,PennController,16,0,test_so,NULL,PennController,27,_Header_,Start,1744135909745,undefined,1221,accurate,objective-positive,objective,subjective,A,NULL
1744136354,dd21839baf751e1d7eac3d604802d194,PennController,16,0,test_so,NULL,PennController,27,_Header_,End,1744135910000,undefined,1221,accurate,objective-positive,objective,subjective,A,NULL
1744136354,dd21839baf751e1d7eac3d604802d194,PennController,16,0,test_so,NULL,Selector,unnamed-Selector,Selection,objective,1744135911732,undefined,1221,accurate,objective-positive,objective,subjective,A,objective;subjective
1744136354,dd21839baf751e1d7eac3d604802d194,PennController,16,0,test_so,NULL,PennController,27,_Trial_,End,1744135911734,undefined,1221,accurate,objective-positive,objective,subjective,A,NULL
1744136354,dd21839baf751e1d7eac3d604802d194,PennController,5,0,test_so,NULL,PennController,16,_Trial_,Start,1744135911734,undefined,1259,corrupt,objective-negative,objective,subjective,A,NULL
1744136354,dd21839baf751e1d7eac3d604802d194,PennController,5,0,test_so,NULL,PennController,16,_Header_,Start,1744135911734,undefined,1259,corrupt,objective-negative,objective,subjective,A,NULL
1744136354,dd21839baf751e1d7eac3d604802d194,PennController,5,0,test_so,NULL,PennController,16,_Header_,End,1744135911999,undefined,1259,corrupt,objective-negative,objective,subjective,A,NULL
1744136354,dd21839baf751e1d7eac3d604802d194,PennController,5,0,test_so,NULL,Selector,unnamed-Selector,Selection,objective,1744135913772,undefined,1259,corrupt,objective-negative,objective,subjective,A,objective;subjective
1744136354,dd21839baf751e1d7eac3d604802d194,PennController,5,0,test_so,NULL,PennController,16,_Trial_,End,1744135913773,undefined,1259,corrupt,objective-negative,objective,subjective,A,NULL
1744136354,dd21839baf751e1d7eac3d604802d194,PennController,20,0,test_so,NULL,PennController,31,_Trial_,Start,1744135913774,undefined,1779,efficient,objective-positive,objective,subjective,A,NULL
1744136354,dd21839baf751e1d7eac3d604802d194,PennController,20,0,test_so,NULL,PennController,31,_Header_,Start,1744135913774,undefined,1779,efficient,objective-positive,objective,subjective,A,NULL
1744136354,dd21839baf751e1d7eac3d604802d194,PennController,20,0,test_so,NULL,PennController,31,_Header_,End,1744135914026,undefined,1779,efficient,objective-positive,objective,subjective,A,NULL
1744136354,dd21839baf751e1d7eac3d604802d194,PennController,20,0,test_so,NULL,Selector,unnamed-Selector,Selection,objective,1744135916316,undefined,1779,efficient,objective-positive,objective,subjective,A,objective;subjective
1744136354,dd21839baf751e1d7eac3d604802d194,PennController,20,0,test_so,NULL,PennController,31,_Trial_,End,1744135916318,undefined,1779,efficient,objective-positive,objective,subjective,A,NULL
1744136354,dd21839baf751e1d7eac3d604802d194,PennController,4,0,test_so,NULL,PennController,15,_Trial_,Start,1744135916319,undefined,1633,adverse,objective-negative,objective,subjective,A,NULL
1744136354,dd21839baf751e1d7eac3d604802d194,PennController,4,0,test_so,NULL,PennController,15,_Header_,Start,1744135916319,undefined,1633,adverse,objective-negative,objective,subjective,A,NULL
1744136354,dd21839baf751e1d7eac3d604802d194,PennController,4,0,test_so,NULL,PennController,15,_Header_,End,1744135916569,undefined,1633,adverse,objective-negative,objective,subjective,A,NULL
1744136354,dd21839baf751e1d7eac3d604802d194,PennController,4,0,test_so,NULL,Selector,unnamed-Selector,Selection,objective,1744135918716,undefined,1633,adverse,objective-negative,objective,subjective,A,objective;subjective
1744136354,dd21839baf751e1d7eac3d604802d194,PennController,4,0,test_so,NULL,PennController,15,_Trial_,End,1744135918717,undefined,1633,adverse,objective-negative,objective,subjective,A,NULL
1744136354,dd21839baf751e1d7eac3d604802d194,PennController,33,0,test_so,NULL,PennController,44,_Trial_,Start,1744135918718,undefined,693,disgusting,subjective-negative,objective,subjective,A,NULL
1744136354,dd21839baf751e1d7eac3d604802d194,PennController,33,0,test_so,NULL,PennController,44,_Header_,Start,1744135918718,undefined,693,disgusting,subjective-negative,objective,subjective,A,NULL
1744136354,dd21839baf751e1d7eac3d604802d194,PennController,33,0,test_so,NULL,PennController,44,_Header_,End,1744135918978,undefined,693,disgusting,subjective-negative,objective,subjective,A,NULL
1744136354,dd21839baf751e1d7eac3d604802d194,PennController,33,0,test_so,NULL,Selector,unnamed-Selector,Selection,subjective,1744135920187,undefined,693,disgusting,subjective-negative,objective,subjective,A,objective;subjective
1744136354,dd21839baf751e1d7eac3d604802d194,PennController,33,0,test_so,NULL,PennController,44,_Trial_,End,1744135920188,undefined,693,disgusting,subjective-negative,objective,subjective,A,NULL
1744136354,dd21839baf751e1d7eac3d604802d194,PennController,19,0,test_so,NULL,PennController,30,_Trial_,Start,1744135920189,undefined,874,efficient,objective-positive,objective,subjective,A,NULL
1744136354,dd21839baf751e1d7eac3d604802d194,PennController,19,0,test_so,NULL,PennController,30,_Header_,Start,1744135920189,undefined,874,efficient,objective-positive,objective,subjective,A,NULL
1744136354,dd21839baf751e1d7eac3d604802d194,PennController,19,0,test_so,NULL,PennController,30,_Header_,End,1744135920450,undefined,874,efficient,objective-positive,objective,subjective,A,NULL
1744136354,dd21839baf751e1d7eac3d604802d194,PennController,19,0,test_so,NULL,Selector,unnamed-Selector,Selection,objective,1744135921839,undefined,874,efficient,objective-positive,objective,subjective,A,objective;subjective
1744136354,dd21839baf751e1d7eac3d604802d194,PennController,19,0,test_so,NULL,PennController,30,_Trial_,End,1744135921840,undefined,874,efficient,objective-positive,objective,subjective,A,NULL
1744136354,dd21839baf751e1d7eac3d604802d194,PennController,31,0,test_so,NULL,PennController,42,_Trial_,Start,1744135921842,undefined,680,selfish,subjective-negative,objective,subjective,A,NULL
1744136354,dd21839baf751e1d7eac3d604802d194,PennController,31,0,test_so,NULL,PennController,42,_Header_,Start,1744135921842,undefined,680,selfish,subjective-negative,objective,subjective,A,NULL
1744136354,dd21839baf751e1d7eac3d604802d194,PennController,31,0,test_so,NULL,PennController,42,_Header_,End,1744135922096,undefined,680,selfish,subjective-negative,objective,subjective,A,NULL
1744136354,dd21839baf751e1d7eac3d604802d194,PennController,31,0,test_so,NULL,Selector,unnamed-Selector,Selection,subjective,1744135923289,undefined,680,selfish,subjective-negative,objective,subjective,A,objective;subjective
1744136354,dd21839baf751e1d7eac3d604802d194,PennController,31,0,test_so,NULL,PennController,42,_Trial_,End,1744135923290,undefined,680,selfish,subjective-negative,objective,subjective,A,NULL
1744136354,dd21839baf751e1d7eac3d604802d194,PennController,6,0,test_so,NULL,PennController,17,_Trial_,Start,1744135923291,undefined,1247,bankrupt,objective-negative,objective,subjective,A,NULL
1744136354,dd21839baf751e1d7eac3d604802d194,PennController,6,0,test_so,NULL,PennController,17,_Header_,Start,1744135923291,undefined,1247,bankrupt,objective-negative,objective,subjective,A,NULL
1744136354,dd21839baf751e1d7eac3d604802d194,PennController,6,0,test_so,NULL,PennController,17,_Header_,End,1744135923554,undefined,1247,bankrupt,objective-negative,objective,subjective,A,NULL
1744136354,dd21839baf751e1d7eac3d604802d194,PennController,6,0,test_so,NULL,Selector,unnamed-Selector,Selection,objective,1744135925314,undefined,1247,bankrupt,objective-negative,objective,subjective,A,objective;subjective
1744136354,dd21839baf751e1d7eac3d604802d194,PennController,6,0,test_so,NULL,PennController,17,_Trial_,End,1744135925314,undefined,1247,bankrupt,objective-negative,objective,subjective,A,NULL
1744136354,dd21839baf751e1d7eac3d604802d194,PennController,27,0,test_so,NULL,PennController,38,_Trial_,Start,1744135925316,undefined,796,arrogant,subjective-negative,objective,subjective,A,NULL
1744136354,dd21839baf751e1d7eac3d604802d194,PennController,27,0,test_so,NULL,PennController,38,_Header_,Start,1744135925316,undefined,796,arrogant,subjective-negative,objective,subjective,A,NULL
1744136354,dd21839baf751e1d7eac3d604802d194,PennController,27,0,test_so,NULL,PennController,38,_Header_,End,1744135925569,undefined,796,arrogant,subjective-negative,objective,subjective,A,NULL
1744136354,dd21839baf751e1d7eac3d604802d194,PennController,27,0,test_so,NULL,Selector,unnamed-Selector,Selection,subjective,1744135926876,undefined,796,arrogant,subjective-negative,objective,subjective,A,objective;subjective
1744136354,dd21839baf751e1d7eac3d604802d194,PennController,27,0,test_so,NULL,PennController,38,_Trial_,End,1744135926877,undefined,796,arrogant,subjective-negative,objective,subjective,A,NULL
1744136354,dd21839baf751e1d7eac3d604802d194,PennController,17,0,test_so,NULL,PennController,28,_Trial_,Start,1744135926878,undefined,2120,reliable,objective-positive,objective,subjective,A,NULL
1744136354,dd21839baf751e1d7eac3d604802d194,PennController,17,0,test_so,NULL,PennController,28,_Header_,Start,1744135926878,undefined,2120,reliable,objective-positive,objective,subjective,A,NULL
1744136354,dd21839baf751e1d7eac3d604802d194,PennController,17,0,test_so,NULL,PennController,28,_Header_,End,1744135927134,undefined,2120,reliable,objective-positive,objective,subjective,A,NULL
1744136354,dd21839baf751e1d7eac3d604802d194,PennController,17,0,test_so,NULL,Selector,unnamed-Selector,Selection,objective,1744135929767,undefined,2120,reliable,objective-positive,objective,subjective,A,objective;subjective
1744136354,dd21839baf751e1d7eac3d604802d194,PennController,17,0,test_so,NULL,PennController,28,_Trial_,End,1744135929767,undefined,2120,reliable,objective-positive,objective,subjective,A,NULL
1744136354,dd21839baf751e1d7eac3d604802d194,PennController,12,0,test_so,NULL,PennController,23,_Trial_,Start,1744135929769,undefined,1188,toxic,objective-negative,objective,subjective,A,NULL
1744136354,dd21839baf751e1d7eac3d604802d194,PennController,12,0,test_so,NULL,PennController,23,_Header_,Start,1744135929769,undefined,1188,toxic,objective-negative,objective,subjective,A,NULL
1744136354,dd21839baf751e1d7eac3d604802d194,PennController,12,0,test_so,NULL,PennController,23,_Header_,End,1744135930020,undefined,1188,toxic,objective-negative,objective,subjective,A,NULL
1744136354,dd21839baf751e1d7eac3d604802d194,PennController,12,0,test_so,NULL,Selector,unnamed-Selector,Selection,subjective,1744135931719,undefined,1188,toxic,objective-negative,objective,subjective,A,objective;subjective
1744136354,dd21839baf751e1d7eac3d604802d194,PennController,12,0,test_so,NULL,PennController,23,_Trial_,End,1744135931719,undefined,1188,toxic,objective-negative,objective,subjective,A,NULL
1744136354,dd21839baf751e1d7eac3d604802d194,PennController,7,0,test_so,NULL,PennController,18,_Trial_,Start,1744135931720,undefined,2860,unstable,objective-negative,objective,subjective,A,NULL
1744136354,dd21839baf751e1d7eac3d604802d194,PennController,7,0,test_so,NULL,PennController,18,_Header_,Start,1744135931720,undefined,2860,unstable,objective-negative,objective,subjective,A,NULL
1744136354,dd21839baf751e1d7eac3d604802d194,PennController,7,0,test_so,NULL,PennController,18,_Header_,End,1744135931975,undefined,2860,unstable,objective-negative,objective,subjective,A,NULL
1744136354,dd21839baf751e1d7eac3d604802d194,PennController,7,0,test_so,NULL,Selector,unnamed-Selector,Selection,objective,1744135935339,undefined,2860,unstable,objective-negative,objective,subjective,A,objective;subjective
1744136354,dd21839baf751e1d7eac3d604802d194,PennController,7,0,test_so,NULL,PennController,18,_Trial_,End,1744135935342,undefined,2860,unstable,objective-negative,objective,subjective,A,NULL
1744136354,dd21839baf751e1d7eac3d604802d194,PennController,24,0,test_so,NULL,PennController,35,_Trial_,Start,1744135935343,undefined,841,annoying,subjective-negative,objective,subjective,A,NULL
1744136354,dd21839baf751e1d7eac3d604802d194,PennController,24,0,test_so,NULL,PennController,35,_Header_,Start,1744135935343,undefined,841,annoying,subjective-negative,objective,subjective,A,NULL
1744136354,dd21839baf751e1d7eac3d604802d194,PennController,24,0,test_so,NULL,PennController,35,_Header_,End,1744135935607,undefined,841,annoying,subjective-negative,objective,subjective,A,NULL
1744136354,dd21839baf751e1d7eac3d604802d194,PennController,24,0,test_so,NULL,Selector,unnamed-Selector,Selection,subjective,1744135936964,undefined,841,annoying,subjective-negative,objective,subjective,A,objective;subjective
1744136354,dd21839baf751e1d7eac3d604802d194,PennController,24,0,test_so,NULL,PennController,35,_Trial_,End,1744135936965,undefined,841,annoying,subjective-negative,objective,subjective,A,NULL
1744136354,dd21839baf751e1d7eac3d604802d194,PennController,38,0,test_so,NULL,PennController,49,_Trial_,Start,1744135936966,undefined,627,admirable,subjective-positive,objective,subjective,A,NULL
1744136354,dd21839baf751e1d7eac3d604802d194,PennController,38,0,test_so,NULL,PennController,49,_Header_,Start,1744135936966,undefined,627,admirable,subjective-positive,objective,subjective,A,NULL
1744136354,dd21839baf751e1d7eac3d604802d194,PennController,38,0,test_so,NULL,PennController,49,_Header_,End,1744135937227,undefined,627,admirable,subjective-positive,objective,subjective,A,NULL
1744136354,dd21839baf751e1d7eac3d604802d194,PennController,38,0,test_so,NULL,Selector,unnamed-Selector,Selection,subjective,1744135938365,undefined,627,admirable,subjective-positive,objective,subjective,A,objective;subjective
1744136354,dd21839baf751e1d7eac3d604802d194,PennController,38,0,test_so,NULL,PennController,49,_Trial_,End,1744135938366,undefined,627,admirable,subjective-positive,objective,subjective,A,NULL
1744136354,dd21839baf751e1d7eac3d604802d194,PennController,8,0,test_so,NULL,PennController,19,_Trial_,Start,1744135938366,undefined,938,deadly,objective-negative,objective,subjective,A,NULL
1744136354,dd21839baf751e1d7eac3d604802d194,PennController,8,0,test_so,NULL,PennController,19,_Header_,Start,1744135938366,undefined,938,deadly,objective-negative,objective,subjective,A,NULL
1744136354,dd21839baf751e1d7eac3d604802d194,PennController,8,0,test_so,NULL,PennController,19,_Header_,End,1744135938623,undefined,938,deadly,objective-negative,objective,subjective,A,NULL
1744136354,dd21839baf751e1d7eac3d604802d194,PennController,8,0,test_so,NULL,Selector,unnamed-Selector,Selection,objective,1744135940073,undefined,938,deadly,objective-negative,objective,subjective,A,objective;subjective
1744136354,dd21839baf751e1d7eac3d604802d194,PennController,8,0,test_so,NULL,PennController,19,_Trial_,End,1744135940074,undefined,938,deadly,objective-negative,objective,subjective,A,NULL
1744136354,dd21839baf751e1d7eac3d604802d194,PennController,42,0,test_so,NULL,PennController,53,_Trial_,Start,1744135940075,undefined,720,thoughtful,subjective-positive,objective,subjective,A,NULL
1744136354,dd21839baf751e1d7eac3d604802d194,PennController,42,0,test_so,NULL,PennController,53,_Header_,Start,1744135940075,undefined,720,thoughtful,subjective-positive,objective,subjective,A,NULL
1744136354,dd21839baf751e1d7eac3d604802d194,PennController,42,0,test_so,NULL,PennController,53,_Header_,End,1744135940332,undefined,720,thoughtful,subjective-positive,objective,subjective,A,NULL
1744136354,dd21839baf751e1d7eac3d604802d194,PennController,42,0,test_so,NULL,Selector,unnamed-Selector,Selection,subjective,1744135941565,undefined,720,thoughtful,subjective-positive,objective,subjective,A,objective;subjective
1744136354,dd21839baf751e1d7eac3d604802d194,PennController,42,0,test_so,NULL,PennController,53,_Trial_,End,1744135941566,undefined,720,thoughtful,subjective-positive,objective,subjective,A,NULL
1744136354,dd21839baf751e1d7eac3d604802d194,PennController,18,0,test_so,NULL,PennController,29,_Trial_,Start,1744135941567,undefined,1150,effective,objective-positive,objective,subjective,A,NULL
1744136354,dd21839baf751e1d7eac3d604802d194,PennController,18,0,test_so,NULL,PennController,29,_Header_,Start,1744135941567,undefined,1150,effective,objective-positive,objective,subjective,A,NULL
1744136354,dd21839baf751e1d7eac3d604802d194,PennController,18,0,test_so,NULL,PennController,29,_Header_,End,1744135941834,undefined,1150,effective,objective-positive,objective,subjective,A,NULL
1744136354,dd21839baf751e1d7eac3d604802d194,PennController,18,0,test_so,NULL,Selector,unnamed-Selector,Selection,objective,1744135943499,undefined,1150,effective,objective-positive,objective,subjective,A,objective;subjective
1744136354,dd21839baf751e1d7eac3d604802d194,PennController,18,0,test_so,NULL,PennController,29,_Trial_,End,1744135943500,undefined,1150,effective,objective-positive,objective,subjective,A,NULL
1744136354,dd21839baf751e1d7eac3d604802d194,PennController,9,0,test_so,NULL,PennController,20,_Trial_,Start,1744135943502,undefined,1061,faulty,objective-negative,objective,subjective,A,NULL
1744136354,dd21839baf751e1d7eac3d604802d194,PennController,9,0,test_so,NULL,PennController,20,_Header_,Start,1744135943502,undefined,1061,faulty,objective-negative,objective,subjective,A,NULL
1744136354,dd21839baf751e1d7eac3d604802d194,PennController,9,0,test_so,NULL,PennController,20,_Header_,End,1744135943759,undefined,1061,faulty,objective-negative,objective,subjective,A,NULL
1744136354,dd21839baf751e1d7eac3d604802d194,PennController,9,0,test_so,NULL,Selector,unnamed-Selector,Selection,objective,1744135945333,undefined,1061,faulty,objective-negative,objective,subjective,A,objective;subjective
1744136354,dd21839baf751e1d7eac3d604802d194,PennController,9,0,test_so,NULL,PennController,20,_Trial_,End,1744135945335,undefined,1061,faulty,objective-negative,objective,subjective,A,NULL
1744136354,dd21839baf751e1d7eac3d604802d194,PennController,41,0,test_so,NULL,PennController,52,_Trial_,Start,1744135945336,undefined,914,optimistic,subjective-positive,objective,subjective,A,NULL
1744136354,dd21839baf751e1d7eac3d604802d194,PennController,41,0,test_so,NULL,PennController,52,_Header_,Start,1744135945336,undefined,914,optimistic,subjective-positive,objective,subjective,A,NULL
1744136354,dd21839baf751e1d7eac3d604802d194,PennController,41,0,test_so,NULL,PennController,52,_Header_,End,1744135945591,undefined,914,optimistic,subjective-positive,objective,subjective,A,NULL
1744136354,dd21839baf751e1d7eac3d604802d194,PennController,41,0,test_so,NULL,Selector,unnamed-Selector,Selection,subjective,1744135947021,undefined,914,optimistic,subjective-positive,objective,subjective,A,objective;subjective
1744136354,dd21839baf751e1d7eac3d604802d194,PennController,41,0,test_so,NULL,PennController,52,_Trial_,End,1744135947022,undefined,914,optimistic,subjective-positive,objective,subjective,A,NULL
1744136354,dd21839baf751e1d7eac3d604802d194,PennController,10,0,test_so,NULL,PennController,21,_Trial_,Start,1744135947024,undefined,1621,defective,objective-negative,objective,subjective,A,NULL
1744136354,dd21839baf751e1d7eac3d604802d194,PennController,10,0,test_so,NULL,PennController,21,_Header_,Start,1744135947024,undefined,1621,defective,objective-negative,objective,subjective,A,NULL
1744136354,dd21839baf751e1d7eac3d604802d194,PennController,10,0,test_so,NULL,PennController,21,_Header_,End,1744135947287,undefined,1621,defective,objective-negative,objective,subjective,A,NULL
1744136354,dd21839baf751e1d7eac3d604802d194,PennController,10,0,test_so,NULL,Selector,unnamed-Selector,Selection,objective,1744135949419,undefined,1621,defective,objective-negative,objective,subjective,A,objective;subjective
1744136354,dd21839baf751e1d7eac3d604802d194,PennController,10,0,test_so,NULL,PennController,21,_Trial_,End,1744135949421,undefined,1621,defective,objective-negative,objective,subjective,A,NULL
1744136354,dd21839baf751e1d7eac3d604802d194,PennController,34,0,test_so,NULL,PennController,45,_Trial_,Start,1744135949423,undefined,662,delicious,subjective-positive,objective,subjective,A,NULL
1744136354,dd21839baf751e1d7eac3d604802d194,PennController,34,0,test_so,NULL,PennController,45,_Header_,Start,1744135949423,undefined,662,delicious,subjective-positive,objective,subjective,A,NULL
1744136354,dd21839baf751e1d7eac3d604802d194,PennController,34,0,test_so,NULL,PennController,45,_Header_,End,1744135949673,undefined,662,delicious,subjective-positive,objective,subjective,A,NULL
1744136354,dd21839baf751e1d7eac3d604802d194,PennController,34,0,test_so,NULL,Selector,unnamed-Selector,Selection,subjective,1744135950852,undefined,662,delicious,subjective-positive,objective,subjective,A,objective;subjective
1744136354,dd21839baf751e1d7eac3d604802d194,PennController,34,0,test_so,NULL,PennController,45,_Trial_,End,1744135950853,undefined,662,delicious,subjective-positive,objective,subjective,A,NULL
1744136354,dd21839baf751e1d7eac3d604802d194,PennController,21,0,test_so,NULL,PennController,32,_Trial_,Start,1744135950853,undefined,1366,healthy,objective-positive,objective,subjective,A,NULL
1744136354,dd21839baf751e1d7eac3d604802d194,PennController,21,0,test_so,NULL,PennController,32,_Header_,Start,1744135950853,undefined,1366,healthy,objective-positive,objective,subjective,A,NULL
1744136354,dd21839baf751e1d7eac3d604802d194,PennController,21,0,test_so,NULL,PennController,32,_Header_,End,1744135951107,undefined,1366,healthy,objective-positive,objective,subjective,A,NULL
1744136354,dd21839baf751e1d7eac3d604802d194,PennController,21,0,test_so,NULL,Selector,unnamed-Selector,Selection,subjective,1744135952980,undefined,1366,healthy,objective-positive,objective,subjective,A,objective;subjective
1744136354,dd21839baf751e1d7eac3d604802d194,PennController,21,0,test_so,NULL,PennController,32,_Trial_,End,1744135952982,undefined,1366,healthy,objective-positive,objective,subjective,A,NULL
1744136354,dd21839baf751e1d7eac3d604802d194,PennController,22,0,test_so,NULL,PennController,33,_Trial_,Start,1744135952984,undefined,1414,profitable,objective-positive,objective,subjective,A,NULL
1744136354,dd21839baf751e1d7eac3d604802d194,PennController,22,0,test_so,NULL,PennController,33,_Header_,Start,1744135952984,undefined,1414,profitable,objective-positive,objective,subjective,A,NULL
1744136354,dd21839baf751e1d7eac3d604802d194,PennController,22,0,test_so,NULL,PennController,33,_Header_,End,1744135953241,undefined,1414,profitable,objective-positive,objective,subjective,A,NULL
1744136354,dd21839baf751e1d7eac3d604802d194,PennController,22,0,test_so,NULL,Selector,unnamed-Selector,Selection,objective,1744135955169,undefined,1414,profitable,objective-positive,objective,subjective,A,objective;subjective
1744136354,dd21839baf751e1d7eac3d604802d194,PennController,22,0,test_so,NULL,PennController,33,_Trial_,End,1744135955170,undefined,1414,profitable,objective-positive,objective,subjective,A,NULL
1744136354,dd21839baf751e1d7eac3d604802d194,PennController,29,0,test_so,NULL,PennController,40,_Trial_,Start,1744135955171,undefined,4454,impatient,subjective-negative,objective,subjective,A,NULL
1744136354,dd21839baf751e1d7eac3d604802d194,PennController,29,0,test_so,NULL,PennController,40,_Header_,Start,1744135955171,undefined,4454,impatient,subjective-negative,objective,subjective,A,NULL
1744136354,dd21839baf751e1d7eac3d604802d194,PennController,29,0,test_so,NULL,PennController,40,_Header_,End,1744135955431,undefined,4454,impatient,subjective-negative,objective,subjective,A,NULL
1744136354,dd21839baf751e1d7eac3d604802d194,PennController,29,0,test_so,NULL,Selector,unnamed-Selector,Selection,objective,1744135960399,undefined,4454,impatient,subjective-negative,objective,subjective,A,objective;subjective
1744136354,dd21839baf751e1d7eac3d604802d194,PennController,29,0,test_so,NULL,PennController,40,_Trial_,End,1744135960401,undefined,4454,impatient,subjective-negative,objective,subjective,A,NULL
1744136354,dd21839baf751e1d7eac3d604802d194,PennController,36,0,test_so,NULL,PennController,47,_Trial_,Start,1744135960403,undefined,568,brilliant,subjective-positive,objective,subjective,A,NULL
1744136354,dd21839baf751e1d7eac3d604802d194,PennController,36,0,test_so,NULL,PennController,47,_Header_,Start,1744135960403,undefined,568,brilliant,subjective-positive,objective,subjective,A,NULL
1744136354,dd21839baf751e1d7eac3d604802d194,PennController,36,0,test_so,NULL,PennController,47,_Header_,End,1744135960660,undefined,568,brilliant,subjective-positive,objective,subjective,A,NULL
1744136354,dd21839baf751e1d7eac3d604802d194,PennController,36,0,test_so,NULL,Selector,unnamed-Selector,Selection,subjective,1744135961738,undefined,568,brilliant,subjective-positive,objective,subjective,A,objective;subjective
1744136354,dd21839baf751e1d7eac3d604802d194,PennController,36,0,test_so,NULL,PennController,47,_Trial_,End,1744135961738,undefined,568,brilliant,subjective-positive,objective,subjective,A,NULL
1744136354,dd21839baf751e1d7eac3d604802d194,PennController,23,0,test_so,NULL,PennController,34,_Trial_,Start,1744135961740,undefined,892,successful,objective-positive,objective,subjective,A,NULL
1744136354,dd21839baf751e1d7eac3d604802d194,PennController,23,0,test_so,NULL,PennController,34,_Header_,Start,1744135961740,undefined,892,successful,objective-positive,objective,subjective,A,NULL
1744136354,dd21839baf751e1d7eac3d604802d194,PennController,23,0,test_so,NULL,PennController,34,_Header_,End,1744135961991,undefined,892,successful,objective-positive,objective,subjective,A,NULL
1744136354,dd21839baf751e1d7eac3d604802d194,PennController,23,0,test_so,NULL,Selector,unnamed-Selector,Selection,subjective,1744135963395,undefined,892,successful,objective-positive,objective,subjective,A,objective;subjective
1744136354,dd21839baf751e1d7eac3d604802d194,PennController,23,0,test_so,NULL,PennController,34,_Trial_,End,1744135963395,undefined,892,successful,objective-positive,objective,subjective,A,NULL
1744136354,dd21839baf751e1d7eac3d604802d194,PennController,25,0,test_so,NULL,PennController,36,_Trial_,Start,1744135963396,undefined,1774,pathetic,subjective-negative,objective,subjective,A,NULL
