#
# Results on Tue, 08 Apr 2025 14:29:57 GMT
# USER AGENT: Mozilla/5.0 (Windows NT 10.0; Win64; x64) AppleWebKit/537.36 (KHTML, like Gecko) Chrome/134.0.0.0 Safari/537.36
# Design number was non-random = 0
#
# Columns below this comment are as follows:
# 1. Results reception time.
# 2. MD5 hash of participant's IP address.
# 3. Controller name.
# 4. Order number of item.
# 5. Inner element number.
# 6. Label.
# 7. Latin Square Group.
# 8. PennElementType.
# 9. PennElementName.
# 10. Parameter.
# 11. Value.
# 12. EventTime.
# 13. Comments.
1744122597,ff298b7f8c67fe84ce321273dbb6bd98,PennController,1,0,welcome,NULL,PennController,0,_Trial_,Start,1744121992746,NULL
1744122597,ff298b7f8c67fe84ce321273dbb6bd98,PennController,1,0,welcome,NULL,PennController,0,_Header_,Start,1744121992746,NULL
1744122597,ff298b7f8c67fe84ce321273dbb6bd98,PennController,1,0,welcome,NULL,PennController,0,_Header_,End,1744121992999,NULL
1744122597,ff298b7f8c67fe84ce321273dbb6bd98,PennController,1,0,welcome,NULL,PennController,0,_Trial_,End,1744122011006,NULL
# 13. ID.
# 14. Comments.
1744122597,ff298b7f8c67fe84ce321273dbb6bd98,PennController,124,0,consent,NULL,PennController,2,_Trial_,Start,1744122011008,5db6553837647d000bb049ab,NULL
1744122597,ff298b7f8c67fe84ce321273dbb6bd98,PennController,124,0,consent,NULL,PennController,2,_Header_,Start,1744122011008,5db6553837647d000bb049ab,NULL
1744122597,ff298b7f8c67fe84ce321273dbb6bd98,PennController,124,0,consent,NULL,PennController,2,_Header_,End,1744122011260,5db6553837647d000bb049ab,NULL
1744122597,ff298b7f8c67fe84ce321273dbb6bd98,PennController,124,0,consent,NULL,TextInput,ID,Final,5db6553837647d000bb049ab,1744122027980,5db6553837647d000bb049ab,NULL
1744122597,ff298b7f8c67fe84ce321273dbb6bd98,PennController,124,0,consent,NULL,PennController,2,_Trial_,End,1744122027981,5db6553837647d000bb049ab,NULL
# 13. Comments.
1744122597,ff298b7f8c67fe84ce321273dbb6bd98,PennController,126,0,instructions1_val,NULL,PennController,4,_Trial_,Start,1744122027981,NULL
1744122597,ff298b7f8c67fe84ce321273dbb6bd98,PennController,126,0,instructions1_val,NULL,PennController,4,_Header_,Start,1744122027981,NULL
1744122597,ff298b7f8c67fe84ce321273dbb6bd98,PennController,126,0,instructions1_val,NULL,PennController,4,_Header_,End,1744122028232,NULL
1744122597,ff298b7f8c67fe84ce321273dbb6bd98,PennController,126,0,instructions1_val,NULL,PennController,4,_Trial_,End,1744122047531,NULL
1744122597,ff298b7f8c67fe84ce321273dbb6bd98,PennController,127,0,instructions2_val,NULL,PennController,5,_Trial_,Start,1744122047531,NULL
1744122597,ff298b7f8c67fe84ce321273dbb6bd98,PennController,127,0,instructions2_val,NULL,PennController,5,_Header_,Start,1744122047531,NULL
1744122597,ff298b7f8c67fe84ce321273dbb6bd98,PennController,127,0,instructions2_val,NULL,PennController,5,_Header_,End,1744122047781,NULL
1744122597,ff298b7f8c67fe84ce321273dbb6bd98,PennController,127,0,instructions2_val,NULL,PennController,5,_Trial_,End,1744122054594,NULL
1744122597,ff298b7f8c67fe84ce321273dbb6bd98,PennController,128,0,instructions3_hands,NULL,PennController,6,_Trial_,Start,1744122054594,NULL
1744122597,ff298b7f8c67fe84ce321273dbb6bd98,PennController,128,0,instructions3_hands,NULL,PennController,6,_Header_,Start,1744122054594,NULL
1744122597,ff298b7f8c67fe84ce321273dbb6bd98,PennController,128,0,instructions3_hands,NULL,PennController,6,_Header_,End,1744122054845,NULL
1744122597,ff298b7f8c67fe84ce321273dbb6bd98,PennController,128,0,instructions3_hands,NULL,PennController,6,_Trial_,End,1744122061534,NULL
1744122597,ff298b7f8c67fe84ce321273dbb6bd98,PennController,129,0,practice_intro_val,NULL,PennController,7,_Trial_,Start,1744122061535,NULL
1744122597,ff298b7f8c67fe84ce321273dbb6bd98,PennController,129,0,practice_intro_val,NULL,PennController,7,_Header_,Start,1744122061535,NULL
1744122597,ff298b7f8c67fe84ce321273dbb6bd98,PennController,129,0,practice_intro_val,NULL,PennController,7,_Header_,End,1744122061787,NULL
1744122597,ff298b7f8c67fe84ce321273dbb6bd98,PennController,129,0,practice_intro_val,NULL,PennController,7,_Trial_,End,1744122063555,NULL
# 13. ID.
# 14. ReactionTime.
# 15. Word.
# 16. selectedKey.
# 17. selectedValue.
# 18. Key_value_F.
# 19. Key_value_J.
# 20. Group.
# 21. Comments.
1744122597,ff298b7f8c67fe84ce321273dbb6bd98,PennController,113,0,calibrator_val_feedback,NULL,PennController,124,_Trial_,Start,1744122063556,undefined,954,kitten,undefined,negative,positive,negative,A,NULL
1744122597,ff298b7f8c67fe84ce321273dbb6bd98,PennController,113,0,calibrator_val_feedback,NULL,PennController,124,_Header_,Start,1744122063556,undefined,954,kitten,undefined,negative,positive,negative,A,NULL
1744122597,ff298b7f8c67fe84ce321273dbb6bd98,PennController,113,0,calibrator_val_feedback,NULL,PennController,124,_Header_,End,1744122063807,undefined,954,kitten,undefined,negative,positive,negative,A,NULL
1744122597,ff298b7f8c67fe84ce321273dbb6bd98,PennController,113,0,calibrator_val_feedback,NULL,Selector,Selection,Selection,positive,1744122065264,undefined,954,kitten,undefined,negative,positive,negative,A,positive;negative
1744122597,ff298b7f8c67fe84ce321273dbb6bd98,PennController,113,0,calibrator_val_feedback,NULL,PennController,124,_Trial_,End,1744122067267,undefined,954,kitten,undefined,negative,positive,negative,A,NULL
1744122597,ff298b7f8c67fe84ce321273dbb6bd98,PennController,104,0,calibrator_val_feedback,NULL,PennController,115,_Trial_,Start,1744122067267,undefined,1705,free,undefined,negative,positive,negative,A,NULL
1744122597,ff298b7f8c67fe84ce321273dbb6bd98,PennController,104,0,calibrator_val_feedback,NULL,PennController,115,_Header_,Start,1744122067267,undefined,1705,free,undefined,negative,positive,negative,A,NULL
1744122597,ff298b7f8c67fe84ce321273dbb6bd98,PennController,104,0,calibrator_val_feedback,NULL,PennController,115,_Header_,End,1744122067520,undefined,1705,free,undefined,negative,positive,negative,A,NULL
1744122597,ff298b7f8c67fe84ce321273dbb6bd98,PennController,104,0,calibrator_val_feedback,NULL,Selector,Selection,Selection,positive,1744122069728,undefined,1705,free,undefined,negative,positive,negative,A,positive;negative
1744122597,ff298b7f8c67fe84ce321273dbb6bd98,PennController,104,0,calibrator_val_feedback,NULL,PennController,115,_Trial_,End,1744122071733,undefined,1705,free,undefined,negative,positive,negative,A,NULL
1744122597,ff298b7f8c67fe84ce321273dbb6bd98,PennController,107,0,calibrator_val_feedback,NULL,PennController,118,_Trial_,Start,1744122071733,undefined,1752,icebox,undefined,negative,positive,negative,A,NULL
1744122597,ff298b7f8c67fe84ce321273dbb6bd98,PennController,107,0,calibrator_val_feedback,NULL,PennController,118,_Header_,Start,1744122071733,undefined,1752,icebox,undefined,negative,positive,negative,A,NULL
1744122597,ff298b7f8c67fe84ce321273dbb6bd98,PennController,107,0,calibrator_val_feedback,NULL,PennController,118,_Header_,End,1744122071985,undefined,1752,icebox,undefined,negative,positive,negative,A,NULL
1744122597,ff298b7f8c67fe84ce321273dbb6bd98,PennController,107,0,calibrator_val_feedback,NULL,Selector,Selection,Selection,positive,1744122074238,undefined,1752,icebox,undefined,negative,positive,negative,A,positive;negative
1744122597,ff298b7f8c67fe84ce321273dbb6bd98,PennController,107,0,calibrator_val_feedback,NULL,PennController,118,_Trial_,End,1744122076240,undefined,1752,icebox,undefined,negative,positive,negative,A,NULL
1744122597,ff298b7f8c67fe84ce321273dbb6bd98,PennController,112,0,calibrator_val_feedback,NULL,PennController,123,_Trial_,Start,1744122076241,undefined,949,joke,undefined,negative,positive,negative,A,NULL
1744122597,ff298b7f8c67fe84ce321273dbb6bd98,PennController,112,0,calibrator_val_feedback,NULL,PennController,123,_Header_,Start,1744122076241,undefined,949,joke,undefined,negative,positive,negative,A,NULL
1744122597,ff298b7f8c67fe84ce321273dbb6bd98,PennController,112,0,calibrator_val_feedback,NULL,PennController,123,_Header_,End,1744122076494,undefined,949,joke,undefined,negative,positive,negative,A,NULL
1744122597,ff298b7f8c67fe84ce321273dbb6bd98,PennController,112,0,calibrator_val_feedback,NULL,Selector,Selection,Selection,positive,1744122077947,undefined,949,joke,undefined,negative,positive,negative,A,positive;negative
1744122597,ff298b7f8c67fe84ce321273dbb6bd98,PennController,112,0,calibrator_val_feedback,NULL,PennController,123,_Trial_,End,1744122079950,undefined,949,joke,undefined,negative,positive,negative,A,NULL
1744122597,ff298b7f8c67fe84ce321273dbb6bd98,PennController,106,0,calibrator_val_feedback,NULL,PennController,117,_Trial_,Start,1744122079950,undefined,1775,hat,undefined,negative,positive,negative,A,NULL
1744122597,ff298b7f8c67fe84ce321273dbb6bd98,PennController,106,0,calibrator_val_feedback,NULL,PennController,117,_Header_,Start,1744122079950,undefined,1775,hat,undefined,negative,positive,negative,A,NULL
1744122597,ff298b7f8c67fe84ce321273dbb6bd98,PennController,106,0,calibrator_val_feedback,NULL,PennController,117,_Header_,End,1744122080204,undefined,1775,hat,undefined,negative,positive,negative,A,NULL
1744122597,ff298b7f8c67fe84ce321273dbb6bd98,PennController,106,0,calibrator_val_feedback,NULL,Selector,Selection,Selection,positive,1744122082480,undefined,1775,hat,undefined,negative,positive,negative,A,positive;negative
1744122597,ff298b7f8c67fe84ce321273dbb6bd98,PennController,106,0,calibrator_val_feedback,NULL,PennController,117,_Trial_,End,1744122084482,undefined,1775,hat,undefined,negative,positive,negative,A,NULL
1744122597,ff298b7f8c67fe84ce321273dbb6bd98,PennController,111,0,calibrator_val_feedback,NULL,PennController,122,_Trial_,Start,1744122084483,undefined,985,jail,undefined,negative,positive,negative,A,NULL
1744122597,ff298b7f8c67fe84ce321273dbb6bd98,PennController,111,0,calibrator_val_feedback,NULL,PennController,122,_Header_,Start,1744122084483,undefined,985,jail,undefined,negative,positive,negative,A,NULL
1744122597,ff298b7f8c67fe84ce321273dbb6bd98,PennController,111,0,calibrator_val_feedback,NULL,PennController,122,_Header_,End,1744122084736,undefined,985,jail,undefined,negative,positive,negative,A,NULL
1744122597,ff298b7f8c67fe84ce321273dbb6bd98,PennController,111,0,calibrator_val_feedback,NULL,Selector,Selection,Selection,negative,1744122086223,undefined,985,jail,undefined,negative,positive,negative,A,positive;negative
1744122597,ff298b7f8c67fe84ce321273dbb6bd98,PennController,111,0,calibrator_val_feedback,NULL,PennController,122,_Trial_,End,1744122088230,undefined,985,jail,undefined,negative,positive,negative,A,NULL
1744122597,ff298b7f8c67fe84ce321273dbb6bd98,PennController,109,0,calibrator_val_feedback,NULL,PennController,120,_Trial_,Start,1744122088230,undefined,1490,insecure,undefined,negative,positive,negative,A,NULL
1744122597,ff298b7f8c67fe84ce321273dbb6bd98,PennController,109,0,calibrator_val_feedback,NULL,PennController,120,_Header_,Start,1744122088230,undefined,1490,insecure,undefined,negative,positive,negative,A,NULL
1744122597,ff298b7f8c67fe84ce321273dbb6bd98,PennController,109,0,calibrator_val_feedback,NULL,PennController,120,_Header_,End,1744122088484,undefined,1490,insecure,undefined,negative,positive,negative,A,NULL
1744122597,ff298b7f8c67fe84ce321273dbb6bd98,PennController,109,0,calibrator_val_feedback,NULL,Selector,Selection,Selection,negative,1744122090478,undefined,1490,insecure,undefined,negative,positive,negative,A,positive;negative
1744122597,ff298b7f8c67fe84ce321273dbb6bd98,PennController,109,0,calibrator_val_feedback,NULL,PennController,120,_Trial_,End,1744122092483,undefined,1490,insecure,undefined,negative,positive,negative,A,NULL
1744122597,ff298b7f8c67fe84ce321273dbb6bd98,PennController,110,0,calibrator_val_feedback,NULL,PennController,121,_Trial_,Start,1744122092484,undefined,934,invader,undefined,negative,positive,negative,A,NULL
1744122597,ff298b7f8c67fe84ce321273dbb6bd98,PennController,110,0,calibrator_val_feedback,NULL,PennController,121,_Header_,Start,1744122092484,undefined,934,invader,undefined,negative,positive,negative,A,NULL
1744122597,ff298b7f8c67fe84ce321273dbb6bd98,PennController,110,0,calibrator_val_feedback,NULL,PennController,121,_Header_,End,1744122092738,undefined,934,invader,undefined,negative,positive,negative,A,NULL
1744122597,ff298b7f8c67fe84ce321273dbb6bd98,PennController,110,0,calibrator_val_feedback,NULL,Selector,Selection,Selection,negative,1744122094174,undefined,934,invader,undefined,negative,positive,negative,A,positive;negative
1744122597,ff298b7f8c67fe84ce321273dbb6bd98,PennController,110,0,calibrator_val_feedback,NULL,PennController,121,_Trial_,End,1744122096175,undefined,934,invader,undefined,negative,positive,negative,A,NULL
1744122597,ff298b7f8c67fe84ce321273dbb6bd98,PennController,108,0,calibrator_val_feedback,NULL,PennController,119,_Trial_,Start,1744122096176,undefined,1608,industry,undefined,negative,positive,negative,A,NULL
1744122597,ff298b7f8c67fe84ce321273dbb6bd98,PennController,108,0,calibrator_val_feedback,NULL,PennController,119,_Header_,Start,1744122096176,undefined,1608,industry,undefined,negative,positive,negative,A,NULL
1744122597,ff298b7f8c67fe84ce321273dbb6bd98,PennController,108,0,calibrator_val_feedback,NULL,PennController,119,_Header_,End,1744122096429,undefined,1608,industry,undefined,negative,positive,negative,A,NULL
1744122597,ff298b7f8c67fe84ce321273dbb6bd98,PennController,108,0,calibrator_val_feedback,NULL,Selector,Selection,Selection,positive,1744122098540,undefined,1608,industry,undefined,negative,positive,negative,A,positive;negative
1744122597,ff298b7f8c67fe84ce321273dbb6bd98,PennController,108,0,calibrator_val_feedback,NULL,PennController,119,_Trial_,End,1744122100542,undefined,1608,industry,undefined,negative,positive,negative,A,NULL
1744122597,ff298b7f8c67fe84ce321273dbb6bd98,PennController,105,0,calibrator_val_feedback,NULL,PennController,116,_Trial_,Start,1744122100543,undefined,1010,grin,undefined,negative,positive,negative,A,NULL
1744122597,ff298b7f8c67fe84ce321273dbb6bd98,PennController,105,0,calibrator_val_feedback,NULL,PennController,116,_Header_,Start,1744122100543,undefined,1010,grin,undefined,negative,positive,negative,A,NULL
1744122597,ff298b7f8c67fe84ce321273dbb6bd98,PennController,105,0,calibrator_val_feedback,NULL,PennController,116,_Header_,End,1744122100795,undefined,1010,grin,undefined,negative,positive,negative,A,NULL
1744122597,ff298b7f8c67fe84ce321273dbb6bd98,PennController,105,0,calibrator_val_feedback,NULL,Selector,Selection,Selection,positive,1744122102309,undefined,1010,grin,undefined,negative,positive,negative,A,positive;negative
1744122597,ff298b7f8c67fe84ce321273dbb6bd98,PennController,105,0,calibrator_val_feedback,NULL,PennController,116,_Trial_,End,1744122104315,undefined,1010,grin,undefined,negative,positive,negative,A,NULL
# 16. Key_value_F.
# 17. Key_value_J.
# 18. Group.
# 19. Comments.
1744122597,ff298b7f8c67fe84ce321273dbb6bd98,PennController,122,0,calibrator_val_no_feedback,NULL,PennController,133,_Trial_,Start,1744122104316,undefined,764,joke,positive,negative,A,NULL
1744122597,ff298b7f8c67fe84ce321273dbb6bd98,PennController,122,0,calibrator_val_no_feedback,NULL,PennController,133,_Header_,Start,1744122104316,undefined,764,joke,positive,negative,A,NULL
1744122597,ff298b7f8c67fe84ce321273dbb6bd98,PennController,122,0,calibrator_val_no_feedback,NULL,PennController,133,_Header_,End,1744122104568,undefined,764,joke,positive,negative,A,NULL
1744122597,ff298b7f8c67fe84ce321273dbb6bd98,PennController,122,0,calibrator_val_no_feedback,NULL,Selector,unnamed-Selector,Selection,positive,1744122105834,undefined,764,joke,positive,negative,A,positive;negative
1744122597,ff298b7f8c67fe84ce321273dbb6bd98,PennController,122,0,calibrator_val_no_feedback,NULL,PennController,133,_Trial_,End,1744122105834,undefined,764,joke,positive,negative,A,NULL
1744122597,ff298b7f8c67fe84ce321273dbb6bd98,PennController,118,0,calibrator_val_no_feedback,NULL,PennController,129,_Trial_,Start,1744122105835,undefined,1440,industry,positive,negative,A,NULL
1744122597,ff298b7f8c67fe84ce321273dbb6bd98,PennController,118,0,calibrator_val_no_feedback,NULL,PennController,129,_Header_,Start,1744122105835,undefined,1440,industry,positive,negative,A,NULL
1744122597,ff298b7f8c67fe84ce321273dbb6bd98,PennController,118,0,calibrator_val_no_feedback,NULL,PennController,129,_Header_,End,1744122106088,undefined,1440,industry,positive,negative,A,NULL
1744122597,ff298b7f8c67fe84ce321273dbb6bd98,PennController,118,0,calibrator_val_no_feedback,NULL,Selector,unnamed-Selector,Selection,positive,1744122108030,undefined,1440,industry,positive,negative,A,positive;negative
1744122597,ff298b7f8c67fe84ce321273dbb6bd98,PennController,118,0,calibrator_val_no_feedback,NULL,PennController,129,_Trial_,End,1744122108031,undefined,1440,industry,positive,negative,A,NULL
1744122597,ff298b7f8c67fe84ce321273dbb6bd98,PennController,120,0,calibrator_val_no_feedback,NULL,PennController,131,_Trial_,Start,1744122108031,undefined,975,invader,positive,negative,A,NULL
1744122597,ff298b7f8c67fe84ce321273dbb6bd98,PennController,120,0,calibrator_val_no_feedback,NULL,PennController,131,_Header_,Start,1744122108031,undefined,975,invader,positive,negative,A,NULL
1744122597,ff298b7f8c67fe84ce321273dbb6bd98,PennController,120,0,calibrator_val_no_feedback,NULL,PennController,131,_Header_,End,1744122108282,undefined,975,invader,positive,negative,A,NULL
1744122597,ff298b7f8c67fe84ce321273dbb6bd98,PennController,120,0,calibrator_val_no_feedback,NULL,Selector,unnamed-Selector,Selection,negative,1744122109760,undefined,975,invader,positive,negative,A,positive;negative
1744122597,ff298b7f8c67fe84ce321273dbb6bd98,PennController,120,0,calibrator_val_no_feedback,NULL,PennController,131,_Trial_,End,1744122109760,undefined,975,invader,positive,negative,A,NULL
1744122597,ff298b7f8c67fe84ce321273dbb6bd98,PennController,121,0,calibrator_val_no_feedback,NULL,PennController,132,_Trial_,Start,1744122109761,undefined,1022,jail,positive,negative,A,NULL
1744122597,ff298b7f8c67fe84ce321273dbb6bd98,PennController,121,0,calibrator_val_no_feedback,NULL,PennController,132,_Header_,Start,1744122109761,undefined,1022,jail,positive,negative,A,NULL
1744122597,ff298b7f8c67fe84ce321273dbb6bd98,PennController,121,0,calibrator_val_no_feedback,NULL,PennController,132,_Header_,End,1744122110011,undefined,1022,jail,positive,negative,A,NULL
1744122597,ff298b7f8c67fe84ce321273dbb6bd98,PennController,121,0,calibrator_val_no_feedback,NULL,Selector,unnamed-Selector,Selection,negative,1744122111539,undefined,1022,jail,positive,negative,A,positive;negative
1744122597,ff298b7f8c67fe84ce321273dbb6bd98,PennController,121,0,calibrator_val_no_feedback,NULL,PennController,132,_Trial_,End,1744122111540,undefined,1022,jail,positive,negative,A,NULL
1744122597,ff298b7f8c67fe84ce321273dbb6bd98,PennController,115,0,calibrator_val_no_feedback,NULL,PennController,126,_Trial_,Start,1744122111540,undefined,928,grin,positive,negative,A,NULL
1744122597,ff298b7f8c67fe84ce321273dbb6bd98,PennController,115,0,calibrator_val_no_feedback,NULL,PennController,126,_Header_,Start,1744122111540,undefined,928,grin,positive,negative,A,NULL
1744122597,ff298b7f8c67fe84ce321273dbb6bd98,PennController,115,0,calibrator_val_no_feedback,NULL,PennController,126,_Header_,End,1744122111791,undefined,928,grin,positive,negative,A,NULL
1744122597,ff298b7f8c67fe84ce321273dbb6bd98,PennController,115,0,calibrator_val_no_feedback,NULL,Selector,unnamed-Selector,Selection,positive,1744122113223,undefined,928,grin,positive,negative,A,positive;negative
1744122597,ff298b7f8c67fe84ce321273dbb6bd98,PennController,115,0,calibrator_val_no_feedback,NULL,PennController,126,_Trial_,End,1744122113223,undefined,928,grin,positive,negative,A,NULL
1744122597,ff298b7f8c67fe84ce321273dbb6bd98,PennController,114,0,calibrator_val_no_feedback,NULL,PennController,125,_Trial_,Start,1744122113224,undefined,821,free,positive,negative,A,NULL
1744122597,ff298b7f8c67fe84ce321273dbb6bd98,PennController,114,0,calibrator_val_no_feedback,NULL,PennController,125,_Header_,Start,1744122113224,undefined,821,free,positive,negative,A,NULL
1744122597,ff298b7f8c67fe84ce321273dbb6bd98,PennController,114,0,calibrator_val_no_feedback,NULL,PennController,125,_Header_,End,1744122113476,undefined,821,free,positive,negative,A,NULL
1744122597,ff298b7f8c67fe84ce321273dbb6bd98,PennController,114,0,calibrator_val_no_feedback,NULL,Selector,unnamed-Selector,Selection,positive,1744122114801,undefined,821,free,positive,negative,A,positive;negative
1744122597,ff298b7f8c67fe84ce321273dbb6bd98,PennController,114,0,calibrator_val_no_feedback,NULL,PennController,125,_Trial_,End,1744122114802,undefined,821,free,positive,negative,A,NULL
1744122597,ff298b7f8c67fe84ce321273dbb6bd98,PennController,116,0,calibrator_val_no_feedback,NULL,PennController,127,_Trial_,Start,1744122114803,undefined,966,hat,positive,negative,A,NULL
1744122597,ff298b7f8c67fe84ce321273dbb6bd98,PennController,116,0,calibrator_val_no_feedback,NULL,PennController,127,_Header_,Start,1744122114803,undefined,966,hat,positive,negative,A,NULL
1744122597,ff298b7f8c67fe84ce321273dbb6bd98,PennController,116,0,calibrator_val_no_feedback,NULL,PennController,127,_Header_,End,1744122115053,undefined,966,hat,positive,negative,A,NULL
1744122597,ff298b7f8c67fe84ce321273dbb6bd98,PennController,116,0,calibrator_val_no_feedback,NULL,Selector,unnamed-Selector,Selection,positive,1744122116525,undefined,966,hat,positive,negative,A,positive;negative
1744122597,ff298b7f8c67fe84ce321273dbb6bd98,PennController,116,0,calibrator_val_no_feedback,NULL,PennController,127,_Trial_,End,1744122116526,undefined,966,hat,positive,negative,A,NULL
1744122597,ff298b7f8c67fe84ce321273dbb6bd98,PennController,117,0,calibrator_val_no_feedback,NULL,PennController,128,_Trial_,Start,1744122116527,undefined,927,icebox,positive,negative,A,NULL
1744122597,ff298b7f8c67fe84ce321273dbb6bd98,PennController,117,0,calibrator_val_no_feedback,NULL,PennController,128,_Header_,Start,1744122116527,undefined,927,icebox,positive,negative,A,NULL
1744122597,ff298b7f8c67fe84ce321273dbb6bd98,PennController,117,0,calibrator_val_no_feedback,NULL,PennController,128,_Header_,End,1744122116779,undefined,927,icebox,positive,negative,A,NULL
1744122597,ff298b7f8c67fe84ce321273dbb6bd98,PennController,117,0,calibrator_val_no_feedback,NULL,Selector,unnamed-Selector,Selection,positive,1744122118209,undefined,927,icebox,positive,negative,A,positive;negative
1744122597,ff298b7f8c67fe84ce321273dbb6bd98,PennController,117,0,calibrator_val_no_feedback,NULL,PennController,128,_Trial_,End,1744122118210,undefined,927,icebox,positive,negative,A,NULL
1744122597,ff298b7f8c67fe84ce321273dbb6bd98,PennController,123,0,calibrator_val_no_feedback,NULL,PennController,134,_Trial_,Start,1744122118210,undefined,685,kitten,positive,negative,A,NULL
1744122597,ff298b7f8c67fe84ce321273dbb6bd98,PennController,123,0,calibrator_val_no_feedback,NULL,PennController,134,_Header_,Start,1744122118210,undefined,685,kitten,positive,negative,A,NULL
1744122597,ff298b7f8c67fe84ce321273dbb6bd98,PennController,123,0,calibrator_val_no_feedback,NULL,PennController,134,_Header_,End,1744122118463,undefined,685,kitten,positive,negative,A,NULL
1744122597,ff298b7f8c67fe84ce321273dbb6bd98,PennController,123,0,calibrator_val_no_feedback,NULL,Selector,unnamed-Selector,Selection,positive,1744122119651,undefined,685,kitten,positive,negative,A,positive;negative
1744122597,ff298b7f8c67fe84ce321273dbb6bd98,PennController,123,0,calibrator_val_no_feedback,NULL,PennController,134,_Trial_,End,1744122119652,undefined,685,kitten,positive,negative,A,NULL
1744122597,ff298b7f8c67fe84ce321273dbb6bd98,PennController,119,0,calibrator_val_no_feedback,NULL,PennController,130,_Trial_,Start,1744122119652,undefined,999,insecure,positive,negative,A,NULL
1744122597,ff298b7f8c67fe84ce321273dbb6bd98,PennController,119,0,calibrator_val_no_feedback,NULL,PennController,130,_Header_,Start,1744122119652,undefined,999,insecure,positive,negative,A,NULL
1744122597,ff298b7f8c67fe84ce321273dbb6bd98,PennController,119,0,calibrator_val_no_feedback,NULL,PennController,130,_Header_,End,1744122119902,undefined,999,insecure,positive,negative,A,NULL
1744122597,ff298b7f8c67fe84ce321273dbb6bd98,PennController,119,0,calibrator_val_no_feedback,NULL,Selector,unnamed-Selector,Selection,negative,1744122121406,undefined,999,insecure,positive,negative,A,positive;negative
1744122597,ff298b7f8c67fe84ce321273dbb6bd98,PennController,119,0,calibrator_val_no_feedback,NULL,PennController,130,_Trial_,End,1744122121406,undefined,999,insecure,positive,negative,A,NULL
# 13. Comments.
1744122597,ff298b7f8c67fe84ce321273dbb6bd98,PennController,130,0,endinstructions_val,NULL,PennController,8,_Trial_,Start,1744122121407,NULL
1744122597,ff298b7f8c67fe84ce321273dbb6bd98,PennController,130,0,endinstructions_val,NULL,PennController,8,_Header_,Start,1744122121407,NULL
1744122597,ff298b7f8c67fe84ce321273dbb6bd98,PennController,130,0,endinstructions_val,NULL,PennController,8,_Header_,End,1744122121662,NULL
1744122597,ff298b7f8c67fe84ce321273dbb6bd98,PennController,130,0,endinstructions_val,NULL,PennController,8,_Trial_,End,1744122127518,NULL
# 13. ID.
# 14. ReactionTime.
# 15. Word.
# 16. ConcValCombo.
# 17. Key_value_F.
# 18. Key_value_J.
# 19. Group.
# 20. Comments.
1744122597,ff298b7f8c67fe84ce321273dbb6bd98,PennController,62,0,test_val,NULL,PennController,73,_Trial_,Start,1744122127519,undefined,1006,profitable,objective-positive,positive,negative,A,NULL
1744122597,ff298b7f8c67fe84ce321273dbb6bd98,PennController,62,0,test_val,NULL,PennController,73,_Header_,Start,1744122127519,undefined,1006,profitable,objective-positive,positive,negative,A,NULL
1744122597,ff298b7f8c67fe84ce321273dbb6bd98,PennController,62,0,test_val,NULL,PennController,73,_Header_,End,1744122127772,undefined,1006,profitable,objective-positive,positive,negative,A,NULL
1744122597,ff298b7f8c67fe84ce321273dbb6bd98,PennController,62,0,test_val,NULL,Selector,unnamed-Selector,Selection,positive,1744122129278,undefined,1006,profitable,objective-positive,positive,negative,A,positive;negative
1744122597,ff298b7f8c67fe84ce321273dbb6bd98,PennController,62,0,test_val,NULL,PennController,73,_Trial_,End,1744122129278,undefined,1006,profitable,objective-positive,positive,negative,A,NULL
1744122597,ff298b7f8c67fe84ce321273dbb6bd98,PennController,44,0,test_val,NULL,PennController,55,_Trial_,Start,1744122129279,undefined,850,adverse,objective-negative,positive,negative,A,NULL
1744122597,ff298b7f8c67fe84ce321273dbb6bd98,PennController,44,0,test_val,NULL,PennController,55,_Header_,Start,1744122129279,undefined,850,adverse,objective-negative,positive,negative,A,NULL
1744122597,ff298b7f8c67fe84ce321273dbb6bd98,PennController,44,0,test_val,NULL,PennController,55,_Header_,End,1744122129531,undefined,850,adverse,objective-negative,positive,negative,A,NULL
1744122597,ff298b7f8c67fe84ce321273dbb6bd98,PennController,44,0,test_val,NULL,Selector,unnamed-Selector,Selection,negative,1744122130885,undefined,850,adverse,objective-negative,positive,negative,A,positive;negative
1744122597,ff298b7f8c67fe84ce321273dbb6bd98,PennController,44,0,test_val,NULL,PennController,55,_Trial_,End,1744122130886,undefined,850,adverse,objective-negative,positive,negative,A,NULL
1744122597,ff298b7f8c67fe84ce321273dbb6bd98,PennController,50,0,test_val,NULL,PennController,61,_Trial_,Start,1744122130886,undefined,862,defective,objective-negative,positive,negative,A,NULL
1744122597,ff298b7f8c67fe84ce321273dbb6bd98,PennController,50,0,test_val,NULL,PennController,61,_Header_,Start,1744122130886,undefined,862,defective,objective-negative,positive,negative,A,NULL
1744122597,ff298b7f8c67fe84ce321273dbb6bd98,PennController,50,0,test_val,NULL,PennController,61,_Header_,End,1744122131139,undefined,862,defective,objective-negative,positive,negative,A,NULL
1744122597,ff298b7f8c67fe84ce321273dbb6bd98,PennController,50,0,test_val,NULL,Selector,unnamed-Selector,Selection,negative,1744122132505,undefined,862,defective,objective-negative,positive,negative,A,positive;negative
1744122597,ff298b7f8c67fe84ce321273dbb6bd98,PennController,50,0,test_val,NULL,PennController,61,_Trial_,End,1744122132506,undefined,862,defective,objective-negative,positive,negative,A,NULL
1744122597,ff298b7f8c67fe84ce321273dbb6bd98,PennController,52,0,test_val,NULL,PennController,63,_Trial_,Start,1744122132506,undefined,608,toxic,objective-negative,positive,negative,A,NULL
1744122597,ff298b7f8c67fe84ce321273dbb6bd98,PennController,52,0,test_val,NULL,PennController,63,_Header_,Start,1744122132506,undefined,608,toxic,objective-negative,positive,negative,A,NULL
1744122597,ff298b7f8c67fe84ce321273dbb6bd98,PennController,52,0,test_val,NULL,PennController,63,_Header_,End,1744122132756,undefined,608,toxic,objective-negative,positive,negative,A,NULL
1744122597,ff298b7f8c67fe84ce321273dbb6bd98,PennController,52,0,test_val,NULL,Selector,unnamed-Selector,Selection,negative,1744122133864,undefined,608,toxic,objective-negative,positive,negative,A,positive;negative
1744122597,ff298b7f8c67fe84ce321273dbb6bd98,PennController,52,0,test_val,NULL,PennController,63,_Trial_,End,1744122133865,undefined,608,toxic,objective-negative,positive,negative,A,NULL
1744122597,ff298b7f8c67fe84ce321273dbb6bd98,PennController,49,0,test_val,NULL,PennController,60,_Trial_,Start,1744122133866,undefined,976,faulty,objective-negative,positive,negative,A,NULL
1744122597,ff298b7f8c67fe84ce321273dbb6bd98,PennController,49,0,test_val,NULL,PennController,60,_Header_,Start,1744122133866,undefined,976,faulty,objective-negative,positive,negative,A,NULL
1744122597,ff298b7f8c67fe84ce321273dbb6bd98,PennController,49,0,test_val,NULL,PennController,60,_Header_,End,1744122134120,undefined,976,faulty,objective-negative,positive,negative,A,NULL
1744122597,ff298b7f8c67fe84ce321273dbb6bd98,PennController,49,0,test_val,NULL,Selector,unnamed-Selector,Selection,negative,1744122135596,undefined,976,faulty,objective-negative,positive,negative,A,positive;negative
1744122597,ff298b7f8c67fe84ce321273dbb6bd98,PennController,49,0,test_val,NULL,PennController,60,_Trial_,End,1744122135597,undefined,976,faulty,objective-negative,positive,negative,A,NULL
1744122597,ff298b7f8c67fe84ce321273dbb6bd98,PennController,48,0,test_val,NULL,PennController,59,_Trial_,Start,1744122135598,undefined,666,deadly,objective-negative,positive,negative,A,NULL
1744122597,ff298b7f8c67fe84ce321273dbb6bd98,PennController,48,0,test_val,NULL,PennController,59,_Header_,Start,1744122135598,undefined,666,deadly,objective-negative,positive,negative,A,NULL
1744122597,ff298b7f8c67fe84ce321273dbb6bd98,PennController,48,0,test_val,NULL,PennController,59,_Header_,End,1744122135848,undefined,666,deadly,objective-negative,positive,negative,A,NULL
1744122597,ff298b7f8c67fe84ce321273dbb6bd98,PennController,48,0,test_val,NULL,Selector,unnamed-Selector,Selection,negative,1744122137014,undefined,666,deadly,objective-negative,positive,negative,A,positive;negative
1744122597,ff298b7f8c67fe84ce321273dbb6bd98,PennController,48,0,test_val,NULL,PennController,59,_Trial_,End,1744122137015,undefined,666,deadly,objective-negative,positive,negative,A,NULL
1744122597,ff298b7f8c67fe84ce321273dbb6bd98,PennController,54,0,test_val,NULL,PennController,65,_Trial_,Start,1744122137015,undefined,641,valuable,objective-positive,positive,negative,A,NULL
1744122597,ff298b7f8c67fe84ce321273dbb6bd98,PennController,54,0,test_val,NULL,PennController,65,_Header_,Start,1744122137015,undefined,641,valuable,objective-positive,positive,negative,A,NULL
1744122597,ff298b7f8c67fe84ce321273dbb6bd98,PennController,54,0,test_val,NULL,PennController,65,_Header_,End,1744122137268,undefined,641,valuable,objective-positive,positive,negative,A,NULL
1744122597,ff298b7f8c67fe84ce321273dbb6bd98,PennController,54,0,test_val,NULL,Selector,unnamed-Selector,Selection,positive,1744122138414,undefined,641,valuable,objective-positive,positive,negative,A,positive;negative
1744122597,ff298b7f8c67fe84ce321273dbb6bd98,PennController,54,0,test_val,NULL,PennController,65,_Trial_,End,1744122138415,undefined,641,valuable,objective-positive,positive,negative,A,NULL
1744122597,ff298b7f8c67fe84ce321273dbb6bd98,PennController,77,0,test_val,NULL,PennController,88,_Trial_,Start,1744122138415,undefined,555,authentic,subjective-positive,positive,negative,A,NULL
1744122597,ff298b7f8c67fe84ce321273dbb6bd98,PennController,77,0,test_val,NULL,PennController,88,_Header_,Start,1744122138415,undefined,555,authentic,subjective-positive,positive,negative,A,NULL
1744122597,ff298b7f8c67fe84ce321273dbb6bd98,PennController,77,0,test_val,NULL,PennController,88,_Header_,End,1744122138666,undefined,555,authentic,subjective-positive,positive,negative,A,NULL
1744122597,ff298b7f8c67fe84ce321273dbb6bd98,PennController,77,0,test_val,NULL,Selector,unnamed-Selector,Selection,positive,1744122139724,undefined,555,authentic,subjective-positive,positive,negative,A,positive;negative
1744122597,ff298b7f8c67fe84ce321273dbb6bd98,PennController,77,0,test_val,NULL,PennController,88,_Trial_,End,1744122139725,undefined,555,authentic,subjective-positive,positive,negative,A,NULL
1744122597,ff298b7f8c67fe84ce321273dbb6bd98,PennController,68,0,test_val,NULL,PennController,79,_Trial_,Start,1744122139725,undefined,716,pointless,subjective-negative,positive,negative,A,NULL
1744122597,ff298b7f8c67fe84ce321273dbb6bd98,PennController,68,0,test_val,NULL,PennController,79,_Header_,Start,1744122139725,undefined,716,pointless,subjective-negative,positive,negative,A,NULL
1744122597,ff298b7f8c67fe84ce321273dbb6bd98,PennController,68,0,test_val,NULL,PennController,79,_Header_,End,1744122139978,undefined,716,pointless,subjective-negative,positive,negative,A,NULL
1744122597,ff298b7f8c67fe84ce321273dbb6bd98,PennController,68,0,test_val,NULL,Selector,unnamed-Selector,Selection,negative,1744122141196,undefined,716,pointless,subjective-negative,positive,negative,A,positive;negative
1744122597,ff298b7f8c67fe84ce321273dbb6bd98,PennController,68,0,test_val,NULL,PennController,79,_Trial_,End,1744122141197,undefined,716,pointless,subjective-negative,positive,negative,A,NULL
1744122597,ff298b7f8c67fe84ce321273dbb6bd98,PennController,55,0,test_val,NULL,PennController,66,_Trial_,Start,1744122141198,undefined,612,accurate,objective-positive,positive,negative,A,NULL
1744122597,ff298b7f8c67fe84ce321273dbb6bd98,PennController,55,0,test_val,NULL,PennController,66,_Header_,Start,1744122141198,undefined,612,accurate,objective-positive,positive,negative,A,NULL
1744122597,ff298b7f8c67fe84ce321273dbb6bd98,PennController,55,0,test_val,NULL,PennController,66,_Header_,End,1744122141453,undefined,612,accurate,objective-positive,positive,negative,A,NULL
1744122597,ff298b7f8c67fe84ce321273dbb6bd98,PennController,55,0,test_val,NULL,Selector,unnamed-Selector,Selection,positive,1744122142566,undefined,612,accurate,objective-positive,positive,negative,A,positive;negative
1744122597,ff298b7f8c67fe84ce321273dbb6bd98,PennController,55,0,test_val,NULL,PennController,66,_Trial_,End,1744122142567,undefined,612,accurate,objective-positive,positive,negative,A,NULL
1744122597,ff298b7f8c67fe84ce321273dbb6bd98,PennController,80,0,test_val,NULL,PennController,91,_Trial_,Start,1744122142567,undefined,831,harmonious,subjective-positive,positive,negative,A,NULL
1744122597,ff298b7f8c67fe84ce321273dbb6bd98,PennController,80,0,test_val,NULL,PennController,91,_Header_,Start,1744122142567,undefined,831,harmonious,subjective-positive,positive,negative,A,NULL
1744122597,ff298b7f8c67fe84ce321273dbb6bd98,PennController,80,0,test_val,NULL,PennController,91,_Header_,End,1744122142821,undefined,831,harmonious,subjective-positive,positive,negative,A,NULL
1744122597,ff298b7f8c67fe84ce321273dbb6bd98,PennController,80,0,test_val,NULL,Selector,unnamed-Selector,Selection,positive,1744122144153,undefined,831,harmonious,subjective-positive,positive,negative,A,positive;negative
1744122597,ff298b7f8c67fe84ce321273dbb6bd98,PennController,80,0,test_val,NULL,PennController,91,_Trial_,End,1744122144153,undefined,831,harmonious,subjective-positive,positive,negative,A,NULL
1744122597,ff298b7f8c67fe84ce321273dbb6bd98,PennController,79,0,test_val,NULL,PennController,90,_Trial_,Start,1744122144154,undefined,686,refreshing,subjective-positive,positive,negative,A,NULL
1744122597,ff298b7f8c67fe84ce321273dbb6bd98,PennController,79,0,test_val,NULL,PennController,90,_Header_,Start,1744122144154,undefined,686,refreshing,subjective-positive,positive,negative,A,NULL
1744122597,ff298b7f8c67fe84ce321273dbb6bd98,PennController,79,0,test_val,NULL,PennController,90,_Header_,End,1744122144408,undefined,686,refreshing,subjective-positive,positive,negative,A,NULL
1744122597,ff298b7f8c67fe84ce321273dbb6bd98,PennController,79,0,test_val,NULL,Selector,unnamed-Selector,Selection,positive,1744122145599,undefined,686,refreshing,subjective-positive,positive,negative,A,positive;negative
1744122597,ff298b7f8c67fe84ce321273dbb6bd98,PennController,79,0,test_val,NULL,PennController,90,_Trial_,End,1744122145600,undefined,686,refreshing,subjective-positive,positive,negative,A,NULL
1744122597,ff298b7f8c67fe84ce321273dbb6bd98,PennController,71,0,test_val,NULL,PennController,82,_Trial_,Start,1744122145600,undefined,844,selfish,subjective-negative,positive,negative,A,NULL
1744122597,ff298b7f8c67fe84ce321273dbb6bd98,PennController,71,0,test_val,NULL,PennController,82,_Header_,Start,1744122145600,undefined,844,selfish,subjective-negative,positive,negative,A,NULL
1744122597,ff298b7f8c67fe84ce321273dbb6bd98,PennController,71,0,test_val,NULL,PennController,82,_Header_,End,1744122145853,undefined,844,selfish,subjective-negative,positive,negative,A,NULL
1744122597,ff298b7f8c67fe84ce321273dbb6bd98,PennController,71,0,test_val,NULL,Selector,unnamed-Selector,Selection,negative,1744122147199,undefined,844,selfish,subjective-negative,positive,negative,A,positive;negative
1744122597,ff298b7f8c67fe84ce321273dbb6bd98,PennController,71,0,test_val,NULL,PennController,82,_Trial_,End,1744122147199,undefined,844,selfish,subjective-negative,positive,negative,A,NULL
1744122597,ff298b7f8c67fe84ce321273dbb6bd98,PennController,58,0,test_val,NULL,PennController,69,_Trial_,Start,1744122147200,undefined,731,effective,objective-positive,positive,negative,A,NULL
1744122597,ff298b7f8c67fe84ce321273dbb6bd98,PennController,58,0,test_val,NULL,PennController,69,_Header_,Start,1744122147200,undefined,731,effective,objective-positive,positive,negative,A,NULL
1744122597,ff298b7f8c67fe84ce321273dbb6bd98,PennController,58,0,test_val,NULL,PennController,69,_Header_,End,1744122147454,undefined,731,effective,objective-positive,positive,negative,A,NULL
1744122597,ff298b7f8c67fe84ce321273dbb6bd98,PennController,58,0,test_val,NULL,Selector,unnamed-Selector,Selection,positive,1744122148690,undefined,731,effective,objective-positive,positive,negative,A,positive;negative
1744122597,ff298b7f8c67fe84ce321273dbb6bd98,PennController,58,0,test_val,NULL,PennController,69,_Trial_,End,1744122148691,undefined,731,effective,objective-positive,positive,negative,A,NULL
1744122597,ff298b7f8c67fe84ce321273dbb6bd98,PennController,82,0,test_val,NULL,PennController,93,_Trial_,Start,1744122148692,undefined,853,thoughtful,subjective-positive,positive,negative,A,NULL
1744122597,ff298b7f8c67fe84ce321273dbb6bd98,PennController,82,0,test_val,NULL,PennController,93,_Header_,Start,1744122148692,undefined,853,thoughtful,subjective-positive,positive,negative,A,NULL
1744122597,ff298b7f8c67fe84ce321273dbb6bd98,PennController,82,0,test_val,NULL,PennController,93,_Header_,End,1744122148944,undefined,853,thoughtful,subjective-positive,positive,negative,A,NULL
1744122597,ff298b7f8c67fe84ce321273dbb6bd98,PennController,82,0,test_val,NULL,Selector,unnamed-Selector,Selection,positive,1744122150300,undefined,853,thoughtful,subjective-positive,positive,negative,A,positive;negative
1744122597,ff298b7f8c67fe84ce321273dbb6bd98,PennController,82,0,test_val,NULL,PennController,93,_Trial_,End,1744122150301,undefined,853,thoughtful,subjective-positive,positive,negative,A,NULL
1744122597,ff298b7f8c67fe84ce321273dbb6bd98,PennController,74,0,test_val,NULL,PennController,85,_Trial_,Start,1744122150302,undefined,547,delicious,subjective-positive,positive,negative,A,NULL
1744122597,ff298b7f8c67fe84ce321273dbb6bd98,PennController,74,0,test_val,NULL,PennController,85,_Header_,Start,1744122150302,undefined,547,delicious,subjective-positive,positive,negative,A,NULL
1744122597,ff298b7f8c67fe84ce321273dbb6bd98,PennController,74,0,test_val,NULL,PennController,85,_Header_,End,1744122150553,undefined,547,delicious,subjective-positive,positive,negative,A,NULL
1744122597,ff298b7f8c67fe84ce321273dbb6bd98,PennController,74,0,test_val,NULL,Selector,unnamed-Selector,Selection,positive,1744122151606,undefined,547,delicious,subjective-positive,positive,negative,A,positive;negative
1744122597,ff298b7f8c67fe84ce321273dbb6bd98,PennController,74,0,test_val,NULL,PennController,85,_Trial_,End,1744122151606,undefined,547,delicious,subjective-positive,positive,negative,A,NULL
1744122597,ff298b7f8c67fe84ce321273dbb6bd98,PennController,46,0,test_val,NULL,PennController,57,_Trial_,Start,1744122151607,undefined,683,bankrupt,objective-negative,positive,negative,A,NULL
1744122597,ff298b7f8c67fe84ce321273dbb6bd98,PennController,46,0,test_val,NULL,PennController,57,_Header_,Start,1744122151607,undefined,683,bankrupt,objective-negative,positive,negative,A,NULL
1744122597,ff298b7f8c67fe84ce321273dbb6bd98,PennController,46,0,test_val,NULL,PennController,57,_Header_,End,1744122151860,undefined,683,bankrupt,objective-negative,positive,negative,A,NULL
1744122597,ff298b7f8c67fe84ce321273dbb6bd98,PennController,46,0,test_val,NULL,Selector,unnamed-Selector,Selection,negative,1744122153047,undefined,683,bankrupt,objective-negative,positive,negative,A,positive;negative
1744122597,ff298b7f8c67fe84ce321273dbb6bd98,PennController,46,0,test_val,NULL,PennController,57,_Trial_,End,1744122153048,undefined,683,bankrupt,objective-negative,positive,negative,A,NULL
1744122597,ff298b7f8c67fe84ce321273dbb6bd98,PennController,73,0,test_val,NULL,PennController,84,_Trial_,Start,1744122153048,undefined,549,disgusting,subjective-negative,positive,negative,A,NULL
1744122597,ff298b7f8c67fe84ce321273dbb6bd98,PennController,73,0,test_val,NULL,PennController,84,_Header_,Start,1744122153048,undefined,549,disgusting,subjective-negative,positive,negative,A,NULL
1744122597,ff298b7f8c67fe84ce321273dbb6bd98,PennController,73,0,test_val,NULL,PennController,84,_Header_,End,1744122153298,undefined,549,disgusting,subjective-negative,positive,negative,A,NULL
1744122597,ff298b7f8c67fe84ce321273dbb6bd98,PennController,73,0,test_val,NULL,Selector,unnamed-Selector,Selection,negative,1744122154348,undefined,549,disgusting,subjective-negative,positive,negative,A,positive;negative
1744122597,ff298b7f8c67fe84ce321273dbb6bd98,PennController,73,0,test_val,NULL,PennController,84,_Trial_,End,1744122154349,undefined,549,disgusting,subjective-negative,positive,negative,A,NULL
1744122597,ff298b7f8c67fe84ce321273dbb6bd98,PennController,75,0,test_val,NULL,PennController,86,_Trial_,Start,1744122154350,undefined,673,beautiful,subjective-positive,positive,negative,A,NULL
1744122597,ff298b7f8c67fe84ce321273dbb6bd98,PennController,75,0,test_val,NULL,PennController,86,_Header_,Start,1744122154350,undefined,673,beautiful,subjective-positive,positive,negative,A,NULL
1744122597,ff298b7f8c67fe84ce321273dbb6bd98,PennController,75,0,test_val,NULL,PennController,86,_Header_,End,1744122154603,undefined,673,beautiful,subjective-positive,positive,negative,A,NULL
1744122597,ff298b7f8c67fe84ce321273dbb6bd98,PennController,75,0,test_val,NULL,Selector,unnamed-Selector,Selection,positive,1744122155778,undefined,673,beautiful,subjective-positive,positive,negative,A,positive;negative
1744122597,ff298b7f8c67fe84ce321273dbb6bd98,PennController,75,0,test_val,NULL,PennController,86,_Trial_,End,1744122155778,undefined,673,beautiful,subjective-positive,positive,negative,A,NULL
1744122597,ff298b7f8c67fe84ce321273dbb6bd98,PennController,61,0,test_val,NULL,PennController,72,_Trial_,Start,1744122155779,undefined,719,healthy,objective-positive,positive,negative,A,NULL
1744122597,ff298b7f8c67fe84ce321273dbb6bd98,PennController,61,0,test_val,NULL,PennController,72,_Header_,Start,1744122155779,undefined,719,healthy,objective-positive,positive,negative,A,NULL
1744122597,ff298b7f8c67fe84ce321273dbb6bd98,PennController,61,0,test_val,NULL,PennController,72,_Header_,End,1744122156033,undefined,719,healthy,objective-positive,positive,negative,A,NULL
1744122597,ff298b7f8c67fe84ce321273dbb6bd98,PennController,61,0,test_val,NULL,Selector,unnamed-Selector,Selection,positive,1744122157256,undefined,719,healthy,objective-positive,positive,negative,A,positive;negative
1744122597,ff298b7f8c67fe84ce321273dbb6bd98,PennController,61,0,test_val,NULL,PennController,72,_Trial_,End,1744122157257,undefined,719,healthy,objective-positive,positive,negative,A,NULL
1744122597,ff298b7f8c67fe84ce321273dbb6bd98,PennController,45,0,test_val,NULL,PennController,56,_Trial_,Start,1744122157257,undefined,854,corrupt,objective-negative,positive,negative,A,NULL
1744122597,ff298b7f8c67fe84ce321273dbb6bd98,PennController,45,0,test_val,NULL,PennController,56,_Header_,Start,1744122157257,undefined,854,corrupt,objective-negative,positive,negative,A,NULL
1744122597,ff298b7f8c67fe84ce321273dbb6bd98,PennController,45,0,test_val,NULL,PennController,56,_Header_,End,1744122157507,undefined,854,corrupt,objective-negative,positive,negative,A,NULL
1744122597,ff298b7f8c67fe84ce321273dbb6bd98,PennController,45,0,test_val,NULL,Selector,unnamed-Selector,Selection,negative,1744122158866,undefined,854,corrupt,objective-negative,positive,negative,A,positive;negative
1744122597,ff298b7f8c67fe84ce321273dbb6bd98,PennController,45,0,test_val,NULL,PennController,56,_Trial_,End,1744122158866,undefined,854,corrupt,objective-negative,positive,negative,A,NULL
1744122597,ff298b7f8c67fe84ce321273dbb6bd98,PennController,81,0,test_val,NULL,PennController,92,_Trial_,Start,1744122158867,undefined,604,optimistic,subjective-positive,positive,negative,A,NULL
1744122597,ff298b7f8c67fe84ce321273dbb6bd98,PennController,81,0,test_val,NULL,PennController,92,_Header_,Start,1744122158867,undefined,604,optimistic,subjective-positive,positive,negative,A,NULL
1744122597,ff298b7f8c67fe84ce321273dbb6bd98,PennController,81,0,test_val,NULL,PennController,92,_Header_,End,1744122159121,undefined,604,optimistic,subjective-positive,positive,negative,A,NULL
1744122597,ff298b7f8c67fe84ce321273dbb6bd98,PennController,81,0,test_val,NULL,Selector,unnamed-Selector,Selection,positive,1744122160228,undefined,604,optimistic,subjective-positive,positive,negative,A,positive;negative
1744122597,ff298b7f8c67fe84ce321273dbb6bd98,PennController,81,0,test_val,NULL,PennController,92,_Trial_,End,1744122160229,undefined,604,optimistic,subjective-positive,positive,negative,A,NULL
1744122597,ff298b7f8c67fe84ce321273dbb6bd98,PennController,76,0,test_val,NULL,PennController,87,_Trial_,Start,1744122160229,undefined,621,brilliant,subjective-positive,positive,negative,A,NULL
1744122597,ff298b7f8c67fe84ce321273dbb6bd98,PennController,76,0,test_val,NULL,PennController,87,_Header_,Start,1744122160229,undefined,621,brilliant,subjective-positive,positive,negative,A,NULL
1744122597,ff298b7f8c67fe84ce321273dbb6bd98,PennController,76,0,test_val,NULL,PennController,87,_Header_,End,1744122160483,undefined,621,brilliant,subjective-positive,positive,negative,A,NULL
1744122597,ff298b7f8c67fe84ce321273dbb6bd98,PennController,76,0,test_val,NULL,Selector,unnamed-Selector,Selection,positive,1744122161606,undefined,621,brilliant,subjective-positive,positive,negative,A,positive;negative
1744122597,ff298b7f8c67fe84ce321273dbb6bd98,PennController,76,0,test_val,NULL,PennController,87,_Trial_,End,1744122161606,undefined,621,brilliant,subjective-positive,positive,negative,A,NULL
1744122597,ff298b7f8c67fe84ce321273dbb6bd98,PennController,60,0,test_val,NULL,PennController,71,_Trial_,Start,1744122161607,undefined,619,efficient,objective-positive,positive,negative,A,NULL
1744122597,ff298b7f8c67fe84ce321273dbb6bd98,PennController,60,0,test_val,NULL,PennController,71,_Header_,Start,1744122161607,undefined,619,efficient,objective-positive,positive,negative,A,NULL
1744122597,ff298b7f8c67fe84ce321273dbb6bd98,PennController,60,0,test_val,NULL,PennController,71,_Header_,End,1744122161860,undefined,619,efficient,objective-positive,positive,negative,A,NULL
1744122597,ff298b7f8c67fe84ce321273dbb6bd98,PennController,60,0,test_val,NULL,Selector,unnamed-Selector,Selection,positive,1744122162983,undefined,619,efficient,objective-positive,positive,negative,A,positive;negative
1744122597,ff298b7f8c67fe84ce321273dbb6bd98,PennController,60,0,test_val,NULL,PennController,71,_Trial_,End,1744122162984,undefined,619,efficient,objective-positive,positive,negative,A,NULL
1744122597,ff298b7f8c67fe84ce321273dbb6bd98,PennController,67,0,test_val,NULL,PennController,78,_Trial_,Start,1744122162984,undefined,658,arrogant,subjective-negative,positive,negative,A,NULL
1744122597,ff298b7f8c67fe84ce321273dbb6bd98,PennController,67,0,test_val,NULL,PennController,78,_Header_,Start,1744122162984,undefined,658,arrogant,subjective-negative,positive,negative,A,NULL
1744122597,ff298b7f8c67fe84ce321273dbb6bd98,PennController,67,0,test_val,NULL,PennController,78,_Header_,End,1744122163239,undefined,658,arrogant,subjective-negative,positive,negative,A,NULL
1744122597,ff298b7f8c67fe84ce321273dbb6bd98,PennController,67,0,test_val,NULL,Selector,unnamed-Selector,Selection,negative,1744122164396,undefined,658,arrogant,subjective-negative,positive,negative,A,positive;negative
1744122597,ff298b7f8c67fe84ce321273dbb6bd98,PennController,67,0,test_val,NULL,PennController,78,_Trial_,End,1744122164397,undefined,658,arrogant,subjective-negative,positive,negative,A,NULL
1744122597,ff298b7f8c67fe84ce321273dbb6bd98,PennController,63,0,test_val,NULL,PennController,74,_Trial_,Start,1744122164398,undefined,694,successful,objective-positive,positive,negative,A,NULL
1744122597,ff298b7f8c67fe84ce321273dbb6bd98,PennController,63,0,test_val,NULL,PennController,74,_Header_,Start,1744122164398,undefined,694,successful,objective-positive,positive,negative,A,NULL
1744122597,ff298b7f8c67fe84ce321273dbb6bd98,PennController,63,0,test_val,NULL,PennController,74,_Header_,End,1744122164650,undefined,694,successful,objective-positive,positive,negative,A,NULL
1744122597,ff298b7f8c67fe84ce321273dbb6bd98,PennController,63,0,test_val,NULL,Selector,unnamed-Selector,Selection,positive,1744122165850,undefined,694,successful,objective-positive,positive,negative,A,positive;negative
1744122597,ff298b7f8c67fe84ce321273dbb6bd98,PennController,63,0,test_val,NULL,PennController,74,_Trial_,End,1744122165851,undefined,694,successful,objective-positive,positive,negative,A,NULL
1744122597,ff298b7f8c67fe84ce321273dbb6bd98,PennController,64,0,test_val,NULL,PennController,75,_Trial_,Start,1744122165851,undefined,616,annoying,subjective-negative,positive,negative,A,NULL
1744122597,ff298b7f8c67fe84ce321273dbb6bd98,PennController,64,0,test_val,NULL,PennController,75,_Header_,Start,1744122165851,undefined,616,annoying,subjective-negative,positive,negative,A,NULL
1744122597,ff298b7f8c67fe84ce321273dbb6bd98,PennController,64,0,test_val,NULL,PennController,75,_Header_,End,1744122166104,undefined,616,annoying,subjective-negative,positive,negative,A,NULL
1744122597,ff298b7f8c67fe84ce321273dbb6bd98,PennController,64,0,test_val,NULL,Selector,unnamed-Selector,Selection,negative,1744122167223,undefined,616,annoying,subjective-negative,positive,negative,A,positive;negative
1744122597,ff298b7f8c67fe84ce321273dbb6bd98,PennController,64,0,test_val,NULL,PennController,75,_Trial_,End,1744122167223,undefined,616,annoying,subjective-negative,positive,negative,A,NULL
1744122597,ff298b7f8c67fe84ce321273dbb6bd98,PennController,66,0,test_val,NULL,PennController,77,_Trial_,Start,1744122167224,undefined,716,hopeless,subjective-negative,positive,negative,A,NULL
1744122597,ff298b7f8c67fe84ce321273dbb6bd98,PennController,66,0,test_val,NULL,PennController,77,_Header_,Start,1744122167224,undefined,716,hopeless,subjective-negative,positive,negative,A,NULL
1744122597,ff298b7f8c67fe84ce321273dbb6bd98,PennController,66,0,test_val,NULL,PennController,77,_Header_,End,1744122167474,undefined,716,hopeless,subjective-negative,positive,negative,A,NULL
1744122597,ff298b7f8c67fe84ce321273dbb6bd98,PennController,66,0,test_val,NULL,Selector,unnamed-Selector,Selection,negative,1744122168695,undefined,716,hopeless,subjective-negative,positive,negative,A,positive;negative
1744122597,ff298b7f8c67fe84ce321273dbb6bd98,PennController,66,0,test_val,NULL,PennController,77,_Trial_,End,1744122168696,undefined,716,hopeless,subjective-negative,positive,negative,A,NULL
1744122597,ff298b7f8c67fe84ce321273dbb6bd98,PennController,57,0,test_val,NULL,PennController,68,_Trial_,Start,1744122168697,undefined,766,reliable,objective-positive,positive,negative,A,NULL
1744122597,ff298b7f8c67fe84ce321273dbb6bd98,PennController,57,0,test_val,NULL,PennController,68,_Header_,Start,1744122168697,undefined,766,reliable,objective-positive,positive,negative,A,NULL
1744122597,ff298b7f8c67fe84ce321273dbb6bd98,PennController,57,0,test_val,NULL,PennController,68,_Header_,End,1744122168947,undefined,766,reliable,objective-positive,positive,negative,A,NULL
1744122597,ff298b7f8c67fe84ce321273dbb6bd98,PennController,57,0,test_val,NULL,Selector,unnamed-Selector,Selection,positive,1744122170216,undefined,766,reliable,objective-positive,positive,negative,A,positive;negative
1744122597,ff298b7f8c67fe84ce321273dbb6bd98,PennController,57,0,test_val,NULL,PennController,68,_Trial_,End,1744122170217,undefined,766,reliable,objective-positive,positive,negative,A,NULL
1744122597,ff298b7f8c67fe84ce321273dbb6bd98,PennController,47,0,test_val,NULL,PennController,58,_Trial_,Start,1744122170217,undefined,694,unstable,objective-negative,positive,negative,A,NULL
1744122597,ff298b7f8c67fe84ce321273dbb6bd98,PennController,47,0,test_val,NULL,PennController,58,_Header_,Start,1744122170217,undefined,694,unstable,objective-negative,positive,negative,A,NULL
1744122597,ff298b7f8c67fe84ce321273dbb6bd98,PennController,47,0,test_val,NULL,PennController,58,_Header_,End,1744122170473,undefined,694,unstable,objective-negative,positive,negative,A,NULL
1744122597,ff298b7f8c67fe84ce321273dbb6bd98,PennController,47,0,test_val,NULL,Selector,unnamed-Selector,Selection,negative,1744122171672,undefined,694,unstable,objective-negative,positive,negative,A,positive;negative
1744122597,ff298b7f8c67fe84ce321273dbb6bd98,PennController,47,0,test_val,NULL,PennController,58,_Trial_,End,1744122171672,undefined,694,unstable,objective-negative,positive,negative,A,NULL
1744122597,ff298b7f8c67fe84ce321273dbb6bd98,PennController,83,0,test_val,NULL,PennController,94,_Trial_,Start,1744122171673,undefined,545,passionate,subjective-positive,positive,negative,A,NULL
1744122597,ff298b7f8c67fe84ce321273dbb6bd98,PennController,83,0,test_val,NULL,PennController,94,_Header_,Start,1744122171673,undefined,545,passionate,subjective-positive,positive,negative,A,NULL
1744122597,ff298b7f8c67fe84ce321273dbb6bd98,PennController,83,0,test_val,NULL,PennController,94,_Header_,End,1744122171923,undefined,545,passionate,subjective-positive,positive,negative,A,NULL
1744122597,ff298b7f8c67fe84ce321273dbb6bd98,PennController,83,0,test_val,NULL,Selector,unnamed-Selector,Selection,positive,1744122172971,undefined,545,passionate,subjective-positive,positive,negative,A,positive;negative
1744122597,ff298b7f8c67fe84ce321273dbb6bd98,PennController,83,0,test_val,NULL,PennController,94,_Trial_,End,1744122172972,undefined,545,passionate,subjective-positive,positive,negative,A,NULL
1744122597,ff298b7f8c67fe84ce321273dbb6bd98,PennController,70,0,test_val,NULL,PennController,81,_Trial_,Start,1744122172973,undefined,534,hostile,subjective-negative,positive,negative,A,NULL
1744122597,ff298b7f8c67fe84ce321273dbb6bd98,PennController,70,0,test_val,NULL,PennController,81,_Header_,Start,1744122172973,undefined,534,hostile,subjective-negative,positive,negative,A,NULL
1744122597,ff298b7f8c67fe84ce321273dbb6bd98,PennController,70,0,test_val,NULL,PennController,81,_Header_,End,1744122173225,undefined,534,hostile,subjective-negative,positive,negative,A,NULL
1744122597,ff298b7f8c67fe84ce321273dbb6bd98,PennController,70,0,test_val,NULL,Selector,unnamed-Selector,Selection,negative,1744122174265,undefined,534,hostile,subjective-negative,positive,negative,A,positive;negative
1744122597,ff298b7f8c67fe84ce321273dbb6bd98,PennController,70,0,test_val,NULL,PennController,81,_Trial_,End,1744122174266,undefined,534,hostile,subjective-negative,positive,negative,A,NULL
1744122597,ff298b7f8c67fe84ce321273dbb6bd98,PennController,72,0,test_val,NULL,PennController,83,_Trial_,Start,1744122174266,undefined,574,cynical,subjective-negative,positive,negative,A,NULL
1744122597,ff298b7f8c67fe84ce321273dbb6bd98,PennController,72,0,test_val,NULL,PennController,83,_Header_,Start,1744122174266,undefined,574,cynical,subjective-negative,positive,negative,A,NULL
1744122597,ff298b7f8c67fe84ce321273dbb6bd98,PennController,72,0,test_val,NULL,PennController,83,_Header_,End,1744122174519,undefined,574,cynical,subjective-negative,positive,negative,A,NULL
1744122597,ff298b7f8c67fe84ce321273dbb6bd98,PennController,72,0,test_val,NULL,Selector,unnamed-Selector,Selection,negative,1744122175597,undefined,574,cynical,subjective-negative,positive,negative,A,positive;negative
1744122597,ff298b7f8c67fe84ce321273dbb6bd98,PennController,72,0,test_val,NULL,PennController,83,_Trial_,End,1744122175598,undefined,574,cynical,subjective-negative,positive,negative,A,NULL
1744122597,ff298b7f8c67fe84ce321273dbb6bd98,PennController,59,0,test_val,NULL,PennController,70,_Trial_,Start,1744122175598,undefined,570,efficient,objective-positive,positive,negative,A,NULL
1744122597,ff298b7f8c67fe84ce321273dbb6bd98,PennController,59,0,test_val,NULL,PennController,70,_Header_,Start,1744122175598,undefined,570,efficient,objective-positive,positive,negative,A,NULL
1744122597,ff298b7f8c67fe84ce321273dbb6bd98,PennController,59,0,test_val,NULL,PennController,70,_Header_,End,1744122175851,undefined,570,efficient,objective-positive,positive,negative,A,NULL
1744122597,ff298b7f8c67fe84ce321273dbb6bd98,PennController,59,0,test_val,NULL,Selector,unnamed-Selector,Selection,positive,1744122176921,undefined,570,efficient,objective-positive,positive,negative,A,positive;negative
1744122597,ff298b7f8c67fe84ce321273dbb6bd98,PennController,59,0,test_val,NULL,PennController,70,_Trial_,End,1744122176922,undefined,570,efficient,objective-positive,positive,negative,A,NULL
1744122597,ff298b7f8c67fe84ce321273dbb6bd98,PennController,53,0,test_val,NULL,PennController,64,_Trial_,Start,1744122176922,undefined,906,unfit,objective-negative,positive,negative,A,NULL
1744122597,ff298b7f8c67fe84ce321273dbb6bd98,PennController,53,0,test_val,NULL,PennController,64,_Header_,Start,1744122176922,undefined,906,unfit,objective-negative,positive,negative,A,NULL
1744122597,ff298b7f8c67fe84ce321273dbb6bd98,PennController,53,0,test_val,NULL,PennController,64,_Header_,End,1744122177174,undefined,906,unfit,objective-negative,positive,negative,A,NULL
1744122597,ff298b7f8c67fe84ce321273dbb6bd98,PennController,53,0,test_val,NULL,Selector,unnamed-Selector,Selection,negative,1744122178584,undefined,906,unfit,objective-negative,positive,negative,A,positive;negative
1744122597,ff298b7f8c67fe84ce321273dbb6bd98,PennController,53,0,test_val,NULL,PennController,64,_Trial_,End,1744122178584,undefined,906,unfit,objective-negative,positive,negative,A,NULL
1744122597,ff298b7f8c67fe84ce321273dbb6bd98,PennController,56,0,test_val,NULL,PennController,67,_Trial_,Start,1744122178585,undefined,591,accurate,objective-positive,positive,negative,A,NULL
1744122597,ff298b7f8c67fe84ce321273dbb6bd98,PennController,56,0,test_val,NULL,PennController,67,_Header_,Start,1744122178585,undefined,591,accurate,objective-positive,positive,negative,A,NULL
1744122597,ff298b7f8c67fe84ce321273dbb6bd98,PennController,56,0,test_val,NULL,PennController,67,_Header_,End,1744122178837,undefined,591,accurate,objective-positive,positive,negative,A,NULL
1744122597,ff298b7f8c67fe84ce321273dbb6bd98,PennController,56,0,test_val,NULL,Selector,unnamed-Selector,Selection,positive,1744122179930,undefined,591,accurate,objective-positive,positive,negative,A,positive;negative
1744122597,ff298b7f8c67fe84ce321273dbb6bd98,PennController,56,0,test_val,NULL,PennController,67,_Trial_,End,1744122179931,undefined,591,accurate,objective-positive,positive,negative,A,NULL
1744122597,ff298b7f8c67fe84ce321273dbb6bd98,PennController,69,0,test_val,NULL,PennController,80,_Trial_,Start,1744122179932,undefined,562,impatient,subjective-negative,positive,negative,A,NULL
1744122597,ff298b7f8c67fe84ce321273dbb6bd98,PennController,69,0,test_val,NULL,PennController,80,_Header_,Start,1744122179932,undefined,562,impatient,subjective-negative,positive,negative,A,NULL
1744122597,ff298b7f8c67fe84ce321273dbb6bd98,PennController,69,0,test_val,NULL,PennController,80,_Header_,End,1744122180186,undefined,562,impatient,subjective-negative,positive,negative,A,NULL
1744122597,ff298b7f8c67fe84ce321273dbb6bd98,PennController,69,0,test_val,NULL,Selector,unnamed-Selector,Selection,negative,1744122181252,undefined,562,impatient,subjective-negative,positive,negative,A,positive;negative
1744122597,ff298b7f8c67fe84ce321273dbb6bd98,PennController,69,0,test_val,NULL,PennController,80,_Trial_,End,1744122181252,undefined,562,impatient,subjective-negative,positive,negative,A,NULL
1744122597,ff298b7f8c67fe84ce321273dbb6bd98,PennController,78,0,test_val,NULL,PennController,89,_Trial_,Start,1744122181253,undefined,558,admirable,subjective-positive,positive,negative,A,NULL
1744122597,ff298b7f8c67fe84ce321273dbb6bd98,PennController,78,0,test_val,NULL,PennController,89,_Header_,Start,1744122181253,undefined,558,admirable,subjective-positive,positive,negative,A,NULL
1744122597,ff298b7f8c67fe84ce321273dbb6bd98,PennController,78,0,test_val,NULL,PennController,89,_Header_,End,1744122181507,undefined,558,admirable,subjective-positive,positive,negative,A,NULL
1744122597,ff298b7f8c67fe84ce321273dbb6bd98,PennController,78,0,test_val,NULL,Selector,unnamed-Selector,Selection,positive,1744122182570,undefined,558,admirable,subjective-positive,positive,negative,A,positive;negative
1744122597,ff298b7f8c67fe84ce321273dbb6bd98,PennController,78,0,test_val,NULL,PennController,89,_Trial_,End,1744122182571,undefined,558,admirable,subjective-positive,positive,negative,A,NULL
1744122597,ff298b7f8c67fe84ce321273dbb6bd98,PennController,65,0,test_val,NULL,PennController,76,_Trial_,Start,1744122182571,undefined,712,pathetic,subjective-negative,positive,negative,A,NULL
1744122597,ff298b7f8c67fe84ce321273dbb6bd98,PennController,65,0,test_val,NULL,PennController,76,_Header_,Start,1744122182571,undefined,712,pathetic,subjective-negative,positive,negative,A,NULL
1744122597,ff298b7f8c67fe84ce321273dbb6bd98,PennController,65,0,test_val,NULL,PennController,76,_Header_,End,1744122182822,undefined,712,pathetic,subjective-negative,positive,negative,A,NULL
1744122597,ff298b7f8c67fe84ce321273dbb6bd98,PennController,65,0,test_val,NULL,Selector,unnamed-Selector,Selection,negative,1744122184035,undefined,712,pathetic,subjective-negative,positive,negative,A,positive;negative
1744122597,ff298b7f8c67fe84ce321273dbb6bd98,PennController,65,0,test_val,NULL,PennController,76,_Trial_,End,1744122184036,undefined,712,pathetic,subjective-negative,positive,negative,A,NULL
1744122597,ff298b7f8c67fe84ce321273dbb6bd98,PennController,51,0,test_val,NULL,PennController,62,_Trial_,Start,1744122184036,undefined,686,incurable,objective-negative,positive,negative,A,NULL
1744122597,ff298b7f8c67fe84ce321273dbb6bd98,PennController,51,0,test_val,NULL,PennController,62,_Header_,Start,1744122184036,undefined,686,incurable,objective-negative,positive,negative,A,NULL
1744122597,ff298b7f8c67fe84ce321273dbb6bd98,PennController,51,0,test_val,NULL,PennController,62,_Header_,End,1744122184290,undefined,686,incurable,objective-negative,positive,negative,A,NULL
1744122597,ff298b7f8c67fe84ce321273dbb6bd98,PennController,51,0,test_val,NULL,Selector,unnamed-Selector,Selection,negative,1744122185479,undefined,686,incurable,objective-negative,positive,negative,A,positive;negative
1744122597,ff298b7f8c67fe84ce321273dbb6bd98,PennController,51,0,test_val,NULL,PennController,62,_Trial_,End,1744122185480,undefined,686,incurable,objective-negative,positive,negative,A,NULL
1744122597,ff298b7f8c67fe84ce321273dbb6bd98,PennController,82,0,test_val,NULL,PennController,93,_Trial_,Start,1744122185480,undefined,709,thoughtful,subjective-positive,positive,negative,A,NULL
1744122597,ff298b7f8c67fe84ce321273dbb6bd98,PennController,82,0,test_val,NULL,PennController,93,_Header_,Start,1744122185480,undefined,709,thoughtful,subjective-positive,positive,negative,A,NULL
1744122597,ff298b7f8c67fe84ce321273dbb6bd98,PennController,82,0,test_val,NULL,PennController,93,_Header_,End,1744122185732,undefined,709,thoughtful,subjective-positive,positive,negative,A,NULL
1744122597,ff298b7f8c67fe84ce321273dbb6bd98,PennController,82,0,test_val,NULL,Selector,unnamed-Selector,Selection,positive,1744122186942,undefined,709,thoughtful,subjective-positive,positive,negative,A,positive;negative
1744122597,ff298b7f8c67fe84ce321273dbb6bd98,PennController,82,0,test_val,NULL,PennController,93,_Trial_,End,1744122186943,undefined,709,thoughtful,subjective-positive,positive,negative,A,NULL
1744122597,ff298b7f8c67fe84ce321273dbb6bd98,PennController,60,0,test_val,NULL,PennController,71,_Trial_,Start,1744122186943,undefined,695,efficient,objective-positive,positive,negative,A,NULL
1744122597,ff298b7f8c67fe84ce321273dbb6bd98,PennController,60,0,test_val,NULL,PennController,71,_Header_,Start,1744122186943,undefined,695,efficient,objective-positive,positive,negative,A,NULL
1744122597,ff298b7f8c67fe84ce321273dbb6bd98,PennController,60,0,test_val,NULL,PennController,71,_Header_,End,1744122187198,undefined,695,efficient,objective-positive,positive,negative,A,NULL
1744122597,ff298b7f8c67fe84ce321273dbb6bd98,PennController,60,0,test_val,NULL,Selector,unnamed-Selector,Selection,positive,1744122188394,undefined,695,efficient,objective-positive,positive,negative,A,positive;negative
1744122597,ff298b7f8c67fe84ce321273dbb6bd98,PennController,60,0,test_val,NULL,PennController,71,_Trial_,End,1744122188395,undefined,695,efficient,objective-positive,positive,negative,A,NULL
1744122597,ff298b7f8c67fe84ce321273dbb6bd98,PennController,49,0,test_val,NULL,PennController,60,_Trial_,Start,1744122188395,undefined,851,faulty,objective-negative,positive,negative,A,NULL
1744122597,ff298b7f8c67fe84ce321273dbb6bd98,PennController,49,0,test_val,NULL,PennController,60,_Header_,Start,1744122188395,undefined,851,faulty,objective-negative,positive,negative,A,NULL
1744122597,ff298b7f8c67fe84ce321273dbb6bd98,PennController,49,0,test_val,NULL,PennController,60,_Header_,End,1744122188647,undefined,851,faulty,objective-negative,positive,negative,A,NULL
1744122597,ff298b7f8c67fe84ce321273dbb6bd98,PennController,49,0,test_val,NULL,Selector,unnamed-Selector,Selection,negative,1744122190004,undefined,851,faulty,objective-negative,positive,negative,A,positive;negative
1744122597,ff298b7f8c67fe84ce321273dbb6bd98,PennController,49,0,test_val,NULL,PennController,60,_Trial_,End,1744122190005,undefined,851,faulty,objective-negative,positive,negative,A,NULL
1744122597,ff298b7f8c67fe84ce321273dbb6bd98,PennController,62,0,test_val,NULL,PennController,73,_Trial_,Start,1744122190005,undefined,550,profitable,objective-positive,positive,negative,A,NULL
1744122597,ff298b7f8c67fe84ce321273dbb6bd98,PennController,62,0,test_val,NULL,PennController,73,_Header_,Start,1744122190005,undefined,550,profitable,objective-positive,positive,negative,A,NULL
1744122597,ff298b7f8c67fe84ce321273dbb6bd98,PennController,62,0,test_val,NULL,PennController,73,_Header_,End,1744122190259,undefined,550,profitable,objective-positive,positive,negative,A,NULL
1744122597,ff298b7f8c67fe84ce321273dbb6bd98,PennController,62,0,test_val,NULL,Selector,unnamed-Selector,Selection,positive,1744122191310,undefined,550,profitable,objective-positive,positive,negative,A,positive;negative
1744122597,ff298b7f8c67fe84ce321273dbb6bd98,PennController,62,0,test_val,NULL,PennController,73,_Trial_,End,1744122191310,undefined,550,profitable,objective-positive,positive,negative,A,NULL
1744122597,ff298b7f8c67fe84ce321273dbb6bd98,PennController,65,0,test_val,NULL,PennController,76,_Trial_,Start,1744122191311,undefined,641,pathetic,subjective-negative,positive,negative,A,NULL
1744122597,ff298b7f8c67fe84ce321273dbb6bd98,PennController,65,0,test_val,NULL,PennController,76,_Header_,Start,1744122191311,undefined,641,pathetic,subjective-negative,positive,negative,A,NULL
1744122597,ff298b7f8c67fe84ce321273dbb6bd98,PennController,65,0,test_val,NULL,PennController,76,_Header_,End,1744122191563,undefined,641,pathetic,subjective-negative,positive,negative,A,NULL
1744122597,ff298b7f8c67fe84ce321273dbb6bd98,PennController,65,0,test_val,NULL,Selector,unnamed-Selector,Selection,negative,1744122192708,undefined,641,pathetic,subjective-negative,positive,negative,A,positive;negative
1744122597,ff298b7f8c67fe84ce321273dbb6bd98,PennController,65,0,test_val,NULL,PennController,76,_Trial_,End,1744122192709,undefined,641,pathetic,subjective-negative,positive,negative,A,NULL
1744122597,ff298b7f8c67fe84ce321273dbb6bd98,PennController,80,0,test_val,NULL,PennController,91,_Trial_,Start,1744122192709,undefined,725,harmonious,subjective-positive,positive,negative,A,NULL
1744122597,ff298b7f8c67fe84ce321273dbb6bd98,PennController,80,0,test_val,NULL,PennController,91,_Header_,Start,1744122192709,undefined,725,harmonious,subjective-positive,positive,negative,A,NULL
1744122597,ff298b7f8c67fe84ce321273dbb6bd98,PennController,80,0,test_val,NULL,PennController,91,_Header_,End,1744122192959,undefined,725,harmonious,subjective-positive,positive,negative,A,NULL
1744122597,ff298b7f8c67fe84ce321273dbb6bd98,PennController,80,0,test_val,NULL,Selector,unnamed-Selector,Selection,positive,1744122194188,undefined,725,harmonious,subjective-positive,positive,negative,A,positive;negative
1744122597,ff298b7f8c67fe84ce321273dbb6bd98,PennController,80,0,test_val,NULL,PennController,91,_Trial_,End,1744122194188,undefined,725,harmonious,subjective-positive,positive,negative,A,NULL
1744122597,ff298b7f8c67fe84ce321273dbb6bd98,PennController,57,0,test_val,NULL,PennController,68,_Trial_,Start,1744122194189,undefined,557,reliable,objective-positive,positive,negative,A,NULL
1744122597,ff298b7f8c67fe84ce321273dbb6bd98,PennController,57,0,test_val,NULL,PennController,68,_Header_,Start,1744122194189,undefined,557,reliable,objective-positive,positive,negative,A,NULL
1744122597,ff298b7f8c67fe84ce321273dbb6bd98,PennController,57,0,test_val,NULL,PennController,68,_Header_,End,1744122194442,undefined,557,reliable,objective-positive,positive,negative,A,NULL
1744122597,ff298b7f8c67fe84ce321273dbb6bd98,PennController,57,0,test_val,NULL,Selector,unnamed-Selector,Selection,positive,1744122195501,undefined,557,reliable,objective-positive,positive,negative,A,positive;negative
1744122597,ff298b7f8c67fe84ce321273dbb6bd98,PennController,57,0,test_val,NULL,PennController,68,_Trial_,End,1744122195501,undefined,557,reliable,objective-positive,positive,negative,A,NULL
1744122597,ff298b7f8c67fe84ce321273dbb6bd98,PennController,75,0,test_val,NULL,PennController,86,_Trial_,Start,1744122195502,undefined,517,beautiful,subjective-positive,positive,negative,A,NULL
1744122597,ff298b7f8c67fe84ce321273dbb6bd98,PennController,75,0,test_val,NULL,PennController,86,_Header_,Start,1744122195502,undefined,517,beautiful,subjective-positive,positive,negative,A,NULL
1744122597,ff298b7f8c67fe84ce321273dbb6bd98,PennController,75,0,test_val,NULL,PennController,86,_Header_,End,1744122195752,undefined,517,beautiful,subjective-positive,positive,negative,A,NULL
1744122597,ff298b7f8c67fe84ce321273dbb6bd98,PennController,75,0,test_val,NULL,Selector,unnamed-Selector,Selection,positive,1744122196772,undefined,517,beautiful,subjective-positive,positive,negative,A,positive;negative
1744122597,ff298b7f8c67fe84ce321273dbb6bd98,PennController,75,0,test_val,NULL,PennController,86,_Trial_,End,1744122196773,undefined,517,beautiful,subjective-positive,positive,negative,A,NULL
1744122597,ff298b7f8c67fe84ce321273dbb6bd98,PennController,46,0,test_val,NULL,PennController,57,_Trial_,Start,1744122196773,undefined,573,bankrupt,objective-negative,positive,negative,A,NULL
1744122597,ff298b7f8c67fe84ce321273dbb6bd98,PennController,46,0,test_val,NULL,PennController,57,_Header_,Start,1744122196773,undefined,573,bankrupt,objective-negative,positive,negative,A,NULL
1744122597,ff298b7f8c67fe84ce321273dbb6bd98,PennController,46,0,test_val,NULL,PennController,57,_Header_,End,1744122197026,undefined,573,bankrupt,objective-negative,positive,negative,A,NULL
1744122597,ff298b7f8c67fe84ce321273dbb6bd98,PennController,46,0,test_val,NULL,Selector,unnamed-Selector,Selection,negative,1744122198101,undefined,573,bankrupt,objective-negative,positive,negative,A,positive;negative
1744122597,ff298b7f8c67fe84ce321273dbb6bd98,PennController,46,0,test_val,NULL,PennController,57,_Trial_,End,1744122198101,undefined,573,bankrupt,objective-negative,positive,negative,A,NULL
1744122597,ff298b7f8c67fe84ce321273dbb6bd98,PennController,81,0,test_val,NULL,PennController,92,_Trial_,Start,1744122198102,undefined,504,optimistic,subjective-positive,positive,negative,A,NULL
1744122597,ff298b7f8c67fe84ce321273dbb6bd98,PennController,81,0,test_val,NULL,PennController,92,_Header_,Start,1744122198102,undefined,504,optimistic,subjective-positive,positive,negative,A,NULL
1744122597,ff298b7f8c67fe84ce321273dbb6bd98,PennController,81,0,test_val,NULL,PennController,92,_Header_,End,1744122198355,undefined,504,optimistic,subjective-positive,positive,negative,A,NULL
1744122597,ff298b7f8c67fe84ce321273dbb6bd98,PennController,81,0,test_val,NULL,Selector,unnamed-Selector,Selection,positive,1744122199363,undefined,504,optimistic,subjective-positive,positive,negative,A,positive;negative
1744122597,ff298b7f8c67fe84ce321273dbb6bd98,PennController,81,0,test_val,NULL,PennController,92,_Trial_,End,1744122199364,undefined,504,optimistic,subjective-positive,positive,negative,A,NULL
1744122597,ff298b7f8c67fe84ce321273dbb6bd98,PennController,77,0,test_val,NULL,PennController,88,_Trial_,Start,1744122199364,undefined,773,authentic,subjective-positive,positive,negative,A,NULL
1744122597,ff298b7f8c67fe84ce321273dbb6bd98,PennController,77,0,test_val,NULL,PennController,88,_Header_,Start,1744122199364,undefined,773,authentic,subjective-positive,positive,negative,A,NULL
1744122597,ff298b7f8c67fe84ce321273dbb6bd98,PennController,77,0,test_val,NULL,PennController,88,_Header_,End,1744122199617,undefined,773,authentic,subjective-positive,positive,negative,A,NULL
1744122597,ff298b7f8c67fe84ce321273dbb6bd98,PennController,77,0,test_val,NULL,Selector,unnamed-Selector,Selection,positive,1744122200894,undefined,773,authentic,subjective-positive,positive,negative,A,positive;negative
1744122597,ff298b7f8c67fe84ce321273dbb6bd98,PennController,77,0,test_val,NULL,PennController,88,_Trial_,End,1744122200894,undefined,773,authentic,subjective-positive,positive,negative,A,NULL
1744122597,ff298b7f8c67fe84ce321273dbb6bd98,PennController,67,0,test_val,NULL,PennController,78,_Trial_,Start,1744122200895,undefined,496,arrogant,subjective-negative,positive,negative,A,NULL
1744122597,ff298b7f8c67fe84ce321273dbb6bd98,PennController,67,0,test_val,NULL,PennController,78,_Header_,Start,1744122200895,undefined,496,arrogant,subjective-negative,positive,negative,A,NULL
1744122597,ff298b7f8c67fe84ce321273dbb6bd98,PennController,67,0,test_val,NULL,PennController,78,_Header_,End,1744122201146,undefined,496,arrogant,subjective-negative,positive,negative,A,NULL
1744122597,ff298b7f8c67fe84ce321273dbb6bd98,PennController,67,0,test_val,NULL,Selector,unnamed-Selector,Selection,negative,1744122202147,undefined,496,arrogant,subjective-negative,positive,negative,A,positive;negative
1744122597,ff298b7f8c67fe84ce321273dbb6bd98,PennController,67,0,test_val,NULL,PennController,78,_Trial_,End,1744122202148,undefined,496,arrogant,subjective-negative,positive,negative,A,NULL
1744122597,ff298b7f8c67fe84ce321273dbb6bd98,PennController,72,0,test_val,NULL,PennController,83,_Trial_,Start,1744122202148,undefined,532,cynical,subjective-negative,positive,negative,A,NULL
1744122597,ff298b7f8c67fe84ce321273dbb6bd98,PennController,72,0,test_val,NULL,PennController,83,_Header_,Start,1744122202148,undefined,532,cynical,subjective-negative,positive,negative,A,NULL
1744122597,ff298b7f8c67fe84ce321273dbb6bd98,PennController,72,0,test_val,NULL,PennController,83,_Header_,End,1744122202400,undefined,532,cynical,subjective-negative,positive,negative,A,NULL
1744122597,ff298b7f8c67fe84ce321273dbb6bd98,PennController,72,0,test_val,NULL,Selector,unnamed-Selector,Selection,negative,1744122203437,undefined,532,cynical,subjective-negative,positive,negative,A,positive;negative
1744122597,ff298b7f8c67fe84ce321273dbb6bd98,PennController,72,0,test_val,NULL,PennController,83,_Trial_,End,1744122203438,undefined,532,cynical,subjective-negative,positive,negative,A,NULL
1744122597,ff298b7f8c67fe84ce321273dbb6bd98,PennController,63,0,test_val,NULL,PennController,74,_Trial_,Start,1744122203438,undefined,539,successful,objective-positive,positive,negative,A,NULL
1744122597,ff298b7f8c67fe84ce321273dbb6bd98,PennController,63,0,test_val,NULL,PennController,74,_Header_,Start,1744122203438,undefined,539,successful,objective-positive,positive,negative,A,NULL
1744122597,ff298b7f8c67fe84ce321273dbb6bd98,PennController,63,0,test_val,NULL,PennController,74,_Header_,End,1744122203692,undefined,539,successful,objective-positive,positive,negative,A,NULL
1744122597,ff298b7f8c67fe84ce321273dbb6bd98,PennController,63,0,test_val,NULL,Selector,unnamed-Selector,Selection,positive,1744122204736,undefined,539,successful,objective-positive,positive,negative,A,positive;negative
1744122597,ff298b7f8c67fe84ce321273dbb6bd98,PennController,63,0,test_val,NULL,PennController,74,_Trial_,End,1744122204737,undefined,539,successful,objective-positive,positive,negative,A,NULL
1744122597,ff298b7f8c67fe84ce321273dbb6bd98,PennController,76,0,test_val,NULL,PennController,87,_Trial_,Start,1744122204737,undefined,551,brilliant,subjective-positive,positive,negative,A,NULL
1744122597,ff298b7f8c67fe84ce321273dbb6bd98,PennController,76,0,test_val,NULL,PennController,87,_Header_,Start,1744122204737,undefined,551,brilliant,subjective-positive,positive,negative,A,NULL
1744122597,ff298b7f8c67fe84ce321273dbb6bd98,PennController,76,0,test_val,NULL,PennController,87,_Header_,End,1744122204990,undefined,551,brilliant,subjective-positive,positive,negative,A,NULL
1744122597,ff298b7f8c67fe84ce321273dbb6bd98,PennController,76,0,test_val,NULL,Selector,unnamed-Selector,Selection,positive,1744122206045,undefined,551,brilliant,subjective-positive,positive,negative,A,positive;negative
1744122597,ff298b7f8c67fe84ce321273dbb6bd98,PennController,76,0,test_val,NULL,PennController,87,_Trial_,End,1744122206046,undefined,551,brilliant,subjective-positive,positive,negative,A,NULL
1744122597,ff298b7f8c67fe84ce321273dbb6bd98,PennController,66,0,test_val,NULL,PennController,77,_Trial_,Start,1744122206046,undefined,646,hopeless,subjective-negative,positive,negative,A,NULL
1744122597,ff298b7f8c67fe84ce321273dbb6bd98,PennController,66,0,test_val,NULL,PennController,77,_Header_,Start,1744122206046,undefined,646,hopeless,subjective-negative,positive,negative,A,NULL
1744122597,ff298b7f8c67fe84ce321273dbb6bd98,PennController,66,0,test_val,NULL,PennController,77,_Header_,End,1744122206296,undefined,646,hopeless,subjective-negative,positive,negative,A,NULL
1744122597,ff298b7f8c67fe84ce321273dbb6bd98,PennController,66,0,test_val,NULL,Selector,unnamed-Selector,Selection,negative,1744122207445,undefined,646,hopeless,subjective-negative,positive,negative,A,positive;negative
1744122597,ff298b7f8c67fe84ce321273dbb6bd98,PennController,66,0,test_val,NULL,PennController,77,_Trial_,End,1744122207445,undefined,646,hopeless,subjective-negative,positive,negative,A,NULL
1744122597,ff298b7f8c67fe84ce321273dbb6bd98,PennController,53,0,test_val,NULL,PennController,64,_Trial_,Start,1744122207446,undefined,535,unfit,objective-negative,positive,negative,A,NULL
1744122597,ff298b7f8c67fe84ce321273dbb6bd98,PennController,53,0,test_val,NULL,PennController,64,_Header_,Start,1744122207446,undefined,535,unfit,objective-negative,positive,negative,A,NULL
1744122597,ff298b7f8c67fe84ce321273dbb6bd98,PennController,53,0,test_val,NULL,PennController,64,_Header_,End,1744122207696,undefined,535,unfit,objective-negative,positive,negative,A,NULL
1744122597,ff298b7f8c67fe84ce321273dbb6bd98,PennController,53,0,test_val,NULL,Selector,unnamed-Selector,Selection,negative,1744122208733,undefined,535,unfit,objective-negative,positive,negative,A,positive;negative
1744122597,ff298b7f8c67fe84ce321273dbb6bd98,PennController,53,0,test_val,NULL,PennController,64,_Trial_,End,1744122208733,undefined,535,unfit,objective-negative,positive,negative,A,NULL
1744122597,ff298b7f8c67fe84ce321273dbb6bd98,PennController,78,0,test_val,NULL,PennController,89,_Trial_,Start,1744122208734,undefined,687,admirable,subjective-positive,positive,negative,A,NULL
1744122597,ff298b7f8c67fe84ce321273dbb6bd98,PennController,78,0,test_val,NULL,PennController,89,_Header_,Start,1744122208734,undefined,687,admirable,subjective-positive,positive,negative,A,NULL
1744122597,ff298b7f8c67fe84ce321273dbb6bd98,PennController,78,0,test_val,NULL,PennController,89,_Header_,End,1744122208986,undefined,687,admirable,subjective-positive,positive,negative,A,NULL
1744122597,ff298b7f8c67fe84ce321273dbb6bd98,PennController,78,0,test_val,NULL,Selector,unnamed-Selector,Selection,positive,1744122210175,undefined,687,admirable,subjective-positive,positive,negative,A,positive;negative
1744122597,ff298b7f8c67fe84ce321273dbb6bd98,PennController,78,0,test_val,NULL,PennController,89,_Trial_,End,1744122210175,undefined,687,admirable,subjective-positive,positive,negative,A,NULL
1744122597,ff298b7f8c67fe84ce321273dbb6bd98,PennController,61,0,test_val,NULL,PennController,72,_Trial_,Start,1744122210176,undefined,596,healthy,objective-positive,positive,negative,A,NULL
1744122597,ff298b7f8c67fe84ce321273dbb6bd98,PennController,61,0,test_val,NULL,PennController,72,_Header_,Start,1744122210176,undefined,596,healthy,objective-positive,positive,negative,A,NULL
1744122597,ff298b7f8c67fe84ce321273dbb6bd98,PennController,61,0,test_val,NULL,PennController,72,_Header_,End,1744122210426,undefined,596,healthy,objective-positive,positive,negative,A,NULL
1744122597,ff298b7f8c67fe84ce321273dbb6bd98,PennController,61,0,test_val,NULL,Selector,unnamed-Selector,Selection,positive,1744122211525,undefined,596,healthy,objective-positive,positive,negative,A,positive;negative
1744122597,ff298b7f8c67fe84ce321273dbb6bd98,PennController,61,0,test_val,NULL,PennController,72,_Trial_,End,1744122211525,undefined,596,healthy,objective-positive,positive,negative,A,NULL
1744122597,ff298b7f8c67fe84ce321273dbb6bd98,PennController,71,0,test_val,NULL,PennController,82,_Trial_,Start,1744122211526,undefined,599,selfish,subjective-negative,positive,negative,A,NULL
1744122597,ff298b7f8c67fe84ce321273dbb6bd98,PennController,71,0,test_val,NULL,PennController,82,_Header_,Start,1744122211526,undefined,599,selfish,subjective-negative,positive,negative,A,NULL
1744122597,ff298b7f8c67fe84ce321273dbb6bd98,PennController,71,0,test_val,NULL,PennController,82,_Header_,End,1744122211780,undefined,599,selfish,subjective-negative,positive,negative,A,NULL
1744122597,ff298b7f8c67fe84ce321273dbb6bd98,PennController,71,0,test_val,NULL,Selector,unnamed-Selector,Selection,negative,1744122212881,undefined,599,selfish,subjective-negative,positive,negative,A,positive;negative
1744122597,ff298b7f8c67fe84ce321273dbb6bd98,PennController,71,0,test_val,NULL,PennController,82,_Trial_,End,1744122212881,undefined,599,selfish,subjective-negative,positive,negative,A,NULL
1744122597,ff298b7f8c67fe84ce321273dbb6bd98,PennController,64,0,test_val,NULL,PennController,75,_Trial_,Start,1744122212882,undefined,659,annoying,subjective-negative,positive,negative,A,NULL
1744122597,ff298b7f8c67fe84ce321273dbb6bd98,PennController,64,0,test_val,NULL,PennController,75,_Header_,Start,1744122212882,undefined,659,annoying,subjective-negative,positive,negative,A,NULL
1744122597,ff298b7f8c67fe84ce321273dbb6bd98,PennController,64,0,test_val,NULL,PennController,75,_Header_,End,1744122213133,undefined,659,annoying,subjective-negative,positive,negative,A,NULL
1744122597,ff298b7f8c67fe84ce321273dbb6bd98,PennController,64,0,test_val,NULL,Selector,unnamed-Selector,Selection,negative,1744122214296,undefined,659,annoying,subjective-negative,positive,negative,A,positive;negative
1744122597,ff298b7f8c67fe84ce321273dbb6bd98,PennController,64,0,test_val,NULL,PennController,75,_Trial_,End,1744122214296,undefined,659,annoying,subjective-negative,positive,negative,A,NULL
1744122597,ff298b7f8c67fe84ce321273dbb6bd98,PennController,47,0,test_val,NULL,PennController,58,_Trial_,Start,1744122214297,undefined,523,unstable,objective-negative,positive,negative,A,NULL
1744122597,ff298b7f8c67fe84ce321273dbb6bd98,PennController,47,0,test_val,NULL,PennController,58,_Header_,Start,1744122214297,undefined,523,unstable,objective-negative,positive,negative,A,NULL
1744122597,ff298b7f8c67fe84ce321273dbb6bd98,PennController,47,0,test_val,NULL,PennController,58,_Header_,End,1744122214549,undefined,523,unstable,objective-negative,positive,negative,A,NULL
1744122597,ff298b7f8c67fe84ce321273dbb6bd98,PennController,47,0,test_val,NULL,Selector,unnamed-Selector,Selection,negative,1744122215575,undefined,523,unstable,objective-negative,positive,negative,A,positive;negative
1744122597,ff298b7f8c67fe84ce321273dbb6bd98,PennController,47,0,test_val,NULL,PennController,58,_Trial_,End,1744122215576,undefined,523,unstable,objective-negative,positive,negative,A,NULL
1744122597,ff298b7f8c67fe84ce321273dbb6bd98,PennController,54,0,test_val,NULL,PennController,65,_Trial_,Start,1744122215576,undefined,597,valuable,objective-positive,positive,negative,A,NULL
1744122597,ff298b7f8c67fe84ce321273dbb6bd98,PennController,54,0,test_val,NULL,PennController,65,_Header_,Start,1744122215576,undefined,597,valuable,objective-positive,positive,negative,A,NULL
1744122597,ff298b7f8c67fe84ce321273dbb6bd98,PennController,54,0,test_val,NULL,PennController,65,_Header_,End,1744122215831,undefined,597,valuable,objective-positive,positive,negative,A,NULL
1744122597,ff298b7f8c67fe84ce321273dbb6bd98,PennController,54,0,test_val,NULL,Selector,unnamed-Selector,Selection,positive,1744122216932,undefined,597,valuable,objective-positive,positive,negative,A,positive;negative
1744122597,ff298b7f8c67fe84ce321273dbb6bd98,PennController,54,0,test_val,NULL,PennController,65,_Trial_,End,1744122216932,undefined,597,valuable,objective-positive,positive,negative,A,NULL
1744122597,ff298b7f8c67fe84ce321273dbb6bd98,PennController,48,0,test_val,NULL,PennController,59,_Trial_,Start,1744122216933,undefined,531,deadly,objective-negative,positive,negative,A,NULL
1744122597,ff298b7f8c67fe84ce321273dbb6bd98,PennController,48,0,test_val,NULL,PennController,59,_Header_,Start,1744122216933,undefined,531,deadly,objective-negative,positive,negative,A,NULL
1744122597,ff298b7f8c67fe84ce321273dbb6bd98,PennController,48,0,test_val,NULL,PennController,59,_Header_,End,1744122217186,undefined,531,deadly,objective-negative,positive,negative,A,NULL
1744122597,ff298b7f8c67fe84ce321273dbb6bd98,PennController,48,0,test_val,NULL,Selector,unnamed-Selector,Selection,negative,1744122218220,undefined,531,deadly,objective-negative,positive,negative,A,positive;negative
1744122597,ff298b7f8c67fe84ce321273dbb6bd98,PennController,48,0,test_val,NULL,PennController,59,_Trial_,End,1744122218221,undefined,531,deadly,objective-negative,positive,negative,A,NULL
1744122597,ff298b7f8c67fe84ce321273dbb6bd98,PennController,56,0,test_val,NULL,PennController,67,_Trial_,Start,1744122218221,undefined,659,accurate,objective-positive,positive,negative,A,NULL
1744122597,ff298b7f8c67fe84ce321273dbb6bd98,PennController,56,0,test_val,NULL,PennController,67,_Header_,Start,1744122218221,undefined,659,accurate,objective-positive,positive,negative,A,NULL
1744122597,ff298b7f8c67fe84ce321273dbb6bd98,PennController,56,0,test_val,NULL,PennController,67,_Header_,End,1744122218475,undefined,659,accurate,objective-positive,positive,negative,A,NULL
1744122597,ff298b7f8c67fe84ce321273dbb6bd98,PennController,56,0,test_val,NULL,Selector,unnamed-Selector,Selection,positive,1744122219638,undefined,659,accurate,objective-positive,positive,negative,A,positive;negative
1744122597,ff298b7f8c67fe84ce321273dbb6bd98,PennController,56,0,test_val,NULL,PennController,67,_Trial_,End,1744122219639,undefined,659,accurate,objective-positive,positive,negative,A,NULL
1744122597,ff298b7f8c67fe84ce321273dbb6bd98,PennController,70,0,test_val,NULL,PennController,81,_Trial_,Start,1744122219639,undefined,608,hostile,subjective-negative,positive,negative,A,NULL
1744122597,ff298b7f8c67fe84ce321273dbb6bd98,PennController,70,0,test_val,NULL,PennController,81,_Header_,Start,1744122219639,undefined,608,hostile,subjective-negative,positive,negative,A,NULL
1744122597,ff298b7f8c67fe84ce321273dbb6bd98,PennController,70,0,test_val,NULL,PennController,81,_Header_,End,1744122219892,undefined,608,hostile,subjective-negative,positive,negative,A,NULL
1744122597,ff298b7f8c67fe84ce321273dbb6bd98,PennController,70,0,test_val,NULL,Selector,unnamed-Selector,Selection,negative,1744122221005,undefined,608,hostile,subjective-negative,positive,negative,A,positive;negative
1744122597,ff298b7f8c67fe84ce321273dbb6bd98,PennController,70,0,test_val,NULL,PennController,81,_Trial_,End,1744122221006,undefined,608,hostile,subjective-negative,positive,negative,A,NULL
1744122597,ff298b7f8c67fe84ce321273dbb6bd98,PennController,50,0,test_val,NULL,PennController,61,_Trial_,Start,1744122221007,undefined,796,defective,objective-negative,positive,negative,A,NULL
1744122597,ff298b7f8c67fe84ce321273dbb6bd98,PennController,50,0,test_val,NULL,PennController,61,_Header_,Start,1744122221007,undefined,796,defective,objective-negative,positive,negative,A,NULL
1744122597,ff298b7f8c67fe84ce321273dbb6bd98,PennController,50,0,test_val,NULL,PennController,61,_Header_,End,1744122221261,undefined,796,defective,objective-negative,positive,negative,A,NULL
1744122597,ff298b7f8c67fe84ce321273dbb6bd98,PennController,50,0,test_val,NULL,Selector,unnamed-Selector,Selection,negative,1744122222557,undefined,796,defective,objective-negative,positive,negative,A,positive;negative
1744122597,ff298b7f8c67fe84ce321273dbb6bd98,PennController,50,0,test_val,NULL,PennController,61,_Trial_,End,1744122222558,undefined,796,defective,objective-negative,positive,negative,A,NULL
1744122597,ff298b7f8c67fe84ce321273dbb6bd98,PennController,52,0,test_val,NULL,PennController,63,_Trial_,Start,1744122222558,undefined,503,toxic,objective-negative,positive,negative,A,NULL
1744122597,ff298b7f8c67fe84ce321273dbb6bd98,PennController,52,0,test_val,NULL,PennController,63,_Header_,Start,1744122222558,undefined,503,toxic,objective-negative,positive,negative,A,NULL
1744122597,ff298b7f8c67fe84ce321273dbb6bd98,PennController,52,0,test_val,NULL,PennController,63,_Header_,End,1744122222809,undefined,503,toxic,objective-negative,positive,negative,A,NULL
1744122597,ff298b7f8c67fe84ce321273dbb6bd98,PennController,52,0,test_val,NULL,Selector,unnamed-Selector,Selection,negative,1744122223813,undefined,503,toxic,objective-negative,positive,negative,A,positive;negative
1744122597,ff298b7f8c67fe84ce321273dbb6bd98,PennController,52,0,test_val,NULL,PennController,63,_Trial_,End,1744122223813,undefined,503,toxic,objective-negative,positive,negative,A,NULL
1744122597,ff298b7f8c67fe84ce321273dbb6bd98,PennController,83,0,test_val,NULL,PennController,94,_Trial_,Start,1744122223814,undefined,721,passionate,subjective-positive,positive,negative,A,NULL
1744122597,ff298b7f8c67fe84ce321273dbb6bd98,PennController,83,0,test_val,NULL,PennController,94,_Header_,Start,1744122223814,undefined,721,passionate,subjective-positive,positive,negative,A,NULL
1744122597,ff298b7f8c67fe84ce321273dbb6bd98,PennController,83,0,test_val,NULL,PennController,94,_Header_,End,1744122224064,undefined,721,passionate,subjective-positive,positive,negative,A,NULL
1744122597,ff298b7f8c67fe84ce321273dbb6bd98,PennController,83,0,test_val,NULL,Selector,unnamed-Selector,Selection,positive,1744122225286,undefined,721,passionate,subjective-positive,positive,negative,A,positive;negative
1744122597,ff298b7f8c67fe84ce321273dbb6bd98,PennController,83,0,test_val,NULL,PennController,94,_Trial_,End,1744122225286,undefined,721,passionate,subjective-positive,positive,negative,A,NULL
1744122597,ff298b7f8c67fe84ce321273dbb6bd98,PennController,59,0,test_val,NULL,PennController,70,_Trial_,Start,1744122225287,undefined,833,efficient,objective-positive,positive,negative,A,NULL
1744122597,ff298b7f8c67fe84ce321273dbb6bd98,PennController,59,0,test_val,NULL,PennController,70,_Header_,Start,1744122225287,undefined,833,efficient,objective-positive,positive,negative,A,NULL
1744122597,ff298b7f8c67fe84ce321273dbb6bd98,PennController,59,0,test_val,NULL,PennController,70,_Header_,End,1744122225540,undefined,833,efficient,objective-positive,positive,negative,A,NULL
1744122597,ff298b7f8c67fe84ce321273dbb6bd98,PennController,59,0,test_val,NULL,Selector,unnamed-Selector,Selection,positive,1744122226877,undefined,833,efficient,objective-positive,positive,negative,A,positive;negative
1744122597,ff298b7f8c67fe84ce321273dbb6bd98,PennController,59,0,test_val,NULL,PennController,70,_Trial_,End,1744122226878,undefined,833,efficient,objective-positive,positive,negative,A,NULL
1744122597,ff298b7f8c67fe84ce321273dbb6bd98,PennController,74,0,test_val,NULL,PennController,85,_Trial_,Start,1744122226878,undefined,672,delicious,subjective-positive,positive,negative,A,NULL
1744122597,ff298b7f8c67fe84ce321273dbb6bd98,PennController,74,0,test_val,NULL,PennController,85,_Header_,Start,1744122226878,undefined,672,delicious,subjective-positive,positive,negative,A,NULL
1744122597,ff298b7f8c67fe84ce321273dbb6bd98,PennController,74,0,test_val,NULL,PennController,85,_Header_,End,1744122227130,undefined,672,delicious,subjective-positive,positive,negative,A,NULL
1744122597,ff298b7f8c67fe84ce321273dbb6bd98,PennController,74,0,test_val,NULL,Selector,unnamed-Selector,Selection,positive,1744122228306,undefined,672,delicious,subjective-positive,positive,negative,A,positive;negative
1744122597,ff298b7f8c67fe84ce321273dbb6bd98,PennController,74,0,test_val,NULL,PennController,85,_Trial_,End,1744122228307,undefined,672,delicious,subjective-positive,positive,negative,A,NULL
1744122597,ff298b7f8c67fe84ce321273dbb6bd98,PennController,73,0,test_val,NULL,PennController,84,_Trial_,Start,1744122228307,undefined,611,disgusting,subjective-negative,positive,negative,A,NULL
1744122597,ff298b7f8c67fe84ce321273dbb6bd98,PennController,73,0,test_val,NULL,PennController,84,_Header_,Start,1744122228307,undefined,611,disgusting,subjective-negative,positive,negative,A,NULL
1744122597,ff298b7f8c67fe84ce321273dbb6bd98,PennController,73,0,test_val,NULL,PennController,84,_Header_,End,1744122228558,undefined,611,disgusting,subjective-negative,positive,negative,A,NULL
1744122597,ff298b7f8c67fe84ce321273dbb6bd98,PennController,73,0,test_val,NULL,Selector,unnamed-Selector,Selection,negative,1744122229671,undefined,611,disgusting,subjective-negative,positive,negative,A,positive;negative
1744122597,ff298b7f8c67fe84ce321273dbb6bd98,PennController,73,0,test_val,NULL,PennController,84,_Trial_,End,1744122229672,undefined,611,disgusting,subjective-negative,positive,negative,A,NULL
1744122597,ff298b7f8c67fe84ce321273dbb6bd98,PennController,58,0,test_val,NULL,PennController,69,_Trial_,Start,1744122229673,undefined,552,effective,objective-positive,positive,negative,A,NULL
1744122597,ff298b7f8c67fe84ce321273dbb6bd98,PennController,58,0,test_val,NULL,PennController,69,_Header_,Start,1744122229673,undefined,552,effective,objective-positive,positive,negative,A,NULL
1744122597,ff298b7f8c67fe84ce321273dbb6bd98,PennController,58,0,test_val,NULL,PennController,69,_Header_,End,1744122229925,undefined,552,effective,objective-positive,positive,negative,A,NULL
1744122597,ff298b7f8c67fe84ce321273dbb6bd98,PennController,58,0,test_val,NULL,Selector,unnamed-Selector,Selection,positive,1744122230981,undefined,552,effective,objective-positive,positive,negative,A,positive;negative
1744122597,ff298b7f8c67fe84ce321273dbb6bd98,PennController,58,0,test_val,NULL,PennController,69,_Trial_,End,1744122230982,undefined,552,effective,objective-positive,positive,negative,A,NULL
1744122597,ff298b7f8c67fe84ce321273dbb6bd98,PennController,55,0,test_val,NULL,PennController,66,_Trial_,Start,1744122230983,undefined,651,accurate,objective-positive,positive,negative,A,NULL
1744122597,ff298b7f8c67fe84ce321273dbb6bd98,PennController,55,0,test_val,NULL,PennController,66,_Header_,Start,1744122230983,undefined,651,accurate,objective-positive,positive,negative,A,NULL
1744122597,ff298b7f8c67fe84ce321273dbb6bd98,PennController,55,0,test_val,NULL,PennController,66,_Header_,End,1744122231237,undefined,651,accurate,objective-positive,positive,negative,A,NULL
1744122597,ff298b7f8c67fe84ce321273dbb6bd98,PennController,55,0,test_val,NULL,Selector,unnamed-Selector,Selection,positive,1744122232389,undefined,651,accurate,objective-positive,positive,negative,A,positive;negative
1744122597,ff298b7f8c67fe84ce321273dbb6bd98,PennController,55,0,test_val,NULL,PennController,66,_Trial_,End,1744122232389,undefined,651,accurate,objective-positive,positive,negative,A,NULL
1744122597,ff298b7f8c67fe84ce321273dbb6bd98,PennController,69,0,test_val,NULL,PennController,80,_Trial_,Start,1744122232390,undefined,600,impatient,subjective-negative,positive,negative,A,NULL
1744122597,ff298b7f8c67fe84ce321273dbb6bd98,PennController,69,0,test_val,NULL,PennController,80,_Header_,Start,1744122232390,undefined,600,impatient,subjective-negative,positive,negative,A,NULL
1744122597,ff298b7f8c67fe84ce321273dbb6bd98,PennController,69,0,test_val,NULL,PennController,80,_Header_,End,1744122232642,undefined,600,impatient,subjective-negative,positive,negative,A,NULL
1744122597,ff298b7f8c67fe84ce321273dbb6bd98,PennController,69,0,test_val,NULL,Selector,unnamed-Selector,Selection,negative,1744122233744,undefined,600,impatient,subjective-negative,positive,negative,A,positive;negative
1744122597,ff298b7f8c67fe84ce321273dbb6bd98,PennController,69,0,test_val,NULL,PennController,80,_Trial_,End,1744122233744,undefined,600,impatient,subjective-negative,positive,negative,A,NULL
1744122597,ff298b7f8c67fe84ce321273dbb6bd98,PennController,45,0,test_val,NULL,PennController,56,_Trial_,Start,1744122233745,undefined,551,corrupt,objective-negative,positive,negative,A,NULL
1744122597,ff298b7f8c67fe84ce321273dbb6bd98,PennController,45,0,test_val,NULL,PennController,56,_Header_,Start,1744122233745,undefined,551,corrupt,objective-negative,positive,negative,A,NULL
1744122597,ff298b7f8c67fe84ce321273dbb6bd98,PennController,45,0,test_val,NULL,PennController,56,_Header_,End,1744122233995,undefined,551,corrupt,objective-negative,positive,negative,A,NULL
1744122597,ff298b7f8c67fe84ce321273dbb6bd98,PennController,45,0,test_val,NULL,Selector,unnamed-Selector,Selection,negative,1744122235049,undefined,551,corrupt,objective-negative,positive,negative,A,positive;negative
1744122597,ff298b7f8c67fe84ce321273dbb6bd98,PennController,45,0,test_val,NULL,PennController,56,_Trial_,End,1744122235050,undefined,551,corrupt,objective-negative,positive,negative,A,NULL
