#
# Results on Tue, 08 Apr 2025 16:20:37 GMT
# USER AGENT: Mozilla/5.0 (Windows NT 10.0; Win64; x64) AppleWebKit/537.36 (KHTML, like Gecko) Chrome/135.0.0.0 Safari/537.36
# Design number was non-random = 0
#
# Columns below this comment are as follows:
# 1. Results reception time.
# 2. MD5 hash of participant's IP address.
# 3. Controller name.
# 4. Order number of item.
# 5. Inner element number.
# 6. Label.
# 7. Latin Square Group.
# 8. PennElementType.
# 9. PennElementName.
# 10. Parameter.
# 11. Value.
# 12. EventTime.
# 13. Comments.
1744129237,336a2f021cd07a1f1196a3c80429bfe8,PennController,1,0,welcome,NULL,PennController,0,_Trial_,Start,1744128691494,NULL
1744129237,336a2f021cd07a1f1196a3c80429bfe8,PennController,1,0,welcome,NULL,PennController,0,_Header_,Start,1744128691494,NULL
1744129237,336a2f021cd07a1f1196a3c80429bfe8,PennController,1,0,welcome,NULL,PennController,0,_Header_,End,1744128691746,NULL
1744129237,336a2f021cd07a1f1196a3c80429bfe8,PennController,1,0,welcome,NULL,PennController,0,_Trial_,End,1744128693114,NULL
# 13. ID.
# 14. Comments.
1744129237,336a2f021cd07a1f1196a3c80429bfe8,PennController,124,0,consent,NULL,PennController,2,_Trial_,Start,1744128693115,6282a009d98ec3cafb4d8d48,NULL
1744129237,336a2f021cd07a1f1196a3c80429bfe8,PennController,124,0,consent,NULL,PennController,2,_Header_,Start,1744128693115,6282a009d98ec3cafb4d8d48,NULL
1744129237,336a2f021cd07a1f1196a3c80429bfe8,PennController,124,0,consent,NULL,PennController,2,_Header_,End,1744128693366,6282a009d98ec3cafb4d8d48,NULL
1744129237,336a2f021cd07a1f1196a3c80429bfe8,PennController,124,0,consent,NULL,TextInput,ID,Final,6282a009d98ec3cafb4d8d48,1744128699936,6282a009d98ec3cafb4d8d48,NULL
1744129237,336a2f021cd07a1f1196a3c80429bfe8,PennController,124,0,consent,NULL,PennController,2,_Trial_,End,1744128699936,6282a009d98ec3cafb4d8d48,NULL
# 13. Comments.
1744129237,336a2f021cd07a1f1196a3c80429bfe8,PennController,132,0,instructions1_so,NULL,PennController,10,_Trial_,Start,1744128699937,NULL
1744129237,336a2f021cd07a1f1196a3c80429bfe8,PennController,132,0,instructions1_so,NULL,PennController,10,_Header_,Start,1744128699937,NULL
1744129237,336a2f021cd07a1f1196a3c80429bfe8,PennController,132,0,instructions1_so,NULL,PennController,10,_Header_,End,1744128700189,NULL
1744129237,336a2f021cd07a1f1196a3c80429bfe8,PennController,132,0,instructions1_so,NULL,PennController,10,_Trial_,End,1744128713583,NULL
1744129237,336a2f021cd07a1f1196a3c80429bfe8,PennController,133,0,instructions2_so,NULL,PennController,11,_Trial_,Start,1744128713584,NULL
1744129237,336a2f021cd07a1f1196a3c80429bfe8,PennController,133,0,instructions2_so,NULL,PennController,11,_Header_,Start,1744128713584,NULL
1744129237,336a2f021cd07a1f1196a3c80429bfe8,PennController,133,0,instructions2_so,NULL,PennController,11,_Header_,End,1744128713836,NULL
1744129237,336a2f021cd07a1f1196a3c80429bfe8,PennController,133,0,instructions2_so,NULL,PennController,11,_Trial_,End,1744128716420,NULL
1744129237,336a2f021cd07a1f1196a3c80429bfe8,PennController,128,0,instructions3_hands,NULL,PennController,6,_Trial_,Start,1744128716420,NULL
1744129237,336a2f021cd07a1f1196a3c80429bfe8,PennController,128,0,instructions3_hands,NULL,PennController,6,_Header_,Start,1744128716420,NULL
1744129237,336a2f021cd07a1f1196a3c80429bfe8,PennController,128,0,instructions3_hands,NULL,PennController,6,_Header_,End,1744128716674,NULL
1744129237,336a2f021cd07a1f1196a3c80429bfe8,PennController,128,0,instructions3_hands,NULL,PennController,6,_Trial_,End,1744128724868,NULL
1744129237,336a2f021cd07a1f1196a3c80429bfe8,PennController,135,0,practice_intro_so,NULL,PennController,13,_Trial_,Start,1744128724869,NULL
1744129237,336a2f021cd07a1f1196a3c80429bfe8,PennController,135,0,practice_intro_so,NULL,PennController,13,_Header_,Start,1744128724869,NULL
1744129237,336a2f021cd07a1f1196a3c80429bfe8,PennController,135,0,practice_intro_so,NULL,PennController,13,_Header_,End,1744128725120,NULL
1744129237,336a2f021cd07a1f1196a3c80429bfe8,PennController,135,0,practice_intro_so,NULL,PennController,13,_Trial_,End,1744128726684,NULL
# 13. ID.
# 14. ReactionTime.
# 15. Word.
# 16. selectedKey.
# 17. selectedValue.
# 18. Key_value_F.
# 19. Key_value_J.
# 20. Group.
# 21. Comments.
1744129237,336a2f021cd07a1f1196a3c80429bfe8,PennController,92,0,calibrator_so_feedback,NULL,PennController,103,_Trial_,Start,1744128726684,undefined,3126,overrated,undefined,objective,subjective,objective,B,NULL
1744129237,336a2f021cd07a1f1196a3c80429bfe8,PennController,92,0,calibrator_so_feedback,NULL,PennController,103,_Header_,Start,1744128726684,undefined,3126,overrated,undefined,objective,subjective,objective,B,NULL
1744129237,336a2f021cd07a1f1196a3c80429bfe8,PennController,92,0,calibrator_so_feedback,NULL,PennController,103,_Header_,End,1744128726935,undefined,3126,overrated,undefined,objective,subjective,objective,B,NULL
1744129237,336a2f021cd07a1f1196a3c80429bfe8,PennController,92,0,calibrator_so_feedback,NULL,Selector,Selection,Selection,subjective,1744128730563,undefined,3126,overrated,undefined,objective,subjective,objective,B,subjective;objective
1744129237,336a2f021cd07a1f1196a3c80429bfe8,PennController,92,0,calibrator_so_feedback,NULL,PennController,103,_Trial_,End,1744128732566,undefined,3126,overrated,undefined,objective,subjective,objective,B,NULL
1744129237,336a2f021cd07a1f1196a3c80429bfe8,PennController,90,0,calibrator_so_feedback,NULL,PennController,101,_Trial_,Start,1744128732566,undefined,2533,ugly,undefined,objective,subjective,objective,B,NULL
1744129237,336a2f021cd07a1f1196a3c80429bfe8,PennController,90,0,calibrator_so_feedback,NULL,PennController,101,_Header_,Start,1744128732566,undefined,2533,ugly,undefined,objective,subjective,objective,B,NULL
1744129237,336a2f021cd07a1f1196a3c80429bfe8,PennController,90,0,calibrator_so_feedback,NULL,PennController,101,_Header_,End,1744128732818,undefined,2533,ugly,undefined,objective,subjective,objective,B,NULL
1744129237,336a2f021cd07a1f1196a3c80429bfe8,PennController,90,0,calibrator_so_feedback,NULL,Selector,Selection,Selection,subjective,1744128735852,undefined,2533,ugly,undefined,objective,subjective,objective,B,subjective;objective
1744129237,336a2f021cd07a1f1196a3c80429bfe8,PennController,90,0,calibrator_so_feedback,NULL,PennController,101,_Trial_,End,1744128737856,undefined,2533,ugly,undefined,objective,subjective,objective,B,NULL
1744129237,336a2f021cd07a1f1196a3c80429bfe8,PennController,88,0,calibrator_so_feedback,NULL,PennController,99,_Trial_,Start,1744128737856,undefined,1481,empty,undefined,objective,subjective,objective,B,NULL
1744129237,336a2f021cd07a1f1196a3c80429bfe8,PennController,88,0,calibrator_so_feedback,NULL,PennController,99,_Header_,Start,1744128737856,undefined,1481,empty,undefined,objective,subjective,objective,B,NULL
1744129237,336a2f021cd07a1f1196a3c80429bfe8,PennController,88,0,calibrator_so_feedback,NULL,PennController,99,_Header_,End,1744128738109,undefined,1481,empty,undefined,objective,subjective,objective,B,NULL
1744129237,336a2f021cd07a1f1196a3c80429bfe8,PennController,88,0,calibrator_so_feedback,NULL,Selector,Selection,Selection,objective,1744128740091,undefined,1481,empty,undefined,objective,subjective,objective,B,subjective;objective
1744129237,336a2f021cd07a1f1196a3c80429bfe8,PennController,88,0,calibrator_so_feedback,NULL,PennController,99,_Trial_,End,1744128742094,undefined,1481,empty,undefined,objective,subjective,objective,B,NULL
1744129237,336a2f021cd07a1f1196a3c80429bfe8,PennController,89,0,calibrator_so_feedback,NULL,PennController,100,_Trial_,Start,1744128742095,undefined,1079,pretty,undefined,objective,subjective,objective,B,NULL
1744129237,336a2f021cd07a1f1196a3c80429bfe8,PennController,89,0,calibrator_so_feedback,NULL,PennController,100,_Header_,Start,1744128742095,undefined,1079,pretty,undefined,objective,subjective,objective,B,NULL
1744129237,336a2f021cd07a1f1196a3c80429bfe8,PennController,89,0,calibrator_so_feedback,NULL,PennController,100,_Header_,End,1744128742349,undefined,1079,pretty,undefined,objective,subjective,objective,B,NULL
1744129237,336a2f021cd07a1f1196a3c80429bfe8,PennController,89,0,calibrator_so_feedback,NULL,Selector,Selection,Selection,subjective,1744128743931,undefined,1079,pretty,undefined,objective,subjective,objective,B,subjective;objective
1744129237,336a2f021cd07a1f1196a3c80429bfe8,PennController,89,0,calibrator_so_feedback,NULL,PennController,100,_Trial_,End,1744128745933,undefined,1079,pretty,undefined,objective,subjective,objective,B,NULL
1744129237,336a2f021cd07a1f1196a3c80429bfe8,PennController,91,0,calibrator_so_feedback,NULL,PennController,102,_Trial_,Start,1744128745934,undefined,899,tacky,undefined,objective,subjective,objective,B,NULL
1744129237,336a2f021cd07a1f1196a3c80429bfe8,PennController,91,0,calibrator_so_feedback,NULL,PennController,102,_Header_,Start,1744128745934,undefined,899,tacky,undefined,objective,subjective,objective,B,NULL
1744129237,336a2f021cd07a1f1196a3c80429bfe8,PennController,91,0,calibrator_so_feedback,NULL,PennController,102,_Header_,End,1744128746187,undefined,899,tacky,undefined,objective,subjective,objective,B,NULL
1744129237,336a2f021cd07a1f1196a3c80429bfe8,PennController,91,0,calibrator_so_feedback,NULL,Selector,Selection,Selection,subjective,1744128747587,undefined,899,tacky,undefined,objective,subjective,objective,B,subjective;objective
1744129237,336a2f021cd07a1f1196a3c80429bfe8,PennController,91,0,calibrator_so_feedback,NULL,PennController,102,_Trial_,End,1744128749589,undefined,899,tacky,undefined,objective,subjective,objective,B,NULL
1744129237,336a2f021cd07a1f1196a3c80429bfe8,PennController,84,0,calibrator_so_feedback,NULL,PennController,95,_Trial_,Start,1744128749590,undefined,1209,triangular,undefined,objective,subjective,objective,B,NULL
1744129237,336a2f021cd07a1f1196a3c80429bfe8,PennController,84,0,calibrator_so_feedback,NULL,PennController,95,_Header_,Start,1744128749590,undefined,1209,triangular,undefined,objective,subjective,objective,B,NULL
1744129237,336a2f021cd07a1f1196a3c80429bfe8,PennController,84,0,calibrator_so_feedback,NULL,PennController,95,_Header_,End,1744128749843,undefined,1209,triangular,undefined,objective,subjective,objective,B,NULL
1744129237,336a2f021cd07a1f1196a3c80429bfe8,PennController,84,0,calibrator_so_feedback,NULL,Selector,Selection,Selection,objective,1744128751555,undefined,1209,triangular,undefined,objective,subjective,objective,B,subjective;objective
1744129237,336a2f021cd07a1f1196a3c80429bfe8,PennController,84,0,calibrator_so_feedback,NULL,PennController,95,_Trial_,End,1744128753555,undefined,1209,triangular,undefined,objective,subjective,objective,B,NULL
1744129237,336a2f021cd07a1f1196a3c80429bfe8,PennController,87,0,calibrator_so_feedback,NULL,PennController,98,_Trial_,Start,1744128753556,undefined,1172,frozen,undefined,objective,subjective,objective,B,NULL
1744129237,336a2f021cd07a1f1196a3c80429bfe8,PennController,87,0,calibrator_so_feedback,NULL,PennController,98,_Header_,Start,1744128753556,undefined,1172,frozen,undefined,objective,subjective,objective,B,NULL
1744129237,336a2f021cd07a1f1196a3c80429bfe8,PennController,87,0,calibrator_so_feedback,NULL,PennController,98,_Header_,End,1744128753808,undefined,1172,frozen,undefined,objective,subjective,objective,B,NULL
1744129237,336a2f021cd07a1f1196a3c80429bfe8,PennController,87,0,calibrator_so_feedback,NULL,Selector,Selection,Selection,objective,1744128755483,undefined,1172,frozen,undefined,objective,subjective,objective,B,subjective;objective
1744129237,336a2f021cd07a1f1196a3c80429bfe8,PennController,87,0,calibrator_so_feedback,NULL,PennController,98,_Trial_,End,1744128757487,undefined,1172,frozen,undefined,objective,subjective,objective,B,NULL
1744129237,336a2f021cd07a1f1196a3c80429bfe8,PennController,85,0,calibrator_so_feedback,NULL,PennController,96,_Trial_,Start,1744128757487,undefined,1167,metallic,undefined,objective,subjective,objective,B,NULL
1744129237,336a2f021cd07a1f1196a3c80429bfe8,PennController,85,0,calibrator_so_feedback,NULL,PennController,96,_Header_,Start,1744128757488,undefined,1167,metallic,undefined,objective,subjective,objective,B,NULL
1744129237,336a2f021cd07a1f1196a3c80429bfe8,PennController,85,0,calibrator_so_feedback,NULL,PennController,96,_Header_,End,1744128757741,undefined,1167,metallic,undefined,objective,subjective,objective,B,NULL
1744129237,336a2f021cd07a1f1196a3c80429bfe8,PennController,85,0,calibrator_so_feedback,NULL,Selector,Selection,Selection,objective,1744128759411,undefined,1167,metallic,undefined,objective,subjective,objective,B,subjective;objective
1744129237,336a2f021cd07a1f1196a3c80429bfe8,PennController,85,0,calibrator_so_feedback,NULL,PennController,96,_Trial_,End,1744128761413,undefined,1167,metallic,undefined,objective,subjective,objective,B,NULL
1744129237,336a2f021cd07a1f1196a3c80429bfe8,PennController,86,0,calibrator_so_feedback,NULL,PennController,97,_Trial_,Start,1744128761414,undefined,902,wet,undefined,objective,subjective,objective,B,NULL
1744129237,336a2f021cd07a1f1196a3c80429bfe8,PennController,86,0,calibrator_so_feedback,NULL,PennController,97,_Header_,Start,1744128761414,undefined,902,wet,undefined,objective,subjective,objective,B,NULL
1744129237,336a2f021cd07a1f1196a3c80429bfe8,PennController,86,0,calibrator_so_feedback,NULL,PennController,97,_Header_,End,1744128761664,undefined,902,wet,undefined,objective,subjective,objective,B,NULL
1744129237,336a2f021cd07a1f1196a3c80429bfe8,PennController,86,0,calibrator_so_feedback,NULL,Selector,Selection,Selection,objective,1744128763067,undefined,902,wet,undefined,objective,subjective,objective,B,subjective;objective
1744129237,336a2f021cd07a1f1196a3c80429bfe8,PennController,86,0,calibrator_so_feedback,NULL,PennController,97,_Trial_,End,1744128765071,undefined,902,wet,undefined,objective,subjective,objective,B,NULL
1744129237,336a2f021cd07a1f1196a3c80429bfe8,PennController,93,0,calibrator_so_feedback,NULL,PennController,104,_Trial_,Start,1744128765071,undefined,538,comforting,undefined,objective,subjective,objective,B,NULL
1744129237,336a2f021cd07a1f1196a3c80429bfe8,PennController,93,0,calibrator_so_feedback,NULL,PennController,104,_Header_,Start,1744128765071,undefined,538,comforting,undefined,objective,subjective,objective,B,NULL
1744129237,336a2f021cd07a1f1196a3c80429bfe8,PennController,93,0,calibrator_so_feedback,NULL,PennController,104,_Header_,End,1744128765321,undefined,538,comforting,undefined,objective,subjective,objective,B,NULL
1744129237,336a2f021cd07a1f1196a3c80429bfe8,PennController,93,0,calibrator_so_feedback,NULL,Selector,Selection,Selection,subjective,1744128766364,undefined,538,comforting,undefined,objective,subjective,objective,B,subjective;objective
1744129237,336a2f021cd07a1f1196a3c80429bfe8,PennController,93,0,calibrator_so_feedback,NULL,PennController,104,_Trial_,End,1744128768367,undefined,538,comforting,undefined,objective,subjective,objective,B,NULL
# 16. Key_value_F.
# 17. Key_value_J.
# 18. Group.
# 19. Comments.
1744129237,336a2f021cd07a1f1196a3c80429bfe8,PennController,100,0,calibrator_so_no_feedback,NULL,PennController,111,_Trial_,Start,1744128768368,undefined,961,ugly,subjective,objective,B,NULL
1744129237,336a2f021cd07a1f1196a3c80429bfe8,PennController,100,0,calibrator_so_no_feedback,NULL,PennController,111,_Header_,Start,1744128768368,undefined,961,ugly,subjective,objective,B,NULL
1744129237,336a2f021cd07a1f1196a3c80429bfe8,PennController,100,0,calibrator_so_no_feedback,NULL,PennController,111,_Header_,End,1744128768621,undefined,961,ugly,subjective,objective,B,NULL
1744129237,336a2f021cd07a1f1196a3c80429bfe8,PennController,100,0,calibrator_so_no_feedback,NULL,Selector,unnamed-Selector,Selection,subjective,1744128770083,undefined,961,ugly,subjective,objective,B,subjective;objective
1744129237,336a2f021cd07a1f1196a3c80429bfe8,PennController,100,0,calibrator_so_no_feedback,NULL,PennController,111,_Trial_,End,1744128770084,undefined,961,ugly,subjective,objective,B,NULL
1744129237,336a2f021cd07a1f1196a3c80429bfe8,PennController,95,0,calibrator_so_no_feedback,NULL,PennController,106,_Trial_,Start,1744128770084,undefined,835,metallic,subjective,objective,B,NULL
1744129237,336a2f021cd07a1f1196a3c80429bfe8,PennController,95,0,calibrator_so_no_feedback,NULL,PennController,106,_Header_,Start,1744128770084,undefined,835,metallic,subjective,objective,B,NULL
1744129237,336a2f021cd07a1f1196a3c80429bfe8,PennController,95,0,calibrator_so_no_feedback,NULL,PennController,106,_Header_,End,1744128770335,undefined,835,metallic,subjective,objective,B,NULL
1744129237,336a2f021cd07a1f1196a3c80429bfe8,PennController,95,0,calibrator_so_no_feedback,NULL,Selector,unnamed-Selector,Selection,objective,1744128771675,undefined,835,metallic,subjective,objective,B,subjective;objective
1744129237,336a2f021cd07a1f1196a3c80429bfe8,PennController,95,0,calibrator_so_no_feedback,NULL,PennController,106,_Trial_,End,1744128771676,undefined,835,metallic,subjective,objective,B,NULL
1744129237,336a2f021cd07a1f1196a3c80429bfe8,PennController,97,0,calibrator_so_no_feedback,NULL,PennController,108,_Trial_,Start,1744128771676,undefined,629,frozen,subjective,objective,B,NULL
1744129237,336a2f021cd07a1f1196a3c80429bfe8,PennController,97,0,calibrator_so_no_feedback,NULL,PennController,108,_Header_,Start,1744128771676,undefined,629,frozen,subjective,objective,B,NULL
1744129237,336a2f021cd07a1f1196a3c80429bfe8,PennController,97,0,calibrator_so_no_feedback,NULL,PennController,108,_Header_,End,1744128771927,undefined,629,frozen,subjective,objective,B,NULL
1744129237,336a2f021cd07a1f1196a3c80429bfe8,PennController,97,0,calibrator_so_no_feedback,NULL,Selector,unnamed-Selector,Selection,objective,1744128773059,undefined,629,frozen,subjective,objective,B,subjective;objective
1744129237,336a2f021cd07a1f1196a3c80429bfe8,PennController,97,0,calibrator_so_no_feedback,NULL,PennController,108,_Trial_,End,1744128773059,undefined,629,frozen,subjective,objective,B,NULL
1744129237,336a2f021cd07a1f1196a3c80429bfe8,PennController,103,0,calibrator_so_no_feedback,NULL,PennController,114,_Trial_,Start,1744128773060,undefined,533,comforting,subjective,objective,B,NULL
1744129237,336a2f021cd07a1f1196a3c80429bfe8,PennController,103,0,calibrator_so_no_feedback,NULL,PennController,114,_Header_,Start,1744128773060,undefined,533,comforting,subjective,objective,B,NULL
1744129237,336a2f021cd07a1f1196a3c80429bfe8,PennController,103,0,calibrator_so_no_feedback,NULL,PennController,114,_Header_,End,1744128773312,undefined,533,comforting,subjective,objective,B,NULL
1744129237,336a2f021cd07a1f1196a3c80429bfe8,PennController,103,0,calibrator_so_no_feedback,NULL,Selector,unnamed-Selector,Selection,subjective,1744128774346,undefined,533,comforting,subjective,objective,B,subjective;objective
1744129237,336a2f021cd07a1f1196a3c80429bfe8,PennController,103,0,calibrator_so_no_feedback,NULL,PennController,114,_Trial_,End,1744128774347,undefined,533,comforting,subjective,objective,B,NULL
1744129237,336a2f021cd07a1f1196a3c80429bfe8,PennController,96,0,calibrator_so_no_feedback,NULL,PennController,107,_Trial_,Start,1744128774348,undefined,700,wet,subjective,objective,B,NULL
1744129237,336a2f021cd07a1f1196a3c80429bfe8,PennController,96,0,calibrator_so_no_feedback,NULL,PennController,107,_Header_,Start,1744128774348,undefined,700,wet,subjective,objective,B,NULL
1744129237,336a2f021cd07a1f1196a3c80429bfe8,PennController,96,0,calibrator_so_no_feedback,NULL,PennController,107,_Header_,End,1744128774598,undefined,700,wet,subjective,objective,B,NULL
1744129237,336a2f021cd07a1f1196a3c80429bfe8,PennController,96,0,calibrator_so_no_feedback,NULL,Selector,unnamed-Selector,Selection,objective,1744128775803,undefined,700,wet,subjective,objective,B,subjective;objective
1744129237,336a2f021cd07a1f1196a3c80429bfe8,PennController,96,0,calibrator_so_no_feedback,NULL,PennController,107,_Trial_,End,1744128775803,undefined,700,wet,subjective,objective,B,NULL
1744129237,336a2f021cd07a1f1196a3c80429bfe8,PennController,94,0,calibrator_so_no_feedback,NULL,PennController,105,_Trial_,Start,1744128775804,undefined,565,triangular,subjective,objective,B,NULL
1744129237,336a2f021cd07a1f1196a3c80429bfe8,PennController,94,0,calibrator_so_no_feedback,NULL,PennController,105,_Header_,Start,1744128775804,undefined,565,triangular,subjective,objective,B,NULL
1744129237,336a2f021cd07a1f1196a3c80429bfe8,PennController,94,0,calibrator_so_no_feedback,NULL,PennController,105,_Header_,End,1744128776056,undefined,565,triangular,subjective,objective,B,NULL
1744129237,336a2f021cd07a1f1196a3c80429bfe8,PennController,94,0,calibrator_so_no_feedback,NULL,Selector,unnamed-Selector,Selection,objective,1744128777123,undefined,565,triangular,subjective,objective,B,subjective;objective
1744129237,336a2f021cd07a1f1196a3c80429bfe8,PennController,94,0,calibrator_so_no_feedback,NULL,PennController,105,_Trial_,End,1744128777124,undefined,565,triangular,subjective,objective,B,NULL
1744129237,336a2f021cd07a1f1196a3c80429bfe8,PennController,98,0,calibrator_so_no_feedback,NULL,PennController,109,_Trial_,Start,1744128777124,undefined,850,empty,subjective,objective,B,NULL
1744129237,336a2f021cd07a1f1196a3c80429bfe8,PennController,98,0,calibrator_so_no_feedback,NULL,PennController,109,_Header_,Start,1744128777124,undefined,850,empty,subjective,objective,B,NULL
1744129237,336a2f021cd07a1f1196a3c80429bfe8,PennController,98,0,calibrator_so_no_feedback,NULL,PennController,109,_Header_,End,1744128777377,undefined,850,empty,subjective,objective,B,NULL
1744129237,336a2f021cd07a1f1196a3c80429bfe8,PennController,98,0,calibrator_so_no_feedback,NULL,Selector,unnamed-Selector,Selection,objective,1744128778731,undefined,850,empty,subjective,objective,B,subjective;objective
1744129237,336a2f021cd07a1f1196a3c80429bfe8,PennController,98,0,calibrator_so_no_feedback,NULL,PennController,109,_Trial_,End,1744128778731,undefined,850,empty,subjective,objective,B,NULL
1744129237,336a2f021cd07a1f1196a3c80429bfe8,PennController,99,0,calibrator_so_no_feedback,NULL,PennController,110,_Trial_,Start,1744128778732,undefined,668,pretty,subjective,objective,B,NULL
1744129237,336a2f021cd07a1f1196a3c80429bfe8,PennController,99,0,calibrator_so_no_feedback,NULL,PennController,110,_Header_,Start,1744128778732,undefined,668,pretty,subjective,objective,B,NULL
1744129237,336a2f021cd07a1f1196a3c80429bfe8,PennController,99,0,calibrator_so_no_feedback,NULL,PennController,110,_Header_,End,1744128778983,undefined,668,pretty,subjective,objective,B,NULL
1744129237,336a2f021cd07a1f1196a3c80429bfe8,PennController,99,0,calibrator_so_no_feedback,NULL,Selector,unnamed-Selector,Selection,subjective,1744128780155,undefined,668,pretty,subjective,objective,B,subjective;objective
1744129237,336a2f021cd07a1f1196a3c80429bfe8,PennController,99,0,calibrator_so_no_feedback,NULL,PennController,110,_Trial_,End,1744128780155,undefined,668,pretty,subjective,objective,B,NULL
1744129237,336a2f021cd07a1f1196a3c80429bfe8,PennController,102,0,calibrator_so_no_feedback,NULL,PennController,113,_Trial_,Start,1744128780156,undefined,790,overrated,subjective,objective,B,NULL
1744129237,336a2f021cd07a1f1196a3c80429bfe8,PennController,102,0,calibrator_so_no_feedback,NULL,PennController,113,_Header_,Start,1744128780156,undefined,790,overrated,subjective,objective,B,NULL
1744129237,336a2f021cd07a1f1196a3c80429bfe8,PennController,102,0,calibrator_so_no_feedback,NULL,PennController,113,_Header_,End,1744128780406,undefined,790,overrated,subjective,objective,B,NULL
1744129237,336a2f021cd07a1f1196a3c80429bfe8,PennController,102,0,calibrator_so_no_feedback,NULL,Selector,unnamed-Selector,Selection,subjective,1744128781699,undefined,790,overrated,subjective,objective,B,subjective;objective
1744129237,336a2f021cd07a1f1196a3c80429bfe8,PennController,102,0,calibrator_so_no_feedback,NULL,PennController,113,_Trial_,End,1744128781699,undefined,790,overrated,subjective,objective,B,NULL
1744129237,336a2f021cd07a1f1196a3c80429bfe8,PennController,101,0,calibrator_so_no_feedback,NULL,PennController,112,_Trial_,Start,1744128781700,undefined,669,tacky,subjective,objective,B,NULL
1744129237,336a2f021cd07a1f1196a3c80429bfe8,PennController,101,0,calibrator_so_no_feedback,NULL,PennController,112,_Header_,Start,1744128781700,undefined,669,tacky,subjective,objective,B,NULL
1744129237,336a2f021cd07a1f1196a3c80429bfe8,PennController,101,0,calibrator_so_no_feedback,NULL,PennController,112,_Header_,End,1744128781953,undefined,669,tacky,subjective,objective,B,NULL
1744129237,336a2f021cd07a1f1196a3c80429bfe8,PennController,101,0,calibrator_so_no_feedback,NULL,Selector,unnamed-Selector,Selection,subjective,1744128783123,undefined,669,tacky,subjective,objective,B,subjective;objective
1744129237,336a2f021cd07a1f1196a3c80429bfe8,PennController,101,0,calibrator_so_no_feedback,NULL,PennController,112,_Trial_,End,1744128783123,undefined,669,tacky,subjective,objective,B,NULL
# 13. Comments.
1744129237,336a2f021cd07a1f1196a3c80429bfe8,PennController,136,0,endinstructions_so,NULL,PennController,14,_Trial_,Start,1744128783124,NULL
1744129237,336a2f021cd07a1f1196a3c80429bfe8,PennController,136,0,endinstructions_so,NULL,PennController,14,_Header_,Start,1744128783124,NULL
1744129237,336a2f021cd07a1f1196a3c80429bfe8,PennController,136,0,endinstructions_so,NULL,PennController,14,_Header_,End,1744128783375,NULL
1744129237,336a2f021cd07a1f1196a3c80429bfe8,PennController,136,0,endinstructions_so,NULL,PennController,14,_Trial_,End,1744128786860,NULL
# 13. ID.
# 14. ReactionTime.
# 15. Word.
# 16. ConcValCombo.
# 17. Key_value_F.
# 18. Key_value_J.
# 19. Group.
# 20. Comments.
1744129237,336a2f021cd07a1f1196a3c80429bfe8,PennController,5,0,test_so,NULL,PennController,16,_Trial_,Start,1744128786861,undefined,1440,corrupt,objective-negative,subjective,objective,B,NULL
1744129237,336a2f021cd07a1f1196a3c80429bfe8,PennController,5,0,test_so,NULL,PennController,16,_Header_,Start,1744128786861,undefined,1440,corrupt,objective-negative,subjective,objective,B,NULL
1744129237,336a2f021cd07a1f1196a3c80429bfe8,PennController,5,0,test_so,NULL,PennController,16,_Header_,End,1744128787111,undefined,1440,corrupt,objective-negative,subjective,objective,B,NULL
1744129237,336a2f021cd07a1f1196a3c80429bfe8,PennController,5,0,test_so,NULL,Selector,unnamed-Selector,Selection,subjective,1744128789053,undefined,1440,corrupt,objective-negative,subjective,objective,B,subjective;objective
1744129237,336a2f021cd07a1f1196a3c80429bfe8,PennController,5,0,test_so,NULL,PennController,16,_Trial_,End,1744128789054,undefined,1440,corrupt,objective-negative,subjective,objective,B,NULL
1744129237,336a2f021cd07a1f1196a3c80429bfe8,PennController,32,0,test_so,NULL,PennController,43,_Trial_,Start,1744128789054,undefined,1072,cynical,subjective-negative,subjective,objective,B,NULL
1744129237,336a2f021cd07a1f1196a3c80429bfe8,PennController,32,0,test_so,NULL,PennController,43,_Header_,Start,1744128789054,undefined,1072,cynical,subjective-negative,subjective,objective,B,NULL
1744129237,336a2f021cd07a1f1196a3c80429bfe8,PennController,32,0,test_so,NULL,PennController,43,_Header_,End,1744128789308,undefined,1072,cynical,subjective-negative,subjective,objective,B,NULL
1744129237,336a2f021cd07a1f1196a3c80429bfe8,PennController,32,0,test_so,NULL,Selector,unnamed-Selector,Selection,subjective,1744128790884,undefined,1072,cynical,subjective-negative,subjective,objective,B,subjective;objective
1744129237,336a2f021cd07a1f1196a3c80429bfe8,PennController,32,0,test_so,NULL,PennController,43,_Trial_,End,1744128790885,undefined,1072,cynical,subjective-negative,subjective,objective,B,NULL
1744129237,336a2f021cd07a1f1196a3c80429bfe8,PennController,30,0,test_so,NULL,PennController,41,_Trial_,Start,1744128790885,undefined,871,hostile,subjective-negative,subjective,objective,B,NULL
1744129237,336a2f021cd07a1f1196a3c80429bfe8,PennController,30,0,test_so,NULL,PennController,41,_Header_,Start,1744128790885,undefined,871,hostile,subjective-negative,subjective,objective,B,NULL
1744129237,336a2f021cd07a1f1196a3c80429bfe8,PennController,30,0,test_so,NULL,PennController,41,_Header_,End,1744128791136,undefined,871,hostile,subjective-negative,subjective,objective,B,NULL
1744129237,336a2f021cd07a1f1196a3c80429bfe8,PennController,30,0,test_so,NULL,Selector,unnamed-Selector,Selection,subjective,1744128792508,undefined,871,hostile,subjective-negative,subjective,objective,B,subjective;objective
1744129237,336a2f021cd07a1f1196a3c80429bfe8,PennController,30,0,test_so,NULL,PennController,41,_Trial_,End,1744128792508,undefined,871,hostile,subjective-negative,subjective,objective,B,NULL
1744129237,336a2f021cd07a1f1196a3c80429bfe8,PennController,35,0,test_so,NULL,PennController,46,_Trial_,Start,1744128792509,undefined,803,beautiful,subjective-positive,subjective,objective,B,NULL
1744129237,336a2f021cd07a1f1196a3c80429bfe8,PennController,35,0,test_so,NULL,PennController,46,_Header_,Start,1744128792509,undefined,803,beautiful,subjective-positive,subjective,objective,B,NULL
1744129237,336a2f021cd07a1f1196a3c80429bfe8,PennController,35,0,test_so,NULL,PennController,46,_Header_,End,1744128792761,undefined,803,beautiful,subjective-positive,subjective,objective,B,NULL
1744129237,336a2f021cd07a1f1196a3c80429bfe8,PennController,35,0,test_so,NULL,Selector,unnamed-Selector,Selection,subjective,1744128794067,undefined,803,beautiful,subjective-positive,subjective,objective,B,subjective;objective
1744129237,336a2f021cd07a1f1196a3c80429bfe8,PennController,35,0,test_so,NULL,PennController,46,_Trial_,End,1744128794068,undefined,803,beautiful,subjective-positive,subjective,objective,B,NULL
1744129237,336a2f021cd07a1f1196a3c80429bfe8,PennController,42,0,test_so,NULL,PennController,53,_Trial_,Start,1744128794068,undefined,526,thoughtful,subjective-positive,subjective,objective,B,NULL
1744129237,336a2f021cd07a1f1196a3c80429bfe8,PennController,42,0,test_so,NULL,PennController,53,_Header_,Start,1744128794068,undefined,526,thoughtful,subjective-positive,subjective,objective,B,NULL
1744129237,336a2f021cd07a1f1196a3c80429bfe8,PennController,42,0,test_so,NULL,PennController,53,_Header_,End,1744128794320,undefined,526,thoughtful,subjective-positive,subjective,objective,B,NULL
1744129237,336a2f021cd07a1f1196a3c80429bfe8,PennController,42,0,test_so,NULL,Selector,unnamed-Selector,Selection,subjective,1744128795347,undefined,526,thoughtful,subjective-positive,subjective,objective,B,subjective;objective
1744129237,336a2f021cd07a1f1196a3c80429bfe8,PennController,42,0,test_so,NULL,PennController,53,_Trial_,End,1744128795348,undefined,526,thoughtful,subjective-positive,subjective,objective,B,NULL
1744129237,336a2f021cd07a1f1196a3c80429bfe8,PennController,20,0,test_so,NULL,PennController,31,_Trial_,Start,1744128795348,undefined,918,efficient,objective-positive,subjective,objective,B,NULL
1744129237,336a2f021cd07a1f1196a3c80429bfe8,PennController,20,0,test_so,NULL,PennController,31,_Header_,Start,1744128795348,undefined,918,efficient,objective-positive,subjective,objective,B,NULL
1744129237,336a2f021cd07a1f1196a3c80429bfe8,PennController,20,0,test_so,NULL,PennController,31,_Header_,End,1744128795599,undefined,918,efficient,objective-positive,subjective,objective,B,NULL
1744129237,336a2f021cd07a1f1196a3c80429bfe8,PennController,20,0,test_so,NULL,Selector,unnamed-Selector,Selection,subjective,1744128797019,undefined,918,efficient,objective-positive,subjective,objective,B,subjective;objective
1744129237,336a2f021cd07a1f1196a3c80429bfe8,PennController,20,0,test_so,NULL,PennController,31,_Trial_,End,1744128797020,undefined,918,efficient,objective-positive,subjective,objective,B,NULL
1744129237,336a2f021cd07a1f1196a3c80429bfe8,PennController,21,0,test_so,NULL,PennController,32,_Trial_,Start,1744128797020,undefined,502,healthy,objective-positive,subjective,objective,B,NULL
1744129237,336a2f021cd07a1f1196a3c80429bfe8,PennController,21,0,test_so,NULL,PennController,32,_Header_,Start,1744128797020,undefined,502,healthy,objective-positive,subjective,objective,B,NULL
1744129237,336a2f021cd07a1f1196a3c80429bfe8,PennController,21,0,test_so,NULL,PennController,32,_Header_,End,1744128797273,undefined,502,healthy,objective-positive,subjective,objective,B,NULL
1744129237,336a2f021cd07a1f1196a3c80429bfe8,PennController,21,0,test_so,NULL,Selector,unnamed-Selector,Selection,subjective,1744128798276,undefined,502,healthy,objective-positive,subjective,objective,B,subjective;objective
1744129237,336a2f021cd07a1f1196a3c80429bfe8,PennController,21,0,test_so,NULL,PennController,32,_Trial_,End,1744128798277,undefined,502,healthy,objective-positive,subjective,objective,B,NULL
1744129237,336a2f021cd07a1f1196a3c80429bfe8,PennController,12,0,test_so,NULL,PennController,23,_Trial_,Start,1744128798277,undefined,950,toxic,objective-negative,subjective,objective,B,NULL
1744129237,336a2f021cd07a1f1196a3c80429bfe8,PennController,12,0,test_so,NULL,PennController,23,_Header_,Start,1744128798277,undefined,950,toxic,objective-negative,subjective,objective,B,NULL
1744129237,336a2f021cd07a1f1196a3c80429bfe8,PennController,12,0,test_so,NULL,PennController,23,_Header_,End,1744128798527,undefined,950,toxic,objective-negative,subjective,objective,B,NULL
1744129237,336a2f021cd07a1f1196a3c80429bfe8,PennController,12,0,test_so,NULL,Selector,unnamed-Selector,Selection,subjective,1744128799979,undefined,950,toxic,objective-negative,subjective,objective,B,subjective;objective
1744129237,336a2f021cd07a1f1196a3c80429bfe8,PennController,12,0,test_so,NULL,PennController,23,_Trial_,End,1744128799980,undefined,950,toxic,objective-negative,subjective,objective,B,NULL
1744129237,336a2f021cd07a1f1196a3c80429bfe8,PennController,10,0,test_so,NULL,PennController,21,_Trial_,Start,1744128799980,undefined,1174,defective,objective-negative,subjective,objective,B,NULL
1744129237,336a2f021cd07a1f1196a3c80429bfe8,PennController,10,0,test_so,NULL,PennController,21,_Header_,Start,1744128799980,undefined,1174,defective,objective-negative,subjective,objective,B,NULL
1744129237,336a2f021cd07a1f1196a3c80429bfe8,PennController,10,0,test_so,NULL,PennController,21,_Header_,End,1744128800234,undefined,1174,defective,objective-negative,subjective,objective,B,NULL
1744129237,336a2f021cd07a1f1196a3c80429bfe8,PennController,10,0,test_so,NULL,Selector,unnamed-Selector,Selection,subjective,1744128801908,undefined,1174,defective,objective-negative,subjective,objective,B,subjective;objective
1744129237,336a2f021cd07a1f1196a3c80429bfe8,PennController,10,0,test_so,NULL,PennController,21,_Trial_,End,1744128801908,undefined,1174,defective,objective-negative,subjective,objective,B,NULL
1744129237,336a2f021cd07a1f1196a3c80429bfe8,PennController,33,0,test_so,NULL,PennController,44,_Trial_,Start,1744128801909,undefined,629,disgusting,subjective-negative,subjective,objective,B,NULL
1744129237,336a2f021cd07a1f1196a3c80429bfe8,PennController,33,0,test_so,NULL,PennController,44,_Header_,Start,1744128801909,undefined,629,disgusting,subjective-negative,subjective,objective,B,NULL
1744129237,336a2f021cd07a1f1196a3c80429bfe8,PennController,33,0,test_so,NULL,PennController,44,_Header_,End,1744128802162,undefined,629,disgusting,subjective-negative,subjective,objective,B,NULL
1744129237,336a2f021cd07a1f1196a3c80429bfe8,PennController,33,0,test_so,NULL,Selector,unnamed-Selector,Selection,subjective,1744128803292,undefined,629,disgusting,subjective-negative,subjective,objective,B,subjective;objective
1744129237,336a2f021cd07a1f1196a3c80429bfe8,PennController,33,0,test_so,NULL,PennController,44,_Trial_,End,1744128803292,undefined,629,disgusting,subjective-negative,subjective,objective,B,NULL
1744129237,336a2f021cd07a1f1196a3c80429bfe8,PennController,31,0,test_so,NULL,PennController,42,_Trial_,Start,1744128803293,undefined,642,selfish,subjective-negative,subjective,objective,B,NULL
1744129237,336a2f021cd07a1f1196a3c80429bfe8,PennController,31,0,test_so,NULL,PennController,42,_Header_,Start,1744128803293,undefined,642,selfish,subjective-negative,subjective,objective,B,NULL
1744129237,336a2f021cd07a1f1196a3c80429bfe8,PennController,31,0,test_so,NULL,PennController,42,_Header_,End,1744128803547,undefined,642,selfish,subjective-negative,subjective,objective,B,NULL
1744129237,336a2f021cd07a1f1196a3c80429bfe8,PennController,31,0,test_so,NULL,Selector,unnamed-Selector,Selection,subjective,1744128804691,undefined,642,selfish,subjective-negative,subjective,objective,B,subjective;objective
1744129237,336a2f021cd07a1f1196a3c80429bfe8,PennController,31,0,test_so,NULL,PennController,42,_Trial_,End,1744128804692,undefined,642,selfish,subjective-negative,subjective,objective,B,NULL
1744129237,336a2f021cd07a1f1196a3c80429bfe8,PennController,13,0,test_so,NULL,PennController,24,_Trial_,Start,1744128804692,undefined,901,unfit,objective-negative,subjective,objective,B,NULL
1744129237,336a2f021cd07a1f1196a3c80429bfe8,PennController,13,0,test_so,NULL,PennController,24,_Header_,Start,1744128804692,undefined,901,unfit,objective-negative,subjective,objective,B,NULL
1744129237,336a2f021cd07a1f1196a3c80429bfe8,PennController,13,0,test_so,NULL,PennController,24,_Header_,End,1744128804943,undefined,901,unfit,objective-negative,subjective,objective,B,NULL
1744129237,336a2f021cd07a1f1196a3c80429bfe8,PennController,13,0,test_so,NULL,Selector,unnamed-Selector,Selection,subjective,1744128806348,undefined,901,unfit,objective-negative,subjective,objective,B,subjective;objective
1744129237,336a2f021cd07a1f1196a3c80429bfe8,PennController,13,0,test_so,NULL,PennController,24,_Trial_,End,1744128806348,undefined,901,unfit,objective-negative,subjective,objective,B,NULL
1744129237,336a2f021cd07a1f1196a3c80429bfe8,PennController,4,0,test_so,NULL,PennController,15,_Trial_,Start,1744128806349,undefined,958,adverse,objective-negative,subjective,objective,B,NULL
1744129237,336a2f021cd07a1f1196a3c80429bfe8,PennController,4,0,test_so,NULL,PennController,15,_Header_,Start,1744128806349,undefined,958,adverse,objective-negative,subjective,objective,B,NULL
1744129237,336a2f021cd07a1f1196a3c80429bfe8,PennController,4,0,test_so,NULL,PennController,15,_Header_,End,1744128806600,undefined,958,adverse,objective-negative,subjective,objective,B,NULL
1744129237,336a2f021cd07a1f1196a3c80429bfe8,PennController,4,0,test_so,NULL,Selector,unnamed-Selector,Selection,subjective,1744128808059,undefined,958,adverse,objective-negative,subjective,objective,B,subjective;objective
1744129237,336a2f021cd07a1f1196a3c80429bfe8,PennController,4,0,test_so,NULL,PennController,15,_Trial_,End,1744128808060,undefined,958,adverse,objective-negative,subjective,objective,B,NULL
1744129237,336a2f021cd07a1f1196a3c80429bfe8,PennController,40,0,test_so,NULL,PennController,51,_Trial_,Start,1744128808060,undefined,805,harmonious,subjective-positive,subjective,objective,B,NULL
1744129237,336a2f021cd07a1f1196a3c80429bfe8,PennController,40,0,test_so,NULL,PennController,51,_Header_,Start,1744128808060,undefined,805,harmonious,subjective-positive,subjective,objective,B,NULL
1744129237,336a2f021cd07a1f1196a3c80429bfe8,PennController,40,0,test_so,NULL,PennController,51,_Header_,End,1744128808311,undefined,805,harmonious,subjective-positive,subjective,objective,B,NULL
1744129237,336a2f021cd07a1f1196a3c80429bfe8,PennController,40,0,test_so,NULL,Selector,unnamed-Selector,Selection,subjective,1744128809619,undefined,805,harmonious,subjective-positive,subjective,objective,B,subjective;objective
1744129237,336a2f021cd07a1f1196a3c80429bfe8,PennController,40,0,test_so,NULL,PennController,51,_Trial_,End,1744128809620,undefined,805,harmonious,subjective-positive,subjective,objective,B,NULL
1744129237,336a2f021cd07a1f1196a3c80429bfe8,PennController,6,0,test_so,NULL,PennController,17,_Trial_,Start,1744128809620,undefined,1611,bankrupt,objective-negative,subjective,objective,B,NULL
1744129237,336a2f021cd07a1f1196a3c80429bfe8,PennController,6,0,test_so,NULL,PennController,17,_Header_,Start,1744128809620,undefined,1611,bankrupt,objective-negative,subjective,objective,B,NULL
1744129237,336a2f021cd07a1f1196a3c80429bfe8,PennController,6,0,test_so,NULL,PennController,17,_Header_,End,1744128809874,undefined,1611,bankrupt,objective-negative,subjective,objective,B,NULL
1744129237,336a2f021cd07a1f1196a3c80429bfe8,PennController,6,0,test_so,NULL,Selector,unnamed-Selector,Selection,objective,1744128811988,undefined,1611,bankrupt,objective-negative,subjective,objective,B,subjective;objective
1744129237,336a2f021cd07a1f1196a3c80429bfe8,PennController,6,0,test_so,NULL,PennController,17,_Trial_,End,1744128811988,undefined,1611,bankrupt,objective-negative,subjective,objective,B,NULL
1744129237,336a2f021cd07a1f1196a3c80429bfe8,PennController,15,0,test_so,NULL,PennController,26,_Trial_,Start,1744128811989,undefined,1364,accurate,objective-positive,subjective,objective,B,NULL
1744129237,336a2f021cd07a1f1196a3c80429bfe8,PennController,15,0,test_so,NULL,PennController,26,_Header_,Start,1744128811989,undefined,1364,accurate,objective-positive,subjective,objective,B,NULL
1744129237,336a2f021cd07a1f1196a3c80429bfe8,PennController,15,0,test_so,NULL,PennController,26,_Header_,End,1744128812242,undefined,1364,accurate,objective-positive,subjective,objective,B,NULL
1744129237,336a2f021cd07a1f1196a3c80429bfe8,PennController,15,0,test_so,NULL,Selector,unnamed-Selector,Selection,subjective,1744128814107,undefined,1364,accurate,objective-positive,subjective,objective,B,subjective;objective
1744129237,336a2f021cd07a1f1196a3c80429bfe8,PennController,15,0,test_so,NULL,PennController,26,_Trial_,End,1744128814108,undefined,1364,accurate,objective-positive,subjective,objective,B,NULL
1744129237,336a2f021cd07a1f1196a3c80429bfe8,PennController,43,0,test_so,NULL,PennController,54,_Trial_,Start,1744128814108,undefined,718,passionate,subjective-positive,subjective,objective,B,NULL
1744129237,336a2f021cd07a1f1196a3c80429bfe8,PennController,43,0,test_so,NULL,PennController,54,_Header_,Start,1744128814108,undefined,718,passionate,subjective-positive,subjective,objective,B,NULL
1744129237,336a2f021cd07a1f1196a3c80429bfe8,PennController,43,0,test_so,NULL,PennController,54,_Header_,End,1744128814361,undefined,718,passionate,subjective-positive,subjective,objective,B,NULL
1744129237,336a2f021cd07a1f1196a3c80429bfe8,PennController,43,0,test_so,NULL,Selector,unnamed-Selector,Selection,subjective,1744128815580,undefined,718,passionate,subjective-positive,subjective,objective,B,subjective;objective
1744129237,336a2f021cd07a1f1196a3c80429bfe8,PennController,43,0,test_so,NULL,PennController,54,_Trial_,End,1744128815580,undefined,718,passionate,subjective-positive,subjective,objective,B,NULL
1744129237,336a2f021cd07a1f1196a3c80429bfe8,PennController,22,0,test_so,NULL,PennController,33,_Trial_,Start,1744128815581,undefined,2164,profitable,objective-positive,subjective,objective,B,NULL
1744129237,336a2f021cd07a1f1196a3c80429bfe8,PennController,22,0,test_so,NULL,PennController,33,_Header_,Start,1744128815581,undefined,2164,profitable,objective-positive,subjective,objective,B,NULL
1744129237,336a2f021cd07a1f1196a3c80429bfe8,PennController,22,0,test_so,NULL,PennController,33,_Header_,End,1744128815832,undefined,2164,profitable,objective-positive,subjective,objective,B,NULL
1744129237,336a2f021cd07a1f1196a3c80429bfe8,PennController,22,0,test_so,NULL,Selector,unnamed-Selector,Selection,objective,1744128818499,undefined,2164,profitable,objective-positive,subjective,objective,B,subjective;objective
1744129237,336a2f021cd07a1f1196a3c80429bfe8,PennController,22,0,test_so,NULL,PennController,33,_Trial_,End,1744128818500,undefined,2164,profitable,objective-positive,subjective,objective,B,NULL
1744129237,336a2f021cd07a1f1196a3c80429bfe8,PennController,37,0,test_so,NULL,PennController,48,_Trial_,Start,1744128818500,undefined,1130,authentic,subjective-positive,subjective,objective,B,NULL
1744129237,336a2f021cd07a1f1196a3c80429bfe8,PennController,37,0,test_so,NULL,PennController,48,_Header_,Start,1744128818500,undefined,1130,authentic,subjective-positive,subjective,objective,B,NULL
1744129237,336a2f021cd07a1f1196a3c80429bfe8,PennController,37,0,test_so,NULL,PennController,48,_Header_,End,1744128818754,undefined,1130,authentic,subjective-positive,subjective,objective,B,NULL
1744129237,336a2f021cd07a1f1196a3c80429bfe8,PennController,37,0,test_so,NULL,Selector,unnamed-Selector,Selection,subjective,1744128820387,undefined,1130,authentic,subjective-positive,subjective,objective,B,subjective;objective
1744129237,336a2f021cd07a1f1196a3c80429bfe8,PennController,37,0,test_so,NULL,PennController,48,_Trial_,End,1744128820388,undefined,1130,authentic,subjective-positive,subjective,objective,B,NULL
1744129237,336a2f021cd07a1f1196a3c80429bfe8,PennController,18,0,test_so,NULL,PennController,29,_Trial_,Start,1744128820388,undefined,1128,effective,objective-positive,subjective,objective,B,NULL
1744129237,336a2f021cd07a1f1196a3c80429bfe8,PennController,18,0,test_so,NULL,PennController,29,_Header_,Start,1744128820388,undefined,1128,effective,objective-positive,subjective,objective,B,NULL
1744129237,336a2f021cd07a1f1196a3c80429bfe8,PennController,18,0,test_so,NULL,PennController,29,_Header_,End,1744128820638,undefined,1128,effective,objective-positive,subjective,objective,B,NULL
1744129237,336a2f021cd07a1f1196a3c80429bfe8,PennController,18,0,test_so,NULL,Selector,unnamed-Selector,Selection,subjective,1744128822267,undefined,1128,effective,objective-positive,subjective,objective,B,subjective;objective
1744129237,336a2f021cd07a1f1196a3c80429bfe8,PennController,18,0,test_so,NULL,PennController,29,_Trial_,End,1744128822268,undefined,1128,effective,objective-positive,subjective,objective,B,NULL
1744129237,336a2f021cd07a1f1196a3c80429bfe8,PennController,11,0,test_so,NULL,PennController,22,_Trial_,Start,1744128822268,undefined,1421,incurable,objective-negative,subjective,objective,B,NULL
1744129237,336a2f021cd07a1f1196a3c80429bfe8,PennController,11,0,test_so,NULL,PennController,22,_Header_,Start,1744128822268,undefined,1421,incurable,objective-negative,subjective,objective,B,NULL
1744129237,336a2f021cd07a1f1196a3c80429bfe8,PennController,11,0,test_so,NULL,PennController,22,_Header_,End,1744128822518,undefined,1421,incurable,objective-negative,subjective,objective,B,NULL
1744129237,336a2f021cd07a1f1196a3c80429bfe8,PennController,11,0,test_so,NULL,Selector,unnamed-Selector,Selection,objective,1744128824443,undefined,1421,incurable,objective-negative,subjective,objective,B,subjective;objective
1744129237,336a2f021cd07a1f1196a3c80429bfe8,PennController,11,0,test_so,NULL,PennController,22,_Trial_,End,1744128824444,undefined,1421,incurable,objective-negative,subjective,objective,B,NULL
1744129237,336a2f021cd07a1f1196a3c80429bfe8,PennController,17,0,test_so,NULL,PennController,28,_Trial_,Start,1744128824444,undefined,878,reliable,objective-positive,subjective,objective,B,NULL
1744129237,336a2f021cd07a1f1196a3c80429bfe8,PennController,17,0,test_so,NULL,PennController,28,_Header_,Start,1744128824444,undefined,878,reliable,objective-positive,subjective,objective,B,NULL
1744129237,336a2f021cd07a1f1196a3c80429bfe8,PennController,17,0,test_so,NULL,PennController,28,_Header_,End,1744128824695,undefined,878,reliable,objective-positive,subjective,objective,B,NULL
1744129237,336a2f021cd07a1f1196a3c80429bfe8,PennController,17,0,test_so,NULL,Selector,unnamed-Selector,Selection,subjective,1744128826076,undefined,878,reliable,objective-positive,subjective,objective,B,subjective;objective
1744129237,336a2f021cd07a1f1196a3c80429bfe8,PennController,17,0,test_so,NULL,PennController,28,_Trial_,End,1744128826077,undefined,878,reliable,objective-positive,subjective,objective,B,NULL
1744129237,336a2f021cd07a1f1196a3c80429bfe8,PennController,16,0,test_so,NULL,PennController,27,_Trial_,Start,1744128826077,undefined,1029,accurate,objective-positive,subjective,objective,B,NULL
1744129237,336a2f021cd07a1f1196a3c80429bfe8,PennController,16,0,test_so,NULL,PennController,27,_Header_,Start,1744128826077,undefined,1029,accurate,objective-positive,subjective,objective,B,NULL
1744129237,336a2f021cd07a1f1196a3c80429bfe8,PennController,16,0,test_so,NULL,PennController,27,_Header_,End,1744128826330,undefined,1029,accurate,objective-positive,subjective,objective,B,NULL
1744129237,336a2f021cd07a1f1196a3c80429bfe8,PennController,16,0,test_so,NULL,Selector,unnamed-Selector,Selection,objective,1744128827860,undefined,1029,accurate,objective-positive,subjective,objective,B,subjective;objective
1744129237,336a2f021cd07a1f1196a3c80429bfe8,PennController,16,0,test_so,NULL,PennController,27,_Trial_,End,1744128827860,undefined,1029,accurate,objective-positive,subjective,objective,B,NULL
1744129237,336a2f021cd07a1f1196a3c80429bfe8,PennController,8,0,test_so,NULL,PennController,19,_Trial_,Start,1744128827860,undefined,714,deadly,objective-negative,subjective,objective,B,NULL
1744129237,336a2f021cd07a1f1196a3c80429bfe8,PennController,8,0,test_so,NULL,PennController,19,_Header_,Start,1744128827860,undefined,714,deadly,objective-negative,subjective,objective,B,NULL
1744129237,336a2f021cd07a1f1196a3c80429bfe8,PennController,8,0,test_so,NULL,PennController,19,_Header_,End,1744128828112,undefined,714,deadly,objective-negative,subjective,objective,B,NULL
1744129237,336a2f021cd07a1f1196a3c80429bfe8,PennController,8,0,test_so,NULL,Selector,unnamed-Selector,Selection,subjective,1744128829331,undefined,714,deadly,objective-negative,subjective,objective,B,subjective;objective
1744129237,336a2f021cd07a1f1196a3c80429bfe8,PennController,8,0,test_so,NULL,PennController,19,_Trial_,End,1744128829331,undefined,714,deadly,objective-negative,subjective,objective,B,NULL
1744129237,336a2f021cd07a1f1196a3c80429bfe8,PennController,39,0,test_so,NULL,PennController,50,_Trial_,Start,1744128829332,undefined,2589,refreshing,subjective-positive,subjective,objective,B,NULL
1744129237,336a2f021cd07a1f1196a3c80429bfe8,PennController,39,0,test_so,NULL,PennController,50,_Header_,Start,1744128829332,undefined,2589,refreshing,subjective-positive,subjective,objective,B,NULL
1744129237,336a2f021cd07a1f1196a3c80429bfe8,PennController,39,0,test_so,NULL,PennController,50,_Header_,End,1744128829583,undefined,2589,refreshing,subjective-positive,subjective,objective,B,NULL
1744129237,336a2f021cd07a1f1196a3c80429bfe8,PennController,39,0,test_so,NULL,Selector,unnamed-Selector,Selection,subjective,1744128832675,undefined,2589,refreshing,subjective-positive,subjective,objective,B,subjective;objective
1744129237,336a2f021cd07a1f1196a3c80429bfe8,PennController,39,0,test_so,NULL,PennController,50,_Trial_,End,1744128832676,undefined,2589,refreshing,subjective-positive,subjective,objective,B,NULL
1744129237,336a2f021cd07a1f1196a3c80429bfe8,PennController,23,0,test_so,NULL,PennController,34,_Trial_,Start,1744128832676,undefined,1126,successful,objective-positive,subjective,objective,B,NULL
1744129237,336a2f021cd07a1f1196a3c80429bfe8,PennController,23,0,test_so,NULL,PennController,34,_Header_,Start,1744128832676,undefined,1126,successful,objective-positive,subjective,objective,B,NULL
1744129237,336a2f021cd07a1f1196a3c80429bfe8,PennController,23,0,test_so,NULL,PennController,34,_Header_,End,1744128832928,undefined,1126,successful,objective-positive,subjective,objective,B,NULL
1744129237,336a2f021cd07a1f1196a3c80429bfe8,PennController,23,0,test_so,NULL,Selector,unnamed-Selector,Selection,subjective,1744128834555,undefined,1126,successful,objective-positive,subjective,objective,B,subjective;objective
1744129237,336a2f021cd07a1f1196a3c80429bfe8,PennController,23,0,test_so,NULL,PennController,34,_Trial_,End,1744128834556,undefined,1126,successful,objective-positive,subjective,objective,B,NULL
1744129237,336a2f021cd07a1f1196a3c80429bfe8,PennController,26,0,test_so,NULL,PennController,37,_Trial_,Start,1744128834556,undefined,1631,hopeless,subjective-negative,subjective,objective,B,NULL
1744129237,336a2f021cd07a1f1196a3c80429bfe8,PennController,26,0,test_so,NULL,PennController,37,_Header_,Start,1744128834556,undefined,1631,hopeless,subjective-negative,subjective,objective,B,NULL
1744129237,336a2f021cd07a1f1196a3c80429bfe8,PennController,26,0,test_so,NULL,PennController,37,_Header_,End,1744128834808,undefined,1631,hopeless,subjective-negative,subjective,objective,B,NULL
1744129237,336a2f021cd07a1f1196a3c80429bfe8,PennController,26,0,test_so,NULL,Selector,unnamed-Selector,Selection,subjective,1744128836939,undefined,1631,hopeless,subjective-negative,subjective,objective,B,subjective;objective
1744129237,336a2f021cd07a1f1196a3c80429bfe8,PennController,26,0,test_so,NULL,PennController,37,_Trial_,End,1744128836940,undefined,1631,hopeless,subjective-negative,subjective,objective,B,NULL
1744129237,336a2f021cd07a1f1196a3c80429bfe8,PennController,7,0,test_so,NULL,PennController,18,_Trial_,Start,1744128836941,undefined,1248,unstable,objective-negative,subjective,objective,B,NULL
1744129237,336a2f021cd07a1f1196a3c80429bfe8,PennController,7,0,test_so,NULL,PennController,18,_Header_,Start,1744128836941,undefined,1248,unstable,objective-negative,subjective,objective,B,NULL
1744129237,336a2f021cd07a1f1196a3c80429bfe8,PennController,7,0,test_so,NULL,PennController,18,_Header_,End,1744128837194,undefined,1248,unstable,objective-negative,subjective,objective,B,NULL
1744129237,336a2f021cd07a1f1196a3c80429bfe8,PennController,7,0,test_so,NULL,Selector,unnamed-Selector,Selection,subjective,1744128838947,undefined,1248,unstable,objective-negative,subjective,objective,B,subjective;objective
1744129237,336a2f021cd07a1f1196a3c80429bfe8,PennController,7,0,test_so,NULL,PennController,18,_Trial_,End,1744128838948,undefined,1248,unstable,objective-negative,subjective,objective,B,NULL
1744129237,336a2f021cd07a1f1196a3c80429bfe8,PennController,24,0,test_so,NULL,PennController,35,_Trial_,Start,1744128838948,undefined,711,annoying,subjective-negative,subjective,objective,B,NULL
1744129237,336a2f021cd07a1f1196a3c80429bfe8,PennController,24,0,test_so,NULL,PennController,35,_Header_,Start,1744128838948,undefined,711,annoying,subjective-negative,subjective,objective,B,NULL
1744129237,336a2f021cd07a1f1196a3c80429bfe8,PennController,24,0,test_so,NULL,PennController,35,_Header_,End,1744128839198,undefined,711,annoying,subjective-negative,subjective,objective,B,NULL
1744129237,336a2f021cd07a1f1196a3c80429bfe8,PennController,24,0,test_so,NULL,Selector,unnamed-Selector,Selection,subjective,1744128840411,undefined,711,annoying,subjective-negative,subjective,objective,B,subjective;objective
1744129237,336a2f021cd07a1f1196a3c80429bfe8,PennController,24,0,test_so,NULL,PennController,35,_Trial_,End,1744128840412,undefined,711,annoying,subjective-negative,subjective,objective,B,NULL
1744129237,336a2f021cd07a1f1196a3c80429bfe8,PennController,36,0,test_so,NULL,PennController,47,_Trial_,Start,1744128840412,undefined,822,brilliant,subjective-positive,subjective,objective,B,NULL
1744129237,336a2f021cd07a1f1196a3c80429bfe8,PennController,36,0,test_so,NULL,PennController,47,_Header_,Start,1744128840412,undefined,822,brilliant,subjective-positive,subjective,objective,B,NULL
1744129237,336a2f021cd07a1f1196a3c80429bfe8,PennController,36,0,test_so,NULL,PennController,47,_Header_,End,1744128840662,undefined,822,brilliant,subjective-positive,subjective,objective,B,NULL
1744129237,336a2f021cd07a1f1196a3c80429bfe8,PennController,36,0,test_so,NULL,Selector,unnamed-Selector,Selection,subjective,1744128841987,undefined,822,brilliant,subjective-positive,subjective,objective,B,subjective;objective
1744129237,336a2f021cd07a1f1196a3c80429bfe8,PennController,36,0,test_so,NULL,PennController,47,_Trial_,End,1744128841988,undefined,822,brilliant,subjective-positive,subjective,objective,B,NULL
1744129237,336a2f021cd07a1f1196a3c80429bfe8,PennController,41,0,test_so,NULL,PennController,52,_Trial_,Start,1744128841988,undefined,783,optimistic,subjective-positive,subjective,objective,B,NULL
1744129237,336a2f021cd07a1f1196a3c80429bfe8,PennController,41,0,test_so,NULL,PennController,52,_Header_,Start,1744128841988,undefined,783,optimistic,subjective-positive,subjective,objective,B,NULL
1744129237,336a2f021cd07a1f1196a3c80429bfe8,PennController,41,0,test_so,NULL,PennController,52,_Header_,End,1744128842240,undefined,783,optimistic,subjective-positive,subjective,objective,B,NULL
1744129237,336a2f021cd07a1f1196a3c80429bfe8,PennController,41,0,test_so,NULL,Selector,unnamed-Selector,Selection,subjective,1744128843524,undefined,783,optimistic,subjective-positive,subjective,objective,B,subjective;objective
1744129237,336a2f021cd07a1f1196a3c80429bfe8,PennController,41,0,test_so,NULL,PennController,52,_Trial_,End,1744128843525,undefined,783,optimistic,subjective-positive,subjective,objective,B,NULL
1744129237,336a2f021cd07a1f1196a3c80429bfe8,PennController,29,0,test_so,NULL,PennController,40,_Trial_,Start,1744128843525,undefined,1205,impatient,subjective-negative,subjective,objective,B,NULL
1744129237,336a2f021cd07a1f1196a3c80429bfe8,PennController,29,0,test_so,NULL,PennController,40,_Header_,Start,1744128843525,undefined,1205,impatient,subjective-negative,subjective,objective,B,NULL
1744129237,336a2f021cd07a1f1196a3c80429bfe8,PennController,29,0,test_so,NULL,PennController,40,_Header_,End,1744128843778,undefined,1205,impatient,subjective-negative,subjective,objective,B,NULL
1744129237,336a2f021cd07a1f1196a3c80429bfe8,PennController,29,0,test_so,NULL,Selector,unnamed-Selector,Selection,subjective,1744128845484,undefined,1205,impatient,subjective-negative,subjective,objective,B,subjective;objective
1744129237,336a2f021cd07a1f1196a3c80429bfe8,PennController,29,0,test_so,NULL,PennController,40,_Trial_,End,1744128845484,undefined,1205,impatient,subjective-negative,subjective,objective,B,NULL
1744129237,336a2f021cd07a1f1196a3c80429bfe8,PennController,38,0,test_so,NULL,PennController,49,_Trial_,Start,1744128845485,undefined,746,admirable,subjective-positive,subjective,objective,B,NULL
1744129237,336a2f021cd07a1f1196a3c80429bfe8,PennController,38,0,test_so,NULL,PennController,49,_Header_,Start,1744128845485,undefined,746,admirable,subjective-positive,subjective,objective,B,NULL
1744129237,336a2f021cd07a1f1196a3c80429bfe8,PennController,38,0,test_so,NULL,PennController,49,_Header_,End,1744128845738,undefined,746,admirable,subjective-positive,subjective,objective,B,NULL
1744129237,336a2f021cd07a1f1196a3c80429bfe8,PennController,38,0,test_so,NULL,Selector,unnamed-Selector,Selection,subjective,1744128846987,undefined,746,admirable,subjective-positive,subjective,objective,B,subjective;objective
1744129237,336a2f021cd07a1f1196a3c80429bfe8,PennController,38,0,test_so,NULL,PennController,49,_Trial_,End,1744128846988,undefined,746,admirable,subjective-positive,subjective,objective,B,NULL
1744129237,336a2f021cd07a1f1196a3c80429bfe8,PennController,14,0,test_so,NULL,PennController,25,_Trial_,Start,1744128846988,undefined,1575,valuable,objective-positive,subjective,objective,B,NULL
1744129237,336a2f021cd07a1f1196a3c80429bfe8,PennController,14,0,test_so,NULL,PennController,25,_Header_,Start,1744128846988,undefined,1575,valuable,objective-positive,subjective,objective,B,NULL
1744129237,336a2f021cd07a1f1196a3c80429bfe8,PennController,14,0,test_so,NULL,PennController,25,_Header_,End,1744128847241,undefined,1575,valuable,objective-positive,subjective,objective,B,NULL
1744129237,336a2f021cd07a1f1196a3c80429bfe8,PennController,14,0,test_so,NULL,Selector,unnamed-Selector,Selection,subjective,1744128849316,undefined,1575,valuable,objective-positive,subjective,objective,B,subjective;objective
1744129237,336a2f021cd07a1f1196a3c80429bfe8,PennController,14,0,test_so,NULL,PennController,25,_Trial_,End,1744128849316,undefined,1575,valuable,objective-positive,subjective,objective,B,NULL
1744129237,336a2f021cd07a1f1196a3c80429bfe8,PennController,9,0,test_so,NULL,PennController,20,_Trial_,Start,1744128849317,undefined,1246,faulty,objective-negative,subjective,objective,B,NULL
1744129237,336a2f021cd07a1f1196a3c80429bfe8,PennController,9,0,test_so,NULL,PennController,20,_Header_,Start,1744128849317,undefined,1246,faulty,objective-negative,subjective,objective,B,NULL
1744129237,336a2f021cd07a1f1196a3c80429bfe8,PennController,9,0,test_so,NULL,PennController,20,_Header_,End,1744128849570,undefined,1246,faulty,objective-negative,subjective,objective,B,NULL
1744129237,336a2f021cd07a1f1196a3c80429bfe8,PennController,9,0,test_so,NULL,Selector,unnamed-Selector,Selection,objective,1744128851316,undefined,1246,faulty,objective-negative,subjective,objective,B,subjective;objective
1744129237,336a2f021cd07a1f1196a3c80429bfe8,PennController,9,0,test_so,NULL,PennController,20,_Trial_,End,1744128851316,undefined,1246,faulty,objective-negative,subjective,objective,B,NULL
1744129237,336a2f021cd07a1f1196a3c80429bfe8,PennController,19,0,test_so,NULL,PennController,30,_Trial_,Start,1744128851317,undefined,973,efficient,objective-positive,subjective,objective,B,NULL
1744129237,336a2f021cd07a1f1196a3c80429bfe8,PennController,19,0,test_so,NULL,PennController,30,_Header_,Start,1744128851317,undefined,973,efficient,objective-positive,subjective,objective,B,NULL
1744129237,336a2f021cd07a1f1196a3c80429bfe8,PennController,19,0,test_so,NULL,PennController,30,_Header_,End,1744128851570,undefined,973,efficient,objective-positive,subjective,objective,B,NULL
1744129237,336a2f021cd07a1f1196a3c80429bfe8,PennController,19,0,test_so,NULL,Selector,unnamed-Selector,Selection,subjective,1744128853044,undefined,973,efficient,objective-positive,subjective,objective,B,subjective;objective
1744129237,336a2f021cd07a1f1196a3c80429bfe8,PennController,19,0,test_so,NULL,PennController,30,_Trial_,End,1744128853044,undefined,973,efficient,objective-positive,subjective,objective,B,NULL
1744129237,336a2f021cd07a1f1196a3c80429bfe8,PennController,27,0,test_so,NULL,PennController,38,_Trial_,Start,1744128853045,undefined,702,arrogant,subjective-negative,subjective,objective,B,NULL
1744129237,336a2f021cd07a1f1196a3c80429bfe8,PennController,27,0,test_so,NULL,PennController,38,_Header_,Start,1744128853045,undefined,702,arrogant,subjective-negative,subjective,objective,B,NULL
1744129237,336a2f021cd07a1f1196a3c80429bfe8,PennController,27,0,test_so,NULL,PennController,38,_Header_,End,1744128853295,undefined,702,arrogant,subjective-negative,subjective,objective,B,NULL
1744129237,336a2f021cd07a1f1196a3c80429bfe8,PennController,27,0,test_so,NULL,Selector,unnamed-Selector,Selection,subjective,1744128854500,undefined,702,arrogant,subjective-negative,subjective,objective,B,subjective;objective
1744129237,336a2f021cd07a1f1196a3c80429bfe8,PennController,27,0,test_so,NULL,PennController,38,_Trial_,End,1744128854500,undefined,702,arrogant,subjective-negative,subjective,objective,B,NULL
1744129237,336a2f021cd07a1f1196a3c80429bfe8,PennController,28,0,test_so,NULL,PennController,39,_Trial_,Start,1744128854501,undefined,923,pointless,subjective-negative,subjective,objective,B,NULL
1744129237,336a2f021cd07a1f1196a3c80429bfe8,PennController,28,0,test_so,NULL,PennController,39,_Header_,Start,1744128854501,undefined,923,pointless,subjective-negative,subjective,objective,B,NULL
1744129237,336a2f021cd07a1f1196a3c80429bfe8,PennController,28,0,test_so,NULL,PennController,39,_Header_,End,1744128854753,undefined,923,pointless,subjective-negative,subjective,objective,B,NULL
1744129237,336a2f021cd07a1f1196a3c80429bfe8,PennController,28,0,test_so,NULL,Selector,unnamed-Selector,Selection,subjective,1744128856180,undefined,923,pointless,subjective-negative,subjective,objective,B,subjective;objective
1744129237,336a2f021cd07a1f1196a3c80429bfe8,PennController,28,0,test_so,NULL,PennController,39,_Trial_,End,1744128856180,undefined,923,pointless,subjective-negative,subjective,objective,B,NULL
1744129237,336a2f021cd07a1f1196a3c80429bfe8,PennController,25,0,test_so,NULL,PennController,36,_Trial_,Start,1744128856181,undefined,933,pathetic,subjective-negative,subjective,objective,B,NULL
1744129237,336a2f021cd07a1f1196a3c80429bfe8,PennController,25,0,test_so,NULL,PennController,36,_Header_,Start,1744128856181,undefined,933,pathetic,subjective-negative,subjective,objective,B,NULL
1744129237,336a2f021cd07a1f1196a3c80429bfe8,PennController,25,0,test_so,NULL,PennController,36,_Header_,End,1744128856431,undefined,933,pathetic,subjective-negative,subjective,objective,B,NULL
1744129237,336a2f021cd07a1f1196a3c80429bfe8,PennController,25,0,test_so,NULL,Selector,unnamed-Selector,Selection,subjective,1744128857868,undefined,933,pathetic,subjective-negative,subjective,objective,B,subjective;objective
1744129237,336a2f021cd07a1f1196a3c80429bfe8,PennController,25,0,test_so,NULL,PennController,36,_Trial_,End,1744128857868,undefined,933,pathetic,subjective-negative,subjective,objective,B,NULL
1744129237,336a2f021cd07a1f1196a3c80429bfe8,PennController,34,0,test_so,NULL,PennController,45,_Trial_,Start,1744128857869,undefined,620,delicious,subjective-positive,subjective,objective,B,NULL
1744129237,336a2f021cd07a1f1196a3c80429bfe8,PennController,34,0,test_so,NULL,PennController,45,_Header_,Start,1744128857869,undefined,620,delicious,subjective-positive,subjective,objective,B,NULL
1744129237,336a2f021cd07a1f1196a3c80429bfe8,PennController,34,0,test_so,NULL,PennController,45,_Header_,End,1744128858123,undefined,620,delicious,subjective-positive,subjective,objective,B,NULL
1744129237,336a2f021cd07a1f1196a3c80429bfe8,PennController,34,0,test_so,NULL,Selector,unnamed-Selector,Selection,subjective,1744128859244,undefined,620,delicious,subjective-positive,subjective,objective,B,subjective;objective
1744129237,336a2f021cd07a1f1196a3c80429bfe8,PennController,34,0,test_so,NULL,PennController,45,_Trial_,End,1744128859244,undefined,620,delicious,subjective-positive,subjective,objective,B,NULL
1744129237,336a2f021cd07a1f1196a3c80429bfe8,PennController,26,0,test_so,NULL,PennController,37,_Trial_,Start,1744128859245,undefined,527,hopeless,subjective-negative,subjective,objective,B,NULL
1744129237,336a2f021cd07a1f1196a3c80429bfe8,PennController,26,0,test_so,NULL,PennController,37,_Header_,Start,1744128859245,undefined,527,hopeless,subjective-negative,subjective,objective,B,NULL
1744129237,336a2f021cd07a1f1196a3c80429bfe8,PennController,26,0,test_so,NULL,PennController,37,_Header_,End,1744128859495,undefined,527,hopeless,subjective-negative,subjective,objective,B,NULL
1744129237,336a2f021cd07a1f1196a3c80429bfe8,PennController,26,0,test_so,NULL,Selector,unnamed-Selector,Selection,subjective,1744128860524,undefined,527,hopeless,subjective-negative,subjective,objective,B,subjective;objective
1744129237,336a2f021cd07a1f1196a3c80429bfe8,PennController,26,0,test_so,NULL,PennController,37,_Trial_,End,1744128860524,undefined,527,hopeless,subjective-negative,subjective,objective,B,NULL
1744129237,336a2f021cd07a1f1196a3c80429bfe8,PennController,23,0,test_so,NULL,PennController,34,_Trial_,Start,1744128860525,undefined,1037,successful,objective-positive,subjective,objective,B,NULL
1744129237,336a2f021cd07a1f1196a3c80429bfe8,PennController,23,0,test_so,NULL,PennController,34,_Header_,Start,1744128860525,undefined,1037,successful,objective-positive,subjective,objective,B,NULL
1744129237,336a2f021cd07a1f1196a3c80429bfe8,PennController,23,0,test_so,NULL,PennController,34,_Header_,End,1744128860775,undefined,1037,successful,objective-positive,subjective,objective,B,NULL
1744129237,336a2f021cd07a1f1196a3c80429bfe8,PennController,23,0,test_so,NULL,Selector,unnamed-Selector,Selection,subjective,1744128862316,undefined,1037,successful,objective-positive,subjective,objective,B,subjective;objective
1744129237,336a2f021cd07a1f1196a3c80429bfe8,PennController,23,0,test_so,NULL,PennController,34,_Trial_,End,1744128862316,undefined,1037,successful,objective-positive,subjective,objective,B,NULL
1744129237,336a2f021cd07a1f1196a3c80429bfe8,PennController,7,0,test_so,NULL,PennController,18,_Trial_,Start,1744128862317,undefined,924,unstable,objective-negative,subjective,objective,B,NULL
1744129237,336a2f021cd07a1f1196a3c80429bfe8,PennController,7,0,test_so,NULL,PennController,18,_Header_,Start,1744128862317,undefined,924,unstable,objective-negative,subjective,objective,B,NULL
1744129237,336a2f021cd07a1f1196a3c80429bfe8,PennController,7,0,test_so,NULL,PennController,18,_Header_,End,1744128862571,undefined,924,unstable,objective-negative,subjective,objective,B,NULL
1744129237,336a2f021cd07a1f1196a3c80429bfe8,PennController,7,0,test_so,NULL,Selector,unnamed-Selector,Selection,subjective,1744128863997,undefined,924,unstable,objective-negative,subjective,objective,B,subjective;objective
1744129237,336a2f021cd07a1f1196a3c80429bfe8,PennController,7,0,test_so,NULL,PennController,18,_Trial_,End,1744128863998,undefined,924,unstable,objective-negative,subjective,objective,B,NULL
1744129237,336a2f021cd07a1f1196a3c80429bfe8,PennController,31,0,test_so,NULL,PennController,42,_Trial_,Start,1744128863998,undefined,869,selfish,subjective-negative,subjective,objective,B,NULL
1744129237,336a2f021cd07a1f1196a3c80429bfe8,PennController,31,0,test_so,NULL,PennController,42,_Header_,Start,1744128863998,undefined,869,selfish,subjective-negative,subjective,objective,B,NULL
1744129237,336a2f021cd07a1f1196a3c80429bfe8,PennController,31,0,test_so,NULL,PennController,42,_Header_,End,1744128864250,undefined,869,selfish,subjective-negative,subjective,objective,B,NULL
1744129237,336a2f021cd07a1f1196a3c80429bfe8,PennController,31,0,test_so,NULL,Selector,unnamed-Selector,Selection,subjective,1744128865620,undefined,869,selfish,subjective-negative,subjective,objective,B,subjective;objective
1744129237,336a2f021cd07a1f1196a3c80429bfe8,PennController,31,0,test_so,NULL,PennController,42,_Trial_,End,1744128865620,undefined,869,selfish,subjective-negative,subjective,objective,B,NULL
1744129237,336a2f021cd07a1f1196a3c80429bfe8,PennController,6,0,test_so,NULL,PennController,17,_Trial_,Start,1744128865621,undefined,663,bankrupt,objective-negative,subjective,objective,B,NULL
1744129237,336a2f021cd07a1f1196a3c80429bfe8,PennController,6,0,test_so,NULL,PennController,17,_Header_,Start,1744128865621,undefined,663,bankrupt,objective-negative,subjective,objective,B,NULL
1744129237,336a2f021cd07a1f1196a3c80429bfe8,PennController,6,0,test_so,NULL,PennController,17,_Header_,End,1744128865872,undefined,663,bankrupt,objective-negative,subjective,objective,B,NULL
1744129237,336a2f021cd07a1f1196a3c80429bfe8,PennController,6,0,test_so,NULL,Selector,unnamed-Selector,Selection,objective,1744128867036,undefined,663,bankrupt,objective-negative,subjective,objective,B,subjective;objective
1744129237,336a2f021cd07a1f1196a3c80429bfe8,PennController,6,0,test_so,NULL,PennController,17,_Trial_,End,1744128867036,undefined,663,bankrupt,objective-negative,subjective,objective,B,NULL
1744129237,336a2f021cd07a1f1196a3c80429bfe8,PennController,41,0,test_so,NULL,PennController,52,_Trial_,Start,1744128867037,undefined,879,optimistic,subjective-positive,subjective,objective,B,NULL
1744129237,336a2f021cd07a1f1196a3c80429bfe8,PennController,41,0,test_so,NULL,PennController,52,_Header_,Start,1744128867037,undefined,879,optimistic,subjective-positive,subjective,objective,B,NULL
1744129237,336a2f021cd07a1f1196a3c80429bfe8,PennController,41,0,test_so,NULL,PennController,52,_Header_,End,1744128867289,undefined,879,optimistic,subjective-positive,subjective,objective,B,NULL
1744129237,336a2f021cd07a1f1196a3c80429bfe8,PennController,41,0,test_so,NULL,Selector,unnamed-Selector,Selection,subjective,1744128868668,undefined,879,optimistic,subjective-positive,subjective,objective,B,subjective;objective
1744129237,336a2f021cd07a1f1196a3c80429bfe8,PennController,41,0,test_so,NULL,PennController,52,_Trial_,End,1744128868668,undefined,879,optimistic,subjective-positive,subjective,objective,B,NULL
1744129237,336a2f021cd07a1f1196a3c80429bfe8,PennController,16,0,test_so,NULL,PennController,27,_Trial_,Start,1744128868669,undefined,847,accurate,objective-positive,subjective,objective,B,NULL
1744129237,336a2f021cd07a1f1196a3c80429bfe8,PennController,16,0,test_so,NULL,PennController,27,_Header_,Start,1744128868669,undefined,847,accurate,objective-positive,subjective,objective,B,NULL
1744129237,336a2f021cd07a1f1196a3c80429bfe8,PennController,16,0,test_so,NULL,PennController,27,_Header_,End,1744128868920,undefined,847,accurate,objective-positive,subjective,objective,B,NULL
1744129237,336a2f021cd07a1f1196a3c80429bfe8,PennController,16,0,test_so,NULL,Selector,unnamed-Selector,Selection,objective,1744128870268,undefined,847,accurate,objective-positive,subjective,objective,B,subjective;objective
1744129237,336a2f021cd07a1f1196a3c80429bfe8,PennController,16,0,test_so,NULL,PennController,27,_Trial_,End,1744128870268,undefined,847,accurate,objective-positive,subjective,objective,B,NULL
1744129237,336a2f021cd07a1f1196a3c80429bfe8,PennController,24,0,test_so,NULL,PennController,35,_Trial_,Start,1744128870269,undefined,648,annoying,subjective-negative,subjective,objective,B,NULL
1744129237,336a2f021cd07a1f1196a3c80429bfe8,PennController,24,0,test_so,NULL,PennController,35,_Header_,Start,1744128870269,undefined,648,annoying,subjective-negative,subjective,objective,B,NULL
1744129237,336a2f021cd07a1f1196a3c80429bfe8,PennController,24,0,test_so,NULL,PennController,35,_Header_,End,1744128870520,undefined,648,annoying,subjective-negative,subjective,objective,B,NULL
1744129237,336a2f021cd07a1f1196a3c80429bfe8,PennController,24,0,test_so,NULL,Selector,unnamed-Selector,Selection,subjective,1744128871669,undefined,648,annoying,subjective-negative,subjective,objective,B,subjective;objective
1744129237,336a2f021cd07a1f1196a3c80429bfe8,PennController,24,0,test_so,NULL,PennController,35,_Trial_,End,1744128871669,undefined,648,annoying,subjective-negative,subjective,objective,B,NULL
1744129237,336a2f021cd07a1f1196a3c80429bfe8,PennController,9,0,test_so,NULL,PennController,20,_Trial_,Start,1744128871670,undefined,1150,faulty,objective-negative,subjective,objective,B,NULL
1744129237,336a2f021cd07a1f1196a3c80429bfe8,PennController,9,0,test_so,NULL,PennController,20,_Header_,Start,1744128871670,undefined,1150,faulty,objective-negative,subjective,objective,B,NULL
1744129237,336a2f021cd07a1f1196a3c80429bfe8,PennController,9,0,test_so,NULL,PennController,20,_Header_,End,1744128871920,undefined,1150,faulty,objective-negative,subjective,objective,B,NULL
1744129237,336a2f021cd07a1f1196a3c80429bfe8,PennController,9,0,test_so,NULL,Selector,unnamed-Selector,Selection,objective,1744128873572,undefined,1150,faulty,objective-negative,subjective,objective,B,subjective;objective
1744129237,336a2f021cd07a1f1196a3c80429bfe8,PennController,9,0,test_so,NULL,PennController,20,_Trial_,End,1744128873572,undefined,1150,faulty,objective-negative,subjective,objective,B,NULL
1744129237,336a2f021cd07a1f1196a3c80429bfe8,PennController,32,0,test_so,NULL,PennController,43,_Trial_,Start,1744128873573,undefined,841,cynical,subjective-negative,subjective,objective,B,NULL
1744129237,336a2f021cd07a1f1196a3c80429bfe8,PennController,32,0,test_so,NULL,PennController,43,_Header_,Start,1744128873573,undefined,841,cynical,subjective-negative,subjective,objective,B,NULL
1744129237,336a2f021cd07a1f1196a3c80429bfe8,PennController,32,0,test_so,NULL,PennController,43,_Header_,End,1744128873823,undefined,841,cynical,subjective-negative,subjective,objective,B,NULL
1744129237,336a2f021cd07a1f1196a3c80429bfe8,PennController,32,0,test_so,NULL,Selector,unnamed-Selector,Selection,subjective,1744128875165,undefined,841,cynical,subjective-negative,subjective,objective,B,subjective;objective
1744129237,336a2f021cd07a1f1196a3c80429bfe8,PennController,32,0,test_so,NULL,PennController,43,_Trial_,End,1744128875166,undefined,841,cynical,subjective-negative,subjective,objective,B,NULL
1744129237,336a2f021cd07a1f1196a3c80429bfe8,PennController,34,0,test_so,NULL,PennController,45,_Trial_,Start,1744128875166,undefined,674,delicious,subjective-positive,subjective,objective,B,NULL
1744129237,336a2f021cd07a1f1196a3c80429bfe8,PennController,34,0,test_so,NULL,PennController,45,_Header_,Start,1744128875166,undefined,674,delicious,subjective-positive,subjective,objective,B,NULL
1744129237,336a2f021cd07a1f1196a3c80429bfe8,PennController,34,0,test_so,NULL,PennController,45,_Header_,End,1744128875421,undefined,674,delicious,subjective-positive,subjective,objective,B,NULL
1744129237,336a2f021cd07a1f1196a3c80429bfe8,PennController,34,0,test_so,NULL,Selector,unnamed-Selector,Selection,subjective,1744128876596,undefined,674,delicious,subjective-positive,subjective,objective,B,subjective;objective
1744129237,336a2f021cd07a1f1196a3c80429bfe8,PennController,34,0,test_so,NULL,PennController,45,_Trial_,End,1744128876596,undefined,674,delicious,subjective-positive,subjective,objective,B,NULL
1744129237,336a2f021cd07a1f1196a3c80429bfe8,PennController,39,0,test_so,NULL,PennController,50,_Trial_,Start,1744128876597,undefined,501,refreshing,subjective-positive,subjective,objective,B,NULL
1744129237,336a2f021cd07a1f1196a3c80429bfe8,PennController,39,0,test_so,NULL,PennController,50,_Header_,Start,1744128876597,undefined,501,refreshing,subjective-positive,subjective,objective,B,NULL
1744129237,336a2f021cd07a1f1196a3c80429bfe8,PennController,39,0,test_so,NULL,PennController,50,_Header_,End,1744128876847,undefined,501,refreshing,subjective-positive,subjective,objective,B,NULL
1744129237,336a2f021cd07a1f1196a3c80429bfe8,PennController,39,0,test_so,NULL,Selector,unnamed-Selector,Selection,subjective,1744128877852,undefined,501,refreshing,subjective-positive,subjective,objective,B,subjective;objective
1744129237,336a2f021cd07a1f1196a3c80429bfe8,PennController,39,0,test_so,NULL,PennController,50,_Trial_,End,1744128877852,undefined,501,refreshing,subjective-positive,subjective,objective,B,NULL
1744129237,336a2f021cd07a1f1196a3c80429bfe8,PennController,19,0,test_so,NULL,PennController,30,_Trial_,Start,1744128877853,undefined,734,efficient,objective-positive,subjective,objective,B,NULL
1744129237,336a2f021cd07a1f1196a3c80429bfe8,PennController,19,0,test_so,NULL,PennController,30,_Header_,Start,1744128877853,undefined,734,efficient,objective-positive,subjective,objective,B,NULL
1744129237,336a2f021cd07a1f1196a3c80429bfe8,PennController,19,0,test_so,NULL,PennController,30,_Header_,End,1744128878103,undefined,734,efficient,objective-positive,subjective,objective,B,NULL
1744129237,336a2f021cd07a1f1196a3c80429bfe8,PennController,19,0,test_so,NULL,Selector,unnamed-Selector,Selection,subjective,1744128879340,undefined,734,efficient,objective-positive,subjective,objective,B,subjective;objective
1744129237,336a2f021cd07a1f1196a3c80429bfe8,PennController,19,0,test_so,NULL,PennController,30,_Trial_,End,1744128879340,undefined,734,efficient,objective-positive,subjective,objective,B,NULL
1744129237,336a2f021cd07a1f1196a3c80429bfe8,PennController,30,0,test_so,NULL,PennController,41,_Trial_,Start,1744128879341,undefined,541,hostile,subjective-negative,subjective,objective,B,NULL
1744129237,336a2f021cd07a1f1196a3c80429bfe8,PennController,30,0,test_so,NULL,PennController,41,_Header_,Start,1744128879341,undefined,541,hostile,subjective-negative,subjective,objective,B,NULL
1744129237,336a2f021cd07a1f1196a3c80429bfe8,PennController,30,0,test_so,NULL,PennController,41,_Header_,End,1744128879595,undefined,541,hostile,subjective-negative,subjective,objective,B,NULL
1744129237,336a2f021cd07a1f1196a3c80429bfe8,PennController,30,0,test_so,NULL,Selector,unnamed-Selector,Selection,subjective,1744128880637,undefined,541,hostile,subjective-negative,subjective,objective,B,subjective;objective
1744129237,336a2f021cd07a1f1196a3c80429bfe8,PennController,30,0,test_so,NULL,PennController,41,_Trial_,End,1744128880637,undefined,541,hostile,subjective-negative,subjective,objective,B,NULL
1744129237,336a2f021cd07a1f1196a3c80429bfe8,PennController,35,0,test_so,NULL,PennController,46,_Trial_,Start,1744128880638,undefined,527,beautiful,subjective-positive,subjective,objective,B,NULL
1744129237,336a2f021cd07a1f1196a3c80429bfe8,PennController,35,0,test_so,NULL,PennController,46,_Header_,Start,1744128880638,undefined,527,beautiful,subjective-positive,subjective,objective,B,NULL
1744129237,336a2f021cd07a1f1196a3c80429bfe8,PennController,35,0,test_so,NULL,PennController,46,_Header_,End,1744128880891,undefined,527,beautiful,subjective-positive,subjective,objective,B,NULL
1744129237,336a2f021cd07a1f1196a3c80429bfe8,PennController,35,0,test_so,NULL,Selector,unnamed-Selector,Selection,subjective,1744128881923,undefined,527,beautiful,subjective-positive,subjective,objective,B,subjective;objective
1744129237,336a2f021cd07a1f1196a3c80429bfe8,PennController,35,0,test_so,NULL,PennController,46,_Trial_,End,1744128881924,undefined,527,beautiful,subjective-positive,subjective,objective,B,NULL
1744129237,336a2f021cd07a1f1196a3c80429bfe8,PennController,13,0,test_so,NULL,PennController,24,_Trial_,Start,1744128881924,undefined,397,unfit,objective-negative,subjective,objective,B,NULL
1744129237,336a2f021cd07a1f1196a3c80429bfe8,PennController,13,0,test_so,NULL,PennController,24,_Header_,Start,1744128881924,undefined,397,unfit,objective-negative,subjective,objective,B,NULL
1744129237,336a2f021cd07a1f1196a3c80429bfe8,PennController,13,0,test_so,NULL,PennController,24,_Header_,End,1744128882176,undefined,397,unfit,objective-negative,subjective,objective,B,NULL
1744129237,336a2f021cd07a1f1196a3c80429bfe8,PennController,13,0,test_so,NULL,Selector,unnamed-Selector,Selection,subjective,1744128883076,undefined,397,unfit,objective-negative,subjective,objective,B,subjective;objective
1744129237,336a2f021cd07a1f1196a3c80429bfe8,PennController,13,0,test_so,NULL,PennController,24,_Trial_,End,1744128883077,undefined,397,unfit,objective-negative,subjective,objective,B,NULL
1744129237,336a2f021cd07a1f1196a3c80429bfe8,PennController,29,0,test_so,NULL,PennController,40,_Trial_,Start,1744128883077,undefined,630,impatient,subjective-negative,subjective,objective,B,NULL
1744129237,336a2f021cd07a1f1196a3c80429bfe8,PennController,29,0,test_so,NULL,PennController,40,_Header_,Start,1744128883077,undefined,630,impatient,subjective-negative,subjective,objective,B,NULL
1744129237,336a2f021cd07a1f1196a3c80429bfe8,PennController,29,0,test_so,NULL,PennController,40,_Header_,End,1744128883329,undefined,630,impatient,subjective-negative,subjective,objective,B,NULL
1744129237,336a2f021cd07a1f1196a3c80429bfe8,PennController,29,0,test_so,NULL,Selector,unnamed-Selector,Selection,subjective,1744128884460,undefined,630,impatient,subjective-negative,subjective,objective,B,subjective;objective
1744129237,336a2f021cd07a1f1196a3c80429bfe8,PennController,29,0,test_so,NULL,PennController,40,_Trial_,End,1744128884460,undefined,630,impatient,subjective-negative,subjective,objective,B,NULL
1744129237,336a2f021cd07a1f1196a3c80429bfe8,PennController,12,0,test_so,NULL,PennController,23,_Trial_,Start,1744128884461,undefined,558,toxic,objective-negative,subjective,objective,B,NULL
1744129237,336a2f021cd07a1f1196a3c80429bfe8,PennController,12,0,test_so,NULL,PennController,23,_Header_,Start,1744128884461,undefined,558,toxic,objective-negative,subjective,objective,B,NULL
1744129237,336a2f021cd07a1f1196a3c80429bfe8,PennController,12,0,test_so,NULL,PennController,23,_Header_,End,1744128884711,undefined,558,toxic,objective-negative,subjective,objective,B,NULL
1744129237,336a2f021cd07a1f1196a3c80429bfe8,PennController,12,0,test_so,NULL,Selector,unnamed-Selector,Selection,subjective,1744128885772,undefined,558,toxic,objective-negative,subjective,objective,B,subjective;objective
1744129237,336a2f021cd07a1f1196a3c80429bfe8,PennController,12,0,test_so,NULL,PennController,23,_Trial_,End,1744128885772,undefined,558,toxic,objective-negative,subjective,objective,B,NULL
1744129237,336a2f021cd07a1f1196a3c80429bfe8,PennController,8,0,test_so,NULL,PennController,19,_Trial_,Start,1744128885773,undefined,781,deadly,objective-negative,subjective,objective,B,NULL
1744129237,336a2f021cd07a1f1196a3c80429bfe8,PennController,8,0,test_so,NULL,PennController,19,_Header_,Start,1744128885773,undefined,781,deadly,objective-negative,subjective,objective,B,NULL
1744129237,336a2f021cd07a1f1196a3c80429bfe8,PennController,8,0,test_so,NULL,PennController,19,_Header_,End,1744128886026,undefined,781,deadly,objective-negative,subjective,objective,B,NULL
1744129237,336a2f021cd07a1f1196a3c80429bfe8,PennController,8,0,test_so,NULL,Selector,unnamed-Selector,Selection,objective,1744128887308,undefined,781,deadly,objective-negative,subjective,objective,B,subjective;objective
1744129237,336a2f021cd07a1f1196a3c80429bfe8,PennController,8,0,test_so,NULL,PennController,19,_Trial_,End,1744128887308,undefined,781,deadly,objective-negative,subjective,objective,B,NULL
1744129237,336a2f021cd07a1f1196a3c80429bfe8,PennController,18,0,test_so,NULL,PennController,29,_Trial_,Start,1744128887309,undefined,979,effective,objective-positive,subjective,objective,B,NULL
1744129237,336a2f021cd07a1f1196a3c80429bfe8,PennController,18,0,test_so,NULL,PennController,29,_Header_,Start,1744128887309,undefined,979,effective,objective-positive,subjective,objective,B,NULL
1744129237,336a2f021cd07a1f1196a3c80429bfe8,PennController,18,0,test_so,NULL,PennController,29,_Header_,End,1744128887561,undefined,979,effective,objective-positive,subjective,objective,B,NULL
1744129237,336a2f021cd07a1f1196a3c80429bfe8,PennController,18,0,test_so,NULL,Selector,unnamed-Selector,Selection,subjective,1744128889044,undefined,979,effective,objective-positive,subjective,objective,B,subjective;objective
1744129237,336a2f021cd07a1f1196a3c80429bfe8,PennController,18,0,test_so,NULL,PennController,29,_Trial_,End,1744128889044,undefined,979,effective,objective-positive,subjective,objective,B,NULL
1744129237,336a2f021cd07a1f1196a3c80429bfe8,PennController,20,0,test_so,NULL,PennController,31,_Trial_,Start,1744128889045,undefined,454,efficient,objective-positive,subjective,objective,B,NULL
1744129237,336a2f021cd07a1f1196a3c80429bfe8,PennController,20,0,test_so,NULL,PennController,31,_Header_,Start,1744128889045,undefined,454,efficient,objective-positive,subjective,objective,B,NULL
1744129237,336a2f021cd07a1f1196a3c80429bfe8,PennController,20,0,test_so,NULL,PennController,31,_Header_,End,1744128889296,undefined,454,efficient,objective-positive,subjective,objective,B,NULL
1744129237,336a2f021cd07a1f1196a3c80429bfe8,PennController,20,0,test_so,NULL,Selector,unnamed-Selector,Selection,subjective,1744128890251,undefined,454,efficient,objective-positive,subjective,objective,B,subjective;objective
1744129237,336a2f021cd07a1f1196a3c80429bfe8,PennController,20,0,test_so,NULL,PennController,31,_Trial_,End,1744128890252,undefined,454,efficient,objective-positive,subjective,objective,B,NULL
1744129237,336a2f021cd07a1f1196a3c80429bfe8,PennController,5,0,test_so,NULL,PennController,16,_Trial_,Start,1744128890252,undefined,437,corrupt,objective-negative,subjective,objective,B,NULL
1744129237,336a2f021cd07a1f1196a3c80429bfe8,PennController,5,0,test_so,NULL,PennController,16,_Header_,Start,1744128890252,undefined,437,corrupt,objective-negative,subjective,objective,B,NULL
1744129237,336a2f021cd07a1f1196a3c80429bfe8,PennController,5,0,test_so,NULL,PennController,16,_Header_,End,1744128890503,undefined,437,corrupt,objective-negative,subjective,objective,B,NULL
1744129237,336a2f021cd07a1f1196a3c80429bfe8,PennController,5,0,test_so,NULL,Selector,unnamed-Selector,Selection,subjective,1744128891445,undefined,437,corrupt,objective-negative,subjective,objective,B,subjective;objective
1744129237,336a2f021cd07a1f1196a3c80429bfe8,PennController,5,0,test_so,NULL,PennController,16,_Trial_,End,1744128891446,undefined,437,corrupt,objective-negative,subjective,objective,B,NULL
1744129237,336a2f021cd07a1f1196a3c80429bfe8,PennController,37,0,test_so,NULL,PennController,48,_Trial_,Start,1744128891447,undefined,456,authentic,subjective-positive,subjective,objective,B,NULL
1744129237,336a2f021cd07a1f1196a3c80429bfe8,PennController,37,0,test_so,NULL,PennController,48,_Header_,Start,1744128891447,undefined,456,authentic,subjective-positive,subjective,objective,B,NULL
1744129237,336a2f021cd07a1f1196a3c80429bfe8,PennController,37,0,test_so,NULL,PennController,48,_Header_,End,1744128891701,undefined,456,authentic,subjective-positive,subjective,objective,B,NULL
1744129237,336a2f021cd07a1f1196a3c80429bfe8,PennController,37,0,test_so,NULL,Selector,unnamed-Selector,Selection,subjective,1744128892660,undefined,456,authentic,subjective-positive,subjective,objective,B,subjective;objective
1744129237,336a2f021cd07a1f1196a3c80429bfe8,PennController,37,0,test_so,NULL,PennController,48,_Trial_,End,1744128892660,undefined,456,authentic,subjective-positive,subjective,objective,B,NULL
1744129237,336a2f021cd07a1f1196a3c80429bfe8,PennController,40,0,test_so,NULL,PennController,51,_Trial_,Start,1744128892661,undefined,549,harmonious,subjective-positive,subjective,objective,B,NULL
1744129237,336a2f021cd07a1f1196a3c80429bfe8,PennController,40,0,test_so,NULL,PennController,51,_Header_,Start,1744128892661,undefined,549,harmonious,subjective-positive,subjective,objective,B,NULL
1744129237,336a2f021cd07a1f1196a3c80429bfe8,PennController,40,0,test_so,NULL,PennController,51,_Header_,End,1744128892911,undefined,549,harmonious,subjective-positive,subjective,objective,B,NULL
1744129237,336a2f021cd07a1f1196a3c80429bfe8,PennController,40,0,test_so,NULL,Selector,unnamed-Selector,Selection,subjective,1744128893963,undefined,549,harmonious,subjective-positive,subjective,objective,B,subjective;objective
1744129237,336a2f021cd07a1f1196a3c80429bfe8,PennController,40,0,test_so,NULL,PennController,51,_Trial_,End,1744128893964,undefined,549,harmonious,subjective-positive,subjective,objective,B,NULL
1744129237,336a2f021cd07a1f1196a3c80429bfe8,PennController,38,0,test_so,NULL,PennController,49,_Trial_,Start,1744128893964,undefined,606,admirable,subjective-positive,subjective,objective,B,NULL
1744129237,336a2f021cd07a1f1196a3c80429bfe8,PennController,38,0,test_so,NULL,PennController,49,_Header_,Start,1744128893964,undefined,606,admirable,subjective-positive,subjective,objective,B,NULL
1744129237,336a2f021cd07a1f1196a3c80429bfe8,PennController,38,0,test_so,NULL,PennController,49,_Header_,End,1744128894215,undefined,606,admirable,subjective-positive,subjective,objective,B,NULL
1744129237,336a2f021cd07a1f1196a3c80429bfe8,PennController,38,0,test_so,NULL,Selector,unnamed-Selector,Selection,subjective,1744128895324,undefined,606,admirable,subjective-positive,subjective,objective,B,subjective;objective
1744129237,336a2f021cd07a1f1196a3c80429bfe8,PennController,38,0,test_so,NULL,PennController,49,_Trial_,End,1744128895324,undefined,606,admirable,subjective-positive,subjective,objective,B,NULL
1744129237,336a2f021cd07a1f1196a3c80429bfe8,PennController,33,0,test_so,NULL,PennController,44,_Trial_,Start,1744128895325,undefined,534,disgusting,subjective-negative,subjective,objective,B,NULL
1744129237,336a2f021cd07a1f1196a3c80429bfe8,PennController,33,0,test_so,NULL,PennController,44,_Header_,Start,1744128895325,undefined,534,disgusting,subjective-negative,subjective,objective,B,NULL
1744129237,336a2f021cd07a1f1196a3c80429bfe8,PennController,33,0,test_so,NULL,PennController,44,_Header_,End,1744128895577,undefined,534,disgusting,subjective-negative,subjective,objective,B,NULL
1744129237,336a2f021cd07a1f1196a3c80429bfe8,PennController,33,0,test_so,NULL,Selector,unnamed-Selector,Selection,subjective,1744128896612,undefined,534,disgusting,subjective-negative,subjective,objective,B,subjective;objective
1744129237,336a2f021cd07a1f1196a3c80429bfe8,PennController,33,0,test_so,NULL,PennController,44,_Trial_,End,1744128896613,undefined,534,disgusting,subjective-negative,subjective,objective,B,NULL
1744129237,336a2f021cd07a1f1196a3c80429bfe8,PennController,25,0,test_so,NULL,PennController,36,_Trial_,Start,1744128896613,undefined,539,pathetic,subjective-negative,subjective,objective,B,NULL
1744129237,336a2f021cd07a1f1196a3c80429bfe8,PennController,25,0,test_so,NULL,PennController,36,_Header_,Start,1744128896613,undefined,539,pathetic,subjective-negative,subjective,objective,B,NULL
1744129237,336a2f021cd07a1f1196a3c80429bfe8,PennController,25,0,test_so,NULL,PennController,36,_Header_,End,1744128896867,undefined,539,pathetic,subjective-negative,subjective,objective,B,NULL
1744129237,336a2f021cd07a1f1196a3c80429bfe8,PennController,25,0,test_so,NULL,Selector,unnamed-Selector,Selection,subjective,1744128897908,undefined,539,pathetic,subjective-negative,subjective,objective,B,subjective;objective
1744129237,336a2f021cd07a1f1196a3c80429bfe8,PennController,25,0,test_so,NULL,PennController,36,_Trial_,End,1744128897908,undefined,539,pathetic,subjective-negative,subjective,objective,B,NULL
1744129237,336a2f021cd07a1f1196a3c80429bfe8,PennController,11,0,test_so,NULL,PennController,22,_Trial_,Start,1744128897909,undefined,420,incurable,objective-negative,subjective,objective,B,NULL
1744129237,336a2f021cd07a1f1196a3c80429bfe8,PennController,11,0,test_so,NULL,PennController,22,_Header_,Start,1744128897909,undefined,420,incurable,objective-negative,subjective,objective,B,NULL
1744129237,336a2f021cd07a1f1196a3c80429bfe8,PennController,11,0,test_so,NULL,PennController,22,_Header_,End,1744128898162,undefined,420,incurable,objective-negative,subjective,objective,B,NULL
1744129237,336a2f021cd07a1f1196a3c80429bfe8,PennController,11,0,test_so,NULL,Selector,unnamed-Selector,Selection,subjective,1744128899084,undefined,420,incurable,objective-negative,subjective,objective,B,subjective;objective
1744129237,336a2f021cd07a1f1196a3c80429bfe8,PennController,11,0,test_so,NULL,PennController,22,_Trial_,End,1744128899084,undefined,420,incurable,objective-negative,subjective,objective,B,NULL
1744129237,336a2f021cd07a1f1196a3c80429bfe8,PennController,14,0,test_so,NULL,PennController,25,_Trial_,Start,1744128899084,undefined,961,valuable,objective-positive,subjective,objective,B,NULL
1744129237,336a2f021cd07a1f1196a3c80429bfe8,PennController,14,0,test_so,NULL,PennController,25,_Header_,Start,1744128899084,undefined,961,valuable,objective-positive,subjective,objective,B,NULL
1744129237,336a2f021cd07a1f1196a3c80429bfe8,PennController,14,0,test_so,NULL,PennController,25,_Header_,End,1744128899335,undefined,961,valuable,objective-positive,subjective,objective,B,NULL
1744129237,336a2f021cd07a1f1196a3c80429bfe8,PennController,14,0,test_so,NULL,Selector,unnamed-Selector,Selection,subjective,1744128900796,undefined,961,valuable,objective-positive,subjective,objective,B,subjective;objective
1744129237,336a2f021cd07a1f1196a3c80429bfe8,PennController,14,0,test_so,NULL,PennController,25,_Trial_,End,1744128900796,undefined,961,valuable,objective-positive,subjective,objective,B,NULL
1744129237,336a2f021cd07a1f1196a3c80429bfe8,PennController,15,0,test_so,NULL,PennController,26,_Trial_,Start,1744128900797,undefined,1273,accurate,objective-positive,subjective,objective,B,NULL
1744129237,336a2f021cd07a1f1196a3c80429bfe8,PennController,15,0,test_so,NULL,PennController,26,_Header_,Start,1744128900797,undefined,1273,accurate,objective-positive,subjective,objective,B,NULL
1744129237,336a2f021cd07a1f1196a3c80429bfe8,PennController,15,0,test_so,NULL,PennController,26,_Header_,End,1744128901051,undefined,1273,accurate,objective-positive,subjective,objective,B,NULL
1744129237,336a2f021cd07a1f1196a3c80429bfe8,PennController,15,0,test_so,NULL,Selector,unnamed-Selector,Selection,objective,1744128902827,undefined,1273,accurate,objective-positive,subjective,objective,B,subjective;objective
1744129237,336a2f021cd07a1f1196a3c80429bfe8,PennController,15,0,test_so,NULL,PennController,26,_Trial_,End,1744128902828,undefined,1273,accurate,objective-positive,subjective,objective,B,NULL
1744129237,336a2f021cd07a1f1196a3c80429bfe8,PennController,36,0,test_so,NULL,PennController,47,_Trial_,Start,1744128902828,undefined,560,brilliant,subjective-positive,subjective,objective,B,NULL
1744129237,336a2f021cd07a1f1196a3c80429bfe8,PennController,36,0,test_so,NULL,PennController,47,_Header_,Start,1744128902828,undefined,560,brilliant,subjective-positive,subjective,objective,B,NULL
1744129237,336a2f021cd07a1f1196a3c80429bfe8,PennController,36,0,test_so,NULL,PennController,47,_Header_,End,1744128903078,undefined,560,brilliant,subjective-positive,subjective,objective,B,NULL
1744129237,336a2f021cd07a1f1196a3c80429bfe8,PennController,36,0,test_so,NULL,Selector,unnamed-Selector,Selection,subjective,1744128904140,undefined,560,brilliant,subjective-positive,subjective,objective,B,subjective;objective
1744129237,336a2f021cd07a1f1196a3c80429bfe8,PennController,36,0,test_so,NULL,PennController,47,_Trial_,End,1744128904141,undefined,560,brilliant,subjective-positive,subjective,objective,B,NULL
1744129237,336a2f021cd07a1f1196a3c80429bfe8,PennController,21,0,test_so,NULL,PennController,32,_Trial_,Start,1744128904141,undefined,1212,healthy,objective-positive,subjective,objective,B,NULL
1744129237,336a2f021cd07a1f1196a3c80429bfe8,PennController,21,0,test_so,NULL,PennController,32,_Header_,Start,1744128904141,undefined,1212,healthy,objective-positive,subjective,objective,B,NULL
1744129237,336a2f021cd07a1f1196a3c80429bfe8,PennController,21,0,test_so,NULL,PennController,32,_Header_,End,1744128904392,undefined,1212,healthy,objective-positive,subjective,objective,B,NULL
1744129237,336a2f021cd07a1f1196a3c80429bfe8,PennController,21,0,test_so,NULL,Selector,unnamed-Selector,Selection,subjective,1744128906108,undefined,1212,healthy,objective-positive,subjective,objective,B,subjective;objective
1744129237,336a2f021cd07a1f1196a3c80429bfe8,PennController,21,0,test_so,NULL,PennController,32,_Trial_,End,1744128906109,undefined,1212,healthy,objective-positive,subjective,objective,B,NULL
1744129237,336a2f021cd07a1f1196a3c80429bfe8,PennController,27,0,test_so,NULL,PennController,38,_Trial_,Start,1744128906109,undefined,651,arrogant,subjective-negative,subjective,objective,B,NULL
1744129237,336a2f021cd07a1f1196a3c80429bfe8,PennController,27,0,test_so,NULL,PennController,38,_Header_,Start,1744128906109,undefined,651,arrogant,subjective-negative,subjective,objective,B,NULL
1744129237,336a2f021cd07a1f1196a3c80429bfe8,PennController,27,0,test_so,NULL,PennController,38,_Header_,End,1744128906362,undefined,651,arrogant,subjective-negative,subjective,objective,B,NULL
1744129237,336a2f021cd07a1f1196a3c80429bfe8,PennController,27,0,test_so,NULL,Selector,unnamed-Selector,Selection,subjective,1744128907516,undefined,651,arrogant,subjective-negative,subjective,objective,B,subjective;objective
1744129237,336a2f021cd07a1f1196a3c80429bfe8,PennController,27,0,test_so,NULL,PennController,38,_Trial_,End,1744128907517,undefined,651,arrogant,subjective-negative,subjective,objective,B,NULL
1744129237,336a2f021cd07a1f1196a3c80429bfe8,PennController,10,0,test_so,NULL,PennController,21,_Trial_,Start,1744128907517,undefined,853,defective,objective-negative,subjective,objective,B,NULL
1744129237,336a2f021cd07a1f1196a3c80429bfe8,PennController,10,0,test_so,NULL,PennController,21,_Header_,Start,1744128907517,undefined,853,defective,objective-negative,subjective,objective,B,NULL
1744129237,336a2f021cd07a1f1196a3c80429bfe8,PennController,10,0,test_so,NULL,PennController,21,_Header_,End,1744128907769,undefined,853,defective,objective-negative,subjective,objective,B,NULL
1744129237,336a2f021cd07a1f1196a3c80429bfe8,PennController,10,0,test_so,NULL,Selector,unnamed-Selector,Selection,objective,1744128909124,undefined,853,defective,objective-negative,subjective,objective,B,subjective;objective
1744129237,336a2f021cd07a1f1196a3c80429bfe8,PennController,10,0,test_so,NULL,PennController,21,_Trial_,End,1744128909125,undefined,853,defective,objective-negative,subjective,objective,B,NULL
1744129237,336a2f021cd07a1f1196a3c80429bfe8,PennController,4,0,test_so,NULL,PennController,15,_Trial_,Start,1744128909125,undefined,976,adverse,objective-negative,subjective,objective,B,NULL
1744129237,336a2f021cd07a1f1196a3c80429bfe8,PennController,4,0,test_so,NULL,PennController,15,_Header_,Start,1744128909125,undefined,976,adverse,objective-negative,subjective,objective,B,NULL
1744129237,336a2f021cd07a1f1196a3c80429bfe8,PennController,4,0,test_so,NULL,PennController,15,_Header_,End,1744128909376,undefined,976,adverse,objective-negative,subjective,objective,B,NULL
