"","ID.true","Word","Label","ConcValCombo","Task","BlockOrder","Group","Response","Accuracy","EventTime","Value","RT","ReactionTime","Key_value_F","Key_value_J","Comments","LogReactionTime","LogRT","TrialNumber"
"1","5930c7fdfa699e0001017cc1","unstable","test_val","objective-negative","Valence","VS","negative;positive","negative",1,1744116159822,"negative",1879.16666666667,933,"positive","B","",6.83840520084734,7.53858369514282,1
"2","5930c7fdfa699e0001017cc1","effective","test_val","objective-positive","Valence","VS","negative;positive","positive",1,1744116161261,"positive",1724.16666666667,683,"positive","B","",6.52649485957079,7.45249912095159,2
"3","5930c7fdfa699e0001017cc1","efficient","test_val","objective-positive","Valence","VS","negative;positive","positive",1,1744116162681,"positive",1705.16666666667,659,"positive","B","",6.49072353450251,7.44141813665088,3
"4","5930c7fdfa699e0001017cc1","reliable","test_val","objective-positive","Valence","VS","negative;positive","positive",1,1744116164117,"positive",1812.5,676,"positive","B","",6.51619307604296,7.50246238672883,4
"5","5930c7fdfa699e0001017cc1","beautiful","test_val","subjective-positive","Valence","VS","negative;positive","positive",1,1744116165532,"positive",2000.16666666667,658,"positive","B","",6.48920493132532,7.60098578940339,5
"6","5930c7fdfa699e0001017cc1","authentic","test_val","subjective-positive","Valence","VS","negative;positive","positive",1,1744116167006,"positive",2021.16666666667,709,"positive","B","",6.56385552653213,7.61143018142874,6
"7","5930c7fdfa699e0001017cc1","toxic","test_val","objective-negative","Valence","VS","negative;positive","negative",1,1744116168464,"negative",1675.83333333333,699,"positive","B","",6.54965074223381,7.4240658329787,7
"8","5930c7fdfa699e0001017cc1","refreshing","test_val","subjective-positive","Valence","VS","negative;positive","positive",1,1744116169952,"positive",1611.25,726,"positive","B","",6.5875500148248,7.3847655542534,8
"9","5930c7fdfa699e0001017cc1","arrogant","test_val","subjective-negative","Valence","VS","negative;positive","negative",1,1744116171446,"negative",1817.16666666667,730,"positive","B","",6.59304453414244,7.50503379047833,9
"10","5930c7fdfa699e0001017cc1","hostile","test_val","subjective-negative","Valence","VS","negative;positive","negative",1,1744116172906,"negative",2019.66666666667,700,"positive","B","",6.5510803350434,7.61068776027688,10
"11","5930c7fdfa699e0001017cc1","pointless","test_val","subjective-negative","Valence","VS","negative;positive","negative",1,1744116174336,"negative",1810.66666666667,672,"positive","B","",6.51025834052315,7.50145038057042,11
"12","5930c7fdfa699e0001017cc1","efficient","test_val","objective-positive","Valence","VS","negative;positive","positive",1,1744116175749,"positive",1705.16666666667,654,"positive","B","",6.4831073514572,7.44141813665088,12
"13","5930c7fdfa699e0001017cc1","unfit","test_val","objective-negative","Valence","VS","negative;positive","negative",1,1744116177340,"negative",1722.83333333333,826,"positive","B","",6.71659477352098,7.45172550134043,13
"14","5930c7fdfa699e0001017cc1","deadly","test_val","objective-negative","Valence","VS","negative;positive","negative",1,1744116178742,"negative",1567,645,"positive","B","",6.46925031679577,7.35691824235602,14
"15","5930c7fdfa699e0001017cc1","delicious","test_val","subjective-positive","Valence","VS","negative;positive","positive",1,1744116180125,"positive",1666.5,622,"positive","B","",6.43294009273918,7.41848089774779,15
"16","5930c7fdfa699e0001017cc1","profitable","test_val","objective-positive","Valence","VS","negative;positive","positive",1,1744116181549,"positive",1886,666,"positive","B","",6.50128967054039,7.5422134631934,16
"17","5930c7fdfa699e0001017cc1","passionate","test_val","subjective-positive","Valence","VS","negative;positive","positive",1,1744116183223,"positive",1982.16666666667,913,"positive","B","",6.81673588059497,7.59194580149919,17
"18","5930c7fdfa699e0001017cc1","selfish","test_val","subjective-negative","Valence","VS","negative;positive","negative",1,1744116184668,"negative",1888.33333333333,682,"positive","B","",6.52502965784346,7.543449884794,18
"19","5930c7fdfa699e0001017cc1","incurable","test_val","objective-negative","Valence","VS","negative;positive","negative",1,1744116186297,"negative",1739.16666666667,871,"positive","B","",6.7696419768525,7.46116135028325,19
"20","5930c7fdfa699e0001017cc1","brilliant","test_val","subjective-positive","Valence","VS","negative;positive","positive",1,1744116187695,"positive",1762.5,637,"positive","B","",6.45676965557216,7.47448853468642,20
"21","5930c7fdfa699e0001017cc1","defective","test_val","objective-negative","Valence","VS","negative;positive","negative",1,1744116189582,"negative",2172.83333333333,1128,"positive","B","",7.028201432058,7.68378727843472,21
"22","5930c7fdfa699e0001017cc1","impatient","test_val","subjective-negative","Valence","VS","negative;positive","negative",1,1744116191199,"negative",1868.5,856,"positive","B","",6.75227037614174,7.53289124892554,22
"23","5930c7fdfa699e0001017cc1","annoying","test_val","subjective-negative","Valence","VS","negative;positive","negative",1,1744116192721,"negative",1623.16666666667,763,"positive","B","",6.63725803128446,7.39213425273314,23
"24","5930c7fdfa699e0001017cc1","accurate","test_val","objective-positive","Valence","VS","negative;positive","positive",1,1744116194268,"positive",1797.41666666667,785,"positive","B","",6.66568371778241,7.49410572783437,24
"25","5930c7fdfa699e0001017cc1","hopeless","test_val","subjective-negative","Valence","VS","negative;positive","negative",1,1744116195699,"negative",2063,669,"positive","B","",6.50578406012823,7.63191651307125,25
"26","5930c7fdfa699e0001017cc1","optimistic","test_val","subjective-positive","Valence","VS","negative;positive","positive",1,1744116197294,"positive",1898.16666666667,833,"positive","B","",6.72503364216684,7.5486437870463,26
"27","5930c7fdfa699e0001017cc1","cynical","test_val","subjective-negative","Valence","VS","negative;positive","negative",1,1744116198999,"negative",1952.33333333333,945,"positive","B","",6.85118492749374,7.57678051742167,27
"28","5930c7fdfa699e0001017cc1","valuable","test_val","objective-positive","Valence","VS","negative;positive","positive",1,1744116200494,"positive",1977.5,738,"positive","B","",6.60394382460047,7.58958869964181,28
"29","5930c7fdfa699e0001017cc1","harmonious","test_val","subjective-positive","Valence","VS","negative;positive","positive",1,1744116202208,"positive",1947.5,953,"positive","B","",6.8596149036542,7.5743017777449,29
"30","5930c7fdfa699e0001017cc1","thoughtful","test_val","subjective-positive","Valence","VS","negative;positive","positive",1,1744116204326,"positive",1916.66666666667,1356,"positive","B","",7.21229446850034,7.55834284512329,30
"31","5930c7fdfa699e0001017cc1","adverse","test_val","objective-negative","Valence","VS","negative;positive","negative",1,1744116206248,"negative",1746.33333333333,1158,"positive","B","",7.05444965813294,7.46527363074011,31
"32","5930c7fdfa699e0001017cc1","bankrupt","test_val","objective-negative","Valence","VS","negative;positive","negative",1,1744116208114,"negative",1847,1108,"positive","B","",7.01031186730723,7.52131798019924,32
"33","5930c7fdfa699e0001017cc1","successful","test_val","objective-positive","Valence","VS","negative;positive","positive",1,1744116209893,"positive",1642,1022,"positive","B","",6.92951677076365,7.40367029001237,33
"34","5930c7fdfa699e0001017cc1","healthy","test_val","objective-positive","Valence","VS","negative;positive","positive",1,1744116211566,"positive",1717.66666666667,913,"positive","B","",6.81673588059497,7.44872205966011,34
"35","5930c7fdfa699e0001017cc1","accurate","test_val","objective-positive","Valence","VS","negative;positive","positive",1,1744116212994,"positive",1797.41666666667,668,"positive","B","",6.50428817353665,7.49410572783437,35
"36","5930c7fdfa699e0001017cc1","admirable","test_val","subjective-positive","Valence","VS","negative;positive","positive",1,1744116214646,"positive",1961.33333333333,895,"positive","B","",6.79682371827486,7.58137979305322,36
"37","5930c7fdfa699e0001017cc1","pathetic","test_val","subjective-negative","Valence","VS","negative;positive","negative",1,1744116216097,"negative",1775.66666666667,690,"positive","B","",6.5366915975913,7.48193121824889,37
"38","5930c7fdfa699e0001017cc1","corrupt","test_val","objective-negative","Valence","VS","negative;positive","negative",1,1744116217636,"negative",1743.16666666667,781,"positive","B","",6.66057514983969,7.46345866152621,38
"39","5930c7fdfa699e0001017cc1","disgusting","test_val","subjective-negative","Valence","VS","negative;positive","negative",1,1744116219337,"negative",1626.5,942,"positive","B","",6.84800527457636,7.39418574591341,39
"40","5930c7fdfa699e0001017cc1","faulty","test_val","objective-negative","Valence","VS","negative;positive","negative",1,1744116220868,"negative",1628.83333333333,768,"positive","B","",6.64378973314767,7.39561929111078,40
"41","5930c7fdfa699e0001017cc1","disgusting","test_val","subjective-negative","Valence","VS","negative;positive","negative",1,1744116222359,"negative",1626.5,729,"positive","B","",6.59167373200866,7.39418574591341,41
"42","5930c7fdfa699e0001017cc1","selfish","test_val","subjective-negative","Valence","VS","negative;positive","negative",1,1744116223766,"negative",1888.33333333333,649,"positive","B","",6.47543271670409,7.543449884794,42
"43","5930c7fdfa699e0001017cc1","toxic","test_val","objective-negative","Valence","VS","negative;positive","negative",1,1744116225083,"negative",1675.83333333333,556,"positive","B","",6.32076829425058,7.4240658329787,43
"44","5930c7fdfa699e0001017cc1","unstable","test_val","objective-negative","Valence","VS","negative;positive","negative",1,1744116226365,"negative",1879.16666666667,527,"positive","B","",6.26720054854136,7.53858369514282,44
"45","5930c7fdfa699e0001017cc1","thoughtful","test_val","subjective-positive","Valence","VS","negative;positive","positive",1,1744116228248,"positive",1916.66666666667,1126,"positive","B","",7.02642680869964,7.55834284512329,45
"46","5930c7fdfa699e0001017cc1","adverse","test_val","objective-negative","Valence","VS","negative;positive","negative",1,1744116229685,"negative",1746.33333333333,675,"positive","B","",6.51471269087253,7.46527363074011,46
"47","5930c7fdfa699e0001017cc1","effective","test_val","objective-positive","Valence","VS","negative;positive","positive",1,1744116231101,"positive",1724.16666666667,656,"positive","B","",6.48616078894409,7.45249912095159,47
"48","5930c7fdfa699e0001017cc1","healthy","test_val","objective-positive","Valence","VS","negative;positive","positive",1,1744116232475,"positive",1717.66666666667,618,"positive","B","",6.42648845745769,7.44872205966011,48
"49","5930c7fdfa699e0001017cc1","optimistic","test_val","subjective-positive","Valence","VS","negative;positive","positive",1,1744116233813,"positive",1898.16666666667,577,"positive","B","",6.3578422665081,7.5486437870463,49
"50","5930c7fdfa699e0001017cc1","pointless","test_val","subjective-negative","Valence","VS","negative;positive","negative",1,1744116235366,"negative",1810.66666666667,799,"positive","B","",6.68336094576627,7.50145038057042,50
"51","5930c7fdfa699e0001017cc1","defective","test_val","objective-negative","Valence","VS","negative;positive","negative",1,1744116237183,"negative",2172.83333333333,1058,"positive","B","",6.96413561241824,7.68378727843472,51
"52","5930c7fdfa699e0001017cc1","unfit","test_val","objective-negative","Valence","VS","negative;positive","negative",1,1744116238773,"negative",1722.83333333333,828,"positive","B","",6.71901315438526,7.45172550134043,52
"53","5930c7fdfa699e0001017cc1","beautiful","test_val","subjective-positive","Valence","VS","negative;positive","positive",1,1744116240124,"positive",2000.16666666667,587,"positive","B","",6.3750248198281,7.60098578940339,53
"54","5930c7fdfa699e0001017cc1","accurate","test_val","objective-positive","Valence","VS","negative;positive","positive",1,1744116241523,"positive",1797.41666666667,642,"positive","B","",6.46458830368996,7.49410572783437,54
"55","5930c7fdfa699e0001017cc1","annoying","test_val","subjective-negative","Valence","VS","negative;positive","negative",1,1744116242906,"negative",1623.16666666667,624,"positive","B","",6.43615036836943,7.39213425273314,55
"56","5930c7fdfa699e0001017cc1","hostile","test_val","subjective-negative","Valence","VS","negative;positive","negative",1,1744116244353,"negative",2019.66666666667,687,"positive","B","",6.53233429222235,7.61068776027688,56
"57","5930c7fdfa699e0001017cc1","impatient","test_val","subjective-negative","Valence","VS","negative;positive","negative",1,1744116245793,"negative",1868.5,682,"positive","B","",6.52502965784346,7.53289124892554,57
"58","5930c7fdfa699e0001017cc1","refreshing","test_val","subjective-positive","Valence","VS","negative;positive","positive",1,1744116247167,"positive",1611.25,616,"positive","B","",6.42324696353352,7.3847655542534,58
"59","5930c7fdfa699e0001017cc1","reliable","test_val","objective-positive","Valence","VS","negative;positive","positive",1,1744116248629,"positive",1812.5,706,"positive","B","",6.55961523749324,7.50246238672883,59
"60","5930c7fdfa699e0001017cc1","corrupt","test_val","objective-negative","Valence","VS","negative;positive","negative",1,1744116249985,"negative",1743.16666666667,599,"positive","B","",6.39526159811545,7.46345866152621,60
"61","5930c7fdfa699e0001017cc1","arrogant","test_val","subjective-negative","Valence","VS","negative;positive","negative",1,1744116251591,"negative",1817.16666666667,846,"positive","B","",6.74051935960622,7.50503379047833,61
"62","5930c7fdfa699e0001017cc1","profitable","test_val","objective-positive","Valence","VS","negative;positive","positive",1,1744116253129,"positive",1886,777,"positive","B","",6.65544035036765,7.5422134631934,62
"63","5930c7fdfa699e0001017cc1","hopeless","test_val","subjective-negative","Valence","VS","negative;positive","negative",1,1744116255289,"negative",2063,1397,"positive","B","",7.24208235925696,7.63191651307125,63
"64","5930c7fdfa699e0001017cc1","brilliant","test_val","subjective-positive","Valence","VS","negative;positive","positive",1,1744116256659,"positive",1762.5,607,"positive","B","",6.4085287910595,7.47448853468642,64
"65","5930c7fdfa699e0001017cc1","accurate","test_val","objective-positive","Valence","VS","negative;positive","positive",1,1744116258160,"positive",1797.41666666667,745,"positive","B","",6.61338421837956,7.49410572783437,65
"66","5930c7fdfa699e0001017cc1","pathetic","test_val","subjective-negative","Valence","VS","negative;positive","negative",1,1744116259608,"negative",1775.66666666667,686,"positive","B","",6.53087762772588,7.48193121824889,66
"67","5930c7fdfa699e0001017cc1","harmonious","test_val","subjective-positive","Valence","VS","negative;positive","positive",1,1744116261596,"positive",1947.5,1226,"positive","B","",7.11151211649616,7.5743017777449,67
"68","5930c7fdfa699e0001017cc1","valuable","test_val","objective-positive","Valence","VS","negative;positive","positive",1,1744116263077,"positive",1977.5,722,"positive","B","",6.58202513889283,7.58958869964181,68
"69","5930c7fdfa699e0001017cc1","admirable","test_val","subjective-positive","Valence","VS","negative;positive","positive",1,1744116264393,"positive",1961.33333333333,559,"positive","B","",6.3261494731551,7.58137979305322,69
"70","5930c7fdfa699e0001017cc1","successful","test_val","objective-positive","Valence","VS","negative;positive","positive",1,1744116265759,"positive",1642,605,"positive","B","",6.40522845803084,7.40367029001237,70
"71","5930c7fdfa699e0001017cc1","bankrupt","test_val","objective-negative","Valence","VS","negative;positive","negative",1,1744116267182,"negative",1847,661,"positive","B","",6.49375383985169,7.52131798019924,71
"72","5930c7fdfa699e0001017cc1","faulty","test_val","objective-negative","Valence","VS","negative;positive","negative",1,1744116268629,"negative",1628.83333333333,688,"positive","B","",6.53378883793334,7.39561929111078,72
"73","5930c7fdfa699e0001017cc1","authentic","test_val","subjective-positive","Valence","VS","negative;positive","positive",1,1744116270213,"positive",2021.16666666667,821,"positive","B","",6.71052310945243,7.61143018142874,73
"74","5930c7fdfa699e0001017cc1","incurable","test_val","objective-negative","Valence","VS","negative;positive","negative",1,1744116271605,"negative",1739.16666666667,632,"positive","B","",6.44888939414686,7.46116135028325,74
"75","5930c7fdfa699e0001017cc1","efficient","test_val","objective-positive","Valence","VS","negative;positive","positive",1,1744116273069,"positive",1705.16666666667,706,"positive","B","",6.55961523749324,7.44141813665088,75
"76","5930c7fdfa699e0001017cc1","efficient","test_val","objective-positive","Valence","VS","negative;positive","positive",1,1744116274389,"positive",1705.16666666667,564,"positive","B","",6.33505425149806,7.44141813665088,76
"77","5930c7fdfa699e0001017cc1","delicious","test_val","subjective-positive","Valence","VS","negative;positive","positive",1,1744116275854,"positive",1666.5,705,"positive","B","",6.55819780281227,7.41848089774779,77
"78","5930c7fdfa699e0001017cc1","passionate","test_val","subjective-positive","Valence","VS","negative;positive","positive",1,1744116277245,"positive",1982.16666666667,628,"positive","B","",6.4425401664682,7.59194580149919,78
"79","5930c7fdfa699e0001017cc1","deadly","test_val","objective-negative","Valence","VS","negative;positive","negative",1,1744116278595,"negative",1567,588,"positive","B","",6.37672694789863,7.35691824235602,79
"80","5930c7fdfa699e0001017cc1","cynical","test_val","subjective-negative","Valence","VS","negative;positive","negative",1,1744116280129,"negative",1952.33333333333,776,"positive","B","",6.65415252018322,7.57678051742167,80
"81","5930c7fdfa699e0001017cc1","disgusting","test_val","subjective-negative","Valence","VS","negative;positive","negative",1,1744116281535,"negative",1626.5,646,"positive","B","",6.4707995037826,7.39418574591341,81
"82","5930c7fdfa699e0001017cc1","accurate","test_val","objective-positive","Valence","VS","negative;positive","positive",1,1744116282935,"positive",1797.41666666667,640,"positive","B","",6.46146817635372,7.49410572783437,82
"83","5930c7fdfa699e0001017cc1","corrupt","test_val","objective-negative","Valence","VS","negative;positive","negative",1,1744116284356,"negative",1743.16666666667,666,"positive","B","",6.50128967054039,7.46345866152621,83
"84","5930c7fdfa699e0001017cc1","unstable","test_val","objective-negative","Valence","VS","negative;positive","negative",1,1744116285759,"negative",1879.16666666667,639,"positive","B","",6.45990445437753,7.53858369514282,84
"85","5930c7fdfa699e0001017cc1","optimistic","test_val","subjective-positive","Valence","VS","negative;positive","positive",1,1744116287119,"positive",1898.16666666667,601,"positive","B","",6.39859493453521,7.5486437870463,85
"86","5930c7fdfa699e0001017cc1","arrogant","test_val","subjective-negative","Valence","VS","negative;positive","negative",1,1744116288473,"negative",1817.16666666667,596,"positive","B","",6.39024066706535,7.50503379047833,86
"87","5930c7fdfa699e0001017cc1","adverse","test_val","objective-negative","Valence","VS","negative;positive","negative",1,1744116289918,"negative",1746.33333333333,684,"positive","B","",6.52795791762255,7.46527363074011,87
"88","5930c7fdfa699e0001017cc1","accurate","test_val","objective-positive","Valence","VS","negative;positive","positive",1,1744116291199,"positive",1797.41666666667,520,"positive","B","",6.25382881157547,7.49410572783437,88
"89","5930c7fdfa699e0001017cc1","thoughtful","test_val","subjective-positive","Valence","VS","negative;positive","positive",1,1744116292524,"positive",1916.66666666667,566,"positive","B","",6.33859407820318,7.55834284512329,89
"90","5930c7fdfa699e0001017cc1","hopeless","test_val","subjective-negative","Valence","VS","negative;positive","negative",1,1744116293960,"negative",2063,676,"positive","B","",6.51619307604296,7.63191651307125,90
"91","5930c7fdfa699e0001017cc1","delicious","test_val","subjective-positive","Valence","VS","negative;positive","positive",1,1744116295653,"positive",1666.5,934,"positive","B","",6.83947643822884,7.41848089774779,91
"92","5930c7fdfa699e0001017cc1","impatient","test_val","subjective-negative","Valence","VS","negative;positive","negative",1,1744116297127,"negative",1868.5,710,"positive","B","",6.56526497003536,7.53289124892554,92
"93","5930c7fdfa699e0001017cc1","efficient","test_val","objective-positive","Valence","VS","negative;positive","positive",1,1744116298582,"positive",1705.16666666667,697,"positive","B","",6.54678541076052,7.44141813665088,93
"94","5930c7fdfa699e0001017cc1","efficient","test_val","objective-positive","Valence","VS","negative;positive","positive",1,1744116299958,"positive",1705.16666666667,616,"positive","B","",6.42324696353352,7.44141813665088,94
"95","5930c7fdfa699e0001017cc1","defective","test_val","objective-negative","Valence","VS","negative;positive","negative",1,1744116301375,"negative",2172.83333333333,657,"positive","B","",6.48768401848461,7.68378727843472,95
"96","5930c7fdfa699e0001017cc1","hostile","test_val","subjective-negative","Valence","VS","negative;positive","negative",1,1744116303250,"negative",2019.66666666667,1117,"positive","B","",7.0184017990692,7.61068776027688,96
"97","5930c7fdfa699e0001017cc1","effective","test_val","objective-positive","Valence","VS","negative;positive","positive",1,1744116304669,"positive",1724.16666666667,660,"positive","B","",6.49223983502047,7.45249912095159,97
"98","5930c7fdfa699e0001017cc1","bankrupt","test_val","objective-negative","Valence","VS","negative;positive","negative",1,1744116306084,"negative",1847,657,"positive","B","",6.48768401848461,7.52131798019924,98
"99","5930c7fdfa699e0001017cc1","successful","test_val","objective-positive","Valence","VS","negative;positive","positive",1,1744116307472,"positive",1642,626,"positive","B","",6.4393503711001,7.40367029001237,99
"100","5930c7fdfa699e0001017cc1","refreshing","test_val","subjective-positive","Valence","VS","negative;positive","positive",1,1744116308725,"positive",1611.25,491,"positive","B","",6.19644412779452,7.3847655542534,100
"101","5930c7fdfa699e0001017cc1","annoying","test_val","subjective-negative","Valence","VS","negative;positive","negative",1,1744116310066,"negative",1623.16666666667,581,"positive","B","",6.36475075685191,7.39213425273314,101
"102","5930c7fdfa699e0001017cc1","faulty","test_val","objective-negative","Valence","VS","negative;positive","negative",1,1744116311506,"negative",1628.83333333333,683,"positive","B","",6.52649485957079,7.39561929111078,102
"103","5930c7fdfa699e0001017cc1","unfit","test_val","objective-negative","Valence","VS","negative;positive","negative",1,1744116313004,"negative",1722.83333333333,736,"positive","B","",6.60123011872888,7.45172550134043,103
"104","5930c7fdfa699e0001017cc1","toxic","test_val","objective-negative","Valence","VS","negative;positive","negative",1,1744116314583,"negative",1675.83333333333,818,"positive","B","",6.70686233660275,7.4240658329787,104
"105","5930c7fdfa699e0001017cc1","valuable","test_val","objective-positive","Valence","VS","negative;positive","positive",1,1744116315991,"positive",1977.5,652,"positive","B","",6.48004456192665,7.58958869964181,105
"106","5930c7fdfa699e0001017cc1","admirable","test_val","subjective-positive","Valence","VS","negative;positive","positive",1,1744116317700,"positive",1961.33333333333,945,"positive","B","",6.85118492749374,7.58137979305322,106
"107","5930c7fdfa699e0001017cc1","passionate","test_val","subjective-positive","Valence","VS","negative;positive","positive",1,1744116318937,"positive",1982.16666666667,475,"positive","B","",6.16331480403464,7.59194580149919,107
"108","5930c7fdfa699e0001017cc1","profitable","test_val","objective-positive","Valence","VS","negative;positive","positive",1,1744116320230,"positive",1886,535,"positive","B","",6.28226674689601,7.5422134631934,108
"109","5930c7fdfa699e0001017cc1","pointless","test_val","subjective-negative","Valence","VS","negative;positive","negative",1,1744116321629,"negative",1810.66666666667,638,"positive","B","",6.45833828334479,7.50145038057042,109
"110","5930c7fdfa699e0001017cc1","selfish","test_val","subjective-negative","Valence","VS","negative;positive","negative",1,1744116323050,"negative",1888.33333333333,660,"positive","B","",6.49223983502047,7.543449884794,110
"111","5930c7fdfa699e0001017cc1","harmonious","test_val","subjective-positive","Valence","VS","negative;positive","positive",1,1744116324461,"positive",1947.5,654,"positive","B","",6.4831073514572,7.5743017777449,111
"112","5930c7fdfa699e0001017cc1","incurable","test_val","objective-negative","Valence","VS","negative;positive","negative",1,1744116325865,"negative",1739.16666666667,644,"positive","B","",6.46769872610435,7.46116135028325,112
"113","5930c7fdfa699e0001017cc1","brilliant","test_val","subjective-positive","Valence","VS","negative;positive","positive",1,1744116327193,"positive",1762.5,569,"positive","B","",6.34388043412633,7.47448853468642,113
"114","5930c7fdfa699e0001017cc1","cynical","test_val","subjective-negative","Valence","VS","negative;positive","negative",1,1744116328602,"negative",1952.33333333333,647,"positive","B","",6.4723462945009,7.57678051742167,114
"115","5930c7fdfa699e0001017cc1","deadly","test_val","objective-negative","Valence","VS","negative;positive","negative",1,1744116329982,"negative",1567,621,"positive","B","",6.43133108193348,7.35691824235602,115
"116","5930c7fdfa699e0001017cc1","authentic","test_val","subjective-positive","Valence","VS","negative;positive","positive",1,1744116331348,"positive",2021.16666666667,605,"positive","B","",6.40522845803084,7.61143018142874,116
"117","5930c7fdfa699e0001017cc1","reliable","test_val","objective-positive","Valence","VS","negative;positive","positive",1,1744116332814,"positive",1812.5,707,"positive","B","",6.56103066589657,7.50246238672883,117
"118","5930c7fdfa699e0001017cc1","healthy","test_val","objective-positive","Valence","VS","negative;positive","positive",1,1744116334140,"positive",1717.66666666667,565,"positive","B","",6.33682573114644,7.44872205966011,118
"119","5930c7fdfa699e0001017cc1","pathetic","test_val","subjective-negative","Valence","VS","negative;positive","positive",0,1744116335520,"positive",1775.66666666667,617,"positive","B","",6.42486902390539,7.48193121824889,119
"120","5930c7fdfa699e0001017cc1","beautiful","test_val","subjective-positive","Valence","VS","negative;positive","positive",1,1744116337574,"positive",2000.16666666667,1293,"positive","B","",7.16472037877186,7.60098578940339,120
"121","5930c7fdfa699e0001017cc1","refreshing","test_so","subjective-positive","SubjObj","VS","subjective;objective","objective",0,1744116465603,"objective",1611.25,1242,"objective","B","",7.12447826249342,7.3847655542534,121
"122","5930c7fdfa699e0001017cc1","effective","test_so","objective-positive","SubjObj","VS","subjective;objective","subjective",0,1744116468344,"subjective",1724.16666666667,1981,"objective","B","",7.59135704669855,7.45249912095159,122
"123","5930c7fdfa699e0001017cc1","healthy","test_so","objective-positive","SubjObj","VS","subjective;objective","objective",1,1744116470745,"objective",1717.66666666667,1642,"objective","B","",7.40367029001237,7.44872205966011,123
"124","5930c7fdfa699e0001017cc1","delicious","test_so","subjective-positive","SubjObj","VS","subjective;objective","subjective",1,1744116472799,"subjective",1666.5,1290,"objective","B","",7.16239749735572,7.41848089774779,124
"125","5930c7fdfa699e0001017cc1","brilliant","test_so","subjective-positive","SubjObj","VS","subjective;objective","subjective",1,1744116474803,"subjective",1762.5,1245,"objective","B","",7.12689080889881,7.47448853468642,125
"126","5930c7fdfa699e0001017cc1","reliable","test_so","objective-positive","SubjObj","VS","subjective;objective","subjective",0,1744116477445,"subjective",1812.5,1880,"objective","B","",7.539027055824,7.50246238672883,126
"127","5930c7fdfa699e0001017cc1","accurate","test_so","objective-positive","SubjObj","VS","subjective;objective","objective",1,1744116479625,"objective",1797.41666666667,1425,"objective","B","",7.26192709270275,7.49410572783437,127
"128","5930c7fdfa699e0001017cc1","cynical","test_so","subjective-negative","SubjObj","VS","subjective;objective","objective",0,1744116482078,"objective",1952.33333333333,1692,"objective","B","",7.43366654016617,7.57678051742167,128
"129","5930c7fdfa699e0001017cc1","pathetic","test_so","subjective-negative","SubjObj","VS","subjective;objective","subjective",1,1744116484344,"subjective",1775.66666666667,1508,"objective","B","",7.3185395485679,7.48193121824889,129
"130","5930c7fdfa699e0001017cc1","thoughtful","test_so","subjective-positive","SubjObj","VS","subjective;objective","subjective",1,1744116486330,"subjective",1916.66666666667,1228,"objective","B","",7.11314210870709,7.55834284512329,130
"131","5930c7fdfa699e0001017cc1","valuable","test_so","objective-positive","SubjObj","VS","subjective;objective","subjective",0,1744116488953,"subjective",1977.5,1863,"objective","B","",7.52994337060159,7.58958869964181,131
"132","5930c7fdfa699e0001017cc1","faulty","test_so","objective-negative","SubjObj","VS","subjective;objective","objective",1,1744116491055,"objective",1628.83333333333,1342,"objective","B","",7.20191631753163,7.39561929111078,132
"133","5930c7fdfa699e0001017cc1","optimistic","test_so","subjective-positive","SubjObj","VS","subjective;objective","objective",0,1744116494082,"objective",1898.16666666667,2265,"objective","B","",7.72533003791713,7.5486437870463,133
"134","5930c7fdfa699e0001017cc1","authentic","test_so","subjective-positive","SubjObj","VS","subjective;objective","objective",0,1744116498406,"objective",2021.16666666667,3569,"objective","B","",8.18004072349016,7.61143018142874,134
"135","5930c7fdfa699e0001017cc1","admirable","test_so","subjective-positive","SubjObj","VS","subjective;objective","subjective",1,1744116501145,"subjective",1961.33333333333,1981,"objective","B","",7.59135704669855,7.58137979305322,135
"136","5930c7fdfa699e0001017cc1","hopeless","test_so","subjective-negative","SubjObj","VS","subjective;objective","subjective",1,1744116503907,"subjective",2063,2002,"objective","B","",7.60190195987517,7.63191651307125,136
"137","5930c7fdfa699e0001017cc1","accurate","test_so","objective-positive","SubjObj","VS","subjective;objective","objective",1,1744116506561,"objective",1797.41666666667,1894,"objective","B","",7.54644627374602,7.49410572783437,137
"138","5930c7fdfa699e0001017cc1","efficient","test_so","objective-positive","SubjObj","VS","subjective;objective","objective",1,1744116508468,"objective",1705.16666666667,1147,"objective","B","",7.04490511712937,7.44141813665088,138
"139","5930c7fdfa699e0001017cc1","incurable","test_so","objective-negative","SubjObj","VS","subjective;objective","objective",1,1744116510831,"objective",1739.16666666667,1601,"objective","B","",7.37838371299671,7.46116135028325,139
"140","5930c7fdfa699e0001017cc1","beautiful","test_so","subjective-positive","SubjObj","VS","subjective;objective","subjective",1,1744116513941,"subjective",2000.16666666667,2351,"objective","B","",7.76259604854007,7.60098578940339,140
"141","5930c7fdfa699e0001017cc1","disgusting","test_so","subjective-negative","SubjObj","VS","subjective;objective","subjective",1,1744116515967,"subjective",1626.5,1266,"objective","B","",7.14361760270412,7.39418574591341,141
"142","5930c7fdfa699e0001017cc1","pointless","test_so","subjective-negative","SubjObj","VS","subjective;objective","subjective",1,1744116518160,"subjective",1810.66666666667,1429,"objective","B","",7.26473017792987,7.50145038057042,142
"143","5930c7fdfa699e0001017cc1","selfish","test_so","subjective-negative","SubjObj","VS","subjective;objective","objective",0,1744116520929,"objective",1888.33333333333,2008,"objective","B","",7.60489448081162,7.543449884794,143
"144","5930c7fdfa699e0001017cc1","unstable","test_so","objective-negative","SubjObj","VS","subjective;objective","objective",1,1744116524105,"objective",1879.16666666667,2420,"objective","B","",7.79152281915073,7.53858369514282,144
"145","5930c7fdfa699e0001017cc1","bankrupt","test_so","objective-negative","SubjObj","VS","subjective;objective","objective",1,1744116526973,"objective",1847,2113,"objective","B","",7.65586401761606,7.52131798019924,145
"146","5930c7fdfa699e0001017cc1","arrogant","test_so","subjective-negative","SubjObj","VS","subjective;objective","subjective",1,1744116529412,"subjective",1817.16666666667,1677,"objective","B","",7.42476176182321,7.50503379047833,146
"147","5930c7fdfa699e0001017cc1","harmonious","test_so","subjective-positive","SubjObj","VS","subjective;objective","objective",0,1744116532542,"objective",1947.5,2372,"objective","B","",7.77148876011762,7.5743017777449,147
"148","5930c7fdfa699e0001017cc1","efficient","test_so","objective-positive","SubjObj","VS","subjective;objective","objective",1,1744116534799,"objective",1705.16666666667,1497,"objective","B","",7.31121838441963,7.44141813665088,148
"149","5930c7fdfa699e0001017cc1","defective","test_so","objective-negative","SubjObj","VS","subjective;objective","objective",1,1744116537572,"objective",2172.83333333333,2013,"objective","B","",7.60738142563979,7.68378727843472,149
"150","5930c7fdfa699e0001017cc1","passionate","test_so","subjective-positive","SubjObj","VS","subjective;objective","objective",0,1744116539992,"objective",1982.16666666667,1662,"objective","B","",7.41577697541539,7.59194580149919,150
"151","5930c7fdfa699e0001017cc1","profitable","test_so","objective-positive","SubjObj","VS","subjective;objective","objective",1,1744116543520,"objective",1886,2766,"objective","B","",7.9251575122247,7.5422134631934,151
"152","5930c7fdfa699e0001017cc1","successful","test_so","objective-positive","SubjObj","VS","subjective;objective","objective",1,1744116545356,"objective",1642,1076,"objective","B","",6.98100574072173,7.40367029001237,152
"153","5930c7fdfa699e0001017cc1","deadly","test_so","objective-negative","SubjObj","VS","subjective;objective","objective",1,1744116547317,"objective",1567,1205,"objective","B","",7.09423484592476,7.35691824235602,153
"154","5930c7fdfa699e0001017cc1","hostile","test_so","subjective-negative","SubjObj","VS","subjective;objective","objective",0,1744116549139,"objective",2019.66666666667,1063,"objective","B","",6.96885037834195,7.61068776027688,154
"155","5930c7fdfa699e0001017cc1","adverse","test_so","objective-negative","SubjObj","VS","subjective;objective","objective",1,1744116550960,"objective",1746.33333333333,1060,"objective","B","",6.96602418710611,7.46527363074011,155
"156","5930c7fdfa699e0001017cc1","corrupt","test_so","objective-negative","SubjObj","VS","subjective;objective","objective",1,1744116552926,"objective",1743.16666666667,1204,"objective","B","",7.09340462586877,7.46345866152621,156
"157","5930c7fdfa699e0001017cc1","unfit","test_so","objective-negative","SubjObj","VS","subjective;objective","subjective",0,1744116555254,"subjective",1722.83333333333,1567,"objective","B","",7.35691824235602,7.45172550134043,157
"158","5930c7fdfa699e0001017cc1","annoying","test_so","subjective-negative","SubjObj","VS","subjective;objective","subjective",1,1744116557117,"subjective",1623.16666666667,1104,"objective","B","",7.00669522683704,7.39213425273314,158
"159","5930c7fdfa699e0001017cc1","impatient","test_so","subjective-negative","SubjObj","VS","subjective;objective","objective",0,1744116559740,"objective",1868.5,1864,"objective","B","",7.53047999524554,7.53289124892554,159
"160","5930c7fdfa699e0001017cc1","toxic","test_so","objective-negative","SubjObj","VS","subjective;objective","objective",1,1744116561985,"objective",1675.83333333333,1487,"objective","B","",7.30451594646016,7.4240658329787,160
"161","5930c7fdfa699e0001017cc1","valuable","test_so","objective-positive","SubjObj","VS","subjective;objective","objective",1,1744116565224,"objective",1977.5,2477,"objective","B","",7.81480342948936,7.58958869964181,161
"162","5930c7fdfa699e0001017cc1","corrupt","test_so","objective-negative","SubjObj","VS","subjective;objective","objective",1,1744116567766,"objective",1743.16666666667,1780,"objective","B","",7.48436864328613,7.46345866152621,162
"163","5930c7fdfa699e0001017cc1","admirable","test_so","subjective-positive","SubjObj","VS","subjective;objective","subjective",1,1744116570186,"subjective",1961.33333333333,1660,"objective","B","",7.41457288135059,7.58137979305322,163
"164","5930c7fdfa699e0001017cc1","impatient","test_so","subjective-negative","SubjObj","VS","subjective;objective","objective",0,1744116572298,"objective",1868.5,1352,"objective","B","",7.20934025660291,7.53289124892554,164
"165","5930c7fdfa699e0001017cc1","arrogant","test_so","subjective-negative","SubjObj","VS","subjective;objective","objective",0,1744116574663,"objective",1817.16666666667,1602,"objective","B","",7.3790081276283,7.50503379047833,165
"166","5930c7fdfa699e0001017cc1","defective","test_so","objective-negative","SubjObj","VS","subjective;objective","objective",1,1744116577863,"objective",2172.83333333333,2437,"objective","B","",7.79852305362521,7.68378727843472,166
"167","5930c7fdfa699e0001017cc1","hostile","test_so","subjective-negative","SubjObj","VS","subjective;objective","objective",0,1744116581130,"objective",2019.66666666667,2510,"objective","B","",7.82803803212583,7.61068776027688,167
"168","5930c7fdfa699e0001017cc1","accurate","test_so","objective-positive","SubjObj","VS","subjective;objective","objective",1,1744116583073,"objective",1797.41666666667,1183,"objective","B","",7.07580886397839,7.49410572783437,168
"169","5930c7fdfa699e0001017cc1","adverse","test_so","objective-negative","SubjObj","VS","subjective;objective","objective",1,1744116585232,"objective",1746.33333333333,1403,"objective","B","",7.24636808010246,7.46527363074011,169
"170","5930c7fdfa699e0001017cc1","annoying","test_so","subjective-negative","SubjObj","VS","subjective;objective","subjective",1,1744116586974,"subjective",1623.16666666667,980,"objective","B","",6.88755257166462,7.39213425273314,170
"171","5930c7fdfa699e0001017cc1","optimistic","test_so","subjective-positive","SubjObj","VS","subjective;objective","objective",0,1744116589160,"objective",1898.16666666667,1428,"objective","B","",7.26403014289953,7.5486437870463,171
"172","5930c7fdfa699e0001017cc1","refreshing","test_so","subjective-positive","SubjObj","VS","subjective;objective","objective",0,1744116591167,"objective",1611.25,1245,"objective","B","",7.12689080889881,7.3847655542534,172
"173","5930c7fdfa699e0001017cc1","brilliant","test_so","subjective-positive","SubjObj","VS","subjective;objective","subjective",1,1744116593585,"subjective",1762.5,1655,"objective","B","",7.41155628781116,7.47448853468642,173
"174","5930c7fdfa699e0001017cc1","beautiful","test_so","subjective-positive","SubjObj","VS","subjective;objective","subjective",1,1744116595473,"subjective",2000.16666666667,1129,"objective","B","",7.02908756414966,7.60098578940339,174
"175","5930c7fdfa699e0001017cc1","selfish","test_so","subjective-negative","SubjObj","VS","subjective;objective","objective",0,1744116598266,"objective",1888.33333333333,2037,"objective","B","",7.61923341622681,7.543449884794,175
"176","5930c7fdfa699e0001017cc1","pathetic","test_so","subjective-negative","SubjObj","VS","subjective;objective","subjective",1,1744116600568,"subjective",1775.66666666667,1541,"objective","B","",7.34018683532012,7.48193121824889,176
"177","5930c7fdfa699e0001017cc1","toxic","test_so","objective-negative","SubjObj","VS","subjective;objective","objective",1,1744116602412,"objective",1675.83333333333,1084,"objective","B","",6.98841318199959,7.4240658329787,177
"178","5930c7fdfa699e0001017cc1","cynical","test_so","subjective-negative","SubjObj","VS","subjective;objective","objective",0,1744116604885,"objective",1952.33333333333,1713,"objective","B","",7.44600149832412,7.57678051742167,178
"179","5930c7fdfa699e0001017cc1","efficient","test_so","objective-positive","SubjObj","VS","subjective;objective","objective",1,1744116607055,"objective",1705.16666666667,1406,"objective","B","",7.24850407237061,7.44141813665088,179
"180","5930c7fdfa699e0001017cc1","pointless","test_so","subjective-negative","SubjObj","VS","subjective;objective","subjective",1,1744116609384,"subjective",1810.66666666667,1567,"objective","B","",7.35691824235602,7.50145038057042,180
"181","5930c7fdfa699e0001017cc1","passionate","test_so","subjective-positive","SubjObj","VS","subjective;objective","objective",0,1744116611656,"objective",1982.16666666667,1512,"objective","B","",7.32118855673948,7.59194580149919,181
"182","5930c7fdfa699e0001017cc1","deadly","test_so","objective-negative","SubjObj","VS","subjective;objective","objective",1,1744116613445,"objective",1567,1026,"objective","B","",6.93342302573071,7.35691824235602,182
"183","5930c7fdfa699e0001017cc1","reliable","test_so","objective-positive","SubjObj","VS","subjective;objective","objective",1,1744116615804,"objective",1812.5,1598,"objective","B","",7.37650812632622,7.50246238672883,183
"184","5930c7fdfa699e0001017cc1","incurable","test_so","objective-negative","SubjObj","VS","subjective;objective","objective",1,1744116617684,"objective",1739.16666666667,1123,"objective","B","",7.02375895473844,7.46116135028325,184
"185","5930c7fdfa699e0001017cc1","hopeless","test_so","subjective-negative","SubjObj","VS","subjective;objective","objective",0,1744116620515,"objective",2063,2069,"objective","B","",7.63482067774554,7.63191651307125,185
"186","5930c7fdfa699e0001017cc1","harmonious","test_so","subjective-positive","SubjObj","VS","subjective;objective","objective",0,1744116622285,"objective",1947.5,1011,"objective","B","",6.91869521902047,7.5743017777449,186
"187","5930c7fdfa699e0001017cc1","unstable","test_so","objective-negative","SubjObj","VS","subjective;objective","objective",1,1744116624160,"objective",1879.16666666667,1115,"objective","B","",7.01660968389422,7.53858369514282,187
"188","5930c7fdfa699e0001017cc1","accurate","test_so","objective-positive","SubjObj","VS","subjective;objective","objective",1,1744116627139,"objective",1797.41666666667,2221,"objective","B","",7.70571282389443,7.49410572783437,188
"189","5930c7fdfa699e0001017cc1","delicious","test_so","subjective-positive","SubjObj","VS","subjective;objective","subjective",1,1744116629049,"subjective",1666.5,1145,"objective","B","",7.04315991598834,7.41848089774779,189
"190","5930c7fdfa699e0001017cc1","bankrupt","test_so","objective-negative","SubjObj","VS","subjective;objective","objective",1,1744116630722,"objective",1847,912,"objective","B","",6.81563999007433,7.52131798019924,190
"191","5930c7fdfa699e0001017cc1","healthy","test_so","objective-positive","SubjObj","VS","subjective;objective","objective",1,1744116632525,"objective",1717.66666666667,1041,"objective","B","",6.94793706861497,7.44872205966011,191
"192","5930c7fdfa699e0001017cc1","unfit","test_so","objective-negative","SubjObj","VS","subjective;objective","objective",1,1744116634249,"objective",1722.83333333333,961,"objective","B","",6.86797440897029,7.45172550134043,192
"193","5930c7fdfa699e0001017cc1","effective","test_so","objective-positive","SubjObj","VS","subjective;objective","objective",1,1744116636024,"objective",1724.16666666667,1012,"objective","B","",6.91968384984741,7.45249912095159,193
"194","5930c7fdfa699e0001017cc1","disgusting","test_so","subjective-negative","SubjObj","VS","subjective;objective","subjective",1,1744116637607,"subjective",1626.5,828,"objective","B","",6.71901315438526,7.39418574591341,194
"195","5930c7fdfa699e0001017cc1","authentic","test_so","subjective-positive","SubjObj","VS","subjective;objective","objective",0,1744116639386,"objective",2021.16666666667,1019,"objective","B","",6.92657703322272,7.61143018142874,195
"196","5930c7fdfa699e0001017cc1","successful","test_so","objective-positive","SubjObj","VS","subjective;objective","objective",1,1744116641562,"objective",1642,1413,"objective","B","",7.25347038268453,7.40367029001237,196
"197","5930c7fdfa699e0001017cc1","thoughtful","test_so","subjective-positive","SubjObj","VS","subjective;objective","objective",0,1744116644170,"objective",1916.66666666667,1847,"objective","B","",7.52131798019924,7.55834284512329,197
"198","5930c7fdfa699e0001017cc1","profitable","test_so","objective-positive","SubjObj","VS","subjective;objective","objective",1,1744116645890,"objective",1886,959,"objective","B","",6.86589107488344,7.5422134631934,198
"199","5930c7fdfa699e0001017cc1","efficient","test_so","objective-positive","SubjObj","VS","subjective;objective","objective",1,1744116647680,"objective",1705.16666666667,1028,"objective","B","",6.93537044601511,7.44141813665088,199
"200","5930c7fdfa699e0001017cc1","faulty","test_so","objective-negative","SubjObj","VS","subjective;objective","objective",1,1744116649246,"objective",1628.83333333333,803,"objective","B","",6.68835471394676,7.39561929111078,200
"201","5930c7fdfa699e0001017cc1","unfit","test_so","objective-negative","SubjObj","VS","subjective;objective","objective",1,1744116650875,"objective",1722.83333333333,869,"objective","B","",6.76734312526539,7.45172550134043,201
"202","5930c7fdfa699e0001017cc1","harmonious","test_so","subjective-positive","SubjObj","VS","subjective;objective","objective",0,1744116652570,"objective",1947.5,935,"objective","B","",6.84054652928869,7.5743017777449,202
"203","5930c7fdfa699e0001017cc1","reliable","test_so","objective-positive","SubjObj","VS","subjective;objective","objective",1,1744116654103,"objective",1812.5,774,"objective","B","",6.65157187358973,7.50246238672883,203
"204","5930c7fdfa699e0001017cc1","faulty","test_so","objective-negative","SubjObj","VS","subjective;objective","objective",1,1744116655816,"objective",1628.83333333333,955,"objective","B","",6.86171134048073,7.39561929111078,204
"205","5930c7fdfa699e0001017cc1","disgusting","test_so","subjective-negative","SubjObj","VS","subjective;objective","subjective",1,1744116657388,"subjective",1626.5,813,"objective","B","",6.70073110954781,7.39418574591341,205
"206","5930c7fdfa699e0001017cc1","hopeless","test_so","subjective-negative","SubjObj","VS","subjective;objective","objective",0,1744116659167,"objective",2063,1022,"objective","B","",6.92951677076365,7.63191651307125,206
"207","5930c7fdfa699e0001017cc1","pointless","test_so","subjective-negative","SubjObj","VS","subjective;objective","objective",0,1744116661145,"objective",1810.66666666667,1221,"objective","B","",7.1074254741107,7.50145038057042,207
"208","5930c7fdfa699e0001017cc1","effective","test_so","objective-positive","SubjObj","VS","subjective;objective","objective",1,1744116662719,"objective",1724.16666666667,815,"objective","B","",6.70318811324086,7.45249912095159,208
"209","5930c7fdfa699e0001017cc1","pathetic","test_so","subjective-negative","SubjObj","VS","subjective;objective","objective",0,1744116664548,"objective",1775.66666666667,1071,"objective","B","",6.97634807044775,7.48193121824889,209
"210","5930c7fdfa699e0001017cc1","profitable","test_so","objective-positive","SubjObj","VS","subjective;objective","objective",1,1744116666381,"objective",1886,1074,"objective","B","",6.97914527506881,7.5422134631934,210
"211","5930c7fdfa699e0001017cc1","bankrupt","test_so","objective-negative","SubjObj","VS","subjective;objective","objective",1,1744116668237,"objective",1847,1094,"objective","B","",6.99759598298193,7.52131798019924,211
"212","5930c7fdfa699e0001017cc1","passionate","test_so","subjective-positive","SubjObj","VS","subjective;objective","objective",0,1744116671160,"objective",1982.16666666667,2162,"objective","B","",7.67878899819915,7.59194580149919,212
"213","5930c7fdfa699e0001017cc1","efficient","test_so","objective-positive","SubjObj","VS","subjective;objective","objective",1,1744116673303,"objective",1705.16666666667,1386,"objective","B","",7.23417717974985,7.44141813665088,213
"214","5930c7fdfa699e0001017cc1","hostile","test_so","subjective-negative","SubjObj","VS","subjective;objective","objective",0,1744116675567,"objective",2019.66666666667,1503,"objective","B","",7.31521838975297,7.61068776027688,214
"215","5930c7fdfa699e0001017cc1","adverse","test_so","objective-negative","SubjObj","VS","subjective;objective","objective",1,1744116677283,"objective",1746.33333333333,953,"objective","B","",6.8596149036542,7.46527363074011,215
"216","5930c7fdfa699e0001017cc1","impatient","test_so","subjective-negative","SubjObj","VS","subjective;objective","objective",0,1744116679247,"objective",1868.5,1207,"objective","B","",7.09589322109753,7.53289124892554,216
"217","5930c7fdfa699e0001017cc1","accurate","test_so","objective-positive","SubjObj","VS","subjective;objective","objective",1,1744116680870,"objective",1797.41666666667,862,"objective","B","",6.75925527066369,7.49410572783437,217
"218","5930c7fdfa699e0001017cc1","accurate","test_so","objective-positive","SubjObj","VS","subjective;objective","objective",1,1744116682545,"objective",1797.41666666667,915,"objective","B","",6.81892406527552,7.49410572783437,218
"219","5930c7fdfa699e0001017cc1","toxic","test_so","objective-negative","SubjObj","VS","subjective;objective","objective",1,1744116684181,"objective",1675.83333333333,875,"objective","B","",6.77422388635761,7.4240658329787,219
"220","5930c7fdfa699e0001017cc1","thoughtful","test_so","subjective-positive","SubjObj","VS","subjective;objective","objective",0,1744116685783,"objective",1916.66666666667,839,"objective","B","",6.73221070646721,7.55834284512329,220
"221","5930c7fdfa699e0001017cc1","brilliant","test_so","subjective-positive","SubjObj","VS","subjective;objective","objective",0,1744116687862,"objective",1762.5,1319,"objective","B","",7.18462915271731,7.47448853468642,221
"222","5930c7fdfa699e0001017cc1","corrupt","test_so","objective-negative","SubjObj","VS","subjective;objective","objective",1,1744116689517,"objective",1743.16666666667,896,"objective","B","",6.79794041297493,7.46345866152621,222
"223","5930c7fdfa699e0001017cc1","valuable","test_so","objective-positive","SubjObj","VS","subjective;objective","objective",1,1744116691158,"objective",1977.5,881,"objective","B","",6.78105762593618,7.58958869964181,223
"224","5930c7fdfa699e0001017cc1","cynical","test_so","subjective-negative","SubjObj","VS","subjective;objective","objective",0,1744116693322,"objective",1952.33333333333,1402,"objective","B","",7.24565506759454,7.57678051742167,224
"225","5930c7fdfa699e0001017cc1","unstable","test_so","objective-negative","SubjObj","VS","subjective;objective","objective",1,1744116695189,"objective",1879.16666666667,1110,"objective","B","",7.01211529430638,7.53858369514282,225
"226","5930c7fdfa699e0001017cc1","healthy","test_so","objective-positive","SubjObj","VS","subjective;objective","objective",1,1744116696940,"objective",1717.66666666667,988,"objective","B","",6.89568269774787,7.44872205966011,226
"227","5930c7fdfa699e0001017cc1","delicious","test_so","subjective-positive","SubjObj","VS","subjective;objective","subjective",1,1744116698457,"subjective",1666.5,758,"objective","B","",6.63068338564237,7.41848089774779,227
"228","5930c7fdfa699e0001017cc1","authentic","test_so","subjective-positive","SubjObj","VS","subjective;objective","objective",0,1744116700079,"objective",2021.16666666667,865,"objective","B","",6.76272950693188,7.61143018142874,228
"229","5930c7fdfa699e0001017cc1","admirable","test_so","subjective-positive","SubjObj","VS","subjective;objective","subjective",1,1744116702031,"subjective",1961.33333333333,1195,"objective","B","",7.08590146436561,7.58137979305322,229
"230","5930c7fdfa699e0001017cc1","arrogant","test_so","subjective-negative","SubjObj","VS","subjective;objective","objective",0,1744116703700,"objective",1817.16666666667,909,"objective","B","",6.81234509417748,7.50503379047833,230
"231","5930c7fdfa699e0001017cc1","deadly","test_so","objective-negative","SubjObj","VS","subjective;objective","objective",1,1744116705240,"objective",1567,775,"objective","B","",6.65286302935335,7.35691824235602,231
"232","5930c7fdfa699e0001017cc1","refreshing","test_so","subjective-positive","SubjObj","VS","subjective;objective","objective",0,1744116706806,"objective",1611.25,806,"objective","B","",6.69208374250663,7.3847655542534,232
"233","5930c7fdfa699e0001017cc1","optimistic","test_so","subjective-positive","SubjObj","VS","subjective;objective","objective",0,1744116708713,"objective",1898.16666666667,1146,"objective","B","",7.04403289727469,7.5486437870463,233
"234","5930c7fdfa699e0001017cc1","incurable","test_so","objective-negative","SubjObj","VS","subjective;objective","objective",1,1744116710496,"objective",1739.16666666667,1024,"objective","B","",6.93147180559945,7.46116135028325,234
"235","5930c7fdfa699e0001017cc1","annoying","test_so","subjective-negative","SubjObj","VS","subjective;objective","subjective",1,1744116712405,"subjective",1623.16666666667,1151,"objective","B","",7.04838640872188,7.39213425273314,235
"236","5930c7fdfa699e0001017cc1","defective","test_so","objective-negative","SubjObj","VS","subjective;objective","objective",1,1744116714375,"objective",2172.83333333333,1209,"objective","B","",7.09754885061479,7.68378727843472,236
"237","5930c7fdfa699e0001017cc1","selfish","test_so","subjective-negative","SubjObj","VS","subjective;objective","objective",0,1744116715891,"objective",1888.33333333333,757,"objective","B","",6.62936325343745,7.543449884794,237
"238","5930c7fdfa699e0001017cc1","beautiful","test_so","subjective-positive","SubjObj","VS","subjective;objective","subjective",1,1744116718097,"subjective",2000.16666666667,1444,"objective","B","",7.27517231945277,7.60098578940339,238
"239","5930c7fdfa699e0001017cc1","efficient","test_so","objective-positive","SubjObj","VS","subjective;objective","objective",1,1744116719889,"objective",1705.16666666667,1033,"objective","B","",6.94022246911964,7.44141813665088,239
"240","5930c7fdfa699e0001017cc1","successful","test_so","objective-positive","SubjObj","VS","subjective;objective","objective",1,1744116721218,"objective",1642,571,"objective","B","",6.34738920965601,7.40367029001237,240
"241","6413ed6a23881edc2e190e15","effective","test_so","objective-positive","SubjObj","SV","subjective;objective","subjective",0,1744134331752,"subjective",2079.83333333333,1240,"objective","B","",7.12286665859908,7.6400430412798,1
"242","6413ed6a23881edc2e190e15","successful","test_so","objective-positive","SubjObj","SV","subjective;objective","subjective",0,1744134333465,"subjective",1698.66666666667,948,"objective","B","",6.85435450225502,7.43759890858389,2
"243","6413ed6a23881edc2e190e15","optimistic","test_so","subjective-positive","SubjObj","SV","subjective;objective","subjective",1,1744134335517,"subjective",1817,1290,"objective","B","",7.16239749735572,7.50494206839617,3
"244","6413ed6a23881edc2e190e15","defective","test_so","objective-negative","SubjObj","SV","subjective;objective","subjective",0,1744134337580,"subjective",1923.16666666667,1303,"objective","B","",7.17242457712485,7.56172841196661,4
"245","6413ed6a23881edc2e190e15","adverse","test_so","objective-negative","SubjObj","SV","subjective;objective","objective",1,1744134339667,"objective",2491.16666666667,1322,"objective","B","",7.18690102041163,7.82050642055776,5
"246","6413ed6a23881edc2e190e15","unfit","test_so","objective-negative","SubjObj","SV","subjective;objective","subjective",0,1744134341946,"subjective",2198,1514,"objective","B","",7.32251043399739,7.69530313496357,6
"247","6413ed6a23881edc2e190e15","impatient","test_so","subjective-negative","SubjObj","SV","subjective;objective","subjective",1,1744134344171,"subjective",2035,1464,"objective","B","",7.28892769452126,7.6182510978767,7
"248","6413ed6a23881edc2e190e15","unstable","test_so","objective-negative","SubjObj","SV","subjective;objective","objective",1,1744134346179,"objective",2033.5,1237,"objective","B","",7.12044437239249,7.61751372534728,8
"249","6413ed6a23881edc2e190e15","accurate","test_so","objective-positive","SubjObj","SV","subjective;objective","objective",1,1744134348272,"objective",1879.66666666667,1333,"objective","B","",7.19518732017871,7.53884973513907,9
"250","6413ed6a23881edc2e190e15","harmonious","test_so","subjective-positive","SubjObj","SV","subjective;objective","subjective",1,1744134350464,"subjective",1900.66666666667,1428,"objective","B","",7.26403014289953,7.54995998080451,10
"251","6413ed6a23881edc2e190e15","refreshing","test_so","subjective-positive","SubjObj","SV","subjective;objective","objective",0,1744134352519,"objective",1840.66666666667,1289,"objective","B","",7.16162200293919,7.51788310382199,11
"252","6413ed6a23881edc2e190e15","selfish","test_so","subjective-negative","SubjObj","SV","subjective;objective","objective",0,1744134354799,"objective",1829.66666666667,1514,"objective","B","",7.32251043399739,7.51188907988178,12
"253","6413ed6a23881edc2e190e15","delicious","test_so","subjective-positive","SubjObj","SV","subjective;objective","objective",0,1744134356779,"objective",2094.16666666667,1217,"objective","B","",7.10414409298753,7.64691098074964,13
"254","6413ed6a23881edc2e190e15","accurate","test_so","objective-positive","SubjObj","SV","subjective;objective","objective",1,1744134358702,"objective",1879.66666666667,1161,"objective","B","",7.05703698169789,7.53884973513907,14
"255","6413ed6a23881edc2e190e15","hostile","test_so","subjective-negative","SubjObj","SV","subjective;objective","objective",0,1744134360665,"objective",1929.33333333333,1203,"objective","B","",7.09257371597468,7.56492979908326,15
"256","6413ed6a23881edc2e190e15","valuable","test_so","objective-positive","SubjObj","SV","subjective;objective","objective",1,1744134362722,"objective",1742.33333333333,1294,"objective","B","",7.16549347506085,7.46298049004481,16
"257","6413ed6a23881edc2e190e15","deadly","test_so","objective-negative","SubjObj","SV","subjective;objective","objective",1,1744134364860,"objective",1844,1376,"objective","B","",7.22693601849329,7.51969240411654,17
"258","6413ed6a23881edc2e190e15","profitable","test_so","objective-positive","SubjObj","SV","subjective;objective","objective",1,1744134367097,"objective",1924.83333333333,1475,"objective","B","",7.29641326877392,7.56259466288703,18
"259","6413ed6a23881edc2e190e15","authentic","test_so","subjective-positive","SubjObj","SV","subjective;objective","subjective",1,1744134369353,"subjective",2198.16666666667,1490,"objective","B","",7.30653139893951,7.69537895859783,19
"260","6413ed6a23881edc2e190e15","cynical","test_so","subjective-negative","SubjObj","SV","subjective;objective","subjective",1,1744134371283,"subjective",1826.16666666667,1166,"objective","B","",7.06133436691044,7.50997433117734,20
"261","6413ed6a23881edc2e190e15","corrupt","test_so","objective-negative","SubjObj","SV","subjective;objective","objective",1,1744134374190,"objective",1956.66666666667,2142,"objective","B","",7.66949525100769,7.57899762415403,21
"262","6413ed6a23881edc2e190e15","thoughtful","test_so","subjective-positive","SubjObj","SV","subjective;objective","subjective",1,1744134376275,"subjective",2678.16666666667,1320,"objective","B","",7.18538701558042,7.8928877598137,22
"263","6413ed6a23881edc2e190e15","brilliant","test_so","subjective-positive","SubjObj","SV","subjective;objective","subjective",1,1744134378498,"subjective",1856.83333333333,1461,"objective","B","",7.2868764117507,7.52662780683126,23
"264","6413ed6a23881edc2e190e15","reliable","test_so","objective-positive","SubjObj","SV","subjective;objective","objective",1,1744134381092,"objective",1938.41666666667,1829,"objective","B","",7.51152464839087,7.56962676762191,24
"265","6413ed6a23881edc2e190e15","toxic","test_so","objective-negative","SubjObj","SV","subjective;objective","objective",1,1744134383045,"objective",1716,1190,"objective","B","",7.08170858610557,7.44775128004791,25
"266","6413ed6a23881edc2e190e15","healthy","test_so","objective-positive","SubjObj","SV","subjective;objective","objective",1,1744134384920,"objective",1714.5,1114,"objective","B","",7.01571242048723,7.44687677190297,26
"267","6413ed6a23881edc2e190e15","pointless","test_so","subjective-negative","SubjObj","SV","subjective;objective","subjective",1,1744134387351,"subjective",1905.83333333333,1667,"objective","B","",7.41878088275079,7.55267463722883,27
"268","6413ed6a23881edc2e190e15","faulty","test_so","objective-negative","SubjObj","SV","subjective;objective","objective",1,1744134389422,"objective",1961.5,1312,"objective","B","",7.17930796950403,7.58146476564961,28
"269","6413ed6a23881edc2e190e15","arrogant","test_so","subjective-negative","SubjObj","SV","subjective;objective","subjective",1,1744134391459,"subjective",1964.5,1277,"objective","B","",7.15226885603254,7.58299303899851,29
"270","6413ed6a23881edc2e190e15","efficient","test_so","objective-positive","SubjObj","SV","subjective;objective","objective",1,1744134394154,"objective",2016.66666666667,1932,"objective","B","",7.56631101477246,7.60920126235678,30
"271","6413ed6a23881edc2e190e15","pathetic","test_so","subjective-negative","SubjObj","SV","subjective;objective","subjective",1,1744134395916,"subjective",1800.33333333333,998,"objective","B","",6.90575327631146,7.49572711192478,31
"272","6413ed6a23881edc2e190e15","disgusting","test_so","subjective-negative","SubjObj","SV","subjective;objective","subjective",1,1744134397812,"subjective",1895.16666666667,1132,"objective","B","",7.03174125876313,7.54706206439667,32
"273","6413ed6a23881edc2e190e15","hopeless","test_so","subjective-negative","SubjObj","SV","subjective;objective","objective",0,1744134399976,"objective",1820.33333333333,1407,"objective","B","",7.24921505711439,7.50677491348404,33
"274","6413ed6a23881edc2e190e15","admirable","test_so","subjective-positive","SubjObj","SV","subjective;objective","objective",0,1744134401904,"objective",1964.5,1167,"objective","B","",7.06219163228656,7.58299303899851,34
"275","6413ed6a23881edc2e190e15","annoying","test_so","subjective-negative","SubjObj","SV","subjective;objective","objective",0,1744134403971,"objective",2193.08333333333,1302,"objective","B","",7.17165682276851,7.69306374739192,35
"276","6413ed6a23881edc2e190e15","efficient","test_so","objective-positive","SubjObj","SV","subjective;objective","objective",1,1744134405939,"objective",2016.66666666667,1209,"objective","B","",7.09754885061479,7.60920126235678,36
"277","6413ed6a23881edc2e190e15","bankrupt","test_so","objective-negative","SubjObj","SV","subjective;objective","objective",1,1744134407827,"objective",1701.5,1127,"objective","B","",7.02731451403978,7.43926549394096,37
"278","6413ed6a23881edc2e190e15","beautiful","test_so","subjective-positive","SubjObj","SV","subjective;objective","objective",0,1744134409884,"objective",1741.16666666667,1299,"objective","B","",7.1693500166706,7.46231066560945,38
"279","6413ed6a23881edc2e190e15","incurable","test_so","objective-negative","SubjObj","SV","subjective;objective","objective",1,1744134411981,"objective",1860.08333333333,1332,"objective","B","",7.19443685110033,7.52837656857101,39
"280","6413ed6a23881edc2e190e15","passionate","test_so","subjective-positive","SubjObj","SV","subjective;objective","subjective",1,1744134413909,"subjective",1906.66666666667,1163,"objective","B","",7.05875815251866,7.55311179570573,40
"281","6413ed6a23881edc2e190e15","healthy","test_so","objective-positive","SubjObj","SV","subjective;objective","objective",1,1744134415673,"objective",1714.5,1003,"objective","B","",6.91075078796194,7.44687677190297,41
"282","6413ed6a23881edc2e190e15","efficient","test_so","objective-positive","SubjObj","SV","subjective;objective","objective",1,1744134417733,"objective",2016.66666666667,1297,"objective","B","",7.16780918431644,7.60920126235678,42
"283","6413ed6a23881edc2e190e15","hostile","test_so","subjective-negative","SubjObj","SV","subjective;objective","subjective",1,1744134419603,"subjective",1929.33333333333,1108,"objective","B","",7.01031186730723,7.56492979908326,43
"284","6413ed6a23881edc2e190e15","accurate","test_so","objective-positive","SubjObj","SV","subjective;objective","objective",1,1744134421501,"objective",1879.66666666667,1138,"objective","B","",7.03702761468628,7.53884973513907,44
"285","6413ed6a23881edc2e190e15","unstable","test_so","objective-negative","SubjObj","SV","subjective;objective","objective",1,1744134423583,"objective",2033.5,1314,"objective","B","",7.18083119904456,7.61751372534728,45
"286","6413ed6a23881edc2e190e15","faulty","test_so","objective-negative","SubjObj","SV","subjective;objective","objective",1,1744134425471,"objective",1961.5,1125,"objective","B","",7.02553831463852,7.58146476564961,46
"287","6413ed6a23881edc2e190e15","profitable","test_so","objective-positive","SubjObj","SV","subjective;objective","objective",1,1744134427342,"objective",1924.83333333333,1107,"objective","B","",7.00940893270864,7.56259466288703,47
"288","6413ed6a23881edc2e190e15","deadly","test_so","objective-negative","SubjObj","SV","subjective;objective","objective",1,1744134429038,"objective",1844,935,"objective","B","",6.84054652928869,7.51969240411654,48
"289","6413ed6a23881edc2e190e15","pointless","test_so","subjective-negative","SubjObj","SV","subjective;objective","subjective",1,1744134430966,"subjective",1905.83333333333,1167,"objective","B","",7.06219163228656,7.55267463722883,49
"290","6413ed6a23881edc2e190e15","adverse","test_so","objective-negative","SubjObj","SV","subjective;objective","objective",1,1744134433273,"objective",2491.16666666667,1542,"objective","B","",7.34083555412327,7.82050642055776,50
"291","6413ed6a23881edc2e190e15","efficient","test_so","objective-positive","SubjObj","SV","subjective;objective","objective",1,1744134435556,"objective",2016.66666666667,1521,"objective","B","",7.32712329225929,7.60920126235678,51
"292","6413ed6a23881edc2e190e15","brilliant","test_so","subjective-positive","SubjObj","SV","subjective;objective","subjective",1,1744134437520,"subjective",1856.83333333333,1201,"objective","B","",7.09090982207998,7.52662780683126,52
"293","6413ed6a23881edc2e190e15","defective","test_so","objective-negative","SubjObj","SV","subjective;objective","objective",1,1744134439415,"objective",1923.16666666667,1135,"objective","B","",7.0343879299155,7.56172841196661,53
"294","6413ed6a23881edc2e190e15","arrogant","test_so","subjective-negative","SubjObj","SV","subjective;objective","subjective",1,1744134441176,"subjective",1964.5,1000,"objective","B","",6.90775527898214,7.58299303899851,54
"295","6413ed6a23881edc2e190e15","refreshing","test_so","subjective-positive","SubjObj","SV","subjective;objective","objective",0,1744134443007,"objective",1840.66666666667,1068,"objective","B","",6.97354301952014,7.51788310382199,55
"296","6413ed6a23881edc2e190e15","bankrupt","test_so","objective-negative","SubjObj","SV","subjective;objective","objective",1,1744134444847,"objective",1701.5,1081,"objective","B","",6.98564181763921,7.43926549394096,56
"297","6413ed6a23881edc2e190e15","incurable","test_so","objective-negative","SubjObj","SV","subjective;objective","objective",1,1744134446735,"objective",1860.08333333333,1123,"objective","B","",7.02375895473844,7.52837656857101,57
"298","6413ed6a23881edc2e190e15","reliable","test_so","objective-positive","SubjObj","SV","subjective;objective","objective",1,1744134448524,"objective",1938.41666666667,1030,"objective","B","",6.93731408122368,7.56962676762191,58
"299","6413ed6a23881edc2e190e15","pathetic","test_so","subjective-negative","SubjObj","SV","subjective;objective","subjective",1,1744134450274,"subjective",1800.33333333333,988,"objective","B","",6.89568269774787,7.49572711192478,59
"300","6413ed6a23881edc2e190e15","delicious","test_so","subjective-positive","SubjObj","SV","subjective;objective","objective",0,1744134451899,"objective",2094.16666666667,864,"objective","B","",6.76157276880406,7.64691098074964,60
"301","6413ed6a23881edc2e190e15","corrupt","test_so","objective-negative","SubjObj","SV","subjective;objective","objective",1,1744134453733,"objective",1956.66666666667,1068,"objective","B","",6.97354301952014,7.57899762415403,61
"302","6413ed6a23881edc2e190e15","beautiful","test_so","subjective-positive","SubjObj","SV","subjective;objective","subjective",1,1744134455624,"subjective",1741.16666666667,1130,"objective","B","",7.02997291170639,7.46231066560945,62
"303","6413ed6a23881edc2e190e15","thoughtful","test_so","subjective-positive","SubjObj","SV","subjective;objective","objective",0,1744134457769,"objective",2678.16666666667,1382,"objective","B","",7.23128700432762,7.8928877598137,63
"304","6413ed6a23881edc2e190e15","successful","test_so","objective-positive","SubjObj","SV","subjective;objective","objective",1,1744134459555,"objective",1698.66666666667,1021,"objective","B","",6.92853781816467,7.43759890858389,64
"305","6413ed6a23881edc2e190e15","optimistic","test_so","subjective-positive","SubjObj","SV","subjective;objective","objective",0,1744134461003,"objective",1817,689,"objective","B","",6.53524127101366,7.50494206839617,65
"306","6413ed6a23881edc2e190e15","cynical","test_so","subjective-negative","SubjObj","SV","subjective;objective","subjective",1,1744134463328,"subjective",1826.16666666667,1564,"objective","B","",7.35500192110526,7.50997433117734,66
"307","6413ed6a23881edc2e190e15","authentic","test_so","subjective-positive","SubjObj","SV","subjective;objective","subjective",1,1744134465765,"subjective",2198.16666666667,1674,"objective","B","",7.42297125104942,7.69537895859783,67
"308","6413ed6a23881edc2e190e15","effective","test_so","objective-positive","SubjObj","SV","subjective;objective","objective",1,1744134467537,"objective",2079.83333333333,1007,"objective","B","",6.91473089271856,7.6400430412798,68
"309","6413ed6a23881edc2e190e15","annoying","test_so","subjective-negative","SubjObj","SV","subjective;objective","subjective",1,1744134469586,"subjective",2193.08333333333,1287,"objective","B","",7.16006920759613,7.69306374739192,69
"310","6413ed6a23881edc2e190e15","valuable","test_so","objective-positive","SubjObj","SV","subjective;objective","objective",1,1744134471493,"objective",1742.33333333333,1143,"objective","B","",7.04141166379481,7.46298049004481,70
"311","6413ed6a23881edc2e190e15","admirable","test_so","subjective-positive","SubjObj","SV","subjective;objective","objective",0,1744134474034,"objective",1964.5,1777,"objective","B","",7.48268182815465,7.58299303899851,71
"312","6413ed6a23881edc2e190e15","unfit","test_so","objective-negative","SubjObj","SV","subjective;objective","objective",1,1744134477337,"objective",2198,2542,"objective","B","",7.8407064517494,7.69530313496357,72
"313","6413ed6a23881edc2e190e15","passionate","test_so","subjective-positive","SubjObj","SV","subjective;objective","subjective",1,1744134479601,"subjective",1906.66666666667,1503,"objective","B","",7.31521838975297,7.55311179570573,73
"314","6413ed6a23881edc2e190e15","impatient","test_so","subjective-negative","SubjObj","SV","subjective;objective","subjective",1,1744134481423,"subjective",2035,1065,"objective","B","",6.97073007814353,7.6182510978767,74
"315","6413ed6a23881edc2e190e15","hopeless","test_so","subjective-negative","SubjObj","SV","subjective;objective","subjective",1,1744134483486,"subjective",1820.33333333333,1300,"objective","B","",7.17011954344963,7.50677491348404,75
"316","6413ed6a23881edc2e190e15","accurate","test_so","objective-positive","SubjObj","SV","subjective;objective","objective",1,1744134485051,"objective",1879.66666666667,804,"objective","B","",6.68959926917897,7.53884973513907,76
"317","6413ed6a23881edc2e190e15","selfish","test_so","subjective-negative","SubjObj","SV","subjective;objective","subjective",1,1744134486945,"subjective",1829.66666666667,1131,"objective","B","",7.03085747611612,7.51188907988178,77
"318","6413ed6a23881edc2e190e15","harmonious","test_so","subjective-positive","SubjObj","SV","subjective;objective","subjective",1,1744134488864,"subjective",1900.66666666667,1155,"objective","B","",7.05185562295589,7.54995998080451,78
"319","6413ed6a23881edc2e190e15","toxic","test_so","objective-negative","SubjObj","SV","subjective;objective","subjective",0,1744134490922,"subjective",1716,1293,"objective","B","",7.16472037877186,7.44775128004791,79
"320","6413ed6a23881edc2e190e15","disgusting","test_so","subjective-negative","SubjObj","SV","subjective;objective","subjective",1,1744134492681,"subjective",1895.16666666667,997,"objective","B","",6.90475076996184,7.54706206439667,80
"321","6413ed6a23881edc2e190e15","pointless","test_so","subjective-negative","SubjObj","SV","subjective;objective","subjective",1,1744134494728,"subjective",1905.83333333333,1286,"objective","B","",7.15929190479756,7.55267463722883,81
"322","6413ed6a23881edc2e190e15","admirable","test_so","subjective-positive","SubjObj","SV","subjective;objective","objective",0,1744134496550,"objective",1964.5,1062,"objective","B","",6.96790920180188,7.58299303899851,82
"323","6413ed6a23881edc2e190e15","profitable","test_so","objective-positive","SubjObj","SV","subjective;objective","objective",1,1744134498326,"objective",1924.83333333333,1011,"objective","B","",6.91869521902047,7.56259466288703,83
"324","6413ed6a23881edc2e190e15","optimistic","test_so","subjective-positive","SubjObj","SV","subjective;objective","subjective",1,1744134500428,"subjective",1817,1336,"objective","B","",7.19743535409659,7.50494206839617,84
"325","6413ed6a23881edc2e190e15","passionate","test_so","subjective-positive","SubjObj","SV","subjective;objective","subjective",1,1744134502447,"subjective",1906.66666666667,1255,"objective","B","",7.13489085156588,7.55311179570573,85
"326","6413ed6a23881edc2e190e15","cynical","test_so","subjective-negative","SubjObj","SV","subjective;objective","subjective",1,1744134504297,"subjective",1826.16666666667,1084,"objective","B","",6.98841318199959,7.50997433117734,86
"327","6413ed6a23881edc2e190e15","deadly","test_so","objective-negative","SubjObj","SV","subjective;objective","objective",1,1744134506218,"objective",1844,1158,"objective","B","",7.05444965813294,7.51969240411654,87
"328","6413ed6a23881edc2e190e15","accurate","test_so","objective-positive","SubjObj","SV","subjective;objective","objective",1,1744134507983,"objective",1879.66666666667,1005,"objective","B","",6.91274282049318,7.53884973513907,88
"329","6413ed6a23881edc2e190e15","corrupt","test_so","objective-negative","SubjObj","SV","subjective;objective","objective",1,1744134509811,"objective",1956.66666666667,1065,"objective","B","",6.97073007814353,7.57899762415403,89
"330","6413ed6a23881edc2e190e15","reliable","test_so","objective-positive","SubjObj","SV","subjective;objective","objective",1,1744134511582,"objective",1938.41666666667,1010,"objective","B","",6.9177056098353,7.56962676762191,90
"331","6413ed6a23881edc2e190e15","beautiful","test_so","subjective-positive","SubjObj","SV","subjective;objective","subjective",1,1744134513392,"subjective",1741.16666666667,1046,"objective","B","",6.95272864462487,7.46231066560945,91
"332","6413ed6a23881edc2e190e15","effective","test_so","objective-positive","SubjObj","SV","subjective;objective","subjective",0,1744134515711,"subjective",2079.83333333333,1560,"objective","B","",7.35244110024358,7.6400430412798,92
"333","6413ed6a23881edc2e190e15","efficient","test_so","objective-positive","SubjObj","SV","subjective;objective","objective",1,1744134517302,"objective",2016.66666666667,826,"objective","B","",6.71659477352098,7.60920126235678,93
"334","6413ed6a23881edc2e190e15","hostile","test_so","subjective-negative","SubjObj","SV","subjective;objective","subjective",1,1744134519116,"subjective",1929.33333333333,1054,"objective","B","",6.96034772910131,7.56492979908326,94
"335","6413ed6a23881edc2e190e15","pathetic","test_so","subjective-negative","SubjObj","SV","subjective;objective","objective",0,1744134521137,"objective",1800.33333333333,1263,"objective","B","",7.14124512235049,7.49572711192478,95
"336","6413ed6a23881edc2e190e15","unstable","test_so","objective-negative","SubjObj","SV","subjective;objective","subjective",0,1744134523370,"subjective",2033.5,1466,"objective","B","",7.2902928824466,7.61751372534728,96
"337","6413ed6a23881edc2e190e15","valuable","test_so","objective-positive","SubjObj","SV","subjective;objective","objective",1,1744134525082,"objective",1742.33333333333,952,"objective","B","",6.85856503479136,7.46298049004481,97
"338","6413ed6a23881edc2e190e15","brilliant","test_so","subjective-positive","SubjObj","SV","subjective;objective","subjective",1,1744134527050,"subjective",1856.83333333333,1206,"objective","B","",7.09506437728713,7.52662780683126,98
"339","6413ed6a23881edc2e190e15","arrogant","test_so","subjective-negative","SubjObj","SV","subjective;objective","subjective",1,1744134528812,"subjective",1964.5,1001,"objective","B","",6.90875477931522,7.58299303899851,99
"340","6413ed6a23881edc2e190e15","incurable","test_so","objective-negative","SubjObj","SV","subjective;objective","objective",1,1744134530719,"objective",1860.08333333333,1142,"objective","B","",7.04053639021596,7.52837656857101,100
"341","6413ed6a23881edc2e190e15","harmonious","test_so","subjective-positive","SubjObj","SV","subjective;objective","subjective",1,1744134532686,"subjective",1900.66666666667,1205,"objective","B","",7.09423484592476,7.54995998080451,101
"342","6413ed6a23881edc2e190e15","faulty","test_so","objective-negative","SubjObj","SV","subjective;objective","subjective",0,1744134535350,"subjective",1961.5,1899,"objective","B","",7.54908271081229,7.58146476564961,102
"343","6413ed6a23881edc2e190e15","accurate","test_so","objective-positive","SubjObj","SV","subjective;objective","objective",1,1744134538214,"objective",1879.66666666667,2104,"objective","B","",7.6515955738576,7.53884973513907,103
"344","6413ed6a23881edc2e190e15","delicious","test_so","subjective-positive","SubjObj","SV","subjective;objective","subjective",1,1744134540398,"subjective",2094.16666666667,1419,"objective","B","",7.25770767716004,7.64691098074964,104
"345","6413ed6a23881edc2e190e15","impatient","test_so","subjective-negative","SubjObj","SV","subjective;objective","subjective",1,1744134542815,"subjective",2035,1652,"objective","B","",7.40974195408092,7.6182510978767,105
"346","6413ed6a23881edc2e190e15","disgusting","test_so","subjective-negative","SubjObj","SV","subjective;objective","subjective",1,1744134544595,"subjective",1895.16666666667,1017,"objective","B","",6.92461239604856,7.54706206439667,106
"347","6413ed6a23881edc2e190e15","defective","test_so","objective-negative","SubjObj","SV","subjective;objective","objective",1,1744134547302,"objective",1923.16666666667,1944,"objective","B","",7.57250298502038,7.56172841196661,107
"348","6413ed6a23881edc2e190e15","selfish","test_so","subjective-negative","SubjObj","SV","subjective;objective","subjective",1,1744134549074,"subjective",1829.66666666667,1008,"objective","B","",6.91572344863131,7.51188907988178,108
"349","6413ed6a23881edc2e190e15","adverse","test_so","objective-negative","SubjObj","SV","subjective;objective","objective",1,1744134551009,"objective",2491.16666666667,1173,"objective","B","",7.06731984865348,7.82050642055776,109
"350","6413ed6a23881edc2e190e15","bankrupt","test_so","objective-negative","SubjObj","SV","subjective;objective","objective",1,1744134552560,"objective",1701.5,790,"objective","B","",6.67203294546107,7.43926549394096,110
"351","6413ed6a23881edc2e190e15","refreshing","test_so","subjective-positive","SubjObj","SV","subjective;objective","subjective",1,1744134554573,"subjective",1840.66666666667,1250,"objective","B","",7.13089883029635,7.51788310382199,111
"352","6413ed6a23881edc2e190e15","annoying","test_so","subjective-negative","SubjObj","SV","subjective;objective","subjective",1,1744134556696,"subjective",2193.08333333333,1363,"objective","B","",7.21744343169653,7.69306374739192,112
"353","6413ed6a23881edc2e190e15","healthy","test_so","objective-positive","SubjObj","SV","subjective;objective","objective",1,1744134558660,"objective",1714.5,1196,"objective","B","",7.08673793451058,7.44687677190297,113
"354","6413ed6a23881edc2e190e15","unfit","test_so","objective-negative","SubjObj","SV","subjective;objective","subjective",0,1744134560841,"subjective",2198,1419,"objective","B","",7.25770767716004,7.69530313496357,114
"355","6413ed6a23881edc2e190e15","authentic","test_so","subjective-positive","SubjObj","SV","subjective;objective","subjective",1,1744134563154,"subjective",2198.16666666667,1552,"objective","B","",7.34729970074316,7.69537895859783,115
"356","6413ed6a23881edc2e190e15","successful","test_so","objective-positive","SubjObj","SV","subjective;objective","objective",1,1744134565022,"objective",1698.66666666667,1107,"objective","B","",7.00940893270864,7.43759890858389,116
"357","6413ed6a23881edc2e190e15","toxic","test_so","objective-negative","SubjObj","SV","subjective;objective","subjective",0,1744134566759,"subjective",1716,977,"objective","B","",6.88448665204278,7.44775128004791,117
"358","6413ed6a23881edc2e190e15","efficient","test_so","objective-positive","SubjObj","SV","subjective;objective","objective",1,1744134568633,"objective",2016.66666666667,1112,"objective","B","",7.01391547481053,7.60920126235678,118
"359","6413ed6a23881edc2e190e15","hopeless","test_so","subjective-negative","SubjObj","SV","subjective;objective","subjective",1,1744134570261,"subjective",1820.33333333333,869,"objective","B","",6.76734312526539,7.50677491348404,119
"360","6413ed6a23881edc2e190e15","thoughtful","test_so","subjective-positive","SubjObj","SV","subjective;objective","subjective",1,1744134572278,"subjective",2678.16666666667,1261,"objective","B","",7.13966033596492,7.8928877598137,120
"361","6413ed6a23881edc2e190e15","successful","test_val","objective-positive","Valence","SV","negative;positive","positive",1,1744134719410,"positive",1698.66666666667,726,"positive","B","",6.5875500148248,7.43759890858389,121
"362","6413ed6a23881edc2e190e15","accurate","test_val","objective-positive","Valence","SV","negative;positive","positive",1,1744134721049,"positive",1879.66666666667,873,"positive","B","",6.7719355558396,7.53884973513907,122
"363","6413ed6a23881edc2e190e15","admirable","test_val","subjective-positive","Valence","SV","negative;positive","positive",1,1744134722790,"positive",1964.5,977,"positive","B","",6.88448665204278,7.58299303899851,123
"364","6413ed6a23881edc2e190e15","hopeless","test_val","subjective-negative","Valence","SV","negative;positive","negative",1,1744134724406,"negative",1820.33333333333,856,"positive","B","",6.75227037614174,7.50677491348404,124
"365","6413ed6a23881edc2e190e15","refreshing","test_val","subjective-positive","Valence","SV","negative;positive","positive",1,1744134726009,"positive",1840.66666666667,838,"positive","B","",6.73101810048208,7.51788310382199,125
"366","6413ed6a23881edc2e190e15","bankrupt","test_val","objective-negative","Valence","SV","negative;positive","negative",1,1744134727681,"negative",1701.5,911,"positive","B","",6.81454289725996,7.43926549394096,126
"367","6413ed6a23881edc2e190e15","cynical","test_val","subjective-negative","Valence","SV","negative;positive","negative",1,1744134729618,"negative",1826.16666666667,1172,"positive","B","",7.06646697013696,7.50997433117734,127
"368","6413ed6a23881edc2e190e15","accurate","test_val","objective-positive","Valence","SV","negative;positive","positive",1,1744134731300,"positive",1879.66666666667,923,"positive","B","",6.82762923450285,7.53884973513907,128
"369","6413ed6a23881edc2e190e15","thoughtful","test_val","subjective-positive","Valence","SV","negative;positive","positive",1,1744134732907,"positive",2678.16666666667,840,"positive","B","",6.73340189183736,7.8928877598137,129
"370","6413ed6a23881edc2e190e15","valuable","test_val","objective-positive","Valence","SV","negative;positive","positive",1,1744134734481,"positive",1742.33333333333,811,"positive","B","",6.69826805411541,7.46298049004481,130
"371","6413ed6a23881edc2e190e15","beautiful","test_val","subjective-positive","Valence","SV","negative;positive","positive",1,1744134736129,"positive",1741.16666666667,885,"positive","B","",6.78558764500793,7.46231066560945,131
"372","6413ed6a23881edc2e190e15","reliable","test_val","objective-positive","Valence","SV","negative;positive","positive",1,1744134737830,"positive",1938.41666666667,938,"positive","B","",6.84374994900622,7.56962676762191,132
"373","6413ed6a23881edc2e190e15","impatient","test_val","subjective-negative","Valence","SV","negative;positive","negative",1,1744134739623,"negative",2035,1031,"positive","B","",6.93828448401696,7.6182510978767,133
"374","6413ed6a23881edc2e190e15","arrogant","test_val","subjective-negative","Valence","SV","negative;positive","negative",1,1744134741403,"negative",1964.5,1021,"positive","B","",6.92853781816467,7.58299303899851,134
"375","6413ed6a23881edc2e190e15","profitable","test_val","objective-positive","Valence","SV","negative;positive","positive",1,1744134743257,"positive",1924.83333333333,1093,"positive","B","",6.99668148817654,7.56259466288703,135
"376","6413ed6a23881edc2e190e15","unstable","test_val","objective-negative","Valence","SV","negative;positive","negative",1,1744134744980,"negative",2033.5,961,"positive","B","",6.86797440897029,7.61751372534728,136
"377","6413ed6a23881edc2e190e15","toxic","test_val","objective-negative","Valence","SV","negative;positive","negative",1,1744134746679,"negative",1716,934,"positive","B","",6.83947643822884,7.44775128004791,137
"378","6413ed6a23881edc2e190e15","passionate","test_val","subjective-positive","Valence","SV","negative;positive","positive",1,1744134748610,"positive",1906.66666666667,1171,"positive","B","",7.06561336359772,7.55311179570573,138
"379","6413ed6a23881edc2e190e15","efficient","test_val","objective-positive","Valence","SV","negative;positive","positive",1,1744134750881,"positive",2016.66666666667,1506,"positive","B","",7.31721240835984,7.60920126235678,139
"380","6413ed6a23881edc2e190e15","faulty","test_val","objective-negative","Valence","SV","negative;positive","negative",1,1744134752532,"negative",1961.5,891,"positive","B","",6.79234442747081,7.58146476564961,140
"381","6413ed6a23881edc2e190e15","brilliant","test_val","subjective-positive","Valence","SV","negative;positive","positive",1,1744134754117,"positive",1856.83333333333,826,"positive","B","",6.71659477352098,7.52662780683126,141
"382","6413ed6a23881edc2e190e15","pointless","test_val","subjective-negative","Valence","SV","negative;positive","negative",1,1744134755929,"negative",1905.83333333333,1051,"positive","B","",6.95749737087695,7.55267463722883,142
"383","6413ed6a23881edc2e190e15","adverse","test_val","objective-negative","Valence","SV","negative;positive","negative",1,1744134757516,"negative",2491.16666666667,827,"positive","B","",6.71780469502369,7.82050642055776,143
"384","6413ed6a23881edc2e190e15","defective","test_val","objective-negative","Valence","SV","negative;positive","negative",1,1744134759209,"negative",1923.16666666667,932,"positive","B","",6.83733281468559,7.56172841196661,144
"385","6413ed6a23881edc2e190e15","pathetic","test_val","subjective-negative","Valence","SV","negative;positive","negative",1,1744134760962,"negative",1800.33333333333,995,"positive","B","",6.90274273715859,7.49572711192478,145
"386","6413ed6a23881edc2e190e15","healthy","test_val","objective-positive","Valence","SV","negative;positive","positive",1,1744134762805,"positive",1714.5,1081,"positive","B","",6.98564181763921,7.44687677190297,146
"387","6413ed6a23881edc2e190e15","corrupt","test_val","objective-negative","Valence","SV","negative;positive","negative",1,1744134764588,"negative",1956.66666666667,1021,"positive","B","",6.92853781816467,7.57899762415403,147
"388","6413ed6a23881edc2e190e15","unfit","test_val","objective-negative","Valence","SV","negative;positive","negative",1,1744134766332,"negative",2198,983,"positive","B","",6.89060912014717,7.69530313496357,148
"389","6413ed6a23881edc2e190e15","annoying","test_val","subjective-negative","Valence","SV","negative;positive","negative",1,1744134767926,"negative",2193.08333333333,836,"positive","B","",6.7286286130847,7.69306374739192,149
"390","6413ed6a23881edc2e190e15","harmonious","test_val","subjective-positive","Valence","SV","negative;positive","positive",1,1744134769886,"positive",1900.66666666667,1201,"positive","B","",7.09090982207998,7.54995998080451,150
"391","6413ed6a23881edc2e190e15","disgusting","test_val","subjective-negative","Valence","SV","negative;positive","negative",1,1744134771804,"negative",1895.16666666667,1155,"positive","B","",7.05185562295589,7.54706206439667,151
"392","6413ed6a23881edc2e190e15","authentic","test_val","subjective-positive","Valence","SV","negative;positive","positive",1,1744134773710,"positive",2198.16666666667,1143,"positive","B","",7.04141166379481,7.69537895859783,152
"393","6413ed6a23881edc2e190e15","optimistic","test_val","subjective-positive","Valence","SV","negative;positive","positive",1,1744134775856,"positive",1817,1382,"positive","B","",7.23128700432762,7.50494206839617,153
"394","6413ed6a23881edc2e190e15","selfish","test_val","subjective-negative","Valence","SV","negative;positive","negative",1,1744134777502,"negative",1829.66666666667,885,"positive","B","",6.78558764500793,7.51188907988178,154
"395","6413ed6a23881edc2e190e15","deadly","test_val","objective-negative","Valence","SV","negative;positive","negative",1,1744134779444,"negative",1844,1175,"positive","B","",7.06902342657826,7.51969240411654,155
"396","6413ed6a23881edc2e190e15","efficient","test_val","objective-positive","Valence","SV","negative;positive","positive",1,1744134781888,"positive",2016.66666666667,1684,"positive","B","",7.42892719480227,7.60920126235678,156
"397","6413ed6a23881edc2e190e15","delicious","test_val","subjective-positive","Valence","SV","negative;positive","positive",1,1744134784778,"positive",2094.16666666667,2129,"positive","B","",7.66340766489348,7.64691098074964,157
"398","6413ed6a23881edc2e190e15","incurable","test_val","objective-negative","Valence","SV","negative;positive","negative",1,1744134786536,"negative",1860.08333333333,993,"positive","B","",6.90073066404517,7.52837656857101,158
"399","6413ed6a23881edc2e190e15","hostile","test_val","subjective-negative","Valence","SV","negative;positive","negative",1,1744134788866,"negative",1929.33333333333,1568,"positive","B","",7.35755620091035,7.56492979908326,159
"400","6413ed6a23881edc2e190e15","effective","test_val","objective-positive","Valence","SV","negative;positive","positive",1,1744134791765,"positive",2079.83333333333,2135,"positive","B","",7.66622192566273,7.6400430412798,160
"401","6413ed6a23881edc2e190e15","cynical","test_val","subjective-negative","Valence","SV","negative;positive","negative",1,1744134793314,"negative",1826.16666666667,788,"positive","B","",6.66949808985788,7.50997433117734,161
"402","6413ed6a23881edc2e190e15","bankrupt","test_val","objective-negative","Valence","SV","negative;positive","negative",1,1744134795018,"negative",1701.5,945,"positive","B","",6.85118492749374,7.43926549394096,162
"403","6413ed6a23881edc2e190e15","valuable","test_val","objective-positive","Valence","SV","negative;positive","positive",1,1744134796670,"positive",1742.33333333333,890,"positive","B","",6.79122146272619,7.46298049004481,163
"404","6413ed6a23881edc2e190e15","successful","test_val","objective-positive","Valence","SV","negative;positive","positive",1,1744134798064,"positive",1698.66666666667,628,"positive","B","",6.4425401664682,7.43759890858389,164
"405","6413ed6a23881edc2e190e15","arrogant","test_val","subjective-negative","Valence","SV","negative;positive","negative",1,1744134799585,"negative",1964.5,755,"positive","B","",6.62671774924902,7.58299303899851,165
"406","6413ed6a23881edc2e190e15","defective","test_val","objective-negative","Valence","SV","negative;positive","negative",1,1744134801138,"negative",1923.16666666667,793,"positive","B","",6.67582322163485,7.56172841196661,166
"407","6413ed6a23881edc2e190e15","effective","test_val","objective-positive","Valence","SV","negative;positive","positive",1,1744134802883,"positive",2079.83333333333,982,"positive","B","",6.88959130835447,7.6400430412798,167
"408","6413ed6a23881edc2e190e15","efficient","test_val","objective-positive","Valence","SV","negative;positive","positive",1,1744134804469,"positive",2016.66666666667,825,"positive","B","",6.71538338633468,7.60920126235678,168
"409","6413ed6a23881edc2e190e15","beautiful","test_val","subjective-positive","Valence","SV","negative;positive","positive",1,1744134805933,"positive",1741.16666666667,707,"positive","B","",6.56103066589657,7.46231066560945,169
"410","6413ed6a23881edc2e190e15","toxic","test_val","objective-negative","Valence","SV","negative;positive","negative",1,1744134807444,"negative",1716,750,"positive","B","",6.62007320653036,7.44775128004791,170
"411","6413ed6a23881edc2e190e15","profitable","test_val","objective-positive","Valence","SV","negative;positive","positive",1,1744134809489,"positive",1924.83333333333,1282,"positive","B","",7.15617663748062,7.56259466288703,171
"412","6413ed6a23881edc2e190e15","faulty","test_val","objective-negative","Valence","SV","negative;positive","negative",1,1744134811180,"negative",1961.5,928,"positive","B","",6.8330317327862,7.58146476564961,172
"413","6413ed6a23881edc2e190e15","optimistic","test_val","subjective-positive","Valence","SV","negative;positive","positive",1,1744134812821,"positive",1817,879,"positive","B","",6.77878489768518,7.50494206839617,173
"414","6413ed6a23881edc2e190e15","reliable","test_val","objective-positive","Valence","SV","negative;positive","positive",1,1744134814908,"positive",1938.41666666667,1324,"positive","B","",7.18841273649695,7.56962676762191,174
"415","6413ed6a23881edc2e190e15","harmonious","test_val","subjective-positive","Valence","SV","negative;positive","positive",1,1744134816788,"positive",1900.66666666667,1116,"positive","B","",7.01750614294126,7.54995998080451,175
"416","6413ed6a23881edc2e190e15","hopeless","test_val","subjective-negative","Valence","SV","negative;positive","negative",1,1744134818661,"negative",1820.33333333333,1111,"positive","B","",7.01301578963963,7.50677491348404,176
"417","6413ed6a23881edc2e190e15","incurable","test_val","objective-negative","Valence","SV","negative;positive","negative",1,1744134820302,"negative",1860.08333333333,877,"positive","B","",6.77650699237218,7.52837656857101,177
"418","6413ed6a23881edc2e190e15","passionate","test_val","subjective-positive","Valence","SV","negative;positive","positive",1,1744134822083,"positive",1906.66666666667,1018,"positive","B","",6.92559519711047,7.55311179570573,178
"419","6413ed6a23881edc2e190e15","hostile","test_val","subjective-negative","Valence","SV","negative;positive","negative",1,1744134823784,"negative",1929.33333333333,934,"positive","B","",6.83947643822884,7.56492979908326,179
"420","6413ed6a23881edc2e190e15","admirable","test_val","subjective-positive","Valence","SV","negative;positive","positive",1,1744134825614,"positive",1964.5,1072,"positive","B","",6.97728134163075,7.58299303899851,180
"421","6413ed6a23881edc2e190e15","impatient","test_val","subjective-negative","Valence","SV","negative;positive","negative",1,1744134827631,"negative",2035,1257,"positive","B","",7.13648320859025,7.6182510978767,181
"422","6413ed6a23881edc2e190e15","efficient","test_val","objective-positive","Valence","SV","negative;positive","negative",0,1744134829476,"negative",2016.66666666667,1083,"positive","B","",6.98749024700099,7.60920126235678,182
"423","6413ed6a23881edc2e190e15","authentic","test_val","subjective-positive","Valence","SV","negative;positive","positive",1,1744134831271,"positive",2198.16666666667,1037,"positive","B","",6.94408720822953,7.69537895859783,183
"424","6413ed6a23881edc2e190e15","corrupt","test_val","objective-negative","Valence","SV","negative;positive","negative",1,1744134833265,"negative",1956.66666666667,1230,"positive","B","",7.11476944836646,7.57899762415403,184
"425","6413ed6a23881edc2e190e15","delicious","test_val","subjective-positive","Valence","SV","negative;positive","positive",1,1744134835717,"positive",2094.16666666667,1689,"positive","B","",7.4318919168078,7.64691098074964,185
"426","6413ed6a23881edc2e190e15","healthy","test_val","objective-positive","Valence","SV","negative;positive","positive",1,1744134837169,"positive",1714.5,687,"positive","B","",6.53233429222235,7.44687677190297,186
"427","6413ed6a23881edc2e190e15","selfish","test_val","subjective-negative","Valence","SV","negative;positive","negative",1,1744134839081,"negative",1829.66666666667,1151,"positive","B","",7.04838640872188,7.51188907988178,187
"428","6413ed6a23881edc2e190e15","pathetic","test_val","subjective-negative","Valence","SV","negative;positive","negative",1,1744134841145,"negative",1800.33333333333,1302,"positive","B","",7.17165682276851,7.49572711192478,188
"429","6413ed6a23881edc2e190e15","accurate","test_val","objective-positive","Valence","SV","negative;positive","positive",1,1744134842811,"positive",1879.66666666667,907,"positive","B","",6.81014245011514,7.53884973513907,189
"430","6413ed6a23881edc2e190e15","brilliant","test_val","subjective-positive","Valence","SV","negative;positive","positive",1,1744134844407,"positive",1856.83333333333,833,"positive","B","",6.72503364216684,7.52662780683126,190
"431","6413ed6a23881edc2e190e15","annoying","test_val","subjective-negative","Valence","SV","negative;positive","negative",1,1744134846655,"negative",2193.08333333333,1491,"positive","B","",7.30720231476474,7.69306374739192,191
"432","6413ed6a23881edc2e190e15","accurate","test_val","objective-positive","Valence","SV","negative;positive","positive",1,1744134848204,"positive",1879.66666666667,785,"positive","B","",6.66568371778241,7.53884973513907,192
"433","6413ed6a23881edc2e190e15","pointless","test_val","subjective-negative","Valence","SV","negative;positive","negative",1,1744134850092,"negative",1905.83333333333,1126,"positive","B","",7.02642680869964,7.55267463722883,193
"434","6413ed6a23881edc2e190e15","thoughtful","test_val","subjective-positive","Valence","SV","negative;positive","positive",1,1744134855846,"positive",2678.16666666667,4991,"positive","B","",8.51539156946961,7.8928877598137,194
"435","6413ed6a23881edc2e190e15","adverse","test_val","objective-negative","Valence","SV","negative;positive","negative",1,1744134861288,"negative",2491.16666666667,4680,"positive","B","",8.45105338891169,7.82050642055776,195
"436","6413ed6a23881edc2e190e15","deadly","test_val","objective-negative","Valence","SV","negative;positive","negative",1,1744134863119,"negative",1844,1065,"positive","B","",6.97073007814353,7.51969240411654,196
"437","6413ed6a23881edc2e190e15","unstable","test_val","objective-negative","Valence","SV","negative;positive","negative",1,1744134865548,"negative",2033.5,1672,"positive","B","",7.42177579364465,7.61751372534728,197
"438","6413ed6a23881edc2e190e15","refreshing","test_val","subjective-positive","Valence","SV","negative;positive","positive",1,1744134867507,"positive",1840.66666666667,1198,"positive","B","",7.08840877867539,7.51788310382199,198
"439","6413ed6a23881edc2e190e15","unfit","test_val","objective-negative","Valence","SV","negative;positive","negative",1,1744134869341,"negative",2198,1072,"positive","B","",6.97728134163075,7.69530313496357,199
"440","6413ed6a23881edc2e190e15","disgusting","test_val","subjective-negative","Valence","SV","negative;positive","negative",1,1744134871999,"negative",1895.16666666667,1898,"positive","B","",7.54855597916987,7.54706206439667,200
"441","6413ed6a23881edc2e190e15","defective","test_val","objective-negative","Valence","SV","negative;positive","negative",1,1744134873660,"negative",1923.16666666667,901,"positive","B","",6.80350525760834,7.56172841196661,201
