"","ID.true","Word","Label","ConcValCombo","Task","BlockOrder","Group","Response","Accuracy","EventTime","Value","RT","ReactionTime","Key_value_F","Key_value_J","Comments","LogReactionTime","LogRT","TrialNumber","ConcValFinal","AccuracyCorrected"
"1","5f4cd10836de2f02dbab436c","stab","test_val","concrete-negative","Valence","VC","negative;positive","negative",1,1731609370026,"negative",1414.16666666667,642,"positive","A",NA,6.46458830368996,7.25429570844027,1,"concrete-negative",1
"2","5f4cd10836de2f02dbab436c","doubt","test_val","abstract-negative","Valence","VC","negative;positive","positive",0,1731609374210,"positive",1422.16666666667,647,"positive","A",NA,6.4723462945009,7.25993680930853,4,"abstract-negative",0
"3","5f4cd10836de2f02dbab436c","cherish","test_val","abstract-positive","Valence","VC","negative;positive","positive",1,1731609399850,"positive",1536.16666666667,590,"positive","A",NA,6.38012253689976,7.33704541476561,23,"abstract-positive",1
"4","5f4cd10836de2f02dbab436c","stab","test_val","concrete-negative","Valence","VC","negative;positive","negative",1,1731609430851,"negative",1414.16666666667,517,"positive","A",NA,6.24804287450843,7.25429570844027,46,"concrete-negative",1
"5","5f4cd10836de2f02dbab436c","doubt","test_val","abstract-negative","Valence","VC","negative;positive","negative",1,1731609452498,"negative",1422.16666666667,636,"positive","A",NA,6.45519856334012,7.25993680930853,62,"abstract-negative",1
"6","5f4cd10836de2f02dbab436c","cherish","test_val","abstract-positive","Valence","VC","negative;positive","positive",1,1731609457882,"positive",1536.16666666667,555,"positive","A",NA,6.31896811374643,7.33704541476561,66,"abstract-positive",1
"7","5f4cd10836de2f02dbab436c","doubt","test_val","abstract-negative","Valence","VC","negative;positive","negative",1,1731609484778,"negative",1422.16666666667,599,"positive","A",NA,6.39526159811545,7.25993680930853,86,"abstract-negative",1
"8","5f4cd10836de2f02dbab436c","stab","test_val","concrete-negative","Valence","VC","negative;positive","negative",1,1731609518779,"negative",1414.16666666667,558,"positive","A",NA,6.32435896238131,7.25429570844027,111,"concrete-negative",1
"9","5f4cd10836de2f02dbab436c","cherish","test_val","abstract-positive","Valence","VC","negative;positive","positive",1,1731609525699,"positive",1536.16666666667,568,"positive","A",NA,6.34212141872115,7.33704541476561,116,"abstract-positive",1
"10","5f4cd10836de2f02dbab436c","stab","test_conc","concrete-negative","Concrete","VC","abstract;concrete","abstract",0,1731609617667,"abstract",1414.16666666667,893,"concrete","A",NA,6.7945865808765,7.25429570844027,121,"concrete-negative",0
"11","5f4cd10836de2f02dbab436c","cherish","test_conc","abstract-positive","Concrete","VC","abstract;concrete","abstract",1,1731609658420,"abstract",1536.16666666667,783,"concrete","A",NA,6.6631326959908,7.33704541476561,147,"abstract-positive",1
"12","5f4cd10836de2f02dbab436c","doubt","test_conc","abstract-negative","Concrete","VC","abstract;concrete","abstract",1,1731609661387,"abstract",1422.16666666667,588,"concrete","A",NA,6.37672694789863,7.25993680930853,149,"abstract-negative",1
"13","5f4cd10836de2f02dbab436c","cherish","test_conc","abstract-positive","Concrete","VC","abstract;concrete","abstract",1,1731609682059,"abstract",1536.16666666667,1184,"concrete","A",NA,7.07665381544395,7.33704541476561,162,"abstract-positive",1
"14","5f4cd10836de2f02dbab436c","stab","test_conc","concrete-negative","Concrete","VC","abstract;concrete","concrete",1,1731609692707,"concrete",1414.16666666667,722,"concrete","A",NA,6.58202513889283,7.25429570844027,169,"concrete-negative",1
"15","5f4cd10836de2f02dbab436c","doubt","test_conc","abstract-negative","Concrete","VC","abstract;concrete","abstract",1,1731609722539,"abstract",1422.16666666667,805,"concrete","A",NA,6.69084227741856,7.25993680930853,188,"abstract-negative",1
"16","5f4cd10836de2f02dbab436c","cherish","test_conc","abstract-positive","Concrete","VC","abstract;concrete","concrete",0,1731609757283,"concrete",1536.16666666667,993,"concrete","A",NA,6.90073066404517,7.33704541476561,210,"abstract-positive",0
"17","5f4cd10836de2f02dbab436c","doubt","test_conc","abstract-negative","Concrete","VC","abstract;concrete","concrete",0,1731609780596,"concrete",1422.16666666667,715,"concrete","A",NA,6.57228254269401,7.25993680930853,225,"abstract-negative",0
"18","5f4cd10836de2f02dbab436c","stab","test_conc","concrete-negative","Concrete","VC","abstract;concrete","concrete",1,1731609783524,"concrete",1414.16666666667,606,"concrete","A",NA,6.40687998606931,7.25429570844027,227,"concrete-negative",1
"19","6119bdc932d9ebe82ea581e1","cherish","test_conc","abstract-positive","Concrete","CV","abstract;concrete","abstract",1,1731619283617,"abstract",1599.5,1242,"concrete","A",NA,7.12447826249342,7.37744635938957,3,"abstract-positive",1
"20","6119bdc932d9ebe82ea581e1","stab","test_conc","concrete-negative","Concrete","CV","abstract;concrete","concrete",1,1731619299225,"concrete",1507.83333333333,1074,"concrete","A",NA,6.97914527506881,7.31842902079769,10,"concrete-negative",1
"21","6119bdc932d9ebe82ea581e1","doubt","test_conc","abstract-negative","Concrete","CV","abstract;concrete","concrete",0,1731619314425,"concrete",1920.83333333333,1739,"concrete","A",NA,7.46106551435428,7.56051439863679,17,"abstract-negative",0
"22","6119bdc932d9ebe82ea581e1","stab","test_conc","concrete-negative","Concrete","CV","abstract;concrete","concrete",1,1731619382977,"concrete",1507.83333333333,699,"concrete","A",NA,6.54965074223381,7.31842902079769,50,"concrete-negative",1
"23","6119bdc932d9ebe82ea581e1","doubt","test_conc","abstract-negative","Concrete","CV","abstract;concrete","abstract",1,1731619394097,"abstract",1920.83333333333,2050,"concrete","A",NA,7.62559507213245,7.56051439863679,55,"abstract-negative",1
"24","6119bdc932d9ebe82ea581e1","cherish","test_conc","abstract-positive","Concrete","CV","abstract;concrete","abstract",1,1731619418930,"abstract",1599.5,737,"concrete","A",NA,6.60258789218934,7.37744635938957,69,"abstract-positive",1
"25","6119bdc932d9ebe82ea581e1","stab","test_conc","concrete-negative","Concrete","CV","abstract;concrete","concrete",1,1731619460481,"concrete",1507.83333333333,499,"concrete","A",NA,6.21260609575152,7.31842902079769,91,"concrete-negative",1
"26","6119bdc932d9ebe82ea581e1","doubt","test_conc","abstract-negative","Concrete","CV","abstract;concrete","abstract",1,1731619466937,"abstract",1920.83333333333,835,"concrete","A",NA,6.72743172485086,7.56051439863679,95,"abstract-negative",1
"27","6119bdc932d9ebe82ea581e1","cherish","test_conc","abstract-positive","Concrete","CV","abstract;concrete","abstract",1,1731619504145,"abstract",1599.5,845,"concrete","A",NA,6.73933662735717,7.37744635938957,116,"abstract-positive",1
"28","6119bdc932d9ebe82ea581e1","doubt","test_val","abstract-negative","Valence","CV","negative;positive","negative",1,1731619636265,"negative",1920.83333333333,977,"positive","A",NA,6.88448665204278,7.56051439863679,144,"abstract-negative",1
"29","6119bdc932d9ebe82ea581e1","stab","test_val","concrete-negative","Valence","CV","negative;positive","negative",1,1731619644009,"negative",1507.83333333333,828,"positive","A",NA,6.71901315438526,7.31842902079769,149,"concrete-negative",1
"30","6119bdc932d9ebe82ea581e1","cherish","test_val","abstract-positive","Valence","CV","negative;positive","positive",1,1731619655601,"positive",1599.5,667,"positive","A",NA,6.50279004591562,7.37744635938957,156,"abstract-positive",1
"31","6119bdc932d9ebe82ea581e1","stab","test_val","concrete-negative","Valence","CV","negative;positive","negative",1,1731619699929,"negative",1507.83333333333,682,"positive","A",NA,6.52502965784346,7.31842902079769,183,"concrete-negative",1
"32","6119bdc932d9ebe82ea581e1","doubt","test_val","abstract-negative","Valence","CV","negative;positive","negative",1,1731619721129,"negative",1920.83333333333,599,"positive","A",NA,6.39526159811545,7.56051439863679,196,"abstract-negative",1
"33","6119bdc932d9ebe82ea581e1","cherish","test_val","abstract-positive","Valence","CV","negative;positive","positive",1,1731619725449,"positive",1599.5,492,"positive","A",NA,6.19847871649231,7.37744635938957,199,"abstract-positive",1
"34","6119bdc932d9ebe82ea581e1","stab","test_val","concrete-negative","Valence","CV","negative;positive","negative",1,1731619729897,"negative",1507.83333333333,728,"positive","A",NA,6.59030104819669,7.31842902079769,202,"concrete-negative",1
"35","6119bdc932d9ebe82ea581e1","doubt","test_val","abstract-negative","Valence","CV","negative;positive","negative",1,1731619733121,"negative",1920.83333333333,793,"positive","A",NA,6.67582322163485,7.56051439863679,204,"abstract-negative",1
"36","6119bdc932d9ebe82ea581e1","cherish","test_val","abstract-positive","Valence","CV","negative;positive","positive",1,1731619759953,"positive",1599.5,1084,"positive","A",NA,6.98841318199959,7.37744635938957,222,"abstract-positive",1
"37","5dd43c63390fb6428d4974f0","cherish","test_val","abstract-positive","Valence","VC","negative;positive","positive",1,1731609213891,"positive",1701.33333333333,1008,"positive","A",NA,6.91572344863131,7.43916753635652,1,"abstract-positive",1
"38","5dd43c63390fb6428d4974f0","doubt","test_val","abstract-negative","Valence","VC","negative;positive","negative",1,1731609276268,"negative",1664.83333333333,818,"positive","A",NA,6.70686233660275,7.41748029730409,39,"abstract-negative",1
"39","5dd43c63390fb6428d4974f0","stab","test_val","concrete-negative","Valence","VC","negative;positive","negative",1,1731609277660,"negative",1476.66666666667,626,"positive","A",NA,6.4393503711001,7.29754257437107,40,"concrete-negative",1
"40","5dd43c63390fb6428d4974f0","stab","test_val","concrete-negative","Valence","VC","negative;positive","negative",1,1731609280470,"negative",1476.66666666667,610,"positive","A",NA,6.41345895716736,7.29754257437107,42,"concrete-negative",1
"41","5dd43c63390fb6428d4974f0","cherish","test_val","abstract-positive","Valence","VC","negative;positive","positive",1,1731609295550,"positive",1701.33333333333,547,"positive","A",NA,6.30444880242198,7.43916753635652,51,"abstract-positive",1
"42","5dd43c63390fb6428d4974f0","doubt","test_val","abstract-negative","Valence","VC","negative;positive","negative",1,1731609317740,"negative",1664.83333333333,759,"positive","A",NA,6.63200177739563,7.41748029730409,66,"abstract-negative",1
"43","5dd43c63390fb6428d4974f0","cherish","test_val","abstract-positive","Valence","VC","negative;positive","positive",1,1731609342204,"positive",1701.33333333333,1251,"positive","A",NA,7.13169851046691,7.43916753635652,83,"abstract-positive",1
"44","5dd43c63390fb6428d4974f0","stab","test_val","concrete-negative","Valence","VC","negative;positive","negative",1,1731609350413,"negative",1476.66666666667,522,"positive","A",NA,6.25766758788264,7.29754257437107,89,"concrete-negative",1
"45","5dd43c63390fb6428d4974f0","doubt","test_val","abstract-negative","Valence","VC","negative;positive","negative",1,1731609365538,"negative",1664.83333333333,641,"positive","A",NA,6.46302945692067,7.41748029730409,100,"abstract-negative",1
"46","5dd43c63390fb6428d4974f0","cherish","test_conc","abstract-positive","Concrete","VC","abstract;concrete","abstract",1,1731609536827,"abstract",1701.33333333333,1193,"concrete","A",NA,7.08422642209792,7.43916753635652,136,"abstract-positive",1
"47","5dd43c63390fb6428d4974f0","doubt","test_conc","abstract-negative","Concrete","VC","abstract;concrete","abstract",1,1731609557010,"abstract",1664.83333333333,882,"concrete","A",NA,6.78219205600679,7.41748029730409,147,"abstract-negative",1
"48","5dd43c63390fb6428d4974f0","stab","test_conc","concrete-negative","Concrete","VC","abstract;concrete","concrete",1,1731609581286,"concrete",1476.66666666667,1118,"concrete","A",NA,7.01929665371504,7.29754257437107,160,"concrete-negative",1
"49","5dd43c63390fb6428d4974f0","stab","test_conc","concrete-negative","Concrete","VC","abstract;concrete","abstract",0,1731609601843,"abstract",1476.66666666667,557,"concrete","A",NA,6.32256523992728,7.29754257437107,172,"concrete-negative",0
"50","5dd43c63390fb6428d4974f0","doubt","test_conc","abstract-negative","Concrete","VC","abstract;concrete","abstract",1,1731609622120,"abstract",1664.83333333333,978,"concrete","A",NA,6.88550967003482,7.41748029730409,185,"abstract-negative",1
"51","5dd43c63390fb6428d4974f0","cherish","test_conc","abstract-positive","Concrete","VC","abstract;concrete","abstract",1,1731609628238,"abstract",1701.33333333333,832,"concrete","A",NA,6.72383244082121,7.43916753635652,189,"abstract-positive",1
"52","5dd43c63390fb6428d4974f0","doubt","test_conc","abstract-negative","Concrete","VC","abstract;concrete","abstract",1,1731609665195,"abstract",1664.83333333333,1309,"concrete","A",NA,7.1770187659099,7.41748029730409,212,"abstract-negative",1
"53","5dd43c63390fb6428d4974f0","stab","test_conc","concrete-negative","Concrete","VC","abstract;concrete","concrete",1,1731609675439,"concrete",1476.66666666667,853,"concrete","A",NA,6.74875954749168,7.29754257437107,219,"concrete-negative",1
"54","5dd43c63390fb6428d4974f0","cherish","test_conc","abstract-positive","Concrete","VC","abstract;concrete","abstract",1,1731609682760,"abstract",1701.33333333333,774,"concrete","A",NA,6.65157187358973,7.43916753635652,224,"abstract-positive",1
"55","6413c7853eba2b2215197ff4","doubt","test_val","abstract-negative","Valence","VC","negative;positive","negative",1,1731609192995,"negative",1794.83333333333,648,"positive","A",NA,6.47389069635227,7.49266744610083,2,"abstract-negative",1
"56","6413c7853eba2b2215197ff4","cherish","test_val","abstract-positive","Valence","VC","negative;positive","positive",1,1731609241953,"positive",1450.66666666667,753,"positive","A",NA,6.62406522779989,7.27977849986767,34,"abstract-positive",1
"57","6413c7853eba2b2215197ff4","stab","test_val","concrete-negative","Valence","VC","negative;positive","negative",1,1731609250108,"negative",1664.16666666667,625,"positive","A",NA,6.4377516497364,7.41707977662186,40,"concrete-negative",1
"58","6413c7853eba2b2215197ff4","cherish","test_val","abstract-positive","Valence","VC","negative;positive","positive",1,1731609260509,"positive",1450.66666666667,797,"positive","A",NA,6.68085467879022,7.27977849986767,47,"abstract-positive",1
"59","6413c7853eba2b2215197ff4","stab","test_val","concrete-negative","Valence","VC","negative;positive","negative",1,1731609266692,"negative",1664.16666666667,589,"positive","A",NA,6.37842618365159,7.41707977662186,51,"concrete-negative",1
"60","6413c7853eba2b2215197ff4","doubt","test_val","abstract-negative","Valence","VC","negative;positive","negative",1,1731609270793,"negative",1794.83333333333,667,"positive","A",NA,6.50279004591562,7.49266744610083,54,"abstract-negative",1
"61","6413c7853eba2b2215197ff4","doubt","test_val","abstract-negative","Valence","VC","negative;positive","negative",1,1731609344457,"negative",1794.83333333333,2069,"positive","A",NA,7.63482067774554,7.49266744610083,104,"abstract-negative",1
"62","6413c7853eba2b2215197ff4","stab","test_val","concrete-negative","Valence","VC","negative;positive","negative",1,1731609345890,"negative",1664.16666666667,674,"positive","A",NA,6.51323011091231,7.41707977662186,105,"concrete-negative",1
"63","6413c7853eba2b2215197ff4","cherish","test_val","abstract-positive","Valence","VC","negative;positive","positive",1,1731609363375,"positive",1450.66666666667,587,"positive","A",NA,6.3750248198281,7.27977849986767,114,"abstract-positive",1
"64","6413c7853eba2b2215197ff4","stab","test_conc","concrete-negative","Concrete","VC","abstract;concrete","concrete",1,1731609536898,"concrete",1664.16666666667,1275,"concrete","A",NA,7.15070145759253,7.41707977662186,134,"concrete-negative",1
"65","6413c7853eba2b2215197ff4","doubt","test_conc","abstract-negative","Concrete","VC","abstract;concrete","abstract",1,1731609553501,"abstract",1794.83333333333,1099,"concrete","A",NA,7.00215595440362,7.49266744610083,144,"abstract-negative",1
"66","6413c7853eba2b2215197ff4","cherish","test_conc","abstract-positive","Concrete","VC","abstract;concrete","abstract",1,1731609580473,"abstract",1450.66666666667,724,"concrete","A",NA,6.58479139238572,7.27977849986767,160,"abstract-positive",1
"67","6413c7853eba2b2215197ff4","stab","test_conc","concrete-negative","Concrete","VC","abstract;concrete","concrete",1,1731609595449,"concrete",1664.16666666667,1386,"concrete","A",NA,7.23417717974985,7.41707977662186,170,"concrete-negative",1
"68","6413c7853eba2b2215197ff4","doubt","test_conc","abstract-negative","Concrete","VC","abstract;concrete","concrete",0,1731609614024,"concrete",1794.83333333333,459,"concrete","A",NA,6.12905021006055,7.49266744610083,182,"abstract-negative",0
"69","6413c7853eba2b2215197ff4","cherish","test_conc","abstract-positive","Concrete","VC","abstract;concrete","concrete",0,1731609633387,"concrete",1450.66666666667,410,"concrete","A",NA,6.01615715969835,7.27977849986767,196,"abstract-positive",0
"70","6413c7853eba2b2215197ff4","cherish","test_conc","abstract-positive","Concrete","VC","abstract;concrete","concrete",0,1731609655415,"concrete",1450.66666666667,885,"concrete","A",NA,6.78558764500793,7.27977849986767,212,"abstract-positive",0
"71","6413c7853eba2b2215197ff4","stab","test_conc","concrete-negative","Concrete","VC","abstract;concrete","concrete",1,1731609659366,"concrete",1664.16666666667,871,"concrete","A",NA,6.7696419768525,7.41707977662186,214,"concrete-negative",1
"72","6413c7853eba2b2215197ff4","doubt","test_conc","abstract-negative","Concrete","VC","abstract;concrete","concrete",0,1731609674893,"concrete",1794.83333333333,1254,"concrete","A",NA,7.13409372119287,7.49266744610083,224,"abstract-negative",0
"73","58be162d2e4dc0000164b12c","stab","test_conc","concrete-negative","Concrete","CV","abstract;concrete","concrete",1,1731619952819,"concrete",1464.66666666667,811,"concrete","A",NA,6.69826805411541,7.28938296427645,6,"concrete-negative",1
"74","58be162d2e4dc0000164b12c","cherish","test_conc","abstract-positive","Concrete","CV","abstract;concrete","abstract",1,1731619958553,"abstract",1417.91666666667,690,"concrete","A",NA,6.5366915975913,7.25694393714701,10,"abstract-positive",1
"75","58be162d2e4dc0000164b12c","doubt","test_conc","abstract-negative","Concrete","CV","abstract;concrete","abstract",1,1731619974133,"abstract",1399.16666666667,557,"concrete","A",NA,6.32256523992728,7.24363210028359,21,"abstract-negative",1
"76","58be162d2e4dc0000164b12c","stab","test_conc","concrete-negative","Concrete","CV","abstract;concrete","concrete",1,1731620007266,"concrete",1464.66666666667,710,"concrete","A",NA,6.56526497003536,7.28938296427645,43,"concrete-negative",1
"77","58be162d2e4dc0000164b12c","doubt","test_conc","abstract-negative","Concrete","CV","abstract;concrete","abstract",1,1731620030768,"abstract",1399.16666666667,649,"concrete","A",NA,6.47543271670409,7.24363210028359,58,"abstract-negative",1
"78","58be162d2e4dc0000164b12c","cherish","test_conc","abstract-positive","Concrete","CV","abstract;concrete","abstract",1,1731620038651,"abstract",1417.91666666667,715,"concrete","A",NA,6.57228254269401,7.25694393714701,63,"abstract-positive",1
"79","58be162d2e4dc0000164b12c","cherish","test_conc","abstract-positive","Concrete","CV","abstract;concrete","abstract",1,1731620085314,"abstract",1417.91666666667,712,"concrete","A",NA,6.56807791141198,7.25694393714701,95,"abstract-positive",1
"80","58be162d2e4dc0000164b12c","doubt","test_conc","abstract-negative","Concrete","CV","abstract;concrete","abstract",1,1731620096784,"abstract",1399.16666666667,634,"concrete","A",NA,6.45204895443723,7.24363210028359,103,"abstract-negative",1
"81","58be162d2e4dc0000164b12c","stab","test_conc","concrete-negative","Concrete","CV","abstract;concrete","concrete",1,1731620108337,"concrete",1464.66666666667,706,"concrete","A",NA,6.55961523749324,7.28938296427645,111,"concrete-negative",1
"82","58be162d2e4dc0000164b12c","stab","test_val","concrete-negative","Valence","CV","negative;positive","negative",1,1731620217702,"negative",1464.66666666667,659,"positive","A",NA,6.49072353450251,7.28938296427645,131,"concrete-negative",1
"83","58be162d2e4dc0000164b12c","doubt","test_val","abstract-negative","Valence","CV","negative;positive","negative",1,1731620220701,"negative",1399.16666666667,786,"positive","A",NA,6.66695679242921,7.24363210028359,133,"abstract-negative",1
"84","58be162d2e4dc0000164b12c","cherish","test_val","abstract-positive","Valence","CV","negative;positive","positive",1,1731620245910,"positive",1417.91666666667,621,"positive","A",NA,6.43133108193348,7.25694393714701,151,"abstract-positive",1
"85","58be162d2e4dc0000164b12c","stab","test_val","concrete-negative","Valence","CV","negative;positive","negative",1,1731620263192,"negative",1464.66666666667,711,"positive","A",NA,6.56667242980324,7.28938296427645,163,"concrete-negative",1
"86","58be162d2e4dc0000164b12c","doubt","test_val","abstract-negative","Valence","CV","negative;positive","negative",1,1731620274866,"negative",1399.16666666667,662,"positive","A",NA,6.49526555593701,7.24363210028359,171,"abstract-negative",1
"87","58be162d2e4dc0000164b12c","cherish","test_val","abstract-positive","Valence","CV","negative;positive","positive",1,1731620287822,"positive",1417.91666666667,618,"positive","A",NA,6.42648845745769,7.25694393714701,180,"abstract-positive",1
"88","58be162d2e4dc0000164b12c","stab","test_val","concrete-negative","Valence","CV","negative;positive","negative",1,1731620338292,"negative",1464.66666666667,655,"positive","A",NA,6.48463523563525,7.28938296427645,214,"concrete-negative",1
"89","58be162d2e4dc0000164b12c","doubt","test_val","abstract-negative","Valence","CV","negative;positive","negative",1,1731620359929,"negative",1399.16666666667,576,"positive","A",NA,6.35610766069589,7.24363210028359,228,"abstract-negative",1
"90","58be162d2e4dc0000164b12c","cherish","test_val","abstract-positive","Valence","CV","negative;positive","positive",1,1731620364157,"positive",1417.91666666667,616,"positive","A",NA,6.42324696353352,7.25694393714701,231,"abstract-positive",1
"91","5dc0ac2c441a2105cbb3bb0f","cherish","test_val","abstract-positive","Valence","VC","negative;positive","positive",1,1731609552384,"positive",2438.5,754,"positive","A",NA,6.62539236800796,7.79913837515011,2,"abstract-positive",1
"92","5dc0ac2c441a2105cbb3bb0f","stab","test_val","concrete-negative","Valence","VC","negative;positive","negative",1,1731609566640,"negative",1564.5,622,"positive","A",NA,6.43294009273918,7.35532156310894,11,"concrete-negative",1
"93","5dc0ac2c441a2105cbb3bb0f","doubt","test_val","abstract-negative","Valence","VC","negative;positive","negative",1,1731609613202,"negative",1632.66666666667,668,"positive","A",NA,6.50428817353665,7.397969948844,40,"abstract-negative",1
"94","5dc0ac2c441a2105cbb3bb0f","cherish","test_val","abstract-positive","Valence","VC","negative;positive","positive",1,1731609637413,"positive",2438.5,832,"positive","A",NA,6.72383244082121,7.79913837515011,56,"abstract-positive",1
"95","5dc0ac2c441a2105cbb3bb0f","stab","test_val","concrete-negative","Valence","VC","negative;positive","negative",1,1731609657660,"negative",1564.5,705,"positive","A",NA,6.55819780281227,7.35532156310894,68,"concrete-negative",1
"96","5dc0ac2c441a2105cbb3bb0f","doubt","test_val","abstract-negative","Valence","VC","negative;positive","negative",1,1731609670496,"negative",1632.66666666667,955,"positive","A",NA,6.86171134048073,7.397969948844,76,"abstract-negative",1
"97","5dc0ac2c441a2105cbb3bb0f","doubt","test_val","abstract-negative","Valence","VC","negative;positive","negative",1,1731609678087,"negative",1632.66666666667,1048,"positive","A",NA,6.95463886488099,7.397969948844,81,"abstract-negative",1
"98","5dc0ac2c441a2105cbb3bb0f","cherish","test_val","abstract-positive","Valence","VC","negative;positive","positive",1,1731609690446,"positive",2438.5,572,"positive","A",NA,6.3491389913798,7.79913837515011,88,"abstract-positive",1
"99","5dc0ac2c441a2105cbb3bb0f","stab","test_val","concrete-negative","Valence","VC","negative;positive","negative",1,1731609734022,"negative",1564.5,722,"positive","A",NA,6.58202513889283,7.35532156310894,115,"concrete-negative",1
"100","5dc0ac2c441a2105cbb3bb0f","stab","test_conc","concrete-negative","Concrete","VC","abstract;concrete","concrete",1,1731609974149,"concrete",1564.5,946,"concrete","A",NA,6.85224256905188,7.35532156310894,124,"concrete-negative",1
"101","5dc0ac2c441a2105cbb3bb0f","cherish","test_conc","abstract-positive","Concrete","VC","abstract;concrete","abstract",1,1731609994366,"abstract",2438.5,1173,"concrete","A",NA,7.06731984865348,7.79913837515011,134,"abstract-positive",1
"102","5dc0ac2c441a2105cbb3bb0f","doubt","test_conc","abstract-negative","Concrete","VC","abstract;concrete","abstract",1,1731610016018,"abstract",1632.66666666667,1090,"concrete","A",NA,6.99393297522319,7.397969948844,147,"abstract-negative",1
"103","5dc0ac2c441a2105cbb3bb0f","doubt","test_conc","abstract-negative","Concrete","VC","abstract;concrete","abstract",1,1731610052502,"abstract",1632.66666666667,709,"concrete","A",NA,6.56385552653213,7.397969948844,169,"abstract-negative",1
"104","5dc0ac2c441a2105cbb3bb0f","cherish","test_conc","abstract-positive","Concrete","VC","abstract;concrete","abstract",1,1731610071241,"abstract",2438.5,1002,"concrete","A",NA,6.90975328164481,7.79913837515011,179,"abstract-positive",1
"105","5dc0ac2c441a2105cbb3bb0f","stab","test_conc","concrete-negative","Concrete","VC","abstract;concrete","concrete",1,1731610076452,"concrete",1564.5,933,"concrete","A",NA,6.83840520084734,7.35532156310894,181,"concrete-negative",1
"106","5dc0ac2c441a2105cbb3bb0f","stab","test_conc","concrete-negative","Concrete","VC","abstract;concrete","concrete",1,1731610121797,"concrete",1564.5,935,"concrete","A",NA,6.84054652928869,7.35532156310894,207,"concrete-negative",1
"107","5dc0ac2c441a2105cbb3bb0f","cherish","test_conc","abstract-positive","Concrete","VC","abstract;concrete","abstract",1,1731610174870,"abstract",2438.5,5773,"concrete","A",NA,8.66094715506093,7.79913837515011,231,"abstract-positive",1
"108","5dc0ac2c441a2105cbb3bb0f","doubt","test_conc","abstract-negative","Concrete","VC","abstract;concrete","abstract",1,1731610177969,"abstract",1632.66666666667,795,"concrete","A",NA,6.67834211465433,7.397969948844,233,"abstract-negative",1
"109","5f1b84872171f838a8a3cfa9","stab","test_conc","concrete-negative","Concrete","CV","concrete;abstract","concrete",1,1731620243274,"concrete",1880.33333333333,2692,"abstract","B",NA,7.89803969076462,7.53920434507187,7,"concrete-negative",1
"110","5f1b84872171f838a8a3cfa9","doubt","test_conc","abstract-negative","Concrete","CV","concrete;abstract","abstract",1,1731620245194,"abstract",1712.58333333333,1156,"abstract","B",NA,7.05272104923232,7.44575823075292,8,"abstract-negative",1
"111","5f1b84872171f838a8a3cfa9","cherish","test_conc","abstract-positive","Concrete","CV","concrete;abstract","abstract",1,1731620307690,"abstract",1681.83333333333,950,"abstract","B",NA,6.85646198459459,7.42763974723647,27,"abstract-positive",1
"112","5f1b84872171f838a8a3cfa9","cherish","test_conc","abstract-positive","Concrete","CV","concrete;abstract","abstract",1,1731620361770,"abstract",1681.83333333333,1061,"abstract","B",NA,6.96696713861398,7.42763974723647,41,"abstract-positive",1
"113","5f1b84872171f838a8a3cfa9","stab","test_conc","concrete-negative","Concrete","CV","concrete;abstract","concrete",1,1731620413145,"concrete",1880.33333333333,1036,"abstract","B",NA,6.94312242281943,7.53920434507187,60,"concrete-negative",1
"114","5f1b84872171f838a8a3cfa9","doubt","test_conc","abstract-negative","Concrete","CV","concrete;abstract","abstract",1,1731620459882,"abstract",1712.58333333333,1020,"abstract","B",NA,6.92755790627832,7.44575823075292,80,"abstract-negative",1
"115","5f1b84872171f838a8a3cfa9","cherish","test_conc","abstract-positive","Concrete","CV","concrete;abstract","abstract",1,1731620473554,"abstract",1681.83333333333,857,"abstract","B",NA,6.75343791859778,7.42763974723647,88,"abstract-positive",1
"116","5f1b84872171f838a8a3cfa9","doubt","test_conc","abstract-negative","Concrete","CV","concrete;abstract","abstract",1,1731620490522,"abstract",1712.58333333333,1078,"abstract","B",NA,6.98286275146894,7.44575823075292,96,"abstract-negative",1
"117","5f1b84872171f838a8a3cfa9","stab","test_conc","concrete-negative","Concrete","CV","concrete;abstract","concrete",1,1731620510106,"concrete",1880.33333333333,772,"abstract","B",NA,6.64898455002478,7.53920434507187,107,"concrete-negative",1
"118","5f1b84872171f838a8a3cfa9","doubt","test_val","abstract-negative","Valence","CV","positive;negative","negative",1,1731620788274,"negative",1712.58333333333,824,"negative","B",NA,6.71417052990947,7.44575823075292,126,"abstract-negative",1
"119","5f1b84872171f838a8a3cfa9","cherish","test_val","abstract-positive","Valence","CV","positive;negative","positive",1,1731620817042,"positive",1681.83333333333,969,"negative","B",NA,6.87626461189077,7.42763974723647,139,"abstract-positive",1
"120","5f1b84872171f838a8a3cfa9","stab","test_val","concrete-negative","Valence","CV","positive;negative","negative",1,1731620847874,"negative",1880.33333333333,797,"negative","B",NA,6.68085467879022,7.53920434507187,156,"concrete-negative",1
"121","5f1b84872171f838a8a3cfa9","doubt","test_val","abstract-negative","Valence","CV","positive;negative","negative",1,1731620858738,"negative",1712.58333333333,916,"negative","B",NA,6.82001636467413,7.44575823075292,161,"abstract-negative",1
"122","5f1b84872171f838a8a3cfa9","stab","test_val","concrete-negative","Valence","CV","positive;negative","negative",1,1731620861770,"negative",1880.33333333333,677,"negative","B",NA,6.51767127291227,7.53920434507187,163,"concrete-negative",1
"123","5f1b84872171f838a8a3cfa9","cherish","test_val","abstract-positive","Valence","CV","positive;negative","positive",1,1731620878706,"positive",1681.83333333333,1050,"negative","B",NA,6.95654544315157,7.42763974723647,172,"abstract-positive",1
"124","5f1b84872171f838a8a3cfa9","cherish","test_val","abstract-positive","Valence","CV","positive;negative","positive",1,1731620940779,"positive",1681.83333333333,672,"negative","B",NA,6.51025834052315,7.42763974723647,210,"abstract-positive",1
"125","5f1b84872171f838a8a3cfa9","stab","test_val","concrete-negative","Valence","CV","positive;negative","negative",1,1731620948226,"negative",1880.33333333333,763,"negative","B",NA,6.63725803128446,7.53920434507187,215,"concrete-negative",1
"126","5f1b84872171f838a8a3cfa9","doubt","test_val","abstract-negative","Valence","CV","positive;negative","negative",1,1731620967867,"negative",1712.58333333333,745,"negative","B",NA,6.61338421837956,7.44575823075292,227,"abstract-negative",1
"127","5f455ed3326727130e7d4a49","stab","test_val","concrete-negative","Valence","VC","negative;positive","negative",1,1731610206996,"negative",1533.83333333333,851,"positive","A",NA,6.74641212857337,7.3355253276108,1,"concrete-negative",1
"128","5f455ed3326727130e7d4a49","cherish","test_val","abstract-positive","Valence","VC","negative;positive","positive",1,1731610213707,"positive",1521.83333333333,564,"positive","A",NA,6.33505425149806,7.32767102738829,6,"abstract-positive",1
"129","5f455ed3326727130e7d4a49","doubt","test_val","abstract-negative","Valence","VC","negative;positive","negative",1,1731610233272,"negative",1492.5,733,"positive","A",NA,6.59714570188665,7.30820784526676,20,"abstract-negative",1
"130","5f455ed3326727130e7d4a49","doubt","test_val","abstract-negative","Valence","VC","negative;positive","negative",1,1731610292953,"negative",1492.5,870,"positive","A",NA,6.76849321164863,7.30820784526676,59,"abstract-negative",1
"131","5f455ed3326727130e7d4a49","cherish","test_val","abstract-positive","Valence","VC","negative;positive","positive",1,1731610310670,"positive",1521.83333333333,715,"positive","A",NA,6.57228254269401,7.32767102738829,70,"abstract-positive",1
"132","5f455ed3326727130e7d4a49","stab","test_val","concrete-negative","Valence","VC","negative;positive","negative",1,1731610321576,"negative",1533.83333333333,581,"positive","A",NA,6.36475075685191,7.3355253276108,77,"concrete-negative",1
"133","5f455ed3326727130e7d4a49","stab","test_val","concrete-negative","Valence","VC","negative;positive","negative",1,1731610334439,"negative",1533.83333333333,609,"positive","A",NA,6.4118182677099,7.3355253276108,85,"concrete-negative",1
"134","5f455ed3326727130e7d4a49","cherish","test_val","abstract-positive","Valence","VC","negative;positive","positive",1,1731610368651,"positive",1521.83333333333,628,"positive","A",NA,6.4425401664682,7.32767102738829,108,"abstract-positive",1
"135","5f455ed3326727130e7d4a49","doubt","test_val","abstract-negative","Valence","VC","negative;positive","negative",1,1731610380806,"negative",1492.5,584,"positive","A",NA,6.36990098282823,7.30820784526676,117,"abstract-negative",1
"136","5f455ed3326727130e7d4a49","stab","test_conc","concrete-negative","Concrete","VC","abstract;concrete","concrete",1,1731612448357,"concrete",1533.83333333333,728,"concrete","A",NA,6.59030104819669,7.3355253276108,125,"concrete-negative",1
"137","5f455ed3326727130e7d4a49","cherish","test_conc","abstract-positive","Concrete","VC","abstract;concrete","abstract",1,1731612457717,"abstract",1521.83333333333,1048,"concrete","A",NA,6.95463886488099,7.32767102738829,131,"abstract-positive",1
"138","5f455ed3326727130e7d4a49","doubt","test_conc","abstract-negative","Concrete","VC","abstract;concrete","abstract",1,1731612472813,"abstract",1492.5,721,"concrete","A",NA,6.58063913728495,7.30820784526676,140,"abstract-negative",1
"139","5f455ed3326727130e7d4a49","doubt","test_conc","abstract-negative","Concrete","VC","abstract;concrete","abstract",1,1731612533687,"abstract",1492.5,784,"concrete","A",NA,6.66440902035041,7.30820784526676,179,"abstract-negative",1
"140","5f455ed3326727130e7d4a49","cherish","test_conc","abstract-positive","Concrete","VC","abstract;concrete","abstract",1,1731612549388,"abstract",1521.83333333333,710,"concrete","A",NA,6.56526497003536,7.32767102738829,189,"abstract-positive",1
"141","5f455ed3326727130e7d4a49","stab","test_conc","concrete-negative","Concrete","VC","abstract;concrete","concrete",1,1731612568187,"concrete",1533.83333333333,1294,"concrete","A",NA,7.16549347506085,7.3355253276108,200,"concrete-negative",1
"142","5f455ed3326727130e7d4a49","cherish","test_conc","abstract-positive","Concrete","VC","abstract;concrete","abstract",1,1731612584258,"abstract",1521.83333333333,931,"concrete","A",NA,6.83625927727707,7.32767102738829,210,"abstract-positive",1
"143","5f455ed3326727130e7d4a49","doubt","test_conc","abstract-negative","Concrete","VC","abstract;concrete","abstract",1,1731612613476,"abstract",1492.5,726,"concrete","A",NA,6.5875500148248,7.30820784526676,227,"abstract-negative",1
"144","5f455ed3326727130e7d4a49","stab","test_conc","concrete-negative","Concrete","VC","abstract;concrete","concrete",1,1731612723003,"concrete",1533.83333333333,595,"concrete","A",NA,6.38856140554563,7.3355253276108,239,"concrete-negative",1
"145","5f1bf8c6fe7ca34249b7c334","doubt","test_conc","abstract-negative","Concrete","CV","abstract;concrete","abstract",1,1731619553868,"abstract",1505.16666666667,833,"concrete","A",NA,6.72503364216684,7.31665891302274,17,"abstract-negative",1
"146","5f1bf8c6fe7ca34249b7c334","cherish","test_conc","abstract-positive","Concrete","CV","abstract;concrete","abstract",1,1731619558753,"abstract",1454.33333333333,810,"concrete","A",NA,6.69703424766648,7.2823028844555,20,"abstract-positive",1
"147","5f1bf8c6fe7ca34249b7c334","stab","test_conc","concrete-negative","Concrete","CV","abstract;concrete","concrete",1,1731619570007,"concrete",1463,835,"concrete","A",NA,6.72743172485086,7.28824440102012,27,"concrete-negative",1
"148","5f1bf8c6fe7ca34249b7c334","cherish","test_conc","abstract-positive","Concrete","CV","abstract;concrete","abstract",1,1731619594643,"abstract",1454.33333333333,652,"concrete","A",NA,6.48004456192665,7.2823028844555,42,"abstract-positive",1
"149","5f1bf8c6fe7ca34249b7c334","stab","test_conc","concrete-negative","Concrete","CV","abstract;concrete","concrete",1,1731619655101,"concrete",1463,667,"concrete","A",NA,6.50279004591562,7.28824440102012,69,"concrete-negative",1
"150","5f1bf8c6fe7ca34249b7c334","doubt","test_conc","abstract-negative","Concrete","CV","abstract;concrete","abstract",1,1731619670102,"abstract",1505.16666666667,703,"concrete","A",NA,6.55535689181067,7.31665891302274,78,"abstract-negative",1
"151","5f1bf8c6fe7ca34249b7c334","cherish","test_conc","abstract-positive","Concrete","CV","abstract;concrete","abstract",1,1731619693233,"abstract",1454.33333333333,727,"concrete","A",NA,6.58892647753352,7.2823028844555,93,"abstract-positive",1
"152","5f1bf8c6fe7ca34249b7c334","stab","test_conc","concrete-negative","Concrete","CV","abstract;concrete","concrete",1,1731619731898,"concrete",1463,589,"concrete","A",NA,6.37842618365159,7.28824440102012,115,"concrete-negative",1
"153","5f1bf8c6fe7ca34249b7c334","doubt","test_conc","abstract-negative","Concrete","CV","abstract;concrete","abstract",1,1731619734730,"abstract",1505.16666666667,555,"concrete","A",NA,6.31896811374643,7.31665891302274,117,"abstract-negative",1
"154","5f1bf8c6fe7ca34249b7c334","doubt","test_val","abstract-negative","Valence","CV","negative;positive","negative",1,1731620033740,"negative",1505.16666666667,819,"positive","A",NA,6.70808408385307,7.31665891302274,127,"abstract-negative",1
"155","5f1bf8c6fe7ca34249b7c334","cherish","test_val","abstract-positive","Valence","CV","negative;positive","positive",1,1731620035228,"positive",1454.33333333333,709,"positive","A",NA,6.56385552653213,7.2823028844555,128,"abstract-positive",1
"156","5f1bf8c6fe7ca34249b7c334","stab","test_val","concrete-negative","Valence","CV","negative;positive","negative",1,1731620062226,"negative",1463,763,"positive","A",NA,6.63725803128446,7.28824440102012,145,"concrete-negative",1
"157","5f1bf8c6fe7ca34249b7c334","cherish","test_val","abstract-positive","Valence","CV","negative;positive","positive",1,1731620089133,"positive",1454.33333333333,640,"positive","A",NA,6.46146817635372,7.2823028844555,162,"abstract-positive",1
"158","5f1bf8c6fe7ca34249b7c334","doubt","test_val","abstract-negative","Valence","CV","negative;positive","negative",1,1731620126546,"negative",1505.16666666667,876,"positive","A",NA,6.77536609093639,7.31665891302274,182,"abstract-negative",1
"159","5f1bf8c6fe7ca34249b7c334","stab","test_val","concrete-negative","Valence","CV","negative;positive","negative",1,1731620129356,"negative",1463,653,"positive","A",NA,6.48157712927643,7.28824440102012,184,"concrete-negative",1
"160","5f1bf8c6fe7ca34249b7c334","cherish","test_val","abstract-positive","Valence","CV","negative;positive","positive",1,1731620165158,"positive",1454.33333333333,578,"positive","A",NA,6.35957386867238,7.2823028844555,205,"abstract-positive",1
"161","5f1bf8c6fe7ca34249b7c334","doubt","test_val","abstract-negative","Valence","CV","negative;positive","negative",1,1731620202406,"negative",1505.16666666667,608,"positive","A",NA,6.41017488196617,7.31665891302274,227,"abstract-negative",1
"162","5f1bf8c6fe7ca34249b7c334","stab","test_val","concrete-negative","Valence","CV","negative;positive","negative",1,1731620215736,"negative",1463,627,"positive","A",NA,6.44094654063292,7.28824440102012,236,"concrete-negative",1
"163","601b9077694f034f0092dd8f","cherish","test_val","abstract-positive","Valence","VC","negative;positive","positive",1,1731609777146,"positive",1764.5,591,"positive","A",NA,6.3818160174061,7.47562264311532,17,"abstract-positive",1
"164","601b9077694f034f0092dd8f","stab","test_val","concrete-negative","Valence","VC","negative;positive","negative",1,1731609794266,"negative",1455.66666666667,616,"positive","A",NA,6.42324696353352,7.28321926481745,29,"concrete-negative",1
"165","601b9077694f034f0092dd8f","doubt","test_val","abstract-negative","Valence","VC","negative;positive","negative",1,1731609803176,"negative",1748.16666666667,819,"positive","A",NA,6.70808408385307,7.46632289873355,35,"abstract-negative",1
"166","601b9077694f034f0092dd8f","doubt","test_val","abstract-negative","Valence","VC","negative;positive","negative",1,1731609837217,"negative",1748.16666666667,572,"positive","A",NA,6.3491389913798,7.46632289873355,58,"abstract-negative",1
"167","601b9077694f034f0092dd8f","cherish","test_val","abstract-positive","Valence","VC","negative;positive","positive",1,1731609839902,"positive",1764.5,555,"positive","A",NA,6.31896811374643,7.47562264311532,60,"abstract-positive",1
"168","601b9077694f034f0092dd8f","stab","test_val","concrete-negative","Valence","VC","negative;positive","negative",1,1731609845971,"negative",1455.66666666667,697,"positive","A",NA,6.54678541076052,7.28321926481745,64,"concrete-negative",1
"169","601b9077694f034f0092dd8f","stab","test_val","concrete-negative","Valence","VC","negative;positive","negative",1,1731609895518,"negative",1455.66666666667,508,"positive","A",NA,6.23048144757848,7.28321926481745,99,"concrete-negative",1
"170","601b9077694f034f0092dd8f","cherish","test_val","abstract-positive","Valence","VC","negative;positive","positive",1,1731609898829,"positive",1764.5,1228,"positive","A",NA,7.11314210870709,7.47562264311532,101,"abstract-positive",1
"171","601b9077694f034f0092dd8f","doubt","test_val","abstract-negative","Valence","VC","negative;positive","negative",1,1731609904960,"negative",1748.16666666667,956,"positive","A",NA,6.8627579130514,7.46632289873355,105,"abstract-negative",1
"172","601b9077694f034f0092dd8f","cherish","test_conc","abstract-positive","Concrete","VC","abstract;concrete","abstract",1,1731610014599,"abstract",1764.5,1693,"concrete","A",NA,7.43425738213314,7.47562264311532,121,"abstract-positive",1
"173","601b9077694f034f0092dd8f","doubt","test_conc","abstract-negative","Concrete","VC","abstract;concrete","abstract",1,1731610019947,"abstract",1748.16666666667,1015,"concrete","A",NA,6.92264389147589,7.46632289873355,124,"abstract-negative",1
"174","601b9077694f034f0092dd8f","stab","test_conc","concrete-negative","Concrete","VC","abstract;concrete","concrete",1,1731610029521,"concrete",1455.66666666667,958,"concrete","A",NA,6.86484777797086,7.28321926481745,129,"concrete-negative",1
"175","601b9077694f034f0092dd8f","stab","test_conc","concrete-negative","Concrete","VC","abstract;concrete","concrete",1,1731610097345,"concrete",1455.66666666667,778,"concrete","A",NA,6.65672652417839,7.28321926481745,166,"concrete-negative",1
"176","601b9077694f034f0092dd8f","doubt","test_conc","abstract-negative","Concrete","VC","abstract;concrete","abstract",1,1731610105799,"abstract",1748.16666666667,1365,"concrete","A",NA,7.21890970761906,7.46632289873355,171,"abstract-negative",1
"177","601b9077694f034f0092dd8f","cherish","test_conc","abstract-positive","Concrete","VC","abstract;concrete","abstract",1,1731610136799,"abstract",1764.5,1345,"concrete","A",NA,7.20414929203594,7.47562264311532,189,"abstract-positive",1
"178","601b9077694f034f0092dd8f","cherish","test_conc","abstract-positive","Concrete","VC","abstract;concrete","abstract",1,1731610158465,"abstract",1764.5,646,"concrete","A",NA,6.4707995037826,7.47562264311532,202,"abstract-positive",1
"179","601b9077694f034f0092dd8f","doubt","test_conc","abstract-negative","Concrete","VC","abstract;concrete","concrete",0,1731610177726,"concrete",1748.16666666667,1237,"concrete","A",NA,7.12044437239249,7.46632289873355,214,"abstract-negative",0
"180","601b9077694f034f0092dd8f","stab","test_conc","concrete-negative","Concrete","VC","abstract;concrete","concrete",1,1731610196838,"concrete",1455.66666666667,645,"concrete","A",NA,6.46925031679577,7.28321926481745,224,"concrete-negative",1
"181","63127690860023ab6b50a0b2","stab","test_conc","concrete-negative","Concrete","CV","concrete;abstract","concrete",1,1731621756075,"concrete",1800.5,694,"abstract","B",NA,6.5424719605068,7.49581968308893,9,"concrete-negative",1
"182","63127690860023ab6b50a0b2","doubt","test_conc","abstract-negative","Concrete","CV","concrete;abstract","abstract",1,1731621778099,"abstract",1602.5,841,"abstract","B",NA,6.73459165997295,7.37932018879482,21,"abstract-negative",1
"183","63127690860023ab6b50a0b2","cherish","test_conc","abstract-positive","Concrete","CV","concrete;abstract","abstract",1,1731621805798,"abstract",1922.83333333333,2378,"abstract","B",NA,7.77401507725073,7.56155507169923,35,"abstract-positive",1
"184","63127690860023ab6b50a0b2","stab","test_conc","concrete-negative","Concrete","CV","concrete;abstract","concrete",1,1731621822574,"concrete",1800.5,716,"abstract","B",NA,6.57368016696065,7.49581968308893,45,"concrete-negative",1
"185","63127690860023ab6b50a0b2","cherish","test_conc","abstract-positive","Concrete","CV","concrete;abstract","abstract",1,1731621846878,"abstract",1922.83333333333,623,"abstract","B",NA,6.43454651878745,7.56155507169923,61,"abstract-positive",1
"186","63127690860023ab6b50a0b2","doubt","test_conc","abstract-negative","Concrete","CV","concrete;abstract","abstract",1,1731621878344,"abstract",1602.5,661,"abstract","B",NA,6.49375383985169,7.37932018879482,80,"abstract-negative",1
"187","63127690860023ab6b50a0b2","cherish","test_conc","abstract-positive","Concrete","CV","concrete;abstract","abstract",1,1731621885016,"abstract",1922.83333333333,1211,"abstract","B",NA,7.09920174355309,7.56155507169923,84,"abstract-positive",1
"188","63127690860023ab6b50a0b2","stab","test_conc","concrete-negative","Concrete","CV","concrete;abstract","concrete",1,1731621899396,"concrete",1800.5,673,"abstract","B",NA,6.51174532964473,7.49581968308893,91,"concrete-negative",1
"189","63127690860023ab6b50a0b2","doubt","test_conc","abstract-negative","Concrete","CV","concrete;abstract","abstract",1,1731621910316,"abstract",1602.5,581,"abstract","B",NA,6.36475075685191,7.37932018879482,99,"abstract-negative",1
"190","63127690860023ab6b50a0b2","doubt","test_val","abstract-negative","Valence","CV","positive;negative","negative",1,1731622011849,"negative",1602.5,597,"negative","B",NA,6.3919171133926,7.37932018879482,122,"abstract-negative",1
"191","63127690860023ab6b50a0b2","cherish","test_val","abstract-positive","Valence","CV","positive;negative","positive",1,1731622015863,"positive",1922.83333333333,1147,"negative","B",NA,7.04490511712937,7.56155507169923,124,"abstract-positive",1
"192","63127690860023ab6b50a0b2","stab","test_val","concrete-negative","Valence","CV","positive;negative","negative",1,1731622017410,"negative",1800.5,793,"negative","B",NA,6.67582322163485,7.49581968308893,125,"concrete-negative",1
"193","63127690860023ab6b50a0b2","stab","test_val","concrete-negative","Valence","CV","positive;negative","negative",1,1731622102259,"negative",1800.5,579,"negative","B",NA,6.361302477573,7.49581968308893,166,"concrete-negative",1
"194","63127690860023ab6b50a0b2","doubt","test_val","abstract-negative","Valence","CV","positive;negative","negative",1,1731622104132,"negative",1602.5,1118,"negative","B",NA,7.01929665371504,7.37932018879482,167,"abstract-negative",1
"195","63127690860023ab6b50a0b2","cherish","test_val","abstract-positive","Valence","CV","positive;negative","positive",1,1731622163974,"positive",1922.83333333333,1063,"negative","B",NA,6.96885037834195,7.56155507169923,198,"abstract-positive",1
"196","63127690860023ab6b50a0b2","doubt","test_val","abstract-negative","Valence","CV","positive;negative","negative",1,1731622232245,"negative",1602.5,1291,"negative","B",NA,7.16317239084664,7.37932018879482,233,"abstract-negative",1
"197","63127690860023ab6b50a0b2","stab","test_val","concrete-negative","Valence","CV","positive;negative","negative",1,1731622241705,"negative",1800.5,2824,"negative","B",NA,7.94590959861313,7.49581968308893,237,"concrete-negative",1
"198","63127690860023ab6b50a0b2","cherish","test_val","abstract-positive","Valence","CV","positive;negative","positive",1,1731622245109,"positive",1922.83333333333,587,"negative","B",NA,6.3750248198281,7.56155507169923,239,"abstract-positive",1
"199","63bf745cc01669a110ec48ba","stab","test_val","concrete-negative","Valence","VC","positive;negative","negative",1,1731611047238,"negative",1313,624,"negative","B",NA,6.43615036836943,7.1800698743028,22,"concrete-negative",1
"200","63bf745cc01669a110ec48ba","doubt","test_val","abstract-negative","Valence","VC","positive;negative","negative",1,1731611056357,"negative",1576.66666666667,667,"negative","B",NA,6.50279004591562,7.36306819281787,28,"abstract-negative",1
"201","63bf745cc01669a110ec48ba","cherish","test_val","abstract-positive","Valence","VC","positive;negative","positive",1,1731611057690,"positive",1548.5,572,"negative","B",NA,6.3491389913798,7.34504199941326,29,"abstract-positive",1
"202","63bf745cc01669a110ec48ba","stab","test_val","concrete-negative","Valence","VC","positive;negative","negative",1,1731611076957,"negative",1313,594,"negative","B",NA,6.38687931936265,7.1800698743028,41,"concrete-negative",1
"203","63bf745cc01669a110ec48ba","doubt","test_val","abstract-negative","Valence","VC","positive;negative","negative",1,1731611116937,"negative",1576.66666666667,738,"negative","B",NA,6.60394382460047,7.36306819281787,67,"abstract-negative",1
"204","63bf745cc01669a110ec48ba","cherish","test_val","abstract-positive","Valence","VC","positive;negative","positive",1,1731611128847,"positive",1548.5,560,"negative","B",NA,6.32793678372919,7.34504199941326,75,"abstract-positive",1
"205","63bf745cc01669a110ec48ba","doubt","test_val","abstract-negative","Valence","VC","positive;negative","negative",1,1731611181538,"negative",1576.66666666667,1065,"negative","B",NA,6.97073007814353,7.36306819281787,109,"abstract-negative",1
"206","63bf745cc01669a110ec48ba","stab","test_val","concrete-negative","Valence","VC","positive;negative","negative",1,1731611195002,"negative",1313,528,"negative","B",NA,6.26909628370626,7.1800698743028,118,"concrete-negative",1
"207","63bf745cc01669a110ec48ba","cherish","test_val","abstract-positive","Valence","VC","positive;negative","positive",1,1731611197629,"positive",1548.5,565,"negative","B",NA,6.33682573114644,7.34504199941326,120,"abstract-positive",1
"208","63bf745cc01669a110ec48ba","doubt","test_conc","abstract-negative","Concrete","VC","concrete;abstract","abstract",1,1731611337217,"abstract",1576.66666666667,1215,"abstract","B",NA,7.10249935577465,7.36306819281787,128,"abstract-negative",1
"209","63bf745cc01669a110ec48ba","cherish","test_conc","abstract-positive","Concrete","VC","concrete;abstract","abstract",1,1731611374698,"abstract",1548.5,755,"abstract","B",NA,6.62671774924902,7.34504199941326,147,"abstract-positive",1
"210","63bf745cc01669a110ec48ba","stab","test_conc","concrete-negative","Concrete","VC","concrete;abstract","abstract",0,1731611391264,"abstract",1313,586,"abstract","B",NA,6.37331978957701,7.1800698743028,159,"concrete-negative",0
"211","63bf745cc01669a110ec48ba","cherish","test_conc","abstract-positive","Concrete","VC","concrete;abstract","concrete",0,1731611429742,"concrete",1548.5,1509,"abstract","B",NA,7.31920245876785,7.34504199941326,178,"abstract-positive",0
"212","63bf745cc01669a110ec48ba","doubt","test_conc","abstract-negative","Concrete","VC","concrete;abstract","abstract",1,1731611452809,"abstract",1576.66666666667,596,"abstract","B",NA,6.39024066706535,7.36306819281787,190,"abstract-negative",1
"213","63bf745cc01669a110ec48ba","stab","test_conc","concrete-negative","Concrete","VC","concrete;abstract","abstract",0,1731611462069,"abstract",1313,516,"abstract","B",NA,6.24610676548156,7.1800698743028,196,"concrete-negative",0
"214","63bf745cc01669a110ec48ba","cherish","test_conc","abstract-positive","Concrete","VC","concrete;abstract","concrete",0,1731611472707,"concrete",1548.5,782,"abstract","B",NA,6.66185474054531,7.34504199941326,203,"abstract-positive",0
"215","63bf745cc01669a110ec48ba","doubt","test_conc","abstract-negative","Concrete","VC","concrete;abstract","abstract",1,1731611518365,"abstract",1576.66666666667,626,"abstract","B",NA,6.4393503711001,7.36306819281787,228,"abstract-negative",1
"216","63bf745cc01669a110ec48ba","stab","test_conc","concrete-negative","Concrete","VC","concrete;abstract","abstract",0,1731611531678,"abstract",1313,491,"abstract","B",NA,6.19644412779452,7.1800698743028,237,"concrete-negative",0
"217","5b9c2c816f92f30001ecce7a","cherish","test_val","abstract-positive","Valence","VC","positive;negative","positive",1,1731610815886,"positive",1317.83333333333,561,"negative","B",NA,6.3297209055227,7.18374425284287,19,"abstract-positive",1
"218","5b9c2c816f92f30001ecce7a","doubt","test_val","abstract-negative","Valence","VC","positive;negative","negative",1,1731610817278,"negative",1364.33333333333,636,"negative","B",NA,6.45519856334012,7.21842118782429,20,"abstract-negative",1
"219","5b9c2c816f92f30001ecce7a","stab","test_val","concrete-negative","Valence","VC","positive;negative","negative",1,1731610822839,"negative",1292.5,599,"negative","B",NA,6.39526159811545,7.16433360638258,24,"concrete-negative",1
"220","5b9c2c816f92f30001ecce7a","cherish","test_val","abstract-positive","Valence","VC","positive;negative","positive",1,1731610865311,"positive",1317.83333333333,513,"negative","B",NA,6.24027584517077,7.18374425284287,56,"abstract-positive",1
"221","5b9c2c816f92f30001ecce7a","doubt","test_val","abstract-negative","Valence","VC","positive;negative","negative",1,1731610867815,"negative",1364.33333333333,456,"negative","B",NA,6.12249280951439,7.21842118782429,58,"abstract-negative",1
"222","5b9c2c816f92f30001ecce7a","stab","test_val","concrete-negative","Valence","VC","positive;negative","negative",1,1731610894079,"negative",1292.5,532,"negative","B",NA,6.27664348934164,7.16433360638258,77,"concrete-negative",1
"223","5b9c2c816f92f30001ecce7a","doubt","test_val","abstract-negative","Valence","VC","positive;negative","negative",1,1731610938815,"negative",1364.33333333333,865,"negative","B",NA,6.76272950693188,7.21842118782429,111,"abstract-negative",1
"224","5b9c2c816f92f30001ecce7a","cherish","test_val","abstract-positive","Valence","VC","positive;negative","positive",1,1731610941438,"positive",1317.83333333333,507,"negative","B",NA,6.22851100359118,7.18374425284287,113,"abstract-positive",1
"225","5b9c2c816f92f30001ecce7a","stab","test_val","concrete-negative","Valence","VC","positive;negative","negative",1,1731610949207,"negative",1292.5,546,"negative","B",NA,6.30261897574491,7.16433360638258,119,"concrete-negative",1
"226","5b9c2c816f92f30001ecce7a","cherish","test_conc","abstract-positive","Concrete","VC","concrete;abstract","abstract",1,1731611540191,"abstract",1317.83333333333,711,"abstract","B",NA,6.56667242980324,7.18374425284287,134,"abstract-positive",1
"227","5b9c2c816f92f30001ecce7a","doubt","test_conc","abstract-negative","Concrete","VC","concrete;abstract","abstract",1,1731611554991,"abstract",1364.33333333333,664,"abstract","B",NA,6.49828214947643,7.21842118782429,144,"abstract-negative",1
"228","5b9c2c816f92f30001ecce7a","stab","test_conc","concrete-negative","Concrete","VC","concrete;abstract","concrete",1,1731611570031,"concrete",1292.5,500,"abstract","B",NA,6.21460809842219,7.16433360638258,155,"concrete-negative",1
"229","5b9c2c816f92f30001ecce7a","doubt","test_conc","abstract-negative","Concrete","VC","concrete;abstract","abstract",1,1731611586839,"abstract",1364.33333333333,528,"abstract","B",NA,6.26909628370626,7.21842118782429,166,"abstract-negative",1
"230","5b9c2c816f92f30001ecce7a","stab","test_conc","concrete-negative","Concrete","VC","concrete;abstract","concrete",1,1731611615200,"concrete",1292.5,442,"abstract","B",NA,6.0913098820777,7.16433360638258,187,"concrete-negative",1
"231","5b9c2c816f92f30001ecce7a","cherish","test_conc","abstract-positive","Concrete","VC","concrete;abstract","abstract",1,1731611625887,"abstract",1317.83333333333,546,"abstract","B",NA,6.30261897574491,7.18374425284287,195,"abstract-positive",1
"232","5b9c2c816f92f30001ecce7a","doubt","test_conc","abstract-negative","Concrete","VC","concrete;abstract","abstract",1,1731611652318,"abstract",1364.33333333333,503,"abstract","B",NA,6.22059017009974,7.21842118782429,215,"abstract-negative",1
"233","5b9c2c816f92f30001ecce7a","stab","test_conc","concrete-negative","Concrete","VC","concrete;abstract","concrete",1,1731611666534,"concrete",1292.5,605,"abstract","B",NA,6.40522845803084,7.16433360638258,226,"concrete-negative",1
"234","5b9c2c816f92f30001ecce7a","cherish","test_conc","abstract-positive","Concrete","VC","concrete;abstract","abstract",1,1731611683655,"abstract",1317.83333333333,530,"abstract","B",NA,6.27287700654617,7.18374425284287,239,"abstract-positive",1
"235","63ae2788c3e5ec6d1cfcad16","cherish","test_conc","abstract-positive","Concrete","CV","abstract;concrete","concrete",0,1731618958459,"concrete",1404.33333333333,421,"concrete","A",NA,6.04263283368238,7.24731797331091,6,"abstract-positive",0
"236","63ae2788c3e5ec6d1cfcad16","doubt","test_conc","abstract-negative","Concrete","CV","abstract;concrete","concrete",0,1731619003944,"concrete",1676.33333333333,1155,"concrete","A",NA,7.05185562295589,7.42436414750386,36,"abstract-negative",0
"237","63ae2788c3e5ec6d1cfcad16","stab","test_conc","concrete-negative","Concrete","CV","abstract;concrete","abstract",0,1731619009932,"abstract",1482,565,"concrete","A",NA,6.33682573114644,7.30114780585603,40,"concrete-negative",0
"238","63ae2788c3e5ec6d1cfcad16","doubt","test_conc","abstract-negative","Concrete","CV","abstract;concrete","concrete",0,1731619014207,"concrete",1676.33333333333,742,"concrete","A",NA,6.60934924316738,7.42436414750386,43,"abstract-negative",0
"239","63ae2788c3e5ec6d1cfcad16","stab","test_conc","concrete-negative","Concrete","CV","abstract;concrete","concrete",1,1731619034616,"concrete",1482,574,"concrete","A",NA,6.35262939631957,7.30114780585603,60,"concrete-negative",1
"240","63ae2788c3e5ec6d1cfcad16","cherish","test_conc","abstract-positive","Concrete","CV","abstract;concrete","abstract",1,1731619044240,"abstract",1404.33333333333,571,"concrete","A",NA,6.34738920965601,7.24731797331091,65,"abstract-positive",1
"241","63ae2788c3e5ec6d1cfcad16","cherish","test_conc","abstract-positive","Concrete","CV","abstract;concrete","concrete",0,1731619071026,"concrete",1404.33333333333,485,"concrete","A",NA,6.18414889093748,7.24731797331091,84,"abstract-positive",0
"242","63ae2788c3e5ec6d1cfcad16","doubt","test_conc","abstract-negative","Concrete","CV","abstract;concrete","concrete",0,1731619087606,"concrete",1676.33333333333,347,"concrete","A",NA,5.84932477994686,7.42436414750386,95,"abstract-negative",0
"243","63ae2788c3e5ec6d1cfcad16","stab","test_conc","concrete-negative","Concrete","CV","abstract;concrete","abstract",0,1731619105578,"abstract",1482,995,"concrete","A",NA,6.90274273715859,7.30114780585603,109,"concrete-negative",0
"244","63ae2788c3e5ec6d1cfcad16","stab","test_val","concrete-negative","Valence","CV","negative;positive","negative",1,1731619223089,"negative",1482,742,"positive","A",NA,6.60934924316738,7.30114780585603,135,"concrete-negative",1
"245","63ae2788c3e5ec6d1cfcad16","doubt","test_val","abstract-negative","Valence","CV","negative;positive","negative",1,1731619252713,"negative",1676.33333333333,1616,"positive","A",NA,7.38770923908104,7.42436414750386,151,"abstract-negative",1
"246","63ae2788c3e5ec6d1cfcad16","cherish","test_val","abstract-positive","Valence","CV","negative;positive","positive",1,1731619254168,"positive",1404.33333333333,694,"positive","A",NA,6.5424719605068,7.24731797331091,152,"abstract-positive",1
"247","63ae2788c3e5ec6d1cfcad16","stab","test_val","concrete-negative","Valence","CV","negative;positive","negative",1,1731619294138,"negative",1482,661,"positive","A",NA,6.49375383985169,7.30114780585603,175,"concrete-negative",1
"248","63ae2788c3e5ec6d1cfcad16","doubt","test_val","abstract-negative","Valence","CV","negative;positive","negative",1,1731619316248,"negative",1676.33333333333,882,"positive","A",NA,6.78219205600679,7.42436414750386,188,"abstract-negative",1
"249","63ae2788c3e5ec6d1cfcad16","cherish","test_val","abstract-positive","Valence","CV","negative;positive","positive",1,1731619336640,"positive",1404.33333333333,1295,"positive","A",NA,7.16626597413364,7.24731797331091,199,"abstract-positive",1
"250","63ae2788c3e5ec6d1cfcad16","stab","test_val","concrete-negative","Valence","CV","negative;positive","negative",1,1731619363593,"negative",1482,779,"positive","A",NA,6.65801104587075,7.30114780585603,216,"concrete-negative",1
"251","63ae2788c3e5ec6d1cfcad16","cherish","test_val","abstract-positive","Valence","CV","negative;positive","positive",1,1731619368424,"positive",1404.33333333333,409,"positive","A",NA,6.0137151560428,7.24731797331091,220,"abstract-positive",1
"252","63ae2788c3e5ec6d1cfcad16","doubt","test_val","abstract-negative","Valence","CV","negative;positive","negative",1,1731619399147,"negative",1676.33333333333,763,"positive","A",NA,6.63725803128446,7.42436414750386,239,"abstract-negative",1
"253","64077ddd11208afe2bec171a","stab","test_val","concrete-negative","Valence","VC","negative;positive","negative",1,1731609602227,"negative",1668.16666666667,652,"positive","A",NA,6.48004456192665,7.41948049799096,12,"concrete-negative",1
"254","64077ddd11208afe2bec171a","doubt","test_val","abstract-negative","Valence","VC","negative;positive","negative",1,1731609632691,"negative",1592.33333333333,813,"positive","A",NA,6.70073110954781,7.37295572472185,32,"abstract-negative",1
"255","64077ddd11208afe2bec171a","cherish","test_val","abstract-positive","Valence","VC","negative;positive","positive",1,1731609639570,"positive",1403.16666666667,510,"positive","A",NA,6.23441072571837,7.24648686610961,37,"abstract-positive",1
"256","64077ddd11208afe2bec171a","stab","test_val","concrete-negative","Valence","VC","negative;positive","negative",1,1731609651778,"negative",1668.16666666667,1453,"positive","A",NA,7.28138566357028,7.41948049799096,45,"concrete-negative",1
"257","64077ddd11208afe2bec171a","cherish","test_val","abstract-positive","Valence","VC","negative;positive","positive",1,1731609682994,"positive",1403.16666666667,476,"positive","A",NA,6.16541785423142,7.24648686610961,68,"abstract-positive",1
"258","64077ddd11208afe2bec171a","doubt","test_val","abstract-negative","Valence","VC","negative;positive","negative",1,1731609702178,"negative",1592.33333333333,697,"positive","A",NA,6.54678541076052,7.37295572472185,80,"abstract-negative",1
"259","64077ddd11208afe2bec171a","cherish","test_val","abstract-positive","Valence","VC","negative;positive","positive",1,1731609709778,"positive",1403.16666666667,556,"positive","A",NA,6.32076829425058,7.24648686610961,85,"abstract-positive",1
"260","64077ddd11208afe2bec171a","stab","test_val","concrete-negative","Valence","VC","negative;positive","negative",1,1731609718275,"negative",1668.16666666667,654,"positive","A",NA,6.4831073514572,7.41948049799096,91,"concrete-negative",1
"261","64077ddd11208afe2bec171a","doubt","test_val","abstract-negative","Valence","VC","negative;positive","negative",1,1731609752881,"negative",1592.33333333333,971,"positive","A",NA,6.87832646829133,7.37295572472185,115,"abstract-negative",1
"262","64077ddd11208afe2bec171a","stab","test_conc","concrete-negative","Concrete","VC","abstract;concrete","concrete",1,1731609859329,"concrete",1668.16666666667,1167,"concrete","A",NA,7.06219163228656,7.41948049799096,123,"concrete-negative",1
"263","64077ddd11208afe2bec171a","cherish","test_conc","abstract-positive","Concrete","VC","abstract;concrete","abstract",1,1731609883024,"abstract",1403.16666666667,702,"concrete","A",NA,6.55393340402581,7.24648686610961,135,"abstract-positive",1
"264","64077ddd11208afe2bec171a","doubt","test_conc","abstract-negative","Concrete","VC","abstract;concrete","abstract",1,1731609884512,"abstract",1592.33333333333,731,"concrete","A",NA,6.59441345974978,7.37295572472185,136,"abstract-negative",1
"265","64077ddd11208afe2bec171a","doubt","test_conc","abstract-negative","Concrete","VC","abstract;concrete","abstract",1,1731609953392,"abstract",1592.33333333333,1087,"concrete","A",NA,6.99117688712121,7.37295572472185,172,"abstract-negative",1
"266","64077ddd11208afe2bec171a","stab","test_conc","concrete-negative","Concrete","VC","abstract;concrete","concrete",1,1731609964336,"concrete",1668.16666666667,974,"concrete","A",NA,6.88141130364254,7.41948049799096,178,"concrete-negative",1
"267","64077ddd11208afe2bec171a","cherish","test_conc","abstract-positive","Concrete","VC","abstract;concrete","abstract",1,1731609990784,"abstract",1403.16666666667,891,"concrete","A",NA,6.79234442747081,7.24648686610961,194,"abstract-positive",1
"268","64077ddd11208afe2bec171a","doubt","test_conc","abstract-negative","Concrete","VC","abstract;concrete","abstract",1,1731610007504,"abstract",1592.33333333333,734,"concrete","A",NA,6.59850902861452,7.37295572472185,203,"abstract-negative",1
"269","64077ddd11208afe2bec171a","stab","test_conc","concrete-negative","Concrete","VC","abstract;concrete","concrete",1,1731610013569,"concrete",1668.16666666667,590,"concrete","A",NA,6.38012253689976,7.41948049799096,207,"concrete-negative",1
"270","64077ddd11208afe2bec171a","cherish","test_conc","abstract-positive","Concrete","VC","abstract;concrete","abstract",1,1731610026352,"abstract",1403.16666666667,759,"concrete","A",NA,6.63200177739563,7.24648686610961,215,"abstract-positive",1
"271","652ef14a9b030a4423aba2b2","stab","test_val","concrete-negative","Valence","VC","negative;positive","negative",1,1731609540844,"negative",1508.83333333333,624,"positive","A",NA,6.43615036836943,7.31909200424739,5,"concrete-negative",1
"272","652ef14a9b030a4423aba2b2","cherish","test_val","abstract-positive","Valence","VC","negative;positive","positive",1,1731609558262,"positive",1606.16666666667,722,"positive","A",NA,6.58202513889283,7.38160566662323,16,"abstract-positive",1
"273","652ef14a9b030a4423aba2b2","doubt","test_val","abstract-negative","Valence","VC","negative;positive","negative",1,1731609585762,"negative",1592.83333333333,648,"positive","A",NA,6.47389069635227,7.37326968003812,34,"abstract-negative",1
"274","652ef14a9b030a4423aba2b2","cherish","test_val","abstract-positive","Valence","VC","negative;positive","positive",1,1731609603347,"positive",1606.16666666667,773,"positive","A",NA,6.65027904858742,7.38160566662323,46,"abstract-positive",1
"275","652ef14a9b030a4423aba2b2","doubt","test_val","abstract-negative","Valence","VC","negative;positive","negative",1,1731609640194,"negative",1592.83333333333,587,"positive","A",NA,6.3750248198281,7.37326968003812,70,"abstract-negative",1
"276","652ef14a9b030a4423aba2b2","stab","test_val","concrete-negative","Valence","VC","negative;positive","negative",1,1731609655742,"negative",1508.83333333333,572,"positive","A",NA,6.3491389913798,7.31909200424739,80,"concrete-negative",1
"277","652ef14a9b030a4423aba2b2","doubt","test_val","abstract-negative","Valence","VC","negative;positive","negative",1,1731609680526,"negative",1592.83333333333,504,"positive","A",NA,6.22257626807137,7.37326968003812,97,"abstract-negative",1
"278","652ef14a9b030a4423aba2b2","cherish","test_val","abstract-positive","Valence","VC","negative;positive","positive",1,1731609696465,"positive",1606.16666666667,637,"positive","A",NA,6.45676965557216,7.38160566662323,108,"abstract-positive",1
"279","652ef14a9b030a4423aba2b2","stab","test_val","concrete-negative","Valence","VC","negative;positive","negative",1,1731609699210,"negative",1508.83333333333,634,"positive","A",NA,6.45204895443723,7.31909200424739,110,"concrete-negative",1
"280","652ef14a9b030a4423aba2b2","stab","test_conc","concrete-negative","Concrete","VC","abstract;concrete","concrete",1,1731609832018,"concrete",1508.83333333333,1066,"concrete","A",NA,6.97166860472579,7.31909200424739,129,"concrete-negative",1
"281","652ef14a9b030a4423aba2b2","doubt","test_conc","abstract-negative","Concrete","VC","abstract;concrete","abstract",1,1731609839990,"abstract",1592.83333333333,1317,"concrete","A",NA,7.18311170174328,7.37326968003812,133,"abstract-negative",1
"282","652ef14a9b030a4423aba2b2","cherish","test_conc","abstract-positive","Concrete","VC","abstract;concrete","abstract",1,1731609863914,"abstract",1606.16666666667,947,"concrete","A",NA,6.85329909318608,7.38160566662323,145,"abstract-positive",1
"283","652ef14a9b030a4423aba2b2","cherish","test_conc","abstract-positive","Concrete","VC","abstract;concrete","abstract",1,1731609911298,"abstract",1606.16666666667,1062,"concrete","A",NA,6.96790920180188,7.38160566662323,167,"abstract-positive",1
"284","652ef14a9b030a4423aba2b2","doubt","test_conc","abstract-negative","Concrete","VC","abstract;concrete","abstract",1,1731609933378,"abstract",1592.83333333333,1107,"concrete","A",NA,7.00940893270864,7.37326968003812,180,"abstract-negative",1
"285","652ef14a9b030a4423aba2b2","stab","test_conc","concrete-negative","Concrete","VC","abstract;concrete","concrete",1,1731609957063,"concrete",1508.83333333333,894,"concrete","A",NA,6.79570577517351,7.31909200424739,194,"concrete-negative",1
"286","652ef14a9b030a4423aba2b2","cherish","test_conc","abstract-positive","Concrete","VC","abstract;concrete","abstract",1,1731609995413,"abstract",1606.16666666667,976,"concrete","A",NA,6.88346258641309,7.38160566662323,216,"abstract-positive",1
"287","652ef14a9b030a4423aba2b2","stab","test_conc","concrete-negative","Concrete","VC","abstract;concrete","concrete",1,1731610009645,"concrete",1508.83333333333,733,"concrete","A",NA,6.59714570188665,7.31909200424739,225,"concrete-negative",1
"288","652ef14a9b030a4423aba2b2","doubt","test_conc","abstract-negative","Concrete","VC","abstract;concrete","abstract",1,1731610035236,"abstract",1592.83333333333,869,"concrete","A",NA,6.76734312526539,7.37326968003812,239,"abstract-negative",1
"289","63d8766016c0bfcd19d3c732","stab","test_conc","concrete-negative","Concrete","CV","concrete;abstract","concrete",1,1731619753795,"concrete",1486.16666666667,747,"abstract","B",NA,6.61606518513282,7.30395537690682,9,"concrete-negative",1
"290","63d8766016c0bfcd19d3c732","cherish","test_conc","abstract-positive","Concrete","CV","concrete;abstract","abstract",1,1731619777923,"abstract",1699,837,"abstract","B",NA,6.72982407048948,7.43779512167193,23,"abstract-positive",1
"291","63d8766016c0bfcd19d3c732","doubt","test_conc","abstract-negative","Concrete","CV","concrete;abstract","abstract",1,1731619803827,"abstract",1598.16666666667,722,"abstract","B",NA,6.58202513889283,7.37661241792563,39,"abstract-negative",1
"292","63d8766016c0bfcd19d3c732","cherish","test_conc","abstract-positive","Concrete","CV","concrete;abstract","abstract",1,1731619829736,"abstract",1699,688,"abstract","B",NA,6.53378883793334,7.43779512167193,56,"abstract-positive",1
"293","63d8766016c0bfcd19d3c732","doubt","test_conc","abstract-negative","Concrete","CV","concrete;abstract","abstract",1,1731619837199,"abstract",1598.16666666667,645,"abstract","B",NA,6.46925031679577,7.37661241792563,61,"abstract-negative",1
"294","63d8766016c0bfcd19d3c732","stab","test_conc","concrete-negative","Concrete","CV","concrete;abstract","concrete",1,1731619850252,"concrete",1486.16666666667,648,"abstract","B",NA,6.47389069635227,7.30395537690682,69,"concrete-negative",1
"295","63d8766016c0bfcd19d3c732","stab","test_conc","concrete-negative","Concrete","CV","concrete;abstract","concrete",1,1731619872222,"concrete",1486.16666666667,700,"abstract","B",NA,6.5510803350434,7.30395537690682,82,"concrete-negative",1
"296","63d8766016c0bfcd19d3c732","doubt","test_conc","abstract-negative","Concrete","CV","concrete;abstract","abstract",1,1731619912893,"abstract",1598.16666666667,1118,"abstract","B",NA,7.01929665371504,7.37661241792563,104,"abstract-negative",1
"297","63d8766016c0bfcd19d3c732","cherish","test_conc","abstract-positive","Concrete","CV","concrete;abstract","abstract",1,1731619925743,"abstract",1699,1789,"abstract","B",NA,7.48941208350872,7.43779512167193,112,"abstract-positive",1
"298","63d8766016c0bfcd19d3c732","stab","test_val","concrete-negative","Valence","CV","positive;negative","negative",1,1731620058456,"negative",1486.16666666667,822,"negative","B",NA,6.71174039505618,7.30395537690682,129,"concrete-negative",1
"299","63d8766016c0bfcd19d3c732","cherish","test_val","abstract-positive","Valence","CV","positive;negative","positive",1,1731620069364,"positive",1699,914,"negative","B",NA,6.81783057145415,7.43779512167193,134,"abstract-positive",1
"300","63d8766016c0bfcd19d3c732","doubt","test_val","abstract-negative","Valence","CV","positive;negative","negative",1,1731620104685,"negative",1598.16666666667,740,"negative","B",NA,6.60665018619822,7.37661241792563,153,"abstract-negative",1
"301","63d8766016c0bfcd19d3c732","doubt","test_val","abstract-negative","Valence","CV","positive;negative","negative",1,1731620132072,"negative",1598.16666666667,1013,"negative","B",NA,6.92067150424868,7.37661241792563,171,"abstract-negative",1
"302","63d8766016c0bfcd19d3c732","cherish","test_val","abstract-positive","Valence","CV","positive;negative","positive",1,1731620136838,"positive",1699,606,"negative","B",NA,6.40687998606931,7.43779512167193,174,"abstract-positive",1
"303","63d8766016c0bfcd19d3c732","stab","test_val","concrete-negative","Valence","CV","positive;negative","negative",1,1731620163419,"negative",1486.16666666667,749,"negative","B",NA,6.61873898351722,7.30395537690682,190,"concrete-negative",1
"304","63d8766016c0bfcd19d3c732","stab","test_val","concrete-negative","Valence","CV","positive;negative","negative",1,1731620203285,"negative",1486.16666666667,715,"negative","B",NA,6.57228254269401,7.30395537690682,214,"concrete-negative",1
"305","63d8766016c0bfcd19d3c732","cherish","test_val","abstract-positive","Valence","CV","positive;negative","positive",1,1731620222199,"positive",1699,828,"negative","B",NA,6.71901315438526,7.43779512167193,225,"abstract-positive",1
"306","63d8766016c0bfcd19d3c732","doubt","test_val","abstract-negative","Valence","CV","positive;negative","negative",1,1731620246219,"negative",1598.16666666667,818,"negative","B",NA,6.70686233660275,7.37661241792563,240,"abstract-negative",1
"307","64dd3e11a1123030a614608a","stab","test_conc","concrete-negative","Concrete","CV","concrete;abstract","concrete",1,1731619766173,"concrete",1476.66666666667,975,"abstract","B",NA,6.88243747099785,7.29754257437107,14,"concrete-negative",1
"308","64dd3e11a1123030a614608a","doubt","test_conc","abstract-negative","Concrete","CV","concrete;abstract","concrete",0,1731619772596,"concrete",1968.33333333333,1743,"abstract","B",NA,7.46336304552002,7.58494243996335,17,"abstract-negative",0
"309","64dd3e11a1123030a614608a","cherish","test_conc","abstract-positive","Concrete","CV","concrete;abstract","abstract",1,1731619794645,"abstract",2120.5,1972,"abstract","B",NA,7.58680353516258,7.65940718891465,27,"abstract-positive",1
"310","64dd3e11a1123030a614608a","cherish","test_conc","abstract-positive","Concrete","CV","concrete;abstract","abstract",1,1731619876163,"abstract",2120.5,1853,"abstract","B",NA,7.52456122628536,7.65940718891465,66,"abstract-positive",1
"311","64dd3e11a1123030a614608a","stab","test_conc","concrete-negative","Concrete","CV","concrete;abstract","concrete",1,1731619879451,"concrete",1476.66666666667,690,"abstract","B",NA,6.5366915975913,7.29754257437107,68,"concrete-negative",1
"312","64dd3e11a1123030a614608a","doubt","test_conc","abstract-negative","Concrete","CV","concrete;abstract","concrete",0,1731619893765,"concrete",1968.33333333333,1408,"abstract","B",NA,7.24992553671799,7.58494243996335,76,"abstract-negative",0
"313","64dd3e11a1123030a614608a","doubt","test_conc","abstract-negative","Concrete","CV","concrete;abstract","concrete",0,1731619931608,"concrete",1968.33333333333,1595,"abstract","B",NA,7.37462901521894,7.58494243996335,99,"abstract-negative",0
"314","64dd3e11a1123030a614608a","cherish","test_conc","abstract-positive","Concrete","CV","concrete;abstract","abstract",1,1731619937279,"abstract",2120.5,1856,"abstract","B",NA,7.52617891334615,7.65940718891465,102,"abstract-positive",1
"315","64dd3e11a1123030a614608a","stab","test_conc","concrete-negative","Concrete","CV","concrete;abstract","concrete",1,1731619963167,"concrete",1476.66666666667,675,"abstract","B",NA,6.51471269087253,7.29754257437107,118,"concrete-negative",1
"316","64dd3e11a1123030a614608a","cherish","test_val","abstract-positive","Valence","CV","positive;negative","positive",1,1731620160789,"positive",2120.5,781,"negative","B",NA,6.66057514983969,7.65940718891465,128,"abstract-positive",1
"317","64dd3e11a1123030a614608a","doubt","test_val","abstract-negative","Valence","CV","positive;negative","negative",1,1731620162380,"negative",1968.33333333333,829,"negative","B",NA,6.7202201551353,7.58494243996335,129,"abstract-negative",1
"318","64dd3e11a1123030a614608a","stab","test_val","concrete-negative","Valence","CV","positive;negative","negative",1,1731620167375,"negative",1476.66666666667,676,"negative","B",NA,6.51619307604296,7.29754257437107,132,"concrete-negative",1
"319","64dd3e11a1123030a614608a","stab","test_val","concrete-negative","Valence","CV","positive;negative","negative",1,1731620218120,"negative",1476.66666666667,616,"negative","B",NA,6.42324696353352,7.29754257437107,162,"concrete-negative",1
"320","64dd3e11a1123030a614608a","cherish","test_val","abstract-positive","Valence","CV","positive;negative","positive",1,1731620244714,"positive",2120.5,691,"negative","B",NA,6.53813982376767,7.65940718891465,176,"abstract-positive",1
"321","64dd3e11a1123030a614608a","doubt","test_val","abstract-negative","Valence","CV","positive;negative","negative",1,1731620257674,"negative",1968.33333333333,721,"negative","B",NA,6.58063913728495,7.58494243996335,184,"abstract-negative",1
"322","64dd3e11a1123030a614608a","cherish","test_val","abstract-positive","Valence","CV","positive;negative","positive",1,1731620300665,"positive",2120.5,1025,"negative","B",NA,6.93244789157251,7.65940718891465,209,"abstract-positive",1
"323","64dd3e11a1123030a614608a","doubt","test_val","abstract-negative","Valence","CV","positive;negative","negative",1,1731620319595,"negative",1968.33333333333,962,"negative","B",NA,6.86901445066571,7.58494243996335,221,"abstract-negative",1
"324","64dd3e11a1123030a614608a","stab","test_val","concrete-negative","Valence","CV","positive;negative","negative",1,1731620350855,"negative",1476.66666666667,676,"negative","B",NA,6.51619307604296,7.29754257437107,239,"concrete-negative",1
"325","60b800d2c81484710290317a","stab","test_conc","concrete-negative","Concrete","CV","abstract;concrete","abstract",0,1731619489505,"abstract",1482.16666666667,704,"concrete","A",NA,6.55677835615804,7.30126026017158,25,"concrete-negative",0
"326","60b800d2c81484710290317a","cherish","test_conc","abstract-positive","Concrete","CV","abstract;concrete","abstract",1,1731619497536,"abstract",1668.16666666667,735,"concrete","A",NA,6.59987049921284,7.41948049799096,30,"abstract-positive",1
"327","60b800d2c81484710290317a","doubt","test_conc","abstract-negative","Concrete","CV","abstract;concrete","abstract",1,1731619498864,"abstract",1508.5,569,"concrete","A",NA,6.34388043412633,7.31887105859912,31,"abstract-negative",1
"328","60b800d2c81484710290317a","doubt","test_conc","abstract-negative","Concrete","CV","abstract;concrete","abstract",1,1731619556217,"abstract",1508.5,1238,"concrete","A",NA,7.12125245324454,7.31887105859912,65,"abstract-negative",1
"329","60b800d2c81484710290317a","stab","test_conc","concrete-negative","Concrete","CV","abstract;concrete","abstract",0,1731619569847,"abstract",1482.16666666667,628,"concrete","A",NA,6.4425401664682,7.30126026017158,74,"concrete-negative",0
"330","60b800d2c81484710290317a","cherish","test_conc","abstract-positive","Concrete","CV","abstract;concrete","abstract",1,1731619572382,"abstract",1668.16666666667,1774,"concrete","A",NA,7.48099216286952,7.41948049799096,75,"abstract-positive",1
"331","60b800d2c81484710290317a","cherish","test_conc","abstract-positive","Concrete","CV","abstract;concrete","abstract",1,1731619585756,"abstract",1668.16666666667,609,"concrete","A",NA,6.4118182677099,7.41948049799096,84,"abstract-positive",1
"332","60b800d2c81484710290317a","stab","test_conc","concrete-negative","Concrete","CV","abstract;concrete","concrete",1,1731619591412,"concrete",1482.16666666667,724,"concrete","A",NA,6.58479139238572,7.30126026017158,88,"concrete-negative",1
"333","60b800d2c81484710290317a","doubt","test_conc","abstract-negative","Concrete","CV","abstract;concrete","abstract",1,1731619632973,"abstract",1508.5,935,"concrete","A",NA,6.84054652928869,7.31887105859912,117,"abstract-negative",1
"334","60b800d2c81484710290317a","stab","test_val","concrete-negative","Valence","CV","negative;positive","negative",1,1731619732482,"negative",1482.16666666667,975,"positive","A",NA,6.88243747099785,7.30126026017158,125,"concrete-negative",1
"335","60b800d2c81484710290317a","cherish","test_val","abstract-positive","Valence","CV","negative;positive","positive",1,1731619736969,"positive",1668.16666666667,675,"positive","A",NA,6.51471269087253,7.41948049799096,128,"abstract-positive",1
"336","60b800d2c81484710290317a","doubt","test_val","abstract-negative","Valence","CV","negative;positive","negative",1,1731619770683,"negative",1508.5,597,"positive","A",NA,6.3919171133926,7.31887105859912,151,"abstract-negative",1
"337","60b800d2c81484710290317a","cherish","test_val","abstract-positive","Valence","CV","negative;positive","positive",1,1731619812870,"positive",1668.16666666667,1192,"positive","A",NA,7.0833878476253,7.41948049799096,181,"abstract-positive",1
"338","60b800d2c81484710290317a","stab","test_val","concrete-negative","Valence","CV","negative;positive","negative",1,1731619822893,"negative",1482.16666666667,773,"positive","A",NA,6.65027904858742,7.30126026017158,188,"concrete-negative",1
"339","60b800d2c81484710290317a","doubt","test_val","abstract-negative","Valence","CV","negative;positive","negative",1,1731619831131,"negative",1508.5,627,"positive","A",NA,6.44094654063292,7.31887105859912,194,"abstract-negative",1
"340","60b800d2c81484710290317a","cherish","test_val","abstract-positive","Valence","CV","negative;positive","positive",1,1731619857000,"positive",1668.16666666667,495,"positive","A",NA,6.20455776256869,7.41948049799096,212,"abstract-positive",1
"341","60b800d2c81484710290317a","stab","test_val","concrete-negative","Valence","CV","negative;positive","negative",1,1731619861016,"negative",1482.16666666667,546,"positive","A",NA,6.30261897574491,7.30126026017158,215,"concrete-negative",1
"342","60b800d2c81484710290317a","doubt","test_val","abstract-negative","Valence","CV","negative;positive","negative",1,1731619863744,"negative",1508.5,550,"positive","A",NA,6.30991827822652,7.31887105859912,217,"abstract-negative",1
"343","63f7a3efa5b4d0027e3185f0","doubt","test_conc","abstract-negative","Concrete","CV","abstract;concrete","abstract",1,1731619243743,"abstract",1383.5,671,"concrete","A",NA,6.50876913697168,7.23237179922698,13,"abstract-negative",1
"344","63f7a3efa5b4d0027e3185f0","cherish","test_conc","abstract-positive","Concrete","CV","abstract;concrete","abstract",1,1731619274860,"abstract",1435.33333333333,821,"concrete","A",NA,6.71052310945243,7.2691523892562,33,"abstract-positive",1
"345","63f7a3efa5b4d0027e3185f0","stab","test_conc","concrete-negative","Concrete","CV","abstract;concrete","concrete",1,1731619279700,"concrete",1417,667,"concrete","A",NA,6.50279004591562,7.25629723969068,36,"concrete-negative",1
"346","63f7a3efa5b4d0027e3185f0","cherish","test_conc","abstract-positive","Concrete","CV","abstract;concrete","abstract",1,1731619315770,"abstract",1435.33333333333,597,"concrete","A",NA,6.3919171133926,7.2691523892562,61,"abstract-positive",1
"347","63f7a3efa5b4d0027e3185f0","doubt","test_conc","abstract-negative","Concrete","CV","abstract;concrete","abstract",1,1731619324263,"abstract",1383.5,591,"concrete","A",NA,6.3818160174061,7.23237179922698,67,"abstract-negative",1
"348","63f7a3efa5b4d0027e3185f0","stab","test_conc","concrete-negative","Concrete","CV","abstract;concrete","concrete",1,1731619342438,"concrete",1417,648,"concrete","A",NA,6.47389069635227,7.25629723969068,80,"concrete-negative",1
"349","63f7a3efa5b4d0027e3185f0","stab","test_conc","concrete-negative","Concrete","CV","abstract;concrete","concrete",1,1731619345078,"concrete",1417,598,"concrete","A",NA,6.39359075395063,7.25629723969068,82,"concrete-negative",1
"350","63f7a3efa5b4d0027e3185f0","doubt","test_conc","abstract-negative","Concrete","CV","abstract;concrete","abstract",1,1731619346472,"abstract",1383.5,626,"concrete","A",NA,6.4393503711001,7.23237179922698,83,"abstract-negative",1
"351","63f7a3efa5b4d0027e3185f0","cherish","test_conc","abstract-positive","Concrete","CV","abstract;concrete","abstract",1,1731619365264,"abstract",1435.33333333333,510,"concrete","A",NA,6.23441072571837,7.2691523892562,97,"abstract-positive",1
"352","63f7a3efa5b4d0027e3185f0","stab","test_val","concrete-negative","Valence","CV","negative;positive","negative",1,1731619510765,"negative",1417,798,"positive","A",NA,6.68210859744981,7.25629723969068,140,"concrete-negative",1
"353","63f7a3efa5b4d0027e3185f0","cherish","test_val","abstract-positive","Valence","CV","negative;positive","positive",1,1731619515574,"positive",1435.33333333333,944,"positive","A",NA,6.8501261661455,7.2691523892562,143,"abstract-positive",1
"354","63f7a3efa5b4d0027e3185f0","doubt","test_val","abstract-negative","Valence","CV","negative;positive","negative",1,1731619521201,"negative",1383.5,649,"positive","A",NA,6.47543271670409,7.23237179922698,147,"abstract-negative",1
"355","63f7a3efa5b4d0027e3185f0","doubt","test_val","abstract-negative","Valence","CV","negative;positive","negative",1,1731619563519,"negative",1383.5,605,"positive","A",NA,6.40522845803084,7.23237179922698,175,"abstract-negative",1
"356","63f7a3efa5b4d0027e3185f0","stab","test_val","concrete-negative","Valence","CV","negative;positive","negative",1,1731619570570,"negative",1417,603,"positive","A",NA,6.40191719672719,7.25629723969068,180,"concrete-negative",1
"357","63f7a3efa5b4d0027e3185f0","cherish","test_val","abstract-positive","Valence","CV","negative;positive","positive",1,1731619589396,"positive",1435.33333333333,686,"positive","A",NA,6.53087762772588,7.2691523892562,193,"abstract-positive",1
"358","63f7a3efa5b4d0027e3185f0","doubt","test_val","abstract-negative","Valence","CV","negative;positive","negative",1,1731619621027,"negative",1383.5,586,"positive","A",NA,6.37331978957701,7.23237179922698,215,"abstract-negative",1
"359","63f7a3efa5b4d0027e3185f0","stab","test_val","concrete-negative","Valence","CV","negative;positive","negative",1,1731619639759,"negative",1417,590,"positive","A",NA,6.38012253689976,7.25629723969068,229,"concrete-negative",1
"360","63f7a3efa5b4d0027e3185f0","cherish","test_val","abstract-positive","Valence","CV","negative;positive","positive",1,1731619644989,"positive",1435.33333333333,494,"positive","A",NA,6.20253551718792,7.2691523892562,233,"abstract-positive",1
"361","5f4cd10836de2f02dbab436c","running","test_val","abstract-positive","Valence","VC","negative;positive","positive",1,1731609376986,"positive",1414.66666666667,610,"positive","A",NA,6.41345895716736,7.25464921106576,6,"concrete-positive",1
"362","5f4cd10836de2f02dbab436c","feeling","test_val","concrete-positive","Valence","VC","negative;positive","positive",1,1731609379675,"positive",1457.66666666667,541,"positive","A",NA,6.29341927884648,7.28459226274481,8,"abstract-positive",1
"363","5f4cd10836de2f02dbab436c","beware","test_val","concrete-negative","Valence","VC","negative;positive","negative",1,1731609383659,"negative",1590.5,548,"positive","A",NA,6.30627528694802,7.3718037111892,11,"abstract-negative",1
"364","5f4cd10836de2f02dbab436c","smack","test_val","abstract-negative","Valence","VC","negative;positive","positive",0,1731609384970,"positive",1461.08333333333,553,"positive","A",NA,6.31535800152233,7.28693344868213,12,"concrete-negative",0
"365","5f4cd10836de2f02dbab436c","exploit","test_val","concrete-negative","Valence","VC","negative;positive","negative",1,1731609386298,"negative",1521.83333333333,566,"positive","A",NA,6.33859407820318,7.32767102738829,13,"abstract-negative",1
"366","5f4cd10836de2f02dbab436c","consider","test_val","concrete-positive","Valence","VC","negative;positive","positive",1,1731609388962,"positive",1379.16666666667,519,"positive","A",NA,6.25190388316589,7.22923473101721,15,"abstract-positive",1
"367","5f4cd10836de2f02dbab436c","impose","test_val","concrete-negative","Valence","VC","negative;positive","negative",1,1731609394370,"negative",1472.83333333333,612,"positive","A",NA,6.41673228251233,7.29494326228995,19,"abstract-negative",1
"368","5f4cd10836de2f02dbab436c","sail","test_val","abstract-positive","Valence","VC","negative;positive","positive",1,1731609397114,"positive",1470,687,"positive","A",NA,6.53233429222235,7.29301767977278,21,"concrete-positive",1
"369","5f4cd10836de2f02dbab436c","befall","test_val","concrete-negative","Valence","VC","negative;positive","negative",1,1731609402506,"negative",1420.33333333333,610,"positive","A",NA,6.41345895716736,7.2586468648318,25,"abstract-negative",1
"370","5f4cd10836de2f02dbab436c","justify","test_val","concrete-positive","Valence","VC","negative;positive","positive",1,1731609406722,"positive",1474.16666666667,550,"positive","A",NA,6.30991827822652,7.29584813736583,28,"abstract-positive",1
"371","5f4cd10836de2f02dbab436c","fall","test_val","abstract-negative","Valence","VC","negative;positive","positive",0,1731609413746,"positive",1426,645,"positive","A",NA,6.46925031679577,7.26262860097424,33,"concrete-negative",0
"372","5f4cd10836de2f02dbab436c","hurl","test_val","abstract-negative","Valence","VC","negative;positive","negative",1,1731609416538,"negative",1598,589,"positive","A",NA,6.37842618365159,7.37650812632622,35,"concrete-negative",1
"373","5f4cd10836de2f02dbab436c","qualify","test_val","concrete-positive","Valence","VC","negative;positive","positive",1,1731609420442,"positive",1478.66666666667,561,"positive","A",NA,6.3297209055227,7.29889605980215,38,"abstract-positive",1
"374","5f4cd10836de2f02dbab436c","behold","test_val","concrete-positive","Valence","VC","negative;positive","positive",1,1731609423011,"positive",1428.66666666667,546,"positive","A",NA,6.30261897574491,7.26449688736541,40,"abstract-positive",1
"375","5f4cd10836de2f02dbab436c","qualify","test_val","concrete-positive","Valence","VC","negative;positive","positive",1,1731609428251,"positive",1478.66666666667,575,"positive","A",NA,6.35437004079735,7.29889605980215,44,"abstract-positive",1
"376","5f4cd10836de2f02dbab436c","behold","test_val","concrete-positive","Valence","VC","negative;positive","positive",1,1731609436426,"positive",1428.66666666667,709,"positive","A",NA,6.56385552653213,7.26449688736541,50,"abstract-positive",1
"377","5f4cd10836de2f02dbab436c","justify","test_val","concrete-positive","Valence","VC","negative;positive","positive",1,1731609437819,"positive",1474.16666666667,629,"positive","A",NA,6.44413125670044,7.29584813736583,51,"abstract-positive",1
"378","5f4cd10836de2f02dbab436c","sail","test_val","abstract-positive","Valence","VC","negative;positive","positive",1,1731609441906,"positive",1470,688,"positive","A",NA,6.53378883793334,7.29301767977278,54,"concrete-positive",1
"379","5f4cd10836de2f02dbab436c","feeling","test_val","concrete-positive","Valence","VC","negative;positive","positive",1,1731609447171,"positive",1457.66666666667,476,"positive","A",NA,6.16541785423142,7.28459226274481,58,"abstract-positive",1
"380","5f4cd10836de2f02dbab436c","exploit","test_val","concrete-negative","Valence","VC","negative;positive","negative",1,1731609448514,"negative",1521.83333333333,579,"positive","A",NA,6.361302477573,7.32767102738829,59,"abstract-negative",1
"381","5f4cd10836de2f02dbab436c","hurl","test_val","abstract-negative","Valence","VC","negative;positive","negative",1,1731609453746,"negative",1598,482,"positive","A",NA,6.1779441140506,7.37650812632622,63,"concrete-negative",1
"382","5f4cd10836de2f02dbab436c","consider","test_val","concrete-positive","Valence","VC","negative;positive","positive",1,1731609455146,"positive",1379.16666666667,635,"positive","A",NA,6.45362499889269,7.22923473101721,64,"abstract-positive",1
"383","5f4cd10836de2f02dbab436c","befall","test_val","concrete-negative","Valence","VC","negative;positive","negative",1,1731609460594,"negative",1420.33333333333,533,"positive","A",NA,6.27852142416584,7.2586468648318,68,"abstract-negative",1
"384","5f4cd10836de2f02dbab436c","beware","test_val","concrete-negative","Valence","VC","negative;positive","negative",1,1731609468706,"negative",1590.5,551,"positive","A",NA,6.31173480915291,7.3718037111892,74,"abstract-negative",1
"385","5f4cd10836de2f02dbab436c","fall","test_val","abstract-negative","Valence","VC","negative;positive","negative",1,1731609471306,"negative",1426,518,"positive","A",NA,6.24997524225948,7.26262860097424,76,"concrete-negative",1
"386","5f4cd10836de2f02dbab436c","running","test_val","abstract-positive","Valence","VC","negative;positive","positive",1,1731609473850,"positive",1414.66666666667,538,"positive","A",NA,6.28785856016178,7.25464921106576,78,"concrete-positive",1
"387","5f4cd10836de2f02dbab436c","impose","test_val","concrete-negative","Valence","VC","negative;positive","negative",1,1731609475290,"negative",1472.83333333333,679,"positive","A",NA,6.5206211275587,7.29494326228995,79,"abstract-negative",1
"388","5f4cd10836de2f02dbab436c","smack","test_val","abstract-negative","Valence","VC","negative;positive","negative",1,1731609476650,"negative",1461.08333333333,600,"positive","A",NA,6.39692965521615,7.28693344868213,80,"concrete-negative",1
"389","5f4cd10836de2f02dbab436c","sail","test_val","abstract-positive","Valence","VC","negative;positive","positive",1,1731609480586,"positive",1470,675,"positive","A",NA,6.51471269087253,7.29301767977278,83,"concrete-positive",1
"390","5f4cd10836de2f02dbab436c","feeling","test_val","concrete-positive","Valence","VC","negative;positive","positive",1,1731609482170,"positive",1457.66666666667,824,"positive","A",NA,6.71417052990947,7.28459226274481,84,"abstract-positive",1
"391","5f4cd10836de2f02dbab436c","behold","test_val","concrete-positive","Valence","VC","negative;positive","positive",1,1731609490186,"positive",1428.66666666667,632,"positive","A",NA,6.44888939414686,7.26449688736541,90,"abstract-positive",1
"392","5f4cd10836de2f02dbab436c","beware","test_val","concrete-negative","Valence","VC","negative;positive","negative",1,1731609491570,"negative",1590.5,625,"positive","A",NA,6.4377516497364,7.3718037111892,91,"abstract-negative",1
"393","5f4cd10836de2f02dbab436c","fall","test_val","abstract-negative","Valence","VC","negative;positive","negative",1,1731609494394,"negative",1426,677,"positive","A",NA,6.51767127291227,7.26262860097424,93,"concrete-negative",1
"394","5f4cd10836de2f02dbab436c","justify","test_val","concrete-positive","Valence","VC","negative;positive","positive",1,1731609495906,"positive",1474.16666666667,747,"positive","A",NA,6.61606518513282,7.29584813736583,94,"abstract-positive",1
"395","5f4cd10836de2f02dbab436c","hurl","test_val","abstract-negative","Valence","VC","negative;positive","negative",1,1731609499794,"negative",1598,529,"positive","A",NA,6.2709884318583,7.37650812632622,97,"concrete-negative",1
"396","5f4cd10836de2f02dbab436c","qualify","test_val","concrete-positive","Valence","VC","negative;positive","positive",1,1731609501186,"positive",1478.66666666667,631,"positive","A",NA,6.44730586254121,7.29889605980215,98,"abstract-positive",1
"397","5f4cd10836de2f02dbab436c","consider","test_val","concrete-positive","Valence","VC","negative;positive","positive",1,1731609506466,"positive",1379.16666666667,510,"positive","A",NA,6.23441072571837,7.22923473101721,102,"abstract-positive",1
"398","5f4cd10836de2f02dbab436c","exploit","test_val","concrete-negative","Valence","VC","negative;positive","negative",1,1731609510562,"negative",1521.83333333333,665,"positive","A",NA,6.49978704065585,7.32767102738829,105,"abstract-negative",1
"399","5f4cd10836de2f02dbab436c","impose","test_val","concrete-negative","Valence","VC","negative;positive","negative",1,1731609514603,"negative",1472.83333333333,597,"positive","A",NA,6.3919171133926,7.29494326228995,108,"abstract-negative",1
"400","5f4cd10836de2f02dbab436c","running","test_val","abstract-positive","Valence","VC","negative;positive","positive",1,1731609515947,"positive",1414.66666666667,583,"positive","A",NA,6.36818718635049,7.25464921106576,109,"concrete-positive",1
"401","5f4cd10836de2f02dbab436c","befall","test_val","concrete-negative","Valence","VC","negative;positive","negative",1,1731609520131,"negative",1420.33333333333,593,"positive","A",NA,6.38519439899773,7.2586468648318,112,"abstract-negative",1
"402","5f4cd10836de2f02dbab436c","smack","test_val","abstract-negative","Valence","VC","negative;positive","negative",1,1731609522915,"negative",1461.08333333333,643,"positive","A",NA,6.46614472423762,7.28693344868213,114,"concrete-negative",1
"403","5f4cd10836de2f02dbab436c","exploit","test_conc","concrete-negative","Concrete","VC","abstract;concrete","abstract",0,1731609630283,"abstract",1521.83333333333,774,"concrete","A",NA,6.65157187358973,7.32767102738829,129,"abstract-negative",1
"404","5f4cd10836de2f02dbab436c","justify","test_conc","concrete-positive","Concrete","VC","abstract;concrete","abstract",0,1731609631827,"abstract",1474.16666666667,779,"concrete","A",NA,6.65801104587075,7.29584813736583,130,"abstract-positive",1
"405","5f4cd10836de2f02dbab436c","smack","test_conc","abstract-negative","Concrete","VC","abstract;concrete","concrete",0,1731609636419,"concrete",1461.08333333333,854,"concrete","A",NA,6.74993119378857,7.28693344868213,133,"concrete-negative",1
"406","5f4cd10836de2f02dbab436c","beware","test_conc","concrete-negative","Concrete","VC","abstract;concrete","concrete",1,1731609644475,"concrete",1590.5,990,"concrete","A",NA,6.89770494312864,7.3718037111892,138,"abstract-negative",0
"407","5f4cd10836de2f02dbab436c","hurl","test_conc","abstract-negative","Concrete","VC","abstract;concrete","abstract",1,1731609646460,"abstract",1598,1222,"concrete","A",NA,7.10824413973154,7.37650812632622,139,"concrete-negative",0
"408","5f4cd10836de2f02dbab436c","impose","test_conc","concrete-negative","Concrete","VC","abstract;concrete","abstract",0,1731609651259,"abstract",1472.83333333333,820,"concrete","A",NA,6.7093043402583,7.29494326228995,142,"abstract-negative",1
"409","5f4cd10836de2f02dbab436c","behold","test_conc","concrete-positive","Concrete","VC","abstract;concrete","abstract",0,1731609652539,"abstract",1428.66666666667,521,"concrete","A",NA,6.25575004175337,7.26449688736541,143,"abstract-positive",1
"410","5f4cd10836de2f02dbab436c","feeling","test_conc","concrete-positive","Concrete","VC","abstract;concrete","abstract",0,1731609653923,"abstract",1457.66666666667,621,"concrete","A",NA,6.43133108193348,7.28459226274481,144,"abstract-positive",1
"411","5f4cd10836de2f02dbab436c","fall","test_conc","abstract-negative","Concrete","VC","abstract;concrete","concrete",0,1731609655379,"concrete",1426,693,"concrete","A",NA,6.5410299991899,7.26262860097424,145,"concrete-negative",1
"412","5f4cd10836de2f02dbab436c","running","test_conc","abstract-positive","Concrete","VC","abstract;concrete","concrete",0,1731609656877,"concrete",1414.66666666667,736,"concrete","A",NA,6.60123011872888,7.25464921106576,146,"concrete-positive",1
"413","5f4cd10836de2f02dbab436c","sail","test_conc","abstract-positive","Concrete","VC","abstract;concrete","abstract",1,1731609667739,"abstract",1470,918,"concrete","A",NA,6.82219739062049,7.29301767977278,153,"concrete-positive",0
