"","ID.true","Word","Label","ConcValCombo","Task","BlockOrder","Group","Response","Accuracy","EventTime","Value","RT","ReactionTime","Key_value_F","Key_value_J","Comments","LogReactionTime","LogRT","TrialNumber"
"1","5dc47ddd034b45342d3b2e3a","puke","test_conc","concrete-negative","Concrete","CV","B","concrete",1,1742648686025,"concrete",1482.16666666667,965,"concrete","B","",6.87212810133899,7.30126026017158,1
"2","5dc47ddd034b45342d3b2e3a","believe","test_conc","abstract-positive","Concrete","CV","B","abstract",1,1742648688593,"abstract",1875.83333333333,1809,"concrete","B","",7.50052948539529,7.53680828411278,2
"3","5dc47ddd034b45342d3b2e3a","slap","test_conc","concrete-negative","Concrete","CV","B","concrete",1,1742648690369,"concrete",1701.83333333333,1020,"concrete","B","",6.92755790627832,7.43946138032748,3
"4","5dc47ddd034b45342d3b2e3a","exploit","test_conc","abstract-negative","Concrete","CV","B","abstract",1,1742648691929,"abstract",1514.33333333333,799,"concrete","B","",6.68336094576627,7.32273057709129,4
"5","5dc47ddd034b45342d3b2e3a","criticize","test_conc","abstract-negative","Concrete","CV","B","concrete",0,1742648693865,"concrete",1576.5,1178,"concrete","B","",7.07157336421153,7.36296247898512,5
"6","5dc47ddd034b45342d3b2e3a","hope","test_conc","abstract-positive","Concrete","CV","B","concrete",0,1742648695194,"concrete",1521,567,"concrete","B","",6.34035930372775,7.32712329225929,6
"7","5dc47ddd034b45342d3b2e3a","justify","test_conc","abstract-positive","Concrete","CV","B","concrete",0,1742648696657,"concrete",1801.25,706,"concrete","B","",6.55961523749324,7.49623614731373,7
"8","5dc47ddd034b45342d3b2e3a","vomit","test_conc","concrete-negative","Concrete","CV","B","concrete",1,1742648698137,"concrete",1581.5,715,"concrete","B","",6.57228254269401,7.3661290427457,8
"9","5dc47ddd034b45342d3b2e3a","smack","test_conc","concrete-negative","Concrete","CV","B","concrete",1,1742648699649,"concrete",1420.33333333333,754,"concrete","B","",6.62539236800796,7.2586468648318,9
"10","5dc47ddd034b45342d3b2e3a","cherish","test_conc","abstract-positive","Concrete","CV","B","abstract",1,1742648701073,"abstract",1363.33333333333,668,"concrete","B","",6.50428817353665,7.21768796036874,10
"11","5dc47ddd034b45342d3b2e3a","running","test_conc","concrete-positive","Concrete","CV","B","concrete",1,1742648703089,"concrete",1584.16666666667,1252,"concrete","B","",7.13249755166004,7.36781378569447,11
"12","5dc47ddd034b45342d3b2e3a","sail","test_conc","concrete-positive","Concrete","CV","B","concrete",1,1742648704569,"concrete",1648,719,"concrete","B","",6.57786135772105,7.40731771046942,12
"13","5dc47ddd034b45342d3b2e3a","loathe","test_conc","abstract-negative","Concrete","CV","B","concrete",0,1742648706428,"concrete",1613.33333333333,1099,"concrete","B","",7.00215595440362,7.38605771104257,13
"14","5dc47ddd034b45342d3b2e3a","bleed","test_conc","concrete-negative","Concrete","CV","B","concrete",1,1742648708393,"concrete",1697.33333333333,1205,"concrete","B","",7.09423484592476,7.43681367100919,14
"15","5dc47ddd034b45342d3b2e3a","esteem","test_conc","abstract-positive","Concrete","CV","B","abstract",1,1742648710273,"abstract",1637,1120,"concrete","B","",7.02108396428914,7.40062057737113,15
"16","5dc47ddd034b45342d3b2e3a","respect","test_conc","abstract-positive","Concrete","CV","B","abstract",1,1742648712417,"abstract",1815.83333333333,1383,"concrete","B","",7.23201033166476,7.50429977815067,16
"17","5dc47ddd034b45342d3b2e3a","swing","test_conc","concrete-positive","Concrete","CV","B","concrete",1,1742648714282,"concrete",1621.83333333333,1103,"concrete","B","",7.0057890192535,7.39131247559393,17
"18","5dc47ddd034b45342d3b2e3a","hug","test_conc","concrete-positive","Concrete","CV","B","concrete",1,1742648716345,"concrete",1583.83333333333,1301,"concrete","B","",7.1708884785125,7.36760334798326,18
"19","5dc47ddd034b45342d3b2e3a","admired","test_conc","abstract-positive","Concrete","CV","B","abstract",1,1742648718444,"abstract",1815.66666666667,1337,"concrete","B","",7.19818357710194,7.50420798871556,19
"20","5dc47ddd034b45342d3b2e3a","resent","test_conc","abstract-negative","Concrete","CV","B","concrete",0,1742648720679,"concrete",1715.25,1472,"concrete","B","",7.29437729928882,7.447314121571,20
"21","5dc47ddd034b45342d3b2e3a","imagine","test_conc","abstract-positive","Concrete","CV","B","abstract",1,1742648722522,"abstract",1666.66666666667,1079,"concrete","B","",6.98378996525813,7.41858090274813,21
"22","5dc47ddd034b45342d3b2e3a","smile","test_conc","concrete-positive","Concrete","CV","B","concrete",1,1742648723929,"concrete",1455.66666666667,644,"concrete","B","",6.46769872610435,7.28321926481745,22
"23","5dc47ddd034b45342d3b2e3a","worry","test_conc","abstract-negative","Concrete","CV","B","abstract",1,1742648725857,"abstract",1531.25,1163,"concrete","B","",7.05875815251866,7.33383967429304,23
"24","5dc47ddd034b45342d3b2e3a","cook","test_conc","concrete-positive","Concrete","CV","B","concrete",1,1742648727267,"concrete",1700.16666666667,650,"concrete","B","",6.47697236288968,7.43848156445446,24
"25","5dc47ddd034b45342d3b2e3a","stab","test_conc","concrete-negative","Concrete","CV","B","concrete",1,1742648728682,"concrete",1413.5,650,"concrete","B","",6.47697236288968,7.25382417713365,25
"26","5dc47ddd034b45342d3b2e3a","spit","test_conc","concrete-negative","Concrete","CV","B","concrete",1,1742648730202,"concrete",1561.33333333333,756,"concrete","B","",6.62804137617953,7.3532954360495,26
"27","5dc47ddd034b45342d3b2e3a","kiss","test_conc","concrete-positive","Concrete","CV","B","concrete",1,1742648731625,"concrete",1506.83333333333,663,"concrete","B","",6.49677499018586,7.31776559750931,27
"28","5dc47ddd034b45342d3b2e3a","build","test_conc","concrete-positive","Concrete","CV","B","concrete",1,1742648733129,"concrete",1460,743,"concrete","B","",6.61069604471776,7.28619171470238,28
"29","5dc47ddd034b45342d3b2e3a","obsess","test_conc","abstract-negative","Concrete","CV","B","abstract",1,1742648734785,"abstract",1544.33333333333,894,"concrete","B","",6.79570577517351,7.34234759674854,29
"30","5dc47ddd034b45342d3b2e3a","eat","test_conc","concrete-positive","Concrete","CV","B","concrete",1,1742648736146,"concrete",1376.33333333333,599,"concrete","B","",6.39526159811545,7.22717823721798,30
"31","5dc47ddd034b45342d3b2e3a","annoy","test_conc","abstract-negative","Concrete","CV","B","concrete",0,1742648737802,"concrete",1630.16666666667,895,"concrete","B","",6.79682371827486,7.39643753806244,31
"32","5dc47ddd034b45342d3b2e3a","scorn","test_conc","abstract-negative","Concrete","CV","B","concrete",0,1742648739826,"concrete",1598.16666666667,1261,"concrete","B","",7.13966033596492,7.37661241792563,32
"33","5dc47ddd034b45342d3b2e3a","scratch","test_conc","concrete-negative","Concrete","CV","B","concrete",1,1742648741362,"concrete",1600.16666666667,772,"concrete","B","",6.64898455002478,7.37786306946957,33
"34","5dc47ddd034b45342d3b2e3a","fulfill","test_conc","abstract-positive","Concrete","CV","B","abstract",1,1742648743057,"abstract",1841.83333333333,932,"concrete","B","",6.83733281468559,7.51851673136073,34
"35","5dc47ddd034b45342d3b2e3a","kill","test_conc","concrete-negative","Concrete","CV","B","concrete",1,1742648744338,"concrete",1457.66666666667,520,"concrete","B","",6.25382881157547,7.28459226274481,35
"36","5dc47ddd034b45342d3b2e3a","enlighten","test_conc","abstract-positive","Concrete","CV","B","abstract",1,1742648746034,"abstract",1506.33333333333,932,"concrete","B","",6.83733281468559,7.31743372074317,36
"37","5dc47ddd034b45342d3b2e3a","cuddle","test_conc","concrete-positive","Concrete","CV","B","concrete",1,1742648747545,"concrete",1662.33333333333,753,"concrete","B","",6.62406522779989,7.41597751687801,37
"38","5dc47ddd034b45342d3b2e3a","murder","test_conc","concrete-negative","Concrete","CV","B","concrete",1,1742648748906,"concrete",1543,600,"concrete","B","",6.39692965521615,7.34148385236316,38
"39","5dc47ddd034b45342d3b2e3a","violate","test_conc","abstract-negative","Concrete","CV","B","concrete",0,1742648750610,"concrete",1611.16666666667,942,"concrete","B","",6.84800527457636,7.38471383323655,39
"40","5dc47ddd034b45342d3b2e3a","befall","test_conc","abstract-negative","Concrete","CV","B","concrete",0,1742648752057,"concrete",1572.83333333333,686,"concrete","B","",6.53087762772588,7.36063394279328,40
"41","5dc47ddd034b45342d3b2e3a","enlighten","test_conc","abstract-positive","Concrete","CV","B","abstract",1,1742648753649,"abstract",1506.33333333333,830,"concrete","B","",6.72142570079064,7.31743372074317,41
"42","5dc47ddd034b45342d3b2e3a","worry","test_conc","abstract-negative","Concrete","CV","B","abstract",1,1742648755297,"abstract",1531.25,886,"concrete","B","",6.78671695060508,7.33383967429304,42
"43","5dc47ddd034b45342d3b2e3a","hope","test_conc","abstract-positive","Concrete","CV","B","abstract",1,1742648757218,"abstract",1521,1160,"concrete","B","",7.05617528410041,7.32712329225929,43
"44","5dc47ddd034b45342d3b2e3a","hug","test_conc","concrete-positive","Concrete","CV","B","concrete",1,1742648758577,"concrete",1583.83333333333,602,"concrete","B","",6.40025744530882,7.36760334798326,44
"45","5dc47ddd034b45342d3b2e3a","justify","test_conc","abstract-positive","Concrete","CV","B","abstract",1,1742648760065,"abstract",1801.25,729,"concrete","B","",6.59167373200866,7.49623614731373,45
"46","5dc47ddd034b45342d3b2e3a","build","test_conc","concrete-positive","Concrete","CV","B","concrete",1,1742648761570,"concrete",1460,749,"concrete","B","",6.61873898351722,7.28619171470238,46
"47","5dc47ddd034b45342d3b2e3a","scratch","test_conc","concrete-negative","Concrete","CV","B","concrete",1,1742648763209,"concrete",1600.16666666667,879,"concrete","B","",6.77878489768518,7.37786306946957,47
"48","5dc47ddd034b45342d3b2e3a","obsess","test_conc","abstract-negative","Concrete","CV","B","concrete",0,1742648764516,"concrete",1544.33333333333,544,"concrete","B","",6.29894924685594,7.34234759674854,48
"49","5dc47ddd034b45342d3b2e3a","befall","test_conc","abstract-negative","Concrete","CV","B","abstract",1,1742648766031,"abstract",1572.83333333333,756,"concrete","B","",6.62804137617953,7.36063394279328,49
"50","5dc47ddd034b45342d3b2e3a","annoy","test_conc","abstract-negative","Concrete","CV","B","concrete",0,1742648767593,"concrete",1630.16666666667,802,"concrete","B","",6.68710860786651,7.39643753806244,50
"51","5dc47ddd034b45342d3b2e3a","stab","test_conc","concrete-negative","Concrete","CV","B","concrete",1,1742648769155,"concrete",1413.5,803,"concrete","B","",6.68835471394676,7.25382417713365,51
"52","5dc47ddd034b45342d3b2e3a","cherish","test_conc","abstract-positive","Concrete","CV","B","abstract",1,1742648770665,"abstract",1363.33333333333,748,"concrete","B","",6.61740297797448,7.21768796036874,52
"53","5dc47ddd034b45342d3b2e3a","smile","test_conc","concrete-positive","Concrete","CV","B","concrete",1,1742648772010,"concrete",1455.66666666667,583,"concrete","B","",6.36818718635049,7.28321926481745,53
"54","5dc47ddd034b45342d3b2e3a","spit","test_conc","concrete-negative","Concrete","CV","B","concrete",1,1742648773345,"concrete",1561.33333333333,573,"concrete","B","",6.35088571671474,7.3532954360495,54
"55","5dc47ddd034b45342d3b2e3a","resent","test_conc","abstract-negative","Concrete","CV","B","concrete",0,1742648774694,"concrete",1715.25,584,"concrete","B","",6.36990098282823,7.447314121571,55
"56","5dc47ddd034b45342d3b2e3a","sail","test_conc","concrete-positive","Concrete","CV","B","concrete",1,1742648776065,"concrete",1648,609,"concrete","B","",6.4118182677099,7.40731771046942,56
"57","5dc47ddd034b45342d3b2e3a","kill","test_conc","concrete-negative","Concrete","CV","B","concrete",1,1742648777481,"concrete",1457.66666666667,654,"concrete","B","",6.4831073514572,7.28459226274481,57
"58","5dc47ddd034b45342d3b2e3a","kiss","test_conc","concrete-positive","Concrete","CV","B","concrete",1,1742648778969,"concrete",1506.83333333333,726,"concrete","B","",6.5875500148248,7.31776559750931,58
"59","5dc47ddd034b45342d3b2e3a","cuddle","test_conc","concrete-positive","Concrete","CV","B","concrete",1,1742648780354,"concrete",1662.33333333333,625,"concrete","B","",6.4377516497364,7.41597751687801,59
"60","5dc47ddd034b45342d3b2e3a","imagine","test_conc","abstract-positive","Concrete","CV","B","abstract",1,1742648781921,"abstract",1666.66666666667,807,"concrete","B","",6.69332366826995,7.41858090274813,60
"61","5dc47ddd034b45342d3b2e3a","slap","test_conc","concrete-negative","Concrete","CV","B","concrete",1,1742648783321,"concrete",1701.83333333333,640,"concrete","B","",6.46146817635372,7.43946138032748,61
"62","5dc47ddd034b45342d3b2e3a","puke","test_conc","concrete-negative","Concrete","CV","B","concrete",1,1742648784697,"concrete",1482.16666666667,616,"concrete","B","",6.42324696353352,7.30126026017158,62
"63","5dc47ddd034b45342d3b2e3a","fulfill","test_conc","abstract-positive","Concrete","CV","B","concrete",0,1742648786089,"concrete",1841.83333333333,630,"concrete","B","",6.44571981938558,7.51851673136073,63
"64","5dc47ddd034b45342d3b2e3a","murder","test_conc","concrete-negative","Concrete","CV","B","concrete",1,1742648787428,"concrete",1543,580,"concrete","B","",6.36302810354046,7.34148385236316,64
"65","5dc47ddd034b45342d3b2e3a","bleed","test_conc","concrete-negative","Concrete","CV","B","concrete",1,1742648788825,"concrete",1697.33333333333,640,"concrete","B","",6.46146817635372,7.43681367100919,65
"66","5dc47ddd034b45342d3b2e3a","running","test_conc","concrete-positive","Concrete","CV","B","concrete",1,1742648790409,"concrete",1584.16666666667,828,"concrete","B","",6.71901315438526,7.36781378569447,66
"67","5dc47ddd034b45342d3b2e3a","scorn","test_conc","abstract-negative","Concrete","CV","B","concrete",0,1742648791793,"concrete",1598.16666666667,625,"concrete","B","",6.4377516497364,7.37661241792563,67
"68","5dc47ddd034b45342d3b2e3a","loathe","test_conc","abstract-negative","Concrete","CV","B","concrete",0,1742648793722,"concrete",1613.33333333333,1165,"concrete","B","",7.0604763659998,7.38605771104257,68
"69","5dc47ddd034b45342d3b2e3a","believe","test_conc","abstract-positive","Concrete","CV","B","abstract",1,1742648795777,"abstract",1875.83333333333,1295,"concrete","B","",7.16626597413364,7.53680828411278,69
"70","5dc47ddd034b45342d3b2e3a","criticize","test_conc","abstract-negative","Concrete","CV","B","concrete",0,1742648797587,"concrete",1576.5,1051,"concrete","B","",6.95749737087695,7.36296247898512,70
"71","5dc47ddd034b45342d3b2e3a","admired","test_conc","abstract-positive","Concrete","CV","B","concrete",0,1742648799146,"concrete",1815.66666666667,797,"concrete","B","",6.68085467879022,7.50420798871556,71
"72","5dc47ddd034b45342d3b2e3a","cook","test_conc","concrete-positive","Concrete","CV","B","concrete",1,1742648800564,"concrete",1700.16666666667,654,"concrete","B","",6.4831073514572,7.43848156445446,72
"73","5dc47ddd034b45342d3b2e3a","swing","test_conc","concrete-positive","Concrete","CV","B","concrete",1,1742648802106,"concrete",1621.83333333333,779,"concrete","B","",6.65801104587075,7.39131247559393,73
"74","5dc47ddd034b45342d3b2e3a","respect","test_conc","abstract-positive","Concrete","CV","B","concrete",0,1742648803505,"concrete",1815.83333333333,638,"concrete","B","",6.45833828334479,7.50429977815067,74
"75","5dc47ddd034b45342d3b2e3a","exploit","test_conc","abstract-negative","Concrete","CV","B","concrete",0,1742648805186,"concrete",1514.33333333333,921,"concrete","B","",6.82546003625531,7.32273057709129,75
"76","5dc47ddd034b45342d3b2e3a","eat","test_conc","concrete-positive","Concrete","CV","B","concrete",1,1742648806570,"concrete",1376.33333333333,626,"concrete","B","",6.4393503711001,7.22717823721798,76
"77","5dc47ddd034b45342d3b2e3a","esteem","test_conc","abstract-positive","Concrete","CV","B","abstract",1,1742648808065,"abstract",1637,734,"concrete","B","",6.59850902861452,7.40062057737113,77
"78","5dc47ddd034b45342d3b2e3a","smack","test_conc","concrete-negative","Concrete","CV","B","concrete",1,1742648809497,"concrete",1420.33333333333,670,"concrete","B","",6.50727771238501,7.2586468648318,78
"79","5dc47ddd034b45342d3b2e3a","violate","test_conc","abstract-negative","Concrete","CV","B","concrete",0,1742648810961,"concrete",1611.16666666667,705,"concrete","B","",6.55819780281227,7.38471383323655,79
"80","5dc47ddd034b45342d3b2e3a","vomit","test_conc","concrete-negative","Concrete","CV","B","concrete",1,1742648812522,"concrete",1581.5,800,"concrete","B","",6.68461172766793,7.3661290427457,80
"81","5dc47ddd034b45342d3b2e3a","esteem","test_conc","abstract-positive","Concrete","CV","B","concrete",0,1742648813913,"concrete",1637,632,"concrete","B","",6.44888939414686,7.40062057737113,81
"82","5dc47ddd034b45342d3b2e3a","scorn","test_conc","abstract-negative","Concrete","CV","B","concrete",0,1742648815266,"concrete",1598.16666666667,587,"concrete","B","",6.3750248198281,7.37661241792563,82
"83","5dc47ddd034b45342d3b2e3a","murder","test_conc","concrete-negative","Concrete","CV","B","concrete",1,1742648816617,"concrete",1543,590,"concrete","B","",6.38012253689976,7.34148385236316,83
"84","5dc47ddd034b45342d3b2e3a","imagine","test_conc","abstract-positive","Concrete","CV","B","abstract",1,1742648818162,"abstract",1666.66666666667,782,"concrete","B","",6.66185474054531,7.41858090274813,84
"85","5dc47ddd034b45342d3b2e3a","hope","test_conc","abstract-positive","Concrete","CV","B","abstract",1,1742648819770,"abstract",1521,846,"concrete","B","",6.74051935960622,7.32712329225929,85
"86","5dc47ddd034b45342d3b2e3a","loathe","test_conc","abstract-negative","Concrete","CV","B","concrete",0,1742648821338,"concrete",1613.33333333333,808,"concrete","B","",6.69456205852109,7.38605771104257,86
"87","5dc47ddd034b45342d3b2e3a","stab","test_conc","concrete-negative","Concrete","CV","B","concrete",1,1742648822705,"concrete",1413.5,600,"concrete","B","",6.39692965521615,7.25382417713365,87
"88","5dc47ddd034b45342d3b2e3a","smack","test_conc","concrete-negative","Concrete","CV","B","concrete",1,1742648824073,"concrete",1420.33333333333,606,"concrete","B","",6.40687998606931,7.2586468648318,88
"89","5dc47ddd034b45342d3b2e3a","sail","test_conc","concrete-positive","Concrete","CV","B","concrete",1,1742648825442,"concrete",1648,607,"concrete","B","",6.4085287910595,7.40731771046942,89
"90","5dc47ddd034b45342d3b2e3a","fulfill","test_conc","abstract-positive","Concrete","CV","B","abstract",1,1742648827299,"abstract",1841.83333333333,1096,"concrete","B","",6.99942246750796,7.51851673136073,90
"91","5dc47ddd034b45342d3b2e3a","enlighten","test_conc","abstract-positive","Concrete","CV","B","abstract",1,1742648828801,"abstract",1506.33333333333,740,"concrete","B","",6.60665018619822,7.31743372074317,91
"92","5dc47ddd034b45342d3b2e3a","obsess","test_conc","abstract-negative","Concrete","CV","B","abstract",1,1742648830361,"abstract",1544.33333333333,798,"concrete","B","",6.68210859744981,7.34234759674854,92
"93","5dc47ddd034b45342d3b2e3a","build","test_conc","concrete-positive","Concrete","CV","B","concrete",1,1742648831754,"concrete",1460,634,"concrete","B","",6.45204895443723,7.28619171470238,93
"94","5dc47ddd034b45342d3b2e3a","eat","test_conc","concrete-positive","Concrete","CV","B","concrete",1,1742648833026,"concrete",1376.33333333333,514,"concrete","B","",6.24222326545517,7.22717823721798,94
"95","5dc47ddd034b45342d3b2e3a","slap","test_conc","concrete-negative","Concrete","CV","B","concrete",1,1742648834306,"concrete",1701.83333333333,517,"concrete","B","",6.24804287450843,7.43946138032748,95
"96","5dc47ddd034b45342d3b2e3a","spit","test_conc","concrete-negative","Concrete","CV","B","concrete",1,1742648835523,"concrete",1561.33333333333,456,"concrete","B","",6.12249280951439,7.3532954360495,96
"97","5dc47ddd034b45342d3b2e3a","vomit","test_conc","concrete-negative","Concrete","CV","B","concrete",1,1742648836858,"concrete",1581.5,572,"concrete","B","",6.3491389913798,7.3661290427457,97
"98","5dc47ddd034b45342d3b2e3a","running","test_conc","concrete-positive","Concrete","CV","B","concrete",1,1742648838121,"concrete",1584.16666666667,500,"concrete","B","",6.21460809842219,7.36781378569447,98
"99","5dc47ddd034b45342d3b2e3a","worry","test_conc","abstract-negative","Concrete","CV","B","concrete",0,1742648839273,"concrete",1531.25,387,"concrete","B","",5.95842469302978,7.33383967429304,99
"100","5dc47ddd034b45342d3b2e3a","resent","test_conc","abstract-negative","Concrete","CV","B","abstract",1,1742648841306,"abstract",1715.25,1273,"concrete","B","",7.14913159855741,7.447314121571,100
"101","5dc47ddd034b45342d3b2e3a","smile","test_conc","concrete-positive","Concrete","CV","B","concrete",1,1742648842649,"concrete",1455.66666666667,577,"concrete","B","",6.3578422665081,7.28321926481745,101
"102","5dc47ddd034b45342d3b2e3a","exploit","test_conc","abstract-negative","Concrete","CV","B","concrete",0,1742648844210,"concrete",1514.33333333333,796,"concrete","B","",6.67959918584438,7.32273057709129,102
"103","5dc47ddd034b45342d3b2e3a","cuddle","test_conc","concrete-positive","Concrete","CV","B","concrete",1,1742648845613,"concrete",1662.33333333333,639,"concrete","B","",6.45990445437753,7.41597751687801,103
"104","5dc47ddd034b45342d3b2e3a","cook","test_conc","concrete-positive","Concrete","CV","B","concrete",1,1742648847074,"concrete",1700.16666666667,694,"concrete","B","",6.5424719605068,7.43848156445446,104
"105","5dc47ddd034b45342d3b2e3a","bleed","test_conc","concrete-negative","Concrete","CV","B","concrete",1,1742648848401,"concrete",1697.33333333333,566,"concrete","B","",6.33859407820318,7.43681367100919,105
"106","5dc47ddd034b45342d3b2e3a","befall","test_conc","abstract-negative","Concrete","CV","B","abstract",1,1742648849923,"abstract",1572.83333333333,760,"concrete","B","",6.63331843328038,7.36063394279328,106
"107","5dc47ddd034b45342d3b2e3a","justify","test_conc","abstract-positive","Concrete","CV","B","abstract",1,1742648852473,"abstract",1801.25,1791,"concrete","B","",7.49052940206071,7.49623614731373,107
"108","5dc47ddd034b45342d3b2e3a","puke","test_conc","concrete-negative","Concrete","CV","B","concrete",1,1742648853849,"concrete",1482.16666666667,615,"concrete","B","",6.42162226780652,7.30126026017158,108
"109","5dc47ddd034b45342d3b2e3a","cherish","test_conc","abstract-positive","Concrete","CV","B","concrete",0,1742648855025,"concrete",1363.33333333333,416,"concrete","B","",6.03068526026126,7.21768796036874,109
"110","5dc47ddd034b45342d3b2e3a","hug","test_conc","concrete-positive","Concrete","CV","B","concrete",1,1742648856356,"concrete",1583.83333333333,570,"concrete","B","",6.3456363608286,7.36760334798326,110
"111","5dc47ddd034b45342d3b2e3a","kiss","test_conc","concrete-positive","Concrete","CV","B","concrete",1,1742648857665,"concrete",1506.83333333333,549,"concrete","B","",6.30809844150953,7.31776559750931,111
"112","5dc47ddd034b45342d3b2e3a","respect","test_conc","abstract-positive","Concrete","CV","B","concrete",0,1742648859313,"concrete",1815.83333333333,887,"concrete","B","",6.78784498230958,7.50429977815067,112
"113","5dc47ddd034b45342d3b2e3a","scratch","test_conc","concrete-negative","Concrete","CV","B","concrete",1,1742648860817,"concrete",1600.16666666667,745,"concrete","B","",6.61338421837956,7.37786306946957,113
"114","5dc47ddd034b45342d3b2e3a","criticize","test_conc","abstract-negative","Concrete","CV","B","abstract",1,1742648862378,"abstract",1576.5,798,"concrete","B","",6.68210859744981,7.36296247898512,114
"115","5dc47ddd034b45342d3b2e3a","swing","test_conc","concrete-positive","Concrete","CV","B","concrete",1,1742648863939,"concrete",1621.83333333333,796,"concrete","B","",6.67959918584438,7.39131247559393,115
"116","5dc47ddd034b45342d3b2e3a","violate","test_conc","abstract-negative","Concrete","CV","B","abstract",1,1742648866017,"abstract",1611.16666666667,1319,"concrete","B","",7.18462915271731,7.38471383323655,116
"117","5dc47ddd034b45342d3b2e3a","kill","test_conc","concrete-negative","Concrete","CV","B","concrete",1,1742648867322,"concrete",1457.66666666667,540,"concrete","B","",6.29156913955832,7.28459226274481,117
"118","5dc47ddd034b45342d3b2e3a","annoy","test_conc","abstract-negative","Concrete","CV","B","abstract",1,1742648868913,"abstract",1630.16666666667,830,"concrete","B","",6.72142570079064,7.39643753806244,118
"119","5dc47ddd034b45342d3b2e3a","admired","test_conc","abstract-positive","Concrete","CV","B","abstract",1,1742648870434,"abstract",1815.66666666667,761,"concrete","B","",6.63463335786169,7.50420798871556,119
"120","5dc47ddd034b45342d3b2e3a","believe","test_conc","abstract-positive","Concrete","CV","B","abstract",1,1742648871916,"abstract",1875.83333333333,724,"concrete","B","",6.58479139238572,7.53680828411278,120
"121","5dc47ddd034b45342d3b2e3a","spit","test_val","concrete-negative","Valence","CV","B","positive",0,1742649196338,"positive",1561.33333333333,707,"positive","B","",6.56103066589657,7.3532954360495,121
"122","5dc47ddd034b45342d3b2e3a","fulfill","test_val","abstract-positive","Valence","CV","B","positive",1,1742649199482,"positive",1841.83333333333,2380,"positive","B","",7.77485576666552,7.51851673136073,122
"123","5dc47ddd034b45342d3b2e3a","hope","test_val","abstract-positive","Valence","CV","B","positive",1,1742649200953,"positive",1521,710,"positive","B","",6.56526497003536,7.32712329225929,123
"124","5dc47ddd034b45342d3b2e3a","justify","test_val","abstract-positive","Valence","CV","B","positive",1,1742649203145,"positive",1801.25,1427,"positive","B","",7.26332961747684,7.49623614731373,124
"125","5dc47ddd034b45342d3b2e3a","admired","test_val","abstract-positive","Valence","CV","B","positive",1,1742649204970,"positive",1815.66666666667,1066,"positive","B","",6.97166860472579,7.50420798871556,125
"126","5dc47ddd034b45342d3b2e3a","puke","test_val","concrete-negative","Valence","CV","B","negative",1,1742649206497,"negative",1482.16666666667,766,"positive","B","",6.64118216974059,7.30126026017158,126
"127","5dc47ddd034b45342d3b2e3a","vomit","test_val","concrete-negative","Valence","CV","B","negative",1,1742649207795,"negative",1581.5,534,"positive","B","",6.2803958389602,7.3661290427457,127
"128","5dc47ddd034b45342d3b2e3a","eat","test_val","concrete-positive","Valence","CV","B","positive",1,1742649209250,"positive",1376.33333333333,692,"positive","B","",6.53958595561767,7.22717823721798,128
"129","5dc47ddd034b45342d3b2e3a","sail","test_val","concrete-positive","Valence","CV","B","positive",1,1742649210713,"positive",1648,704,"positive","B","",6.55677835615804,7.40731771046942,129
"130","5dc47ddd034b45342d3b2e3a","hug","test_val","concrete-positive","Valence","CV","B","positive",1,1742649212097,"positive",1583.83333333333,624,"positive","B","",6.43615036836943,7.36760334798326,130
"131","5dc47ddd034b45342d3b2e3a","criticize","test_val","abstract-negative","Valence","CV","B","negative",1,1742649213490,"negative",1576.5,626,"positive","B","",6.4393503711001,7.36296247898512,131
"132","5dc47ddd034b45342d3b2e3a","enlighten","test_val","abstract-positive","Valence","CV","B","positive",1,1742649215001,"positive",1506.33333333333,752,"positive","B","",6.62273632394984,7.31743372074317,132
"133","5dc47ddd034b45342d3b2e3a","cuddle","test_val","concrete-positive","Valence","CV","B","positive",1,1742649217025,"positive",1662.33333333333,1261,"positive","B","",7.13966033596492,7.41597751687801,133
"134","5dc47ddd034b45342d3b2e3a","kiss","test_val","concrete-positive","Valence","CV","B","positive",1,1742649218999,"positive",1506.83333333333,1214,"positive","B","",7.10167597161944,7.31776559750931,134
"135","5dc47ddd034b45342d3b2e3a","bleed","test_val","concrete-negative","Valence","CV","B","negative",1,1742649221193,"negative",1697.33333333333,1427,"positive","B","",7.26332961747684,7.43681367100919,135
"136","5dc47ddd034b45342d3b2e3a","imagine","test_val","abstract-positive","Valence","CV","B","positive",1,1742649222673,"positive",1666.66666666667,722,"positive","B","",6.58202513889283,7.41858090274813,136
"137","5dc47ddd034b45342d3b2e3a","smile","test_val","concrete-positive","Valence","CV","B","positive",1,1742649224209,"positive",1455.66666666667,775,"positive","B","",6.65286302935335,7.28321926481745,137
"138","5dc47ddd034b45342d3b2e3a","swing","test_val","concrete-positive","Valence","CV","B","positive",1,1742649225570,"positive",1621.83333333333,602,"positive","B","",6.40025744530882,7.39131247559393,138
"139","5dc47ddd034b45342d3b2e3a","respect","test_val","abstract-positive","Valence","CV","B","positive",1,1742649227993,"positive",1815.83333333333,1666,"positive","B","",7.41818082272679,7.50429977815067,139
"140","5dc47ddd034b45342d3b2e3a","build","test_val","concrete-positive","Valence","CV","B","positive",1,1742649229585,"positive",1460,836,"positive","B","",6.7286286130847,7.28619171470238,140
"141","5dc47ddd034b45342d3b2e3a","stab","test_val","concrete-negative","Valence","CV","B","positive",0,1742649230945,"positive",1413.5,603,"positive","B","",6.40191719672719,7.25382417713365,141
"142","5dc47ddd034b45342d3b2e3a","violate","test_val","abstract-negative","Valence","CV","B","negative",1,1742649232481,"negative",1611.16666666667,778,"positive","B","",6.65672652417839,7.38471383323655,142
"143","5dc47ddd034b45342d3b2e3a","scratch","test_val","concrete-negative","Valence","CV","B","negative",1,1742649233937,"negative",1600.16666666667,698,"positive","B","",6.54821910276237,7.37786306946957,143
"144","5dc47ddd034b45342d3b2e3a","cook","test_val","concrete-positive","Valence","CV","B","positive",1,1742649235722,"positive",1700.16666666667,1024,"positive","B","",6.93147180559945,7.43848156445446,144
"145","5dc47ddd034b45342d3b2e3a","murder","test_val","concrete-negative","Valence","CV","B","negative",1,1742649237865,"negative",1543,1382,"positive","B","",7.23128700432762,7.34148385236316,145
"146","5dc47ddd034b45342d3b2e3a","esteem","test_val","abstract-positive","Valence","CV","B","positive",1,1742649239355,"positive",1637,728,"positive","B","",6.59030104819669,7.40062057737113,146
"147","5dc47ddd034b45342d3b2e3a","resent","test_val","abstract-negative","Valence","CV","B","negative",1,1742649241043,"negative",1715.25,925,"positive","B","",6.82979373751242,7.447314121571,147
"148","5dc47ddd034b45342d3b2e3a","exploit","test_val","abstract-negative","Valence","CV","B","negative",1,1742649242683,"negative",1514.33333333333,878,"positive","B","",6.77764659363512,7.32273057709129,148
"149","5dc47ddd034b45342d3b2e3a","worry","test_val","abstract-negative","Valence","CV","B","negative",1,1742649244411,"negative",1531.25,964,"positive","B","",6.87109129461055,7.33383967429304,149
"150","5dc47ddd034b45342d3b2e3a","loathe","test_val","abstract-negative","Valence","CV","B","negative",1,1742649245834,"negative",1613.33333333333,662,"positive","B","",6.49526555593701,7.38605771104257,150
"151","5dc47ddd034b45342d3b2e3a","slap","test_val","concrete-negative","Valence","CV","B","negative",1,1742649247571,"negative",1701.83333333333,978,"positive","B","",6.88550967003482,7.43946138032748,151
"152","5dc47ddd034b45342d3b2e3a","obsess","test_val","abstract-negative","Valence","CV","B","negative",1,1742649249540,"negative",1544.33333333333,1206,"positive","B","",7.09506437728713,7.34234759674854,152
"153","5dc47ddd034b45342d3b2e3a","scorn","test_val","abstract-negative","Valence","CV","B","negative",1,1742649251668,"negative",1598.16666666667,1363,"positive","B","",7.21744343169653,7.37661241792563,153
"154","5dc47ddd034b45342d3b2e3a","running","test_val","concrete-positive","Valence","CV","B","positive",1,1742649253173,"positive",1584.16666666667,741,"positive","B","",6.60800062529609,7.36781378569447,154
"155","5dc47ddd034b45342d3b2e3a","kill","test_val","concrete-negative","Valence","CV","B","negative",1,1742649254756,"negative",1457.66666666667,819,"positive","B","",6.70808408385307,7.28459226274481,155
"156","5dc47ddd034b45342d3b2e3a","annoy","test_val","abstract-negative","Valence","CV","B","negative",1,1742649257027,"negative",1630.16666666667,1510,"positive","B","",7.31986492980897,7.39643753806244,156
"157","5dc47ddd034b45342d3b2e3a","smack","test_val","concrete-negative","Valence","CV","B","negative",1,1742649258458,"negative",1420.33333333333,665,"positive","B","",6.49978704065585,7.2586468648318,157
"158","5dc47ddd034b45342d3b2e3a","befall","test_val","abstract-negative","Valence","CV","B","negative",1,1742649260458,"negative",1572.83333333333,1239,"positive","B","",7.12205988162914,7.36063394279328,158
"159","5dc47ddd034b45342d3b2e3a","believe","test_val","abstract-positive","Valence","CV","B","positive",1,1742649262090,"positive",1875.83333333333,868,"positive","B","",6.76619171466035,7.53680828411278,159
"160","5dc47ddd034b45342d3b2e3a","cherish","test_val","abstract-positive","Valence","CV","B","positive",1,1742649263467,"positive",1363.33333333333,612,"positive","B","",6.41673228251233,7.21768796036874,160
"161","5dc47ddd034b45342d3b2e3a","enlighten","test_val","abstract-positive","Valence","CV","B","positive",1,1742649264857,"positive",1506.33333333333,624,"positive","B","",6.43615036836943,7.31743372074317,161
"162","5dc47ddd034b45342d3b2e3a","scorn","test_val","abstract-negative","Valence","CV","B","negative",1,1742649266251,"negative",1598.16666666667,637,"positive","B","",6.45676965557216,7.37661241792563,162
"163","5dc47ddd034b45342d3b2e3a","smack","test_val","concrete-negative","Valence","CV","B","negative",1,1742649267621,"negative",1420.33333333333,605,"positive","B","",6.40522845803084,7.2586468648318,163
"164","5dc47ddd034b45342d3b2e3a","esteem","test_val","abstract-positive","Valence","CV","B","positive",1,1742649269043,"positive",1637,657,"positive","B","",6.48768401848461,7.40062057737113,164
"165","5dc47ddd034b45342d3b2e3a","criticize","test_val","abstract-negative","Valence","CV","B","negative",1,1742649270394,"negative",1576.5,587,"positive","B","",6.3750248198281,7.36296247898512,165
"166","5dc47ddd034b45342d3b2e3a","eat","test_val","concrete-positive","Valence","CV","B","positive",1,1742649271841,"positive",1376.33333333333,681,"positive","B","",6.52356230614951,7.22717823721798,166
"167","5dc47ddd034b45342d3b2e3a","hope","test_val","abstract-positive","Valence","CV","B","positive",1,1742649273227,"positive",1521,624,"positive","B","",6.43615036836943,7.32712329225929,167
"168","5dc47ddd034b45342d3b2e3a","obsess","test_val","abstract-negative","Valence","CV","B","negative",1,1742649274595,"negative",1544.33333333333,606,"positive","B","",6.40687998606931,7.34234759674854,168
"169","5dc47ddd034b45342d3b2e3a","cherish","test_val","abstract-positive","Valence","CV","B","positive",1,1742649275962,"positive",1363.33333333333,604,"positive","B","",6.40357419793482,7.21768796036874,169
"170","5dc47ddd034b45342d3b2e3a","murder","test_val","concrete-negative","Valence","CV","B","negative",1,1742649277723,"negative",1543,999,"positive","B","",6.90675477864855,7.34148385236316,170
"171","5dc47ddd034b45342d3b2e3a","imagine","test_val","abstract-positive","Valence","CV","B","positive",1,1742649279097,"positive",1666.66666666667,614,"positive","B","",6.41999492814714,7.41858090274813,171
"172","5dc47ddd034b45342d3b2e3a","build","test_val","concrete-positive","Valence","CV","B","positive",1,1742649280482,"positive",1460,622,"positive","B","",6.43294009273918,7.28619171470238,172
"173","5dc47ddd034b45342d3b2e3a","exploit","test_val","abstract-negative","Valence","CV","B","negative",1,1742649281868,"negative",1514.33333333333,627,"positive","B","",6.44094654063292,7.32273057709129,173
"174","5dc47ddd034b45342d3b2e3a","resent","test_val","abstract-negative","Valence","CV","B","negative",1,1742649283363,"negative",1715.25,733,"positive","B","",6.59714570188665,7.447314121571,174
"175","5dc47ddd034b45342d3b2e3a","worry","test_val","abstract-negative","Valence","CV","B","negative",1,1742649284707,"negative",1531.25,578,"positive","B","",6.35957386867238,7.33383967429304,175
"176","5dc47ddd034b45342d3b2e3a","loathe","test_val","abstract-negative","Valence","CV","B","negative",1,1742649286116,"negative",1613.33333333333,645,"positive","B","",6.46925031679577,7.38605771104257,176
"177","5dc47ddd034b45342d3b2e3a","annoy","test_val","abstract-negative","Valence","CV","B","negative",1,1742649287435,"negative",1630.16666666667,554,"positive","B","",6.31716468674728,7.39643753806244,177
"178","5dc47ddd034b45342d3b2e3a","justify","test_val","abstract-positive","Valence","CV","B","positive",1,1742649288932,"positive",1801.25,736,"positive","B","",6.60123011872888,7.49623614731373,178
"179","5dc47ddd034b45342d3b2e3a","kill","test_val","concrete-negative","Valence","CV","B","negative",1,1742649290771,"negative",1457.66666666667,1075,"positive","B","",6.98007594056176,7.28459226274481,179
"180","5dc47ddd034b45342d3b2e3a","bleed","test_val","concrete-negative","Valence","CV","B","negative",1,1742649292593,"negative",1697.33333333333,1060,"positive","B","",6.96602418710611,7.43681367100919,180
"181","5dc47ddd034b45342d3b2e3a","smile","test_val","concrete-positive","Valence","CV","B","positive",1,1742649294372,"positive",1455.66666666667,1019,"positive","B","",6.92657703322272,7.28321926481745,181
"182","5dc47ddd034b45342d3b2e3a","respect","test_val","abstract-positive","Valence","CV","B","positive",1,1742649296307,"positive",1815.83333333333,1175,"positive","B","",7.06902342657826,7.50429977815067,182
"183","5dc47ddd034b45342d3b2e3a","violate","test_val","abstract-negative","Valence","CV","B","negative",1,1742649297777,"negative",1611.16666666667,707,"positive","B","",6.56103066589657,7.38471383323655,183
"184","5dc47ddd034b45342d3b2e3a","befall","test_val","abstract-negative","Valence","CV","B","negative",1,1742649299348,"negative",1572.83333333333,812,"positive","B","",6.69950034016168,7.36063394279328,184
"185","5dc47ddd034b45342d3b2e3a","swing","test_val","concrete-positive","Valence","CV","B","positive",1,1742649301251,"positive",1621.83333333333,1136,"positive","B","",7.0352685992811,7.39131247559393,185
"186","5dc47ddd034b45342d3b2e3a","hug","test_val","concrete-positive","Valence","CV","B","positive",1,1742649303308,"positive",1583.83333333333,1292,"positive","B","",7.16394668434255,7.36760334798326,186
"187","5dc47ddd034b45342d3b2e3a","believe","test_val","abstract-positive","Valence","CV","B","negative",0,1742649305227,"negative",1875.83333333333,1155,"positive","B","",7.05185562295589,7.53680828411278,187
"188","5dc47ddd034b45342d3b2e3a","scratch","test_val","concrete-negative","Valence","CV","B","negative",1,1742649307204,"negative",1600.16666666667,1215,"positive","B","",7.10249935577465,7.37786306946957,188
"189","5dc47ddd034b45342d3b2e3a","vomit","test_val","concrete-negative","Valence","CV","B","negative",1,1742649309682,"negative",1581.5,1715,"positive","B","",7.44716835960004,7.3661290427457,189
"190","5dc47ddd034b45342d3b2e3a","cook","test_val","concrete-positive","Valence","CV","B","positive",1,1742649312465,"positive",1700.16666666667,2017,"positive","B","",7.60936653795421,7.43848156445446,190
"191","5dc47ddd034b45342d3b2e3a","fulfill","test_val","abstract-positive","Valence","CV","B","positive",1,1742649314033,"positive",1841.83333333333,811,"positive","B","",6.69826805411541,7.51851673136073,191
"192","5dc47ddd034b45342d3b2e3a","sail","test_val","concrete-positive","Valence","CV","B","positive",1,1742649315457,"positive",1648,662,"positive","B","",6.49526555593701,7.40731771046942,192
"193","5dc47ddd034b45342d3b2e3a","kiss","test_val","concrete-positive","Valence","CV","B","positive",1,1742649316873,"positive",1506.83333333333,658,"positive","B","",6.48920493132532,7.31776559750931,193
"194","5dc47ddd034b45342d3b2e3a","cuddle","test_val","concrete-positive","Valence","CV","B","positive",1,1742649318289,"positive",1662.33333333333,655,"positive","B","",6.48463523563525,7.41597751687801,194
"195","5dc47ddd034b45342d3b2e3a","stab","test_val","concrete-negative","Valence","CV","B","positive",0,1742649319730,"positive",1413.5,678,"positive","B","",6.5191472879404,7.25382417713365,195
"196","5dc47ddd034b45342d3b2e3a","admired","test_val","abstract-positive","Valence","CV","B","positive",1,1742649322065,"positive",1815.66666666667,1572,"positive","B","",7.36010397298915,7.50420798871556,196
"197","5dc47ddd034b45342d3b2e3a","running","test_val","concrete-positive","Valence","CV","B","positive",1,1742649323497,"positive",1584.16666666667,674,"positive","B","",6.51323011091231,7.36781378569447,197
"198","5dc47ddd034b45342d3b2e3a","slap","test_val","concrete-negative","Valence","CV","B","negative",1,1742649326241,"negative",1701.83333333333,1984,"positive","B","",7.59287028784482,7.43946138032748,198
"199","5dc47ddd034b45342d3b2e3a","puke","test_val","concrete-negative","Valence","CV","B","negative",1,1742649327811,"negative",1482.16666666667,807,"positive","B","",6.69332366826995,7.30126026017158,199
"200","5dc47ddd034b45342d3b2e3a","spit","test_val","concrete-negative","Valence","CV","B","negative",1,1742649330201,"negative",1561.33333333333,1631,"positive","B","",7.39694860262101,7.3532954360495,200
"201","5dc47ddd034b45342d3b2e3a","respect","test_val","abstract-positive","Valence","CV","B","positive",1,1742649331577,"positive",1815.83333333333,617,"positive","B","",6.42486902390539,7.50429977815067,201
"202","5dc47ddd034b45342d3b2e3a","smile","test_val","concrete-positive","Valence","CV","B","positive",1,1742649332929,"positive",1455.66666666667,590,"positive","B","",6.38012253689976,7.28321926481745,202
"203","5dc47ddd034b45342d3b2e3a","obsess","test_val","abstract-negative","Valence","CV","B","negative",1,1742649334369,"negative",1544.33333333333,681,"positive","B","",6.52356230614951,7.34234759674854,203
"204","5dc47ddd034b45342d3b2e3a","scratch","test_val","concrete-negative","Valence","CV","B","negative",1,1742649335890,"negative",1600.16666666667,759,"positive","B","",6.63200177739563,7.37786306946957,204
"205","5dc47ddd034b45342d3b2e3a","eat","test_val","concrete-positive","Valence","CV","B","positive",1,1742649337259,"positive",1376.33333333333,606,"positive","B","",6.40687998606931,7.22717823721798,205
"206","5dc47ddd034b45342d3b2e3a","kiss","test_val","concrete-positive","Valence","CV","B","positive",1,1742649338722,"positive",1506.83333333333,702,"positive","B","",6.55393340402581,7.31776559750931,206
"207","5dc47ddd034b45342d3b2e3a","justify","test_val","abstract-positive","Valence","CV","B","negative",0,1742649340372,"negative",1801.25,884,"positive","B","",6.78445706263764,7.49623614731373,207
"208","5dc47ddd034b45342d3b2e3a","violate","test_val","abstract-negative","Valence","CV","B","negative",1,1742649341819,"negative",1611.16666666667,683,"positive","B","",6.52649485957079,7.38471383323655,208
"209","5dc47ddd034b45342d3b2e3a","slap","test_val","concrete-negative","Valence","CV","B","negative",1,1742649343122,"negative",1701.83333333333,540,"positive","B","",6.29156913955832,7.43946138032748,209
"210","5dc47ddd034b45342d3b2e3a","kill","test_val","concrete-negative","Valence","CV","B","negative",1,1742649344483,"negative",1457.66666666667,596,"positive","B","",6.39024066706535,7.28459226274481,210
"211","5dc47ddd034b45342d3b2e3a","swing","test_val","concrete-positive","Valence","CV","B","positive",1,1742649346017,"positive",1621.83333333333,770,"positive","B","",6.64639051484773,7.39131247559393,211
"212","5dc47ddd034b45342d3b2e3a","cuddle","test_val","concrete-positive","Valence","CV","B","positive",1,1742649348285,"positive",1662.33333333333,1506,"positive","B","",7.31721240835984,7.41597751687801,212
"213","5dc47ddd034b45342d3b2e3a","scorn","test_val","abstract-negative","Valence","CV","B","negative",1,1742649349620,"negative",1598.16666666667,569,"positive","B","",6.34388043412633,7.37661241792563,213
"214","5dc47ddd034b45342d3b2e3a","resent","test_val","abstract-negative","Valence","CV","B","negative",1,1742649351148,"negative",1715.25,762,"positive","B","",6.63594655568665,7.447314121571,214
"215","5dc47ddd034b45342d3b2e3a","stab","test_val","concrete-negative","Valence","CV","B","negative",1,1742649352516,"negative",1413.5,605,"positive","B","",6.40522845803084,7.25382417713365,215
"216","5dc47ddd034b45342d3b2e3a","esteem","test_val","abstract-positive","Valence","CV","B","positive",1,1742649354691,"positive",1637,1414,"positive","B","",7.25417784645652,7.40062057737113,216
"217","5dc47ddd034b45342d3b2e3a","cook","test_val","concrete-positive","Valence","CV","B","positive",1,1742649356073,"positive",1700.16666666667,622,"positive","B","",6.43294009273918,7.43848156445446,217
"218","5dc47ddd034b45342d3b2e3a","vomit","test_val","concrete-negative","Valence","CV","B","negative",1,1742649357443,"negative",1581.5,611,"positive","B","",6.4150969591716,7.3661290427457,218
"219","5dc47ddd034b45342d3b2e3a","running","test_val","concrete-positive","Valence","CV","B","positive",1,1742649359179,"positive",1584.16666666667,973,"positive","B","",6.880384082186,7.36781378569447,219
"220","5dc47ddd034b45342d3b2e3a","smack","test_val","concrete-negative","Valence","CV","B","negative",1,1742649360619,"negative",1420.33333333333,675,"positive","B","",6.51471269087253,7.2586468648318,220
"221","5dc47ddd034b45342d3b2e3a","fulfill","test_val","abstract-positive","Valence","CV","B","positive",1,1742649362044,"positive",1841.83333333333,660,"positive","B","",6.49223983502047,7.51851673136073,221
"222","5dc47ddd034b45342d3b2e3a","imagine","test_val","abstract-positive","Valence","CV","B","positive",1,1742649364268,"positive",1666.66666666667,1460,"positive","B","",7.28619171470238,7.41858090274813,222
"223","5dc47ddd034b45342d3b2e3a","loathe","test_val","abstract-negative","Valence","CV","B","negative",1,1742649365795,"negative",1613.33333333333,766,"positive","B","",6.64118216974059,7.38605771104257,223
"224","5dc47ddd034b45342d3b2e3a","hope","test_val","abstract-positive","Valence","CV","B","positive",1,1742649367234,"positive",1521,679,"positive","B","",6.5206211275587,7.32712329225929,224
"225","5dc47ddd034b45342d3b2e3a","sail","test_val","concrete-positive","Valence","CV","B","positive",1,1742649370042,"positive",1648,2046,"positive","B","",7.62364194651157,7.40731771046942,225
"226","5dc47ddd034b45342d3b2e3a","believe","test_val","abstract-positive","Valence","CV","B","positive",1,1742649371668,"positive",1875.83333333333,867,"positive","B","",6.76503897678054,7.53680828411278,226
"227","5dc47ddd034b45342d3b2e3a","hug","test_val","concrete-positive","Valence","CV","B","positive",1,1742649373010,"positive",1583.83333333333,580,"positive","B","",6.36302810354046,7.36760334798326,227
"228","5dc47ddd034b45342d3b2e3a","worry","test_val","abstract-negative","Valence","CV","B","negative",1,1742649374433,"negative",1531.25,663,"positive","B","",6.49677499018586,7.33383967429304,228
"229","5dc47ddd034b45342d3b2e3a","bleed","test_val","concrete-negative","Valence","CV","B","negative",1,1742649375945,"negative",1697.33333333333,752,"positive","B","",6.62273632394984,7.43681367100919,229
"230","5dc47ddd034b45342d3b2e3a","cherish","test_val","abstract-positive","Valence","CV","B","positive",1,1742649377305,"positive",1363.33333333333,598,"positive","B","",6.39359075395063,7.21768796036874,230
"231","5dc47ddd034b45342d3b2e3a","annoy","test_val","abstract-negative","Valence","CV","B","negative",1,1742649378721,"negative",1630.16666666667,657,"positive","B","",6.48768401848461,7.39643753806244,231
"232","5dc47ddd034b45342d3b2e3a","spit","test_val","concrete-negative","Valence","CV","B","negative",1,1742649380185,"negative",1561.33333333333,702,"positive","B","",6.55393340402581,7.3532954360495,232
"233","5dc47ddd034b45342d3b2e3a","enlighten","test_val","abstract-positive","Valence","CV","B","positive",1,1742649381569,"positive",1506.33333333333,621,"positive","B","",6.43133108193348,7.31743372074317,233
"234","5dc47ddd034b45342d3b2e3a","build","test_val","concrete-positive","Valence","CV","B","positive",1,1742649382977,"positive",1460,647,"positive","B","",6.4723462945009,7.28619171470238,234
"235","5dc47ddd034b45342d3b2e3a","murder","test_val","concrete-negative","Valence","CV","B","negative",1,1742649384306,"negative",1543,570,"positive","B","",6.3456363608286,7.34148385236316,235
"236","5dc47ddd034b45342d3b2e3a","exploit","test_val","abstract-negative","Valence","CV","B","positive",0,1742649385593,"positive",1514.33333333333,528,"positive","B","",6.26909628370626,7.32273057709129,236
"237","5dc47ddd034b45342d3b2e3a","admired","test_val","abstract-positive","Valence","CV","B","positive",1,1742649387177,"positive",1815.66666666667,803,"positive","B","",6.68835471394676,7.50420798871556,237
"238","5dc47ddd034b45342d3b2e3a","befall","test_val","abstract-negative","Valence","CV","B","negative",1,1742649388593,"negative",1572.83333333333,660,"positive","B","",6.49223983502047,7.36063394279328,238
"239","5dc47ddd034b45342d3b2e3a","puke","test_val","concrete-negative","Valence","CV","B","negative",1,1742649389938,"negative",1482.16666666667,564,"positive","B","",6.33505425149806,7.30126026017158,239
"240","5dc47ddd034b45342d3b2e3a","criticize","test_val","abstract-negative","Valence","CV","B","negative",1,1742649391377,"negative",1576.5,679,"positive","B","",6.5206211275587,7.36296247898512,240
"241","58472149000f1000010ebc53","loathe","test_val","abstract-negative","Valence","VC","B","negative",1,1732224870439,"negative",1767.33333333333,1164,"negative","B","",7.05961762829138,7.47722709818086,1
"242","58472149000f1000010ebc53","scratch","test_val","concrete-negative","Valence","VC","B","positive",0,1732224872281,"positive",1899.66666666667,1083,"negative","B","",6.98749024700099,7.54943371116689,2
"243","58472149000f1000010ebc53","running","test_val","concrete-positive","Valence","VC","B","positive",1,1732224874222,"positive",9012,1184,"negative","B","",7.07665381544395,9.10631230155214,3
"244","58472149000f1000010ebc53","annoy","test_val","abstract-negative","Valence","VC","B","negative",1,1732224876642,"negative",1923.33333333333,1660,"negative","B","",7.41457288135059,7.56181507083404,4
"245","58472149000f1000010ebc53","build","test_val","concrete-positive","Valence","VC","B","positive",1,1732224878562,"positive",2737.33333333333,1157,"negative","B","",7.05358572719368,7.91473948947071,5
"246","58472149000f1000010ebc53","scorn","test_val","abstract-negative","Valence","VC","B","negative",1,1732224880589,"negative",1984.16666666667,1264,"negative","B","",7.1420365747068,7.59295428969291,6
"247","58472149000f1000010ebc53","befall","test_val","abstract-negative","Valence","VC","B","negative",1,1732224882626,"negative",2149.75,1278,"negative","B","",7.15305163493748,7.67310683529101,7
"248","58472149000f1000010ebc53","murder","test_val","concrete-negative","Valence","VC","B","negative",1,1732224884308,"negative",1903.5,919,"negative","B","",6.82328612235569,7.55144957582255,8
"249","58472149000f1000010ebc53","spit","test_val","concrete-negative","Valence","VC","B","negative",1,1732224886686,"negative",1896.33333333333,1623,"negative","B","",7.39203156751459,7.54767747608254,9
"250","58472149000f1000010ebc53","justify","test_val","abstract-positive","Valence","VC","B","positive",1,1732224888588,"positive",1758.75,1144,"negative","B","",7.04228617193974,7.4723586084286,10
"251","58472149000f1000010ebc53","vomit","test_val","concrete-negative","Valence","VC","B","negative",1,1732224890304,"negative",1769,957,"negative","B","",6.86380339145295,7.47816969415979,11
"252","58472149000f1000010ebc53","smack","test_val","concrete-negative","Valence","VC","B","negative",1,1732224892211,"negative",1855.5,1146,"negative","B","",7.04403289727469,7.52590948050065,12
"253","58472149000f1000010ebc53","smile","test_val","concrete-positive","Valence","VC","B","positive",1,1732224894198,"positive",2222.83333333333,1225,"negative","B","",7.11069612297883,7.70653793739434,13
"254","58472149000f1000010ebc53","respect","test_val","abstract-positive","Valence","VC","B","positive",1,1732224895903,"positive",2457.83333333333,948,"negative","B","",6.85435450225502,7.80703548202289,14
"255","58472149000f1000010ebc53","cuddle","test_val","concrete-positive","Valence","VC","B","positive",1,1732224897814,"positive",2024,1154,"negative","B","",7.05098944706805,7.61283103040736,15
"256","58472149000f1000010ebc53","admired","test_val","abstract-positive","Valence","VC","B","positive",1,1732224899597,"positive",1880.66666666667,1026,"negative","B","",6.93342302573071,7.53938160289383,16
"257","58472149000f1000010ebc53","fulfill","test_val","abstract-positive","Valence","VC","B","positive",1,1732224901380,"positive",1856.5,1024,"negative","B","",6.93147180559945,7.52644827361713,17
"258","58472149000f1000010ebc53","slap","test_val","concrete-negative","Valence","VC","B","negative",1,1732224903106,"negative",1870,967,"negative","B","",6.87419849545329,7.53369370984863,18
"259","58472149000f1000010ebc53","bleed","test_val","concrete-negative","Valence","VC","B","negative",1,1732224905129,"negative",1824,1263,"negative","B","",7.14124512235049,7.50878717063428,19
"260","58472149000f1000010ebc53","resent","test_val","abstract-negative","Valence","VC","B","negative",1,1732224906827,"negative",1847.5,942,"negative","B","",6.84800527457636,7.52158865282236,20
"261","58472149000f1000010ebc53","kiss","test_val","concrete-positive","Valence","VC","B","positive",1,1732224908508,"positive",1606.83333333333,921,"negative","B","",6.82546003625531,7.38202064743633,21
"262","58472149000f1000010ebc53","worry","test_val","abstract-negative","Valence","VC","B","negative",1,1732224910301,"negative",1703,1030,"negative","B","",6.93731408122368,7.44014668066269,22
"263","58472149000f1000010ebc53","stab","test_val","concrete-negative","Valence","VC","B","negative",1,1732224912001,"negative",1679.5,945,"negative","B","",6.85118492749374,7.42625140905235,23
"264","58472149000f1000010ebc53","sail","test_val","concrete-positive","Valence","VC","B","positive",1,1732224913914,"positive",1990,1154,"negative","B","",7.05098944706805,7.59588991771854,24
"265","58472149000f1000010ebc53","criticize","test_val","abstract-negative","Valence","VC","B","negative",1,1732224915495,"negative",1876.83333333333,825,"negative","B","",6.71538338633468,7.53734123846897,25
"266","58472149000f1000010ebc53","cook","test_val","concrete-positive","Valence","VC","B","positive",1,1732224917083,"positive",2059.33333333333,831,"negative","B","",6.72262979485545,7.63013758481042,26
"267","58472149000f1000010ebc53","believe","test_val","abstract-positive","Valence","VC","B","positive",1,1732224919298,"positive",2055.5,1454,"negative","B","",7.28207365809346,7.62827440633793,27
"268","58472149000f1000010ebc53","hope","test_val","abstract-positive","Valence","VC","B","positive",1,1732224921148,"positive",1932.16666666667,1091,"negative","B","",6.99484998583307,7.56639727744235,28
"269","58472149000f1000010ebc53","eat","test_val","concrete-positive","Valence","VC","B","positive",1,1732224922820,"positive",1780.66666666667,912,"negative","B","",6.81563999007433,7.4847431050018,29
"270","58472149000f1000010ebc53","obsess","test_val","abstract-negative","Valence","VC","B","negative",1,1732224924334,"negative",1744.33333333333,756,"negative","B","",6.62804137617953,7.4641277177041,30
"271","58472149000f1000010ebc53","puke","test_val","concrete-negative","Valence","VC","B","negative",1,1732224925891,"negative",1969.83333333333,800,"negative","B","",6.68461172766793,7.58570421578419,31
"272","58472149000f1000010ebc53","swing","test_val","concrete-positive","Valence","VC","B","positive",1,1732224927761,"positive",2813,1110,"negative","B","",7.01211529430638,7.94200680848986,32
"273","58472149000f1000010ebc53","kill","test_val","concrete-negative","Valence","VC","B","negative",1,1732224929618,"negative",2137.5,1098,"negative","B","",7.00124562206948,7.66739220081091,33
"274","58472149000f1000010ebc53","cherish","test_val","abstract-positive","Valence","VC","B","positive",1,1732224931546,"positive",2014,1167,"negative","B","",7.06219163228656,7.60787807327851,34
"275","58472149000f1000010ebc53","violate","test_val","abstract-negative","Valence","VC","B","negative",1,1732224933301,"negative",2903.66666666667,994,"negative","B","",6.90173720665657,7.97372958515078,35
"276","58472149000f1000010ebc53","enlighten","test_val","abstract-positive","Valence","VC","B","positive",1,1732224935371,"positive",2096.83333333333,1309,"negative","B","",7.1770187659099,7.64818354912308,36
"277","58472149000f1000010ebc53","esteem","test_val","abstract-positive","Valence","VC","B","positive",1,1732224937104,"positive",2256,975,"negative","B","",6.88243747099785,7.72134861261795,37
"278","58472149000f1000010ebc53","exploit","test_val","abstract-negative","Valence","VC","B","negative",1,1732224939264,"negative",2340.16666666667,1402,"negative","B","",7.24565506759454,7.75797743088659,38
"279","58472149000f1000010ebc53","hug","test_val","concrete-positive","Valence","VC","B","positive",1,1732224941012,"positive",1732,990,"negative","B","",6.89770494312864,7.45703208912238,39
"280","58472149000f1000010ebc53","imagine","test_val","abstract-positive","Valence","VC","B","positive",1,1732224942855,"positive",2003.5,1087,"negative","B","",6.99117688712121,7.6026509300762,40
"281","58472149000f1000010ebc53","puke","test_val","concrete-negative","Valence","VC","B","negative",1,1732224944612,"negative",1969.83333333333,995,"negative","B","",6.90274273715859,7.58570421578419,41
"282","58472149000f1000010ebc53","stab","test_val","concrete-negative","Valence","VC","B","negative",1,1732224946377,"negative",1679.5,1005,"negative","B","",6.91274282049318,7.42625140905235,42
"283","58472149000f1000010ebc53","cherish","test_val","abstract-positive","Valence","VC","B","positive",1,1732224948067,"positive",2014,932,"negative","B","",6.83733281468559,7.60787807327851,43
"284","58472149000f1000010ebc53","swing","test_val","concrete-positive","Valence","VC","B","positive",1,1732224950446,"positive",2813,1622,"negative","B","",7.39141523467536,7.94200680848986,44
"285","58472149000f1000010ebc53","annoy","test_val","abstract-negative","Valence","VC","B","negative",1,1732224952293,"negative",1923.33333333333,1088,"negative","B","",6.99209642741589,7.56181507083404,45
"286","58472149000f1000010ebc53","admired","test_val","abstract-positive","Valence","VC","B","positive",1,1732224954345,"positive",1880.66666666667,1294,"negative","B","",7.16549347506085,7.53938160289383,46
"287","58472149000f1000010ebc53","exploit","test_val","abstract-negative","Valence","VC","B","negative",1,1732224956936,"negative",2340.16666666667,1832,"negative","B","",7.51316354523408,7.75797743088659,47
"288","58472149000f1000010ebc53","kiss","test_val","concrete-positive","Valence","VC","B","positive",1,1732224958917,"positive",1606.83333333333,1223,"negative","B","",7.10906213568717,7.38202064743633,48
"289","58472149000f1000010ebc53","vomit","test_val","concrete-negative","Valence","VC","B","negative",1,1732224960765,"negative",1769,1092,"negative","B","",6.99576615630485,7.47816969415979,49
"290","58472149000f1000010ebc53","hope","test_val","abstract-positive","Valence","VC","B","positive",1,1732224962562,"positive",1932.16666666667,1038,"negative","B","",6.94505106372583,7.56639727744235,50
"291","58472149000f1000010ebc53","build","test_val","concrete-positive","Valence","VC","B","positive",1,1732224964708,"positive",2737.33333333333,1386,"negative","B","",7.23417717974985,7.91473948947071,51
"292","58472149000f1000010ebc53","enlighten","test_val","abstract-positive","Valence","VC","B","positive",1,1732224966753,"positive",2096.83333333333,1286,"negative","B","",7.15929190479756,7.64818354912308,52
"293","58472149000f1000010ebc53","obsess","test_val","abstract-negative","Valence","VC","B","negative",1,1732224968451,"negative",1744.33333333333,943,"negative","B","",6.84906628263346,7.4641277177041,53
"294","58472149000f1000010ebc53","smack","test_val","concrete-negative","Valence","VC","B","negative",1,1732224970462,"negative",1855.5,1251,"negative","B","",7.13169851046691,7.52590948050065,54
"295","58472149000f1000010ebc53","believe","test_val","abstract-positive","Valence","VC","B","positive",1,1732224972186,"positive",2055.5,965,"negative","B","",6.87212810133899,7.62827440633793,55
"296","58472149000f1000010ebc53","imagine","test_val","abstract-positive","Valence","VC","B","positive",1,1732224973855,"positive",2003.5,911,"negative","B","",6.81454289725996,7.6026509300762,56
"297","58472149000f1000010ebc53","resent","test_val","abstract-negative","Valence","VC","B","negative",1,1732224975547,"negative",1847.5,932,"negative","B","",6.83733281468559,7.52158865282236,57
"298","58472149000f1000010ebc53","criticize","test_val","abstract-negative","Valence","VC","B","negative",1,1732224977136,"negative",1876.83333333333,831,"negative","B","",6.72262979485545,7.53734123846897,58
"299","58472149000f1000010ebc53","esteem","test_val","abstract-positive","Valence","VC","B","positive",1,1732224978904,"positive",2256,1008,"negative","B","",6.91572344863131,7.72134861261795,59
"300","58472149000f1000010ebc53","murder","test_val","concrete-negative","Valence","VC","B","negative",1,1732224980597,"negative",1903.5,936,"negative","B","",6.84161547647759,7.55144957582255,60
"301","58472149000f1000010ebc53","running","test_val","concrete-positive","Valence","VC","B","positive",1,1732224982715,"positive",9012,1357,"negative","B","",7.21303165983487,9.10631230155214,61
"302","58472149000f1000010ebc53","fulfill","test_val","abstract-positive","Valence","VC","B","positive",1,1732224984304,"positive",1856.5,828,"negative","B","",6.71901315438526,7.52644827361713,62
"303","58472149000f1000010ebc53","scratch","test_val","concrete-negative","Valence","VC","B","negative",1,1732224986022,"negative",1899.66666666667,958,"negative","B","",6.86484777797086,7.54943371116689,63
"304","58472149000f1000010ebc53","violate","test_val","abstract-negative","Valence","VC","B","negative",1,1732224987864,"negative",2903.66666666667,1084,"negative","B","",6.98841318199959,7.97372958515078,64
"305","58472149000f1000010ebc53","befall","test_val","abstract-negative","Valence","VC","B","negative",1,1732224990138,"negative",2149.75,1516,"negative","B","",7.32383056620232,7.67310683529101,65
"306","58472149000f1000010ebc53","bleed","test_val","concrete-negative","Valence","VC","B","negative",1,1732224991737,"negative",1824,842,"negative","B","",6.73578001424233,7.50878717063428,66
"307","58472149000f1000010ebc53","worry","test_val","abstract-negative","Valence","VC","B","negative",1,1732224993344,"negative",1703,846,"negative","B","",6.74051935960622,7.44014668066269,67
"308","58472149000f1000010ebc53","smile","test_val","concrete-positive","Valence","VC","B","positive",1,1732224995059,"positive",2222.83333333333,954,"negative","B","",6.86066367144829,7.70653793739434,68
"309","58472149000f1000010ebc53","kill","test_val","concrete-negative","Valence","VC","B","negative",1,1732224996635,"negative",2137.5,819,"negative","B","",6.70808408385307,7.66739220081091,69
"310","58472149000f1000010ebc53","spit","test_val","concrete-negative","Valence","VC","B","negative",1,1732224998297,"negative",1896.33333333333,904,"negative","B","",6.80682936039218,7.54767747608254,70
"311","58472149000f1000010ebc53","cook","test_val","concrete-positive","Valence","VC","B","positive",1,1732225000202,"positive",2059.33333333333,1147,"negative","B","",7.04490511712937,7.63013758481042,71
"312","58472149000f1000010ebc53","hug","test_val","concrete-positive","Valence","VC","B","positive",1,1732225002181,"positive",1732,1222,"negative","B","",7.10824413973154,7.45703208912238,72
"313","58472149000f1000010ebc53","slap","test_val","concrete-negative","Valence","VC","B","negative",1,1732225004242,"negative",1870,1306,"negative","B","",7.17472430983638,7.53369370984863,73
"314","58472149000f1000010ebc53","sail","test_val","concrete-positive","Valence","VC","B","positive",1,1732225006019,"positive",1990,1017,"negative","B","",6.92461239604856,7.59588991771854,74
"315","58472149000f1000010ebc53","eat","test_val","concrete-positive","Valence","VC","B","positive",1,1732225007678,"positive",1780.66666666667,901,"negative","B","",6.80350525760834,7.4847431050018,75
"316","58472149000f1000010ebc53","cuddle","test_val","concrete-positive","Valence","VC","B","positive",1,1732225009360,"positive",2024,921,"negative","B","",6.82546003625531,7.61283103040736,76
"317","58472149000f1000010ebc53","respect","test_val","abstract-positive","Valence","VC","B","positive",1,1732225011001,"positive",2457.83333333333,882,"negative","B","",6.78219205600679,7.80703548202289,77
"318","58472149000f1000010ebc53","justify","test_val","abstract-positive","Valence","VC","B","positive",1,1732225012530,"positive",1758.75,772,"negative","B","",6.64898455002478,7.4723586084286,78
"319","58472149000f1000010ebc53","loathe","test_val","abstract-negative","Valence","VC","B","negative",1,1732225014045,"negative",1767.33333333333,759,"negative","B","",6.63200177739563,7.47722709818086,79
"320","58472149000f1000010ebc53","scorn","test_val","abstract-negative","Valence","VC","B","negative",1,1732225015644,"negative",1984.16666666667,839,"negative","B","",6.73221070646721,7.59295428969291,80
"321","58472149000f1000010ebc53","violate","test_val","abstract-negative","Valence","VC","B","negative",1,1732225017148,"negative",2903.66666666667,743,"negative","B","",6.61069604471776,7.97372958515078,81
"322","58472149000f1000010ebc53","swing","test_val","concrete-positive","Valence","VC","B","positive",1,1732225018958,"positive",2813,1055,"negative","B","",6.96129604591017,7.94200680848986,82
"323","58472149000f1000010ebc53","admired","test_val","abstract-positive","Valence","VC","B","positive",1,1732225020663,"positive",1880.66666666667,948,"negative","B","",6.85435450225502,7.53938160289383,83
"324","58472149000f1000010ebc53","vomit","test_val","concrete-negative","Valence","VC","B","negative",1,1732225022194,"negative",1769,775,"negative","B","",6.65286302935335,7.47816969415979,84
"325","58472149000f1000010ebc53","spit","test_val","concrete-negative","Valence","VC","B","negative",1,1732225023778,"negative",1896.33333333333,820,"negative","B","",6.7093043402583,7.54767747608254,85
"326","58472149000f1000010ebc53","smile","test_val","concrete-positive","Valence","VC","B","positive",1,1732225025373,"positive",2222.83333333333,835,"negative","B","",6.72743172485086,7.70653793739434,86
"327","58472149000f1000010ebc53","loathe","test_val","abstract-negative","Valence","VC","B","negative",1,1732225027022,"negative",1767.33333333333,894,"negative","B","",6.79570577517351,7.47722709818086,87
"328","58472149000f1000010ebc53","fulfill","test_val","abstract-positive","Valence","VC","B","positive",1,1732225028747,"positive",1856.5,967,"negative","B","",6.87419849545329,7.52644827361713,88
"329","58472149000f1000010ebc53","puke","test_val","concrete-negative","Valence","VC","B","negative",1,1732225030421,"negative",1969.83333333333,916,"negative","B","",6.82001636467413,7.58570421578419,89
"330","58472149000f1000010ebc53","justify","test_val","abstract-positive","Valence","VC","B","positive",1,1732225032119,"positive",1758.75,939,"negative","B","",6.84481547920826,7.4723586084286,90
"331","58472149000f1000010ebc53","bleed","test_val","concrete-negative","Valence","VC","B","negative",1,1732225033821,"negative",1824,947,"negative","B","",6.85329909318608,7.50878717063428,91
"332","58472149000f1000010ebc53","worry","test_val","abstract-negative","Valence","VC","B","negative",1,1732225035523,"negative",1703,944,"negative","B","",6.8501261661455,7.44014668066269,92
"333","58472149000f1000010ebc53","esteem","test_val","abstract-positive","Valence","VC","B","positive",1,1732225037785,"positive",2256,1500,"negative","B","",7.3132203870903,7.72134861261795,93
"334","58472149000f1000010ebc53","scorn","test_val","abstract-negative","Valence","VC","B","negative",1,1732225039475,"negative",1984.16666666667,929,"negative","B","",6.83410873881384,7.59295428969291,94
"335","58472149000f1000010ebc53","murder","test_val","concrete-negative","Valence","VC","B","negative",1,1732225041097,"negative",1903.5,865,"negative","B","",6.76272950693188,7.55144957582255,95
"336","58472149000f1000010ebc53","criticize","test_val","abstract-negative","Valence","VC","B","negative",1,1732225042798,"negative",1876.83333333333,943,"negative","B","",6.84906628263346,7.53734123846897,96
"337","58472149000f1000010ebc53","build","test_val","concrete-positive","Valence","VC","B","positive",1,1732225044407,"positive",2737.33333333333,847,"negative","B","",6.74170069465205,7.91473948947071,97
"338","58472149000f1000010ebc53","believe","test_val","abstract-positive","Valence","VC","B","positive",1,1732225046070,"positive",2055.5,908,"negative","B","",6.81124437860129,7.62827440633793,98
"339","58472149000f1000010ebc53","annoy","test_val","abstract-negative","Valence","VC","B","negative",1,1732225047613,"negative",1923.33333333333,783,"negative","B","",6.6631326959908,7.56181507083404,99
"340","58472149000f1000010ebc53","kill","test_val","concrete-negative","Valence","VC","B","negative",1,1732225049257,"negative",2137.5,886,"negative","B","",6.78671695060508,7.66739220081091,100
"341","58472149000f1000010ebc53","slap","test_val","concrete-negative","Valence","VC","B","negative",1,1732225050959,"negative",1870,941,"negative","B","",6.84694313958538,7.53369370984863,101
"342","58472149000f1000010ebc53","eat","test_val","concrete-positive","Valence","VC","B","positive",1,1732225052573,"positive",1780.66666666667,853,"negative","B","",6.74875954749168,7.4847431050018,102
"343","58472149000f1000010ebc53","resent","test_val","abstract-negative","Valence","VC","B","negative",1,1732225054205,"negative",1847.5,871,"negative","B","",6.7696419768525,7.52158865282236,103
"344","58472149000f1000010ebc53","kiss","test_val","concrete-positive","Valence","VC","B","positive",1,1732225055855,"positive",1606.83333333333,895,"negative","B","",6.79682371827486,7.38202064743633,104
"345","58472149000f1000010ebc53","enlighten","test_val","abstract-positive","Valence","VC","B","positive",1,1732225057687,"positive",2096.83333333333,1075,"negative","B","",6.98007594056176,7.64818354912308,105
"346","58472149000f1000010ebc53","hug","test_val","concrete-positive","Valence","VC","B","positive",1,1732225059300,"positive",1732,853,"negative","B","",6.74875954749168,7.45703208912238,106
"347","58472149000f1000010ebc53","cook","test_val","concrete-positive","Valence","VC","B","positive",1,1732225060993,"positive",2059.33333333333,935,"negative","B","",6.84054652928869,7.63013758481042,107
"348","58472149000f1000010ebc53","scratch","test_val","concrete-negative","Valence","VC","B","negative",1,1732225062859,"negative",1899.66666666667,1109,"negative","B","",7.01121398735037,7.54943371116689,108
"349","58472149000f1000010ebc53","obsess","test_val","abstract-negative","Valence","VC","B","negative",1,1732225064785,"negative",1744.33333333333,1164,"negative","B","",7.05961762829138,7.4641277177041,109
"350","58472149000f1000010ebc53","cuddle","test_val","concrete-positive","Valence","VC","B","positive",1,1732225066458,"positive",2024,913,"negative","B","",6.81673588059497,7.61283103040736,110
"351","58472149000f1000010ebc53","running","test_val","concrete-positive","Valence","VC","B","positive",1,1732225068437,"positive",9012,1221,"negative","B","",7.1074254741107,9.10631230155214,111
"352","58472149000f1000010ebc53","exploit","test_val","abstract-negative","Valence","VC","B","negative",1,1732225070314,"negative",2340.16666666667,1118,"negative","B","",7.01929665371504,7.75797743088659,112
"353","58472149000f1000010ebc53","befall","test_val","abstract-negative","Valence","VC","B","negative",1,1732225072741,"negative",2149.75,1668,"negative","B","",7.41938058291869,7.67310683529101,113
"354","58472149000f1000010ebc53","sail","test_val","concrete-positive","Valence","VC","B","positive",1,1732225074449,"positive",1990,951,"negative","B","",6.85751406254539,7.59588991771854,114
"355","58472149000f1000010ebc53","hope","test_val","abstract-positive","Valence","VC","B","positive",1,1732225076710,"positive",1932.16666666667,1501,"negative","B","",7.31388683163346,7.56639727744235,115
"356","58472149000f1000010ebc53","stab","test_val","concrete-negative","Valence","VC","B","negative",1,1732225078316,"negative",1679.5,849,"negative","B","",6.74405918631135,7.42625140905235,116
"357","58472149000f1000010ebc53","cherish","test_val","abstract-positive","Valence","VC","B","positive",1,1732225079955,"positive",2014,876,"negative","B","",6.77536609093639,7.60787807327851,117
"358","58472149000f1000010ebc53","imagine","test_val","abstract-positive","Valence","VC","B","positive",1,1732225081679,"positive",2003.5,966,"negative","B","",6.87316383421252,7.6026509300762,118
"359","58472149000f1000010ebc53","respect","test_val","abstract-positive","Valence","VC","B","positive",1,1732225083385,"positive",2457.83333333333,949,"negative","B","",6.85540879860993,7.80703548202289,119
"360","58472149000f1000010ebc53","smack","test_val","concrete-negative","Valence","VC","B","negative",1,1732225084967,"negative",1855.5,821,"negative","B","",6.71052310945243,7.52590948050065,120
"361","58472149000f1000010ebc53","resent","test_conc","abstract-negative","Concrete","VC","B","abstract",1,1732225251965,"abstract",1847.5,1511,"abstract","B","",7.32052696227274,7.52158865282236,121
"362","58472149000f1000010ebc53","loathe","test_conc","abstract-negative","Concrete","VC","B","abstract",1,1732225253942,"abstract",1767.33333333333,1217,"abstract","B","",7.10414409298753,7.47722709818086,122
"363","58472149000f1000010ebc53","worry","test_conc","abstract-negative","Concrete","VC","B","abstract",1,1732225255581,"abstract",1703,882,"abstract","B","",6.78219205600679,7.44014668066269,123
"364","58472149000f1000010ebc53","swing","test_conc","concrete-positive","Concrete","VC","B","abstract",0,1732225257904,"abstract",2813,1564,"abstract","B","",7.35500192110526,7.94200680848986,124
"365","58472149000f1000010ebc53","smile","test_conc","concrete-positive","Concrete","VC","B","concrete",1,1732225261520,"concrete",2222.83333333333,2854,"abstract","B","",7.95647679803678,7.70653793739434,125
"366","58472149000f1000010ebc53","cuddle","test_conc","concrete-positive","Concrete","VC","B","concrete",1,1732225264480,"concrete",2024,2202,"abstract","B","",7.69712131728263,7.61283103040736,126
"367","58472149000f1000010ebc53","exploit","test_conc","abstract-negative","Concrete","VC","B","abstract",1,1732225266672,"abstract",2340.16666666667,1432,"abstract","B","",7.26682734752059,7.75797743088659,127
"368","58472149000f1000010ebc53","cherish","test_conc","abstract-positive","Concrete","VC","B","abstract",1,1732225269454,"abstract",2014,2024,"abstract","B","",7.61283103040736,7.60787807327851,128
"369","58472149000f1000010ebc53","criticize","test_conc","abstract-negative","Concrete","VC","B","abstract",1,1732225271235,"abstract",1876.83333333333,1023,"abstract","B","",6.93049476595163,7.53734123846897,129
"370","58472149000f1000010ebc53","kiss","test_conc","concrete-positive","Concrete","VC","B","concrete",1,1732225273070,"concrete",1606.83333333333,1077,"abstract","B","",6.98193467715639,7.38202064743633,130
"371","58472149000f1000010ebc53","fulfill","test_conc","abstract-positive","Concrete","VC","B","abstract",1,1732225275197,"abstract",1856.5,1369,"abstract","B","",7.22183582528845,7.52644827361713,131
"372","58472149000f1000010ebc53","puke","test_conc","concrete-negative","Concrete","VC","B","concrete",1,1732225277410,"concrete",1969.83333333333,1454,"abstract","B","",7.28207365809346,7.58570421578419,132
"373","58472149000f1000010ebc53","violate","test_conc","abstract-negative","Concrete","VC","B","abstract",1,1732225281997,"abstract",2903.66666666667,3827,"abstract","B","",8.2498364854257,7.97372958515078,133
"374","58472149000f1000010ebc53","esteem","test_conc","abstract-positive","Concrete","VC","B","abstract",1,1732225284757,"abstract",2256,2001,"abstract","B","",7.60140233458373,7.72134861261795,134
"375","58472149000f1000010ebc53","kill","test_conc","concrete-negative","Concrete","VC","B","concrete",1,1732225288541,"concrete",2137.5,3024,"abstract","B","",8.01433573729942,7.66739220081091,135
"376","58472149000f1000010ebc53","respect","test_conc","abstract-positive","Concrete","VC","B","concrete",0,1732225292344,"concrete",2457.83333333333,3048,"abstract","B","",8.02224091680654,7.80703548202289,136
"377","58472149000f1000010ebc53","admired","test_conc","abstract-positive","Concrete","VC","B","abstract",1,1732225294538,"abstract",1880.66666666667,1437,"abstract","B","",7.27031288607902,7.53938160289383,137
"378","58472149000f1000010ebc53","running","test_conc","concrete-positive","Concrete","VC","B","concrete",1,1732225296962,"concrete",9012,1666,"abstract","B","",7.41818082272679,9.10631230155214,138
"379","58472149000f1000010ebc53","cook","test_conc","concrete-positive","Concrete","VC","B","concrete",1,1732225298637,"concrete",2059.33333333333,915,"abstract","B","",6.81892406527552,7.63013758481042,139
"380","58472149000f1000010ebc53","annoy","test_conc","abstract-negative","Concrete","VC","B","abstract",1,1732225300613,"abstract",1923.33333333333,1217,"abstract","B","",7.10414409298753,7.56181507083404,140
"381","58472149000f1000010ebc53","obsess","test_conc","abstract-negative","Concrete","VC","B","abstract",1,1732225302581,"abstract",1744.33333333333,1210,"abstract","B","",7.09837563859079,7.4641277177041,141
"382","58472149000f1000010ebc53","scorn","test_conc","abstract-negative","Concrete","VC","B","abstract",1,1732225304568,"abstract",1984.16666666667,1228,"abstract","B","",7.11314210870709,7.59295428969291,142
"383","58472149000f1000010ebc53","sail","test_conc","concrete-positive","Concrete","VC","B","concrete",1,1732225306938,"concrete",1990,1613,"abstract","B","",7.38585107812521,7.59588991771854,143
"384","58472149000f1000010ebc53","enlighten","test_conc","abstract-positive","Concrete","VC","B","abstract",1,1732225309345,"abstract",2096.83333333333,1648,"abstract","B","",7.40731771046942,7.64818354912308,144
"385","58472149000f1000010ebc53","smack","test_conc","concrete-negative","Concrete","VC","B","concrete",1,1732225311188,"concrete",1855.5,1084,"abstract","B","",6.98841318199959,7.52590948050065,145
"386","58472149000f1000010ebc53","believe","test_conc","abstract-positive","Concrete","VC","B","abstract",1,1732225313844,"abstract",2055.5,1900,"abstract","B","",7.54960916515453,7.62827440633793,146
"387","58472149000f1000010ebc53","vomit","test_conc","concrete-negative","Concrete","VC","B","concrete",1,1732225315847,"concrete",1769,1241,"abstract","B","",7.12367278520461,7.47816969415979,147
"388","58472149000f1000010ebc53","befall","test_conc","abstract-negative","Concrete","VC","B","abstract",1,1732225318138,"abstract",2149.75,1533,"abstract","B","",7.33498187887181,7.67310683529101,148
"389","58472149000f1000010ebc53","slap","test_conc","concrete-negative","Concrete","VC","B","concrete",1,1732225320406,"concrete",1870,1507,"abstract","B","",7.3178761986265,7.53369370984863,149
"390","58472149000f1000010ebc53","bleed","test_conc","concrete-negative","Concrete","VC","B","concrete",1,1732225322349,"concrete",1824,1185,"abstract","B","",7.07749805356923,7.50878717063428,150
"391","58472149000f1000010ebc53","scratch","test_conc","concrete-negative","Concrete","VC","B","concrete",1,1732225324554,"concrete",1899.66666666667,1444,"abstract","B","",7.27517231945277,7.54943371116689,151
"392","58472149000f1000010ebc53","stab","test_conc","concrete-negative","Concrete","VC","B","concrete",1,1732225326270,"concrete",1679.5,956,"abstract","B","",6.8627579130514,7.42625140905235,152
"393","58472149000f1000010ebc53","eat","test_conc","concrete-positive","Concrete","VC","B","concrete",1,1732225327974,"concrete",1780.66666666667,947,"abstract","B","",6.85329909318608,7.4847431050018,153
"394","58472149000f1000010ebc53","hope","test_conc","abstract-positive","Concrete","VC","B","abstract",1,1732225329683,"abstract",1932.16666666667,953,"abstract","B","",6.8596149036542,7.56639727744235,154
"395","58472149000f1000010ebc53","hug","test_conc","concrete-positive","Concrete","VC","B","concrete",1,1732225331405,"concrete",1732,962,"abstract","B","",6.86901445066571,7.45703208912238,155
"396","58472149000f1000010ebc53","murder","test_conc","concrete-negative","Concrete","VC","B","concrete",1,1732225333399,"concrete",1903.5,1230,"abstract","B","",7.11476944836646,7.55144957582255,156
"397","58472149000f1000010ebc53","imagine","test_conc","abstract-positive","Concrete","VC","B","abstract",1,1732225336401,"abstract",2003.5,2244,"abstract","B","",7.71601526664259,7.6026509300762,157
"398","58472149000f1000010ebc53","justify","test_conc","abstract-positive","Concrete","VC","B","abstract",1,1732225338456,"abstract",1758.75,1293,"abstract","B","",7.16472037877186,7.4723586084286,158
"399","58472149000f1000010ebc53","spit","test_conc","concrete-negative","Concrete","VC","B","concrete",1,1732225340610,"concrete",1896.33333333333,1394,"abstract","B","",7.23993259132047,7.54767747608254,159
"400","58472149000f1000010ebc53","build","test_conc","concrete-positive","Concrete","VC","B","abstract",0,1732225345530,"abstract",2737.33333333333,4164,"abstract","B","",8.33423142973486,7.91473948947071,160
"401","58472149000f1000010ebc53","murder","test_conc","concrete-negative","Concrete","VC","B","concrete",1,1732225347927,"concrete",1903.5,1641,"abstract","B","",7.40306109109009,7.55144957582255,161
"402","58472149000f1000010ebc53","justify","test_conc","abstract-positive","Concrete","VC","B","abstract",1,1732225349686,"abstract",1758.75,1001,"abstract","B","",6.90875477931522,7.4723586084286,162
"403","58472149000f1000010ebc53","exploit","test_conc","abstract-negative","Concrete","VC","B","abstract",1,1732225352612,"abstract",2340.16666666667,2170,"abstract","B","",7.68248244653451,7.75797743088659,163
"404","58472149000f1000010ebc53","scratch","test_conc","concrete-negative","Concrete","VC","B","concrete",1,1732225354530,"concrete",1899.66666666667,1161,"abstract","B","",7.05703698169789,7.54943371116689,164
"405","58472149000f1000010ebc53","spit","test_conc","concrete-negative","Concrete","VC","B","concrete",1,1732225356338,"concrete",1896.33333333333,1051,"abstract","B","",6.95749737087695,7.54767747608254,165
"406","58472149000f1000010ebc53","cherish","test_conc","abstract-positive","Concrete","VC","B","abstract",1,1732225358591,"abstract",2014,1492,"abstract","B","",7.30787278076371,7.60787807327851,166
"407","58472149000f1000010ebc53","violate","test_conc","abstract-negative","Concrete","VC","B","abstract",1,1732225363540,"abstract",2903.66666666667,4191,"abstract","B","",8.34069464792507,7.97372958515078,167
"408","58472149000f1000010ebc53","bleed","test_conc","concrete-negative","Concrete","VC","B","concrete",1,1732225365314,"concrete",1824,1015,"abstract","B","",6.92264389147589,7.50878717063428,168
"409","58472149000f1000010ebc53","loathe","test_conc","abstract-negative","Concrete","VC","B","abstract",1,1732225367315,"abstract",1767.33333333333,1244,"abstract","B","",7.12608727329912,7.47722709818086,169
"410","58472149000f1000010ebc53","respect","test_conc","abstract-positive","Concrete","VC","B","abstract",1,1732225369510,"abstract",2457.83333333333,1439,"abstract","B","",7.27170370688737,7.80703548202289,170
"411","58472149000f1000010ebc53","smile","test_conc","concrete-positive","Concrete","VC","B","concrete",1,1732225371445,"concrete",2222.83333333333,1177,"abstract","B","",7.07072410726028,7.70653793739434,171
"412","58472149000f1000010ebc53","obsess","test_conc","abstract-negative","Concrete","VC","B","abstract",1,1732225373160,"abstract",1744.33333333333,955,"abstract","B","",6.86171134048073,7.4641277177041,172
"413","58472149000f1000010ebc53","enlighten","test_conc","abstract-positive","Concrete","VC","B","concrete",0,1732225374882,"concrete",2096.83333333333,965,"abstract","B","",6.87212810133899,7.64818354912308,173
"414","58472149000f1000010ebc53","believe","test_conc","abstract-positive","Concrete","VC","B","abstract",1,1732225377071,"abstract",2055.5,1434,"abstract","B","",7.26822302115957,7.62827440633793,174
"415","58472149000f1000010ebc53","imagine","test_conc","abstract-positive","Concrete","VC","B","abstract",1,1732225378940,"abstract",2003.5,1111,"abstract","B","",7.01301578963963,7.6026509300762,175
"416","58472149000f1000010ebc53","kill","test_conc","concrete-negative","Concrete","VC","B","concrete",1,1732225380924,"concrete",2137.5,1223,"abstract","B","",7.10906213568717,7.66739220081091,176
"417","58472149000f1000010ebc53","slap","test_conc","concrete-negative","Concrete","VC","B","concrete",1,1732225382608,"concrete",1870,921,"abstract","B","",6.82546003625531,7.53369370984863,177
"418","58472149000f1000010ebc53","kiss","test_conc","concrete-positive","Concrete","VC","B","concrete",1,1732225384323,"concrete",1606.83333333333,959,"abstract","B","",6.86589107488344,7.38202064743633,178
"419","58472149000f1000010ebc53","hope","test_conc","abstract-positive","Concrete","VC","B","abstract",1,1732225386189,"abstract",1932.16666666667,1107,"abstract","B","",7.00940893270864,7.56639727744235,179
"420","58472149000f1000010ebc53","hug","test_conc","concrete-positive","Concrete","VC","B","concrete",1,1732225387864,"concrete",1732,916,"abstract","B","",6.82001636467413,7.45703208912238,180
"421","58472149000f1000010ebc53","puke","test_conc","concrete-negative","Concrete","VC","B","concrete",1,1732225389918,"concrete",1969.83333333333,1295,"abstract","B","",7.16626597413364,7.58570421578419,181
"422","58472149000f1000010ebc53","vomit","test_conc","concrete-negative","Concrete","VC","B","concrete",1,1732225391770,"concrete",1769,1090,"abstract","B","",6.99393297522319,7.47816969415979,182
"423","58472149000f1000010ebc53","worry","test_conc","abstract-negative","Concrete","VC","B","abstract",1,1732225393658,"abstract",1703,1132,"abstract","B","",7.03174125876313,7.44014668066269,183
"424","58472149000f1000010ebc53","sail","test_conc","concrete-positive","Concrete","VC","B","concrete",1,1732225395592,"concrete",1990,1179,"abstract","B","",7.07242190053737,7.59588991771854,184
"425","58472149000f1000010ebc53","smack","test_conc","concrete-negative","Concrete","VC","B","concrete",1,1732225397504,"concrete",1855.5,1155,"abstract","B","",7.05185562295589,7.52590948050065,185
"426","58472149000f1000010ebc53","swing","test_conc","concrete-positive","Concrete","VC","B","abstract",0,1732225401474,"abstract",2813,3208,"abstract","B","",8.07340296898641,7.94200680848986,186
"427","58472149000f1000010ebc53","cook","test_conc","concrete-positive","Concrete","VC","B","concrete",1,1732225405367,"concrete",2059.33333333333,3138,"abstract","B","",8.05134093329298,7.63013758481042,187
"428","58472149000f1000010ebc53","cuddle","test_conc","concrete-positive","Concrete","VC","B","concrete",1,1732225407414,"concrete",2024,1286,"abstract","B","",7.15929190479756,7.61283103040736,188
"429","58472149000f1000010ebc53","scorn","test_conc","abstract-negative","Concrete","VC","B","abstract",1,1732225409632,"abstract",1984.16666666667,1461,"abstract","B","",7.2868764117507,7.59295428969291,189
"430","58472149000f1000010ebc53","running","test_conc","concrete-positive","Concrete","VC","B","concrete",1,1732225413613,"concrete",9012,3220,"abstract","B","",8.07713663853845,9.10631230155214,190
"431","58472149000f1000010ebc53","befall","test_conc","abstract-negative","Concrete","VC","B","abstract",1,1732225415362,"abstract",2149.75,988,"abstract","B","",6.89568269774787,7.67310683529101,191
"432","58472149000f1000010ebc53","admired","test_conc","abstract-positive","Concrete","VC","B","abstract",1,1732225417257,"abstract",1880.66666666667,1138,"abstract","B","",7.03702761468628,7.53938160289383,192
"433","58472149000f1000010ebc53","resent","test_conc","abstract-negative","Concrete","VC","B","abstract",1,1732225419138,"abstract",1847.5,1118,"abstract","B","",7.01929665371504,7.52158865282236,193
"434","58472149000f1000010ebc53","annoy","test_conc","abstract-negative","Concrete","VC","B","abstract",1,1732225420772,"abstract",1923.33333333333,875,"abstract","B","",6.77422388635761,7.56181507083404,194
"435","58472149000f1000010ebc53","stab","test_conc","concrete-negative","Concrete","VC","B","concrete",1,1732225422485,"concrete",1679.5,953,"abstract","B","",6.8596149036542,7.42625140905235,195
"436","58472149000f1000010ebc53","fulfill","test_conc","abstract-positive","Concrete","VC","B","abstract",1,1732225424544,"abstract",1856.5,1297,"abstract","B","",7.16780918431644,7.52644827361713,196
"437","58472149000f1000010ebc53","build","test_conc","concrete-positive","Concrete","VC","B","concrete",1,1732225426336,"concrete",2737.33333333333,1031,"abstract","B","",6.93828448401696,7.91473948947071,197
"438","58472149000f1000010ebc53","eat","test_conc","concrete-positive","Concrete","VC","B","concrete",1,1732225428398,"concrete",1780.66666666667,1306,"abstract","B","",7.17472430983638,7.4847431050018,198
"439","58472149000f1000010ebc53","criticize","test_conc","abstract-negative","Concrete","VC","B","abstract",1,1732225430392,"abstract",1876.83333333333,1235,"abstract","B","",7.11882624906208,7.53734123846897,199
"440","58472149000f1000010ebc53","esteem","test_conc","abstract-positive","Concrete","VC","B","abstract",1,1732225433059,"abstract",2256,1910,"abstract","B","",7.55485852104068,7.72134861261795,200
"441","58472149000f1000010ebc53","slap","test_conc","concrete-negative","Concrete","VC","B","concrete",1,1732225434861,"concrete",1870,1039,"abstract","B","",6.94601399109923,7.53369370984863,201
"442","58472149000f1000010ebc53","violate","test_conc","abstract-negative","Concrete","VC","B","abstract",1,1732225437664,"abstract",2903.66666666667,2048,"abstract","B","",7.6246189861594,7.97372958515078,202
"443","58472149000f1000010ebc53","murder","test_conc","concrete-negative","Concrete","VC","B","concrete",1,1732225439718,"concrete",1903.5,1295,"abstract","B","",7.16626597413364,7.55144957582255,203
"444","58472149000f1000010ebc53","imagine","test_conc","abstract-positive","Concrete","VC","B","abstract",1,1732225441652,"abstract",2003.5,1173,"abstract","B","",7.06731984865348,7.6026509300762,204
"445","58472149000f1000010ebc53","believe","test_conc","abstract-positive","Concrete","VC","B","abstract",1,1732225443554,"abstract",2055.5,1141,"abstract","B","",7.03966034986208,7.62827440633793,205
"446","58472149000f1000010ebc53","stab","test_conc","concrete-negative","Concrete","VC","B","concrete",1,1732225445153,"concrete",1679.5,839,"abstract","B","",6.73221070646721,7.42625140905235,206
"447","58472149000f1000010ebc53","resent","test_conc","abstract-negative","Concrete","VC","B","abstract",1,1732225447085,"abstract",1847.5,1172,"abstract","B","",7.06646697013696,7.52158865282236,207
"448","58472149000f1000010ebc53","cuddle","test_conc","concrete-positive","Concrete","VC","B","concrete",1,1732225448977,"concrete",2024,1134,"abstract","B","",7.0335064842877,7.61283103040736,208
"449","58472149000f1000010ebc53","puke","test_conc","concrete-negative","Concrete","VC","B","concrete",1,1732225451560,"concrete",1969.83333333333,1823,"abstract","B","",7.50823877467866,7.58570421578419,209
"450","58472149000f1000010ebc53","smack","test_conc","concrete-negative","Concrete","VC","B","concrete",1,1732225453462,"concrete",1855.5,1139,"abstract","B","",7.03790596344718,7.52590948050065,210
"451","58472149000f1000010ebc53","scratch","test_conc","concrete-negative","Concrete","VC","B","concrete",1,1732225455330,"concrete",1899.66666666667,1107,"abstract","B","",7.00940893270864,7.54943371116689,211
"452","58472149000f1000010ebc53","fulfill","test_conc","abstract-positive","Concrete","VC","B","abstract",1,1732225457206,"abstract",1856.5,1116,"abstract","B","",7.01750614294126,7.52644827361713,212
"453","58472149000f1000010ebc53","spit","test_conc","concrete-negative","Concrete","VC","B","concrete",1,1732225459017,"concrete",1896.33333333333,1056,"abstract","B","",6.96224346426621,7.54767747608254,213
"454","58472149000f1000010ebc53","justify","test_conc","abstract-positive","Concrete","VC","B","abstract",1,1732225460648,"abstract",1758.75,873,"abstract","B","",6.7719355558396,7.4723586084286,214
"455","58472149000f1000010ebc53","enlighten","test_conc","abstract-positive","Concrete","VC","B","abstract",1,1732225463174,"abstract",2096.83333333333,1769,"abstract","B","",7.47816969415979,7.64818354912308,215
"456","58472149000f1000010ebc53","scorn","test_conc","abstract-negative","Concrete","VC","B","abstract",1,1732225465578,"abstract",1984.16666666667,1646,"abstract","B","",7.40610338123702,7.59295428969291,216
"457","58472149000f1000010ebc53","worry","test_conc","abstract-negative","Concrete","VC","B","abstract",1,1732225467185,"abstract",1703,850,"abstract","B","",6.74523634948436,7.44014668066269,217
"458","58472149000f1000010ebc53","smile","test_conc","concrete-positive","Concrete","VC","B","concrete",1,1732225469695,"concrete",2222.83333333333,1749,"abstract","B","",7.4667994750186,7.70653793739434,218
"459","58472149000f1000010ebc53","obsess","test_conc","abstract-negative","Concrete","VC","B","abstract",1,1732225471361,"abstract",1744.33333333333,906,"abstract","B","",6.80903930604298,7.4641277177041,219
"460","58472149000f1000010ebc53","sail","test_conc","concrete-positive","Concrete","VC","B","concrete",1,1732225473617,"concrete",1990,1498,"abstract","B","",7.31188616407716,7.59588991771854,220
"461","58472149000f1000010ebc53","esteem","test_conc","abstract-positive","Concrete","VC","B","abstract",1,1732225475981,"abstract",2256,1605,"abstract","B","",7.38087903556412,7.72134861261795,221
"462","58472149000f1000010ebc53","build","test_conc","concrete-positive","Concrete","VC","B","concrete",1,1732225480036,"concrete",2737.33333333333,3295,"abstract","B","",8.10016144693661,7.91473948947071,222
"463","58472149000f1000010ebc53","vomit","test_conc","concrete-negative","Concrete","VC","B","concrete",1,1732225481718,"concrete",1769,923,"abstract","B","",6.82762923450285,7.47816969415979,223
"464","58472149000f1000010ebc53","hug","test_conc","concrete-positive","Concrete","VC","B","concrete",1,1732225483395,"concrete",1732,917,"abstract","B","",6.82110747225646,7.45703208912238,224
"465","58472149000f1000010ebc53","kill","test_conc","concrete-negative","Concrete","VC","B","concrete",1,1732225485397,"concrete",2137.5,1241,"abstract","B","",7.12367278520461,7.66739220081091,225
"466","58472149000f1000010ebc53","eat","test_conc","concrete-positive","Concrete","VC","B","concrete",1,1732225487393,"concrete",1780.66666666667,1238,"abstract","B","",7.12125245324454,7.4847431050018,226
"467","58472149000f1000010ebc53","admired","test_conc","abstract-positive","Concrete","VC","B","abstract",1,1732225489067,"abstract",1880.66666666667,913,"abstract","B","",6.81673588059497,7.53938160289383,227
"468","58472149000f1000010ebc53","swing","test_conc","concrete-positive","Concrete","VC","B","abstract",0,1732225493610,"abstract",2813,3786,"abstract","B","",8.23906533176927,7.94200680848986,228
"469","58472149000f1000010ebc53","cook","test_conc","concrete-positive","Concrete","VC","B","concrete",1,1732225495230,"concrete",2059.33333333333,863,"abstract","B","",6.76041469108343,7.63013758481042,229
"470","58472149000f1000010ebc53","exploit","test_conc","abstract-negative","Concrete","VC","B","abstract",1,1732225497544,"abstract",2340.16666666667,1558,"abstract","B","",7.35115822643069,7.75797743088659,230
"471","58472149000f1000010ebc53","bleed","test_conc","concrete-negative","Concrete","VC","B","concrete",1,1732225499463,"concrete",1824,1162,"abstract","B","",7.05789793741186,7.50878717063428,231
"472","58472149000f1000010ebc53","hope","test_conc","abstract-positive","Concrete","VC","B","abstract",1,1732225501590,"abstract",1932.16666666667,1365,"abstract","B","",7.21890970761906,7.56639727744235,232
"473","58472149000f1000010ebc53","cherish","test_conc","abstract-positive","Concrete","VC","B","abstract",1,1732225503401,"abstract",2014,1056,"abstract","B","",6.96224346426621,7.60787807327851,233
"474","58472149000f1000010ebc53","loathe","test_conc","abstract-negative","Concrete","VC","B","abstract",1,1732225504959,"abstract",1767.33333333333,794,"abstract","B","",6.67708346124714,7.47722709818086,234
"475","58472149000f1000010ebc53","running","test_conc","concrete-positive","Concrete","VC","B","concrete",1,1732225546608,"concrete",9012,40893,"abstract","B","",10.618714178239,9.10631230155214,235
"476","58472149000f1000010ebc53","kiss","test_conc","concrete-positive","Concrete","VC","B","concrete",1,1732225547407,"concrete",1606.83333333333,39,"abstract","B","",3.66356164612965,7.38202064743633,236
"477","58472149000f1000010ebc53","respect","test_conc","abstract-positive","Concrete","VC","B","abstract",1,1732225551120,"abstract",2457.83333333333,2955,"abstract","B","",7.9912539298402,7.80703548202289,237
"478","58472149000f1000010ebc53","annoy","test_conc","abstract-negative","Concrete","VC","B","abstract",1,1732225553259,"abstract",1923.33333333333,1378,"abstract","B","",7.2283884515736,7.56181507083404,238
"479","58472149000f1000010ebc53","criticize","test_conc","abstract-negative","Concrete","VC","B","abstract",1,1732225555893,"abstract",1876.83333333333,1874,"abstract","B","",7.53583046279837,7.53734123846897,239
"480","58472149000f1000010ebc53","befall","test_conc","abstract-negative","Concrete","VC","B","abstract",1,1732225558034,"abstract",2149.75,1387,"abstract","B","",7.23489842031483,7.67310683529101,240
"481","5e531b2205acdb33c0f5f24c","vomit","test_conc","concrete-negative","Concrete","CV","A","concrete",1,1732206552011,"concrete",1608.33333333333,2016,"concrete","A","",7.60887062919126,7.38295372510498,1
"482","5e531b2205acdb33c0f5f24c","bleed","test_conc","concrete-negative","Concrete","CV","A","concrete",1,1732206554005,"concrete",1500.5,1234,"concrete","A","",7.11801620446533,7.31355366488042,2
"483","5e531b2205acdb33c0f5f24c","swing","test_conc","concrete-positive","Concrete","CV","A","concrete",1,1732206556017,"concrete",1624.5,1253,"concrete","A","",7.13329595489607,7.39295535510916,3
"484","5e531b2205acdb33c0f5f24c","worry","test_conc","abstract-negative","Concrete","CV","A","abstract",1,1732206557808,"abstract",1480.16666666667,1031,"concrete","A","",6.93828448401696,7.29990997303045,4
"485","5e531b2205acdb33c0f5f24c","obsess","test_conc","abstract-negative","Concrete","CV","A","abstract",1,1732206559216,"abstract",1406.58333333333,650,"concrete","A","",6.47697236288968,7.24891887490093,5
"486","5e531b2205acdb33c0f5f24c","smile","test_conc","concrete-positive","Concrete","CV","A","concrete",1,1732206560847,"concrete",1790.33333333333,874,"concrete","A","",6.77308037565554,7.49015710123735,6
"487","5e531b2205acdb33c0f5f24c","murder","test_conc","concrete-negative","Concrete","CV","A","concrete",1,1732206562639,"concrete",1623.66666666667,1034,"concrete","A","",6.94119005506837,7.39244224513843,7
"488","5e531b2205acdb33c0f5f24c","slap","test_conc","concrete-negative","Concrete","CV","A","abstract",0,1732206564332,"abstract",1474.33333333333,935,"concrete","A","",6.84054652928869,7.29596118920022,8
"489","5e531b2205acdb33c0f5f24c","justify","test_conc","abstract-positive","Concrete","CV","A","abstract",1,1732206566467,"abstract",1631.5,1375,"concrete","A","",7.22620901010067,7.39725511603338,9
"490","5e531b2205acdb33c0f5f24c","stab","test_conc","concrete-negative","Concrete","CV","A","concrete",1,1732206568322,"concrete",1567.33333333333,1096,"concrete","A","",6.99942246750796,7.35713094043191,10
"491","5e531b2205acdb33c0f5f24c","esteem","test_conc","abstract-positive","Concrete","CV","A","abstract",1,1732206570253,"abstract",1674.83333333333,1172,"concrete","A","",7.06646697013696,7.4234689368209,11
