"","ID.true","Word","Label","Task","BlockOrder","EventTime","Value","ReactionTime","Key_value_F","Key_value_J","Comments","Group","LogReactionTime","TrialNumber"
"1","5dc47ddd034b45342d3b2e3a","insecure","calibrator_conc_feedback","Concrete","CV",1742648629874,"abstract",1641,"abstract","concrete","abstract;concrete","B",7.40306109109009,1
"2","5dc47ddd034b45342d3b2e3a","sugar","calibrator_conc_feedback","Concrete","CV",1742648633361,"concrete",718,"abstract","concrete","abstract;concrete","B",6.57646956904822,2
"3","5dc47ddd034b45342d3b2e3a","marriage","calibrator_conc_feedback","Concrete","CV",1742648636866,"concrete",739,"abstract","concrete","abstract;concrete","B",6.6052979209482,3
"4","5dc47ddd034b45342d3b2e3a","whistle","calibrator_conc_feedback","Concrete","CV",1742648640457,"concrete",828,"abstract","concrete","abstract;concrete","B",6.71901315438526,4
"5","5dc47ddd034b45342d3b2e3a","kick","calibrator_conc_feedback","Concrete","CV",1742648644505,"concrete",1281,"abstract","concrete","abstract;concrete","B",7.15539630189673,5
"6","5dc47ddd034b45342d3b2e3a","polite","calibrator_conc_feedback","Concrete","CV",1742648648435,"abstract",1165,"abstract","concrete","abstract;concrete","B",7.0604763659998,6
"7","5dc47ddd034b45342d3b2e3a","theory","calibrator_conc_feedback","Concrete","CV",1742648652362,"concrete",1165,"abstract","concrete","abstract;concrete","B",7.0604763659998,7
"8","5dc47ddd034b45342d3b2e3a","grasshopper","calibrator_conc_feedback","Concrete","CV",1742648656009,"concrete",883,"abstract","concrete","abstract;concrete","B",6.78332520060396,8
"9","5dc47ddd034b45342d3b2e3a","shirt","calibrator_conc_feedback","Concrete","CV",1742648659745,"concrete",968,"abstract","concrete","abstract;concrete","B",6.87523208727658,9
"10","5dc47ddd034b45342d3b2e3a","gas","calibrator_conc_feedback","Concrete","CV",1742648663198,"concrete",686,"abstract","concrete","abstract;concrete","B",6.53087762772588,10
"11","5dc47ddd034b45342d3b2e3a","sugar","calibrator_conc_no_feedback","Concrete","CV",1742648666498,"concrete",538,"B","abstract;concrete","","B",6.28785856016178,11
"12","5dc47ddd034b45342d3b2e3a","gas","calibrator_conc_no_feedback","Concrete","CV",1742648668041,"concrete",774,"B","abstract;concrete","","B",6.65157187358973,12
"13","5dc47ddd034b45342d3b2e3a","theory","calibrator_conc_no_feedback","Concrete","CV",1742648669529,"concrete",725,"B","abstract;concrete","","B",6.58617165485467,13
"14","5dc47ddd034b45342d3b2e3a","marriage","calibrator_conc_no_feedback","Concrete","CV",1742648672057,"abstract",1767,"B","abstract;concrete","","B",7.4770384723197,14
"15","5dc47ddd034b45342d3b2e3a","insecure","calibrator_conc_no_feedback","Concrete","CV",1742648673649,"abstract",828,"B","abstract;concrete","","B",6.71901315438526,15
"16","5dc47ddd034b45342d3b2e3a","shirt","calibrator_conc_no_feedback","Concrete","CV",1742648674954,"concrete",545,"B","abstract;concrete","","B",6.30078579466324,16
"17","5dc47ddd034b45342d3b2e3a","whistle","calibrator_conc_no_feedback","Concrete","CV",1742648676345,"concrete",632,"B","abstract;concrete","","B",6.44888939414686,17
"18","5dc47ddd034b45342d3b2e3a","polite","calibrator_conc_no_feedback","Concrete","CV",1742648677833,"abstract",725,"B","abstract;concrete","","B",6.58617165485467,18
"19","5dc47ddd034b45342d3b2e3a","grasshopper","calibrator_conc_no_feedback","Concrete","CV",1742648679185,"concrete",591,"B","abstract;concrete","","B",6.3818160174061,19
"20","5dc47ddd034b45342d3b2e3a","kick","calibrator_conc_no_feedback","Concrete","CV",1742648680577,"concrete",633,"B","abstract;concrete","","B",6.45047042214418,20
"21","5dc47ddd034b45342d3b2e3a","free","calibrator_val_feedback","Valence","CV",1742649143697,"positive",1427,"negative","positive","negative;positive","B",7.26332961747684,21
"22","5dc47ddd034b45342d3b2e3a","jail","calibrator_val_feedback","Valence","CV",1742649147217,"negative",755,"negative","positive","negative;positive","B",6.62671774924902,22
"23","5dc47ddd034b45342d3b2e3a","invader","calibrator_val_feedback","Valence","CV",1742649150738,"negative",755,"negative","positive","negative;positive","B",6.62671774924902,23
"24","5dc47ddd034b45342d3b2e3a","hat","calibrator_val_feedback","Valence","CV",1742649154473,"positive",972,"negative","positive","negative;positive","B",6.87935580446044,24
"25","5dc47ddd034b45342d3b2e3a","insecure","calibrator_val_feedback","Valence","CV",1742649158050,"negative",808,"negative","positive","negative;positive","B",6.69456205852109,25
"26","5dc47ddd034b45342d3b2e3a","joke","calibrator_val_feedback","Valence","CV",1742649162035,"positive",1213,"negative","positive","negative;positive","B",7.10085190894405,26
"27","5dc47ddd034b45342d3b2e3a","kitten","calibrator_val_feedback","Valence","CV",1742649165385,"positive",583,"negative","positive","negative;positive","B",6.36818718635049,27
"28","5dc47ddd034b45342d3b2e3a","icebox","calibrator_val_feedback","Valence","CV",1742649168946,"positive",793,"negative","positive","negative;positive","B",6.67582322163485,28
"29","5dc47ddd034b45342d3b2e3a","grin","calibrator_val_feedback","Valence","CV",1742649172442,"positive",734,"negative","positive","negative;positive","B",6.59850902861452,29
"30","5dc47ddd034b45342d3b2e3a","industry","calibrator_val_feedback","Valence","CV",1742649176234,"positive",1025,"negative","positive","negative;positive","B",6.93244789157251,30
"31","5dc47ddd034b45342d3b2e3a","icebox","calibrator_val_no_feedback","Valence","CV",1742649179850,"positive",845,"B","negative;positive","","B",6.73933662735717,31
"32","5dc47ddd034b45342d3b2e3a","kitten","calibrator_val_no_feedback","Valence","CV",1742649181290,"positive",680,"B","negative;positive","","B",6.52209279817015,32
"33","5dc47ddd034b45342d3b2e3a","hat","calibrator_val_no_feedback","Valence","CV",1742649182754,"positive",706,"B","negative;positive","","B",6.55961523749324,33
"34","5dc47ddd034b45342d3b2e3a","jail","calibrator_val_no_feedback","Valence","CV",1742649184154,"negative",638,"B","negative;positive","","B",6.45833828334479,34
"35","5dc47ddd034b45342d3b2e3a","grin","calibrator_val_no_feedback","Valence","CV",1742649185489,"positive",575,"B","negative;positive","","B",6.35437004079735,35
"36","5dc47ddd034b45342d3b2e3a","invader","calibrator_val_no_feedback","Valence","CV",1742649186842,"negative",591,"B","negative;positive","","B",6.3818160174061,36
"37","5dc47ddd034b45342d3b2e3a","industry","calibrator_val_no_feedback","Valence","CV",1742649188185,"positive",577,"B","negative;positive","","B",6.3578422665081,37
"38","5dc47ddd034b45342d3b2e3a","joke","calibrator_val_no_feedback","Valence","CV",1742649189561,"positive",613,"B","negative;positive","","B",6.41836493593621,38
"39","5dc47ddd034b45342d3b2e3a","free","calibrator_val_no_feedback","Valence","CV",1742649190850,"positive",528,"B","negative;positive","","B",6.26909628370626,39
"40","5dc47ddd034b45342d3b2e3a","insecure","calibrator_val_no_feedback","Valence","CV",1742649192295,"negative",682,"B","negative;positive","","B",6.52502965784346,40
"41","58472149000f1000010ebc53","hat","calibrator_val_feedback","Valence","VC",1732224795466,"positive",1509,"positive","negative","positive;negative","B",7.31920245876785,1
"42","58472149000f1000010ebc53","industry","calibrator_val_feedback","Valence","VC",1732224801783,"positive",1555,"positive","negative","positive;negative","B",7.34923082461333,2
"43","58472149000f1000010ebc53","invader","calibrator_val_feedback","Valence","VC",1732224804157,"negative",1601,"positive","negative","positive;negative","B",7.37838371299671,3
"44","58472149000f1000010ebc53","grin","calibrator_val_feedback","Valence","VC",1732224809625,"positive",2704,"positive","negative","positive;negative","B",7.90248743716286,4
"45","58472149000f1000010ebc53","joke","calibrator_val_feedback","Valence","VC",1732224814916,"positive",2531,"positive","negative","positive;negative","B",7.83636976054512,5
"46","58472149000f1000010ebc53","icebox","calibrator_val_feedback","Valence","VC",1732224819567,"positive",1887,"positive","negative","positive;negative","B",7.54274354536855,6
"47","58472149000f1000010ebc53","jail","calibrator_val_feedback","Valence","VC",1732224823687,"negative",1358,"positive","negative","positive;negative","B",7.21376830811864,7
"48","58472149000f1000010ebc53","kitten","calibrator_val_feedback","Valence","VC",1732224829065,"positive",2616,"positive","negative","positive;negative","B",7.86940171257709,8
"49","58472149000f1000010ebc53","free","calibrator_val_feedback","Valence","VC",1732224833832,"positive",2002,"positive","negative","positive;negative","B",7.60190195987517,9
"50","58472149000f1000010ebc53","insecure","calibrator_val_feedback","Valence","VC",1732224838087,"negative",1492,"positive","negative","positive;negative","B",7.30787278076371,10
"51","58472149000f1000010ebc53","free","calibrator_val_no_feedback","Valence","VC",1732224843103,"positive",2252,"B","positive;negative","","B",7.71957398925958,11
"52","58472149000f1000010ebc53","hat","calibrator_val_no_feedback","Valence","VC",1732224844944,"positive",1079,"B","positive;negative","","B",6.98378996525813,12
"53","58472149000f1000010ebc53","invader","calibrator_val_no_feedback","Valence","VC",1732224846679,"negative",974,"B","positive;negative","","B",6.88141130364254,13
"54","58472149000f1000010ebc53","kitten","calibrator_val_no_feedback","Valence","VC",1732224848596,"positive",1154,"B","positive;negative","","B",7.05098944706805,14
"55","58472149000f1000010ebc53","jail","calibrator_val_no_feedback","Valence","VC",1732224850978,"negative",1625,"B","positive;negative","","B",7.39326309476384,15
"56","58472149000f1000010ebc53","joke","calibrator_val_no_feedback","Valence","VC",1732224852736,"positive",999,"B","positive;negative","","B",6.90675477864855,16
"57","58472149000f1000010ebc53","icebox","calibrator_val_no_feedback","Valence","VC",1732224854993,"positive",1498,"B","positive;negative","","B",7.31188616407716,17
"58","58472149000f1000010ebc53","industry","calibrator_val_no_feedback","Valence","VC",1732224856664,"positive",912,"B","positive;negative","","B",6.81563999007433,18
"59","58472149000f1000010ebc53","insecure","calibrator_val_no_feedback","Valence","VC",1732224858500,"negative",1075,"B","positive;negative","","B",6.98007594056176,19
"60","58472149000f1000010ebc53","grin","calibrator_val_no_feedback","Valence","VC",1732224860264,"positive",1009,"B","positive;negative","","B",6.91671502035361,20
"61","58472149000f1000010ebc53","sugar","calibrator_conc_feedback","Concrete","VC",1732225170284,"concrete",1675,"concrete","abstract","concrete;abstract","B",7.42356844425917,21
"62","58472149000f1000010ebc53","gas","calibrator_conc_feedback","Concrete","VC",1732225174946,"concrete",1897,"concrete","abstract","concrete;abstract","B",7.54802896993501,22
"63","58472149000f1000010ebc53","kick","calibrator_conc_feedback","Concrete","VC",1732225178718,"concrete",1009,"concrete","abstract","concrete;abstract","B",6.91671502035361,23
"64","58472149000f1000010ebc53","theory","calibrator_conc_feedback","Concrete","VC",1732225182438,"abstract",958,"concrete","abstract","concrete;abstract","B",6.86484777797086,24
"65","58472149000f1000010ebc53","marriage","calibrator_conc_feedback","Concrete","VC",1732225186814,"abstract",1615,"concrete","abstract","concrete;abstract","B",7.38709023565676,25
"66","58472149000f1000010ebc53","shirt","calibrator_conc_feedback","Concrete","VC",1732225190807,"concrete",1229,"concrete","abstract","concrete;abstract","B",7.11395610956603,26
"67","58472149000f1000010ebc53","polite","calibrator_conc_feedback","Concrete","VC",1732225194791,"abstract",1222,"concrete","abstract","concrete;abstract","B",7.10824413973154,27
"68","58472149000f1000010ebc53","grasshopper","calibrator_conc_feedback","Concrete","VC",1732225198873,"concrete",1320,"concrete","abstract","concrete;abstract","B",7.18538701558042,28
"69","58472149000f1000010ebc53","insecure","calibrator_conc_feedback","Concrete","VC",1732225203175,"abstract",1537,"concrete","abstract","concrete;abstract","B",7.3375877435386,29
"70","58472149000f1000010ebc53","whistle","calibrator_conc_feedback","Concrete","VC",1732225208396,"concrete",2458,"concrete","abstract","concrete;abstract","B",7.80710329012598,30
"71","58472149000f1000010ebc53","shirt","calibrator_conc_no_feedback","Concrete","VC",1732225212215,"concrete",1058,"B","concrete;abstract","","B",6.96413561241824,31
"72","58472149000f1000010ebc53","gas","calibrator_conc_no_feedback","Concrete","VC",1732225214291,"concrete",1319,"B","concrete;abstract","","B",7.18462915271731,32
"73","58472149000f1000010ebc53","insecure","calibrator_conc_no_feedback","Concrete","VC",1732225216638,"abstract",1586,"B","concrete;abstract","","B",7.36897040219479,33
"74","58472149000f1000010ebc53","marriage","calibrator_conc_no_feedback","Concrete","VC",1732225218795,"abstract",1400,"B","concrete;abstract","","B",7.24422751560335,34
"75","58472149000f1000010ebc53","theory","calibrator_conc_no_feedback","Concrete","VC",1732225220560,"abstract",1007,"B","concrete;abstract","","B",6.91473089271856,35
"76","58472149000f1000010ebc53","grasshopper","calibrator_conc_no_feedback","Concrete","VC",1732225222251,"concrete",930,"B","concrete;abstract","","B",6.8351845861473,36
"77","58472149000f1000010ebc53","sugar","calibrator_conc_no_feedback","Concrete","VC",1732225223884,"concrete",869,"B","concrete;abstract","","B",6.76734312526539,37
"78","58472149000f1000010ebc53","polite","calibrator_conc_no_feedback","Concrete","VC",1732225225634,"abstract",992,"B","concrete;abstract","","B",6.89972310728487,38
"79","58472149000f1000010ebc53","kick","calibrator_conc_no_feedback","Concrete","VC",1732225228519,"concrete",2125,"B","concrete;abstract","","B",7.66152708135852,39
"80","58472149000f1000010ebc53","whistle","calibrator_conc_no_feedback","Concrete","VC",1732225230480,"concrete",1200,"B","concrete;abstract","","B",7.09007683577609,40
"81","5e531b2205acdb33c0f5f24c","grasshopper","calibrator_conc_feedback","Concrete","CV",1732206481490,"abstract",1355,"abstract","concrete","abstract;concrete","A",7.2115567333138,1
"82","5e531b2205acdb33c0f5f24c","polite","calibrator_conc_feedback","Concrete","CV",1732206485720,"concrete",1461,"abstract","concrete","abstract;concrete","A",7.2868764117507,2
"83","5e531b2205acdb33c0f5f24c","theory","calibrator_conc_feedback","Concrete","CV",1732206490413,"abstract",1932,"abstract","concrete","abstract;concrete","A",7.56631101477246,3
"84","5e531b2205acdb33c0f5f24c","marriage","calibrator_conc_feedback","Concrete","CV",1732206496020,"concrete",2843,"abstract","concrete","abstract;concrete","A",7.952615111651,4
"85","5e531b2205acdb33c0f5f24c","gas","calibrator_conc_feedback","Concrete","CV",1732206499820,"abstract",1040,"abstract","concrete","abstract;concrete","A",6.94697599213542,5
"86","5e531b2205acdb33c0f5f24c","shirt","calibrator_conc_feedback","Concrete","CV",1732206505228,"concrete",2648,"abstract","concrete","abstract;concrete","A",7.8815599170569,6
"87","5e531b2205acdb33c0f5f24c","kick","calibrator_conc_feedback","Concrete","CV",1732206510416,"concrete",2423,"abstract","concrete","abstract;concrete","A",7.79276172081653,7
"88","5e531b2205acdb33c0f5f24c","insecure","calibrator_conc_feedback","Concrete","CV",1732206514697,"abstract",1517,"abstract","concrete","abstract;concrete","A",7.32448997934853,8
"89","5e531b2205acdb33c0f5f24c","whistle","calibrator_conc_feedback","Concrete","CV",1732206518522,"concrete",1061,"abstract","concrete","abstract;concrete","A",6.96696713861398,9
"90","5e531b2205acdb33c0f5f24c","sugar","calibrator_conc_feedback","Concrete","CV",1732206522874,"concrete",1590,"abstract","concrete","abstract;concrete","A",7.37148929521428,10
"91","5e531b2205acdb33c0f5f24c","theory","calibrator_conc_no_feedback","Concrete","CV",1732206526356,"abstract",717,"A","abstract;concrete","","A",6.57507584059962,11
"92","5e531b2205acdb33c0f5f24c","kick","calibrator_conc_no_feedback","Concrete","CV",1732206528512,"concrete",1398,"A","abstract;concrete","","A",7.24279792279376,12
"93","5e531b2205acdb33c0f5f24c","sugar","calibrator_conc_no_feedback","Concrete","CV",1732206532218,"concrete",2950,"A","abstract;concrete","","A",7.98956044933387,13
"94","5e531b2205acdb33c0f5f24c","grasshopper","calibrator_conc_no_feedback","Concrete","CV",1732206533946,"concrete",970,"A","abstract;concrete","","A",6.87729607149743,14
"95","5e531b2205acdb33c0f5f24c","polite","calibrator_conc_no_feedback","Concrete","CV",1732206536120,"abstract",1414,"A","abstract;concrete","","A",7.25417784645652,15
"96","5e531b2205acdb33c0f5f24c","shirt","calibrator_conc_no_feedback","Concrete","CV",1732206537972,"concrete",1093,"A","abstract;concrete","","A",6.99668148817654,16
"97","5e531b2205acdb33c0f5f24c","marriage","calibrator_conc_no_feedback","Concrete","CV",1732206540026,"abstract",1296,"A","abstract;concrete","","A",7.16703787691222,17
"98","5e531b2205acdb33c0f5f24c","whistle","calibrator_conc_no_feedback","Concrete","CV",1732206542452,"concrete",1667,"A","abstract;concrete","","A",7.41878088275079,18
"99","5e531b2205acdb33c0f5f24c","gas","calibrator_conc_no_feedback","Concrete","CV",1732206544092,"concrete",883,"A","abstract;concrete","","A",6.78332520060396,19
"100","5e531b2205acdb33c0f5f24c","insecure","calibrator_conc_no_feedback","Concrete","CV",1732206546494,"abstract",1643,"A","abstract;concrete","","A",7.40427911803727,20
"101","5e531b2205acdb33c0f5f24c","invader","calibrator_val_feedback","Valence","CV",1732206817994,"negative",1358,"negative","positive","negative;positive","A",7.21376830811864,21
"102","5e531b2205acdb33c0f5f24c","hat","calibrator_val_feedback","Valence","CV",1732206821740,"positive",987,"negative","positive","negative;positive","A",6.89467003943348,22
"103","5e531b2205acdb33c0f5f24c","kitten","calibrator_val_feedback","Valence","CV",1732206825648,"positive",1142,"negative","positive","negative;positive","A",7.04053639021596,23
"104","5e531b2205acdb33c0f5f24c","insecure","calibrator_val_feedback","Valence","CV",1732206829152,"negative",745,"negative","positive","negative;positive","A",6.61338421837956,24
"105","5e531b2205acdb33c0f5f24c","industry","calibrator_val_feedback","Valence","CV",1732206832858,"positive",946,"negative","positive","negative;positive","A",6.85224256905188,25
"106","5e531b2205acdb33c0f5f24c","joke","calibrator_val_feedback","Valence","CV",1732206836586,"positive",968,"negative","positive","negative;positive","A",6.87523208727658,26
"107","5e531b2205acdb33c0f5f24c","jail","calibrator_val_feedback","Valence","CV",1732206840290,"negative",942,"negative","positive","negative;positive","A",6.84800527457636,27
"108","5e531b2205acdb33c0f5f24c","grin","calibrator_val_feedback","Valence","CV",1732206844239,"positive",1183,"negative","positive","negative;positive","A",7.07580886397839,28
"109","5e531b2205acdb33c0f5f24c","icebox","calibrator_val_feedback","Valence","CV",1732206847824,"positive",823,"negative","positive","negative;positive","A",6.71295620067707,29
"110","5e531b2205acdb33c0f5f24c","free","calibrator_val_feedback","Valence","CV",1732206851288,"positive",704,"negative","positive","negative;positive","A",6.55677835615804,30
"111","5e531b2205acdb33c0f5f24c","industry","calibrator_val_no_feedback","Valence","CV",1732206855236,"negative",1179,"A","negative;positive","","A",7.07242190053737,31
"112","5e531b2205acdb33c0f5f24c","jail","calibrator_val_no_feedback","Valence","CV",1732206857009,"negative",1014,"A","negative;positive","","A",6.92165818415113,32
"113","5e531b2205acdb33c0f5f24c","insecure","calibrator_val_no_feedback","Valence","CV",1732206858782,"negative",1014,"A","negative;positive","","A",6.92165818415113,33
"114","5e531b2205acdb33c0f5f24c","joke","calibrator_val_no_feedback","Valence","CV",1732206860312,"positive",769,"A","negative;positive","","A",6.64509096950564,34
"115","5e531b2205acdb33c0f5f24c","kitten","calibrator_val_no_feedback","Valence","CV",1732206861662,"positive",593,"A","negative;positive","","A",6.38519439899773,35
"116","5e531b2205acdb33c0f5f24c","hat","calibrator_val_no_feedback","Valence","CV",1732206862970,"positive",549,"A","negative;positive","","A",6.30809844150953,36
"117","5e531b2205acdb33c0f5f24c","icebox","calibrator_val_no_feedback","Valence","CV",1732206864240,"positive",512,"A","negative;positive","","A",6.23832462503951,37
"118","5e531b2205acdb33c0f5f24c","invader","calibrator_val_no_feedback","Valence","CV",1732206865609,"negative",611,"A","negative;positive","","A",6.4150969591716,38
"119","5e531b2205acdb33c0f5f24c","grin","calibrator_val_no_feedback","Valence","CV",1732206867040,"positive",674,"A","negative;positive","","A",6.51323011091231,39
"120","5e531b2205acdb33c0f5f24c","free","calibrator_val_no_feedback","Valence","CV",1732206868429,"positive",630,"A","negative;positive","","A",6.44571981938558,40
"121","558a035bfdf99b2d75651378","polite","calibrator_conc_feedback","Concrete","CV",1742562579354,"abstract",1452,"concrete","abstract","concrete;abstract","A",7.28069719538474,1
"122","558a035bfdf99b2d75651378","whistle","calibrator_conc_feedback","Concrete","CV",1742562584655,"concrete",4086,"concrete","abstract","concrete;abstract","A",8.31532177537757,2
"123","558a035bfdf99b2d75651378","kick","calibrator_conc_feedback","Concrete","CV",1742562590847,"concrete",3421,"concrete","abstract","concrete;abstract","A",8.13768818497761,3
"124","558a035bfdf99b2d75651378","insecure","calibrator_conc_feedback","Concrete","CV",1742562594977,"abstract",1356,"concrete","abstract","concrete;abstract","A",7.21229446850034,4
"125","558a035bfdf99b2d75651378","sugar","calibrator_conc_feedback","Concrete","CV",1742562599487,"concrete",1736,"concrete","abstract","concrete;abstract","A",7.4593388952203,5
"126","558a035bfdf99b2d75651378","shirt","calibrator_conc_feedback","Concrete","CV",1742562604586,"concrete",2324,"concrete","abstract","concrete;abstract","A",7.7510451179718,6
"127","558a035bfdf99b2d75651378","theory","calibrator_conc_feedback","Concrete","CV",1742562608425,"abstract",1065,"concrete","abstract","concrete;abstract","A",6.97073007814353,7
"128","558a035bfdf99b2d75651378","grasshopper","calibrator_conc_feedback","Concrete","CV",1742562612552,"concrete",1355,"concrete","abstract","concrete;abstract","A",7.2115567333138,8
"129","558a035bfdf99b2d75651378","marriage","calibrator_conc_feedback","Concrete","CV",1742562617054,"concrete",1728,"concrete","abstract","concrete;abstract","A",7.454719949364,9
"130","558a035bfdf99b2d75651378","gas","calibrator_conc_feedback","Concrete","CV",1742562621860,"abstract",2031,"concrete","abstract","concrete;abstract","A",7.61628356158038,10
"131","558a035bfdf99b2d75651378","gas","calibrator_conc_no_feedback","Concrete","CV",1742562626368,"abstract",1734,"A","concrete;abstract","","A",7.45818615734049,11
"132","558a035bfdf99b2d75651378","insecure","calibrator_conc_no_feedback","Concrete","CV",1742562630364,"abstract",3223,"A","concrete;abstract","","A",8.07806788181544,12
"133","558a035bfdf99b2d75651378","grasshopper","calibrator_conc_no_feedback","Concrete","CV",1742562632434,"concrete",1300,"A","concrete;abstract","","A",7.17011954344963,13
"134","558a035bfdf99b2d75651378","theory","calibrator_conc_no_feedback","Concrete","CV",1742562634132,"abstract",932,"A","concrete;abstract","","A",6.83733281468559,14
"135","558a035bfdf99b2d75651378","kick","calibrator_conc_no_feedback","Concrete","CV",1742562636107,"concrete",1208,"A","concrete;abstract","","A",7.09672137849476,15
"136","558a035bfdf99b2d75651378","marriage","calibrator_conc_no_feedback","Concrete","CV",1742562637647,"concrete",768,"A","concrete;abstract","","A",6.64378973314767,16
"137","558a035bfdf99b2d75651378","polite","calibrator_conc_no_feedback","Concrete","CV",1742562641140,"abstract",2729,"A","concrete;abstract","","A",7.91169052070834,17
"138","558a035bfdf99b2d75651378","sugar","calibrator_conc_no_feedback","Concrete","CV",1742562643336,"concrete",1429,"A","concrete;abstract","","A",7.26473017792987,18
"139","558a035bfdf99b2d75651378","whistle","calibrator_conc_no_feedback","Concrete","CV",1742562645080,"concrete",981,"A","concrete;abstract","","A",6.88857245956536,19
"140","558a035bfdf99b2d75651378","shirt","calibrator_conc_no_feedback","Concrete","CV",1742562646776,"concrete",931,"A","concrete;abstract","","A",6.83625927727707,20
"141","558a035bfdf99b2d75651378","kitten","calibrator_val_feedback","Valence","CV",1742563034225,"positive",1425,"positive","negative","positive;negative","A",7.26192709270275,21
"142","558a035bfdf99b2d75651378","jail","calibrator_val_feedback","Valence","CV",1742563038515,"negative",1527,"positive","negative","positive;negative","A",7.33106030521863,22
"143","558a035bfdf99b2d75651378","insecure","calibrator_val_feedback","Valence","CV",1742563043244,"negative",1961,"positive","negative","positive;negative","A",7.58120982619635,23
"144","558a035bfdf99b2d75651378","grin","calibrator_val_feedback","Valence","CV",1742563047728,"negative",1708,"positive","negative","positive;negative","A",7.44307837434852,24
"145","558a035bfdf99b2d75651378","invader","calibrator_val_feedback","Valence","CV",1742563051756,"negative",1249,"positive","negative","positive;negative","A",7.13009851012558,25
"146","558a035bfdf99b2d75651378","icebox","calibrator_val_feedback","Valence","CV",1742563058332,"positive",3811,"positive","negative","positive;negative","A",8.24564690087386,26
"147","558a035bfdf99b2d75651378","joke","calibrator_val_feedback","Valence","CV",1742563062786,"positive",1680,"positive","negative","positive;negative","A",7.4265490723973,27
"148","558a035bfdf99b2d75651378","free","calibrator_val_feedback","Valence","CV",1742563068345,"positive",2786,"positive","negative","positive;negative","A",7.93236215433975,28
"149","558a035bfdf99b2d75651378","industry","calibrator_val_feedback","Valence","CV",1742563072954,"positive",1833,"positive","negative","positive;negative","A",7.5137092478397,29
"150","558a035bfdf99b2d75651378","hat","calibrator_val_feedback","Valence","CV",1742563077338,"positive",1612,"positive","negative","positive;negative","A",7.38523092306657,30
"151","558a035bfdf99b2d75651378","hat","calibrator_val_no_feedback","Valence","CV",1742563081820,"positive",1711,"A","positive;negative","","A",7.44483327389219,31
"152","558a035bfdf99b2d75651378","jail","calibrator_val_no_feedback","Valence","CV",1742563084193,"negative",1607,"A","positive;negative","","A",7.38212436573751,32
"153","558a035bfdf99b2d75651378","insecure","calibrator_val_no_feedback","Valence","CV",1742563087080,"negative",2121,"A","positive;negative","","A",7.65964295456468,33
"154","558a035bfdf99b2d75651378","grin","calibrator_val_no_feedback","Valence","CV",1742563088919,"negative",1070,"A","positive;negative","","A",6.97541392745595,34
"155","558a035bfdf99b2d75651378","industry","calibrator_val_no_feedback","Valence","CV",1742563090730,"positive",1043,"A","positive;negative","","A",6.94985645500077,35
"156","558a035bfdf99b2d75651378","icebox","calibrator_val_no_feedback","Valence","CV",1742563092685,"positive",1188,"A","positive;negative","","A",7.08002649992259,36
"157","558a035bfdf99b2d75651378","invader","calibrator_val_no_feedback","Valence","CV",1742563094647,"negative",1197,"A","positive;negative","","A",7.08757370555797,37
"158","558a035bfdf99b2d75651378","kitten","calibrator_val_no_feedback","Valence","CV",1742563096182,"positive",766,"A","positive;negative","","A",6.64118216974059,38
"159","558a035bfdf99b2d75651378","joke","calibrator_val_no_feedback","Valence","CV",1742563098547,"positive",1603,"A","positive;negative","","A",7.37963215260955,39
"160","558a035bfdf99b2d75651378","free","calibrator_val_no_feedback","Valence","CV",1742563100219,"positive",909,"A","positive;negative","","A",6.81234509417748,40
"161","5df2e86273d7241f495bc399","grasshopper","calibrator_conc_feedback","Concrete","CV",1742647037709,"concrete",1788,"abstract","concrete","abstract;concrete","B",7.48885295573346,1
"162","5df2e86273d7241f495bc399","theory","calibrator_conc_feedback","Concrete","CV",1742647041453,"abstract",986,"abstract","concrete","abstract;concrete","B",6.89365635460264,2
"163","5df2e86273d7241f495bc399","kick","calibrator_conc_feedback","Concrete","CV",1742647045413,"concrete",1202,"abstract","concrete","abstract;concrete","B",7.09174211509515,3
"164","5df2e86273d7241f495bc399","shirt","calibrator_conc_feedback","Concrete","CV",1742647049653,"concrete",1476,"abstract","concrete","abstract;concrete","B",7.29709100516042,4
"165","5df2e86273d7241f495bc399","polite","calibrator_conc_feedback","Concrete","CV",1742647054557,"abstract",2150,"abstract","concrete","abstract;concrete","B",7.67322312112171,5
"166","5df2e86273d7241f495bc399","gas","calibrator_conc_feedback","Concrete","CV",1742647058725,"concrete",1406,"abstract","concrete","abstract;concrete","B",7.24850407237061,6
"167","5df2e86273d7241f495bc399","insecure","calibrator_conc_feedback","Concrete","CV",1742647062677,"abstract",1188,"abstract","concrete","abstract;concrete","B",7.08002649992259,7
"168","5df2e86273d7241f495bc399","marriage","calibrator_conc_feedback","Concrete","CV",1742647067845,"concrete",2409,"abstract","concrete","abstract;concrete","B",7.78696700261487,8
"169","5df2e86273d7241f495bc399","whistle","calibrator_conc_feedback","Concrete","CV",1742647073620,"concrete",3017,"abstract","concrete","abstract;concrete","B",8.01201823915906,9
"170","5df2e86273d7241f495bc399","sugar","calibrator_conc_feedback","Concrete","CV",1742647077637,"concrete",1260,"abstract","concrete","abstract;concrete","B",7.13886699994552,10
"171","5df2e86273d7241f495bc399","insecure","calibrator_conc_no_feedback","Concrete","CV",1742647081637,"abstract",1242,"B","abstract;concrete","","B",7.12447826249342,11
"172","5df2e86273d7241f495bc399","kick","calibrator_conc_no_feedback","Concrete","CV",1742647083365,"concrete",974,"B","abstract;concrete","","B",6.88141130364254,12
"173","5df2e86273d7241f495bc399","polite","calibrator_conc_no_feedback","Concrete","CV",1742647085588,"abstract",1467,"B","abstract;concrete","","B",7.29097477814298,13
"174","5df2e86273d7241f495bc399","gas","calibrator_conc_no_feedback","Concrete","CV",1742647087284,"concrete",939,"B","abstract;concrete","","B",6.84481547920826,14
"175","5df2e86273d7241f495bc399","grasshopper","calibrator_conc_no_feedback","Concrete","CV",1742647090444,"concrete",2404,"B","abstract;concrete","","B",7.7848892956551,15
"176","5df2e86273d7241f495bc399","theory","calibrator_conc_no_feedback","Concrete","CV",1742647092645,"abstract",1445,"B","abstract;concrete","","B",7.27586460054653,16
"177","5df2e86273d7241f495bc399","sugar","calibrator_conc_no_feedback","Concrete","CV",1742647094828,"concrete",1430,"B","abstract;concrete","","B",7.26542972325395,17
"178","5df2e86273d7241f495bc399","marriage","calibrator_conc_no_feedback","Concrete","CV",1742647097732,"abstract",2153,"B","abstract;concrete","","B",7.67461749736436,18
"179","5df2e86273d7241f495bc399","shirt","calibrator_conc_no_feedback","Concrete","CV",1742647100460,"concrete",1969,"B","abstract;concrete","","B",7.58528107863913,19
"180","5df2e86273d7241f495bc399","whistle","calibrator_conc_no_feedback","Concrete","CV",1742647102756,"concrete",1540,"B","abstract;concrete","","B",7.33953769540767,20
"181","5df2e86273d7241f495bc399","jail","calibrator_val_feedback","Valence","CV",1742647544281,"negative",2423,"negative","positive","negative;positive","B",7.79276172081653,21
"182","5df2e86273d7241f495bc399","grin","calibrator_val_feedback","Valence","CV",1742647548361,"positive",1319,"negative","positive","negative;positive","B",7.18462915271731,22
"183","5df2e86273d7241f495bc399","insecure","calibrator_val_feedback","Valence","CV",1742647552321,"negative",1198,"negative","positive","negative;positive","B",7.08840877867539,23
"184","5df2e86273d7241f495bc399","industry","calibrator_val_feedback","Valence","CV",1742647558009,"positive",2930,"negative","positive","negative;positive","B",7.98275770201111,24
"185","5df2e86273d7241f495bc399","invader","calibrator_val_feedback","Valence","CV",1742647562681,"negative",1910,"negative","positive","negative;positive","B",7.55485852104068,25
"186","5df2e86273d7241f495bc399","free","calibrator_val_feedback","Valence","CV",1742647566857,"positive",1417,"negative","positive","negative;positive","B",7.25629723969068,26
"187","5df2e86273d7241f495bc399","icebox","calibrator_val_feedback","Valence","CV",1742647572249,"positive",2632,"negative","positive","negative;positive","B",7.87549929244521,27
"188","5df2e86273d7241f495bc399","hat","calibrator_val_feedback","Valence","CV",1742647578177,"positive",3170,"negative","positive","negative;positive","B",8.06148686687133,28
"189","5df2e86273d7241f495bc399","kitten","calibrator_val_feedback","Valence","CV",1742647582585,"positive",1649,"negative","positive","negative;positive","B",7.4079243225596,29
"190","5df2e86273d7241f495bc399","joke","calibrator_val_feedback","Valence","CV",1742647587281,"positive",1938,"negative","positive","negative;positive","B",7.56941179245071,30
"191","5df2e86273d7241f495bc399","jail","calibrator_val_no_feedback","Valence","CV",1742647591513,"negative",1476,"B","negative;positive","","B",7.29709100516042,31
"192","5df2e86273d7241f495bc399","insecure","calibrator_val_no_feedback","Valence","CV",1742647593569,"negative",1302,"B","negative;positive","","B",7.17165682276851,32
"193","5df2e86273d7241f495bc399","industry","calibrator_val_no_feedback","Valence","CV",1742647596544,"positive",2224,"B","negative;positive","","B",7.70706265537047,33
"194","5df2e86273d7241f495bc399","invader","calibrator_val_no_feedback","Valence","CV",1742647598672,"negative",1374,"B","negative;positive","","B",7.22548147278229,34
"195","5df2e86273d7241f495bc399","grin","calibrator_val_no_feedback","Valence","CV",1742647600392,"positive",965,"B","negative;positive","","B",6.87212810133899,35
"196","5df2e86273d7241f495bc399","joke","calibrator_val_no_feedback","Valence","CV",1742647602536,"positive",1389,"B","negative;positive","","B",7.23633934275434,36
"197","5df2e86273d7241f495bc399","hat","calibrator_val_no_feedback","Valence","CV",1742647604929,"positive",1635,"B","negative;positive","","B",7.39939808333135,37
"198","5df2e86273d7241f495bc399","icebox","calibrator_val_no_feedback","Valence","CV",1742647606888,"positive",1202,"B","negative;positive","","B",7.09174211509515,38
"199","5df2e86273d7241f495bc399","kitten","calibrator_val_no_feedback","Valence","CV",1742647608768,"positive",1124,"B","negative;positive","","B",7.02464903045364,39
"200","5df2e86273d7241f495bc399","free","calibrator_val_no_feedback","Valence","CV",1742647611912,"positive",2388,"B","negative;positive","","B",7.77821147451249,40
"201","62fbc9730a4b70bcc1c942b3","invader","calibrator_val_feedback","Valence","VC",1732222760807,"negative",1387,"positive","negative","positive;negative","B",7.23489842031483,1
"202","62fbc9730a4b70bcc1c942b3","jail","calibrator_val_feedback","Valence","VC",1732222764417,"negative",844,"positive","negative","positive;negative","B",6.73815249459596,2
"203","62fbc9730a4b70bcc1c942b3","joke","calibrator_val_feedback","Valence","VC",1732222768111,"positive",935,"positive","negative","positive;negative","B",6.84054652928869,3
"204","62fbc9730a4b70bcc1c942b3","free","calibrator_val_feedback","Valence","VC",1732222771622,"positive",753,"positive","negative","positive;negative","B",6.62406522779989,4
"205","62fbc9730a4b70bcc1c942b3","kitten","calibrator_val_feedback","Valence","VC",1732222774991,"positive",606,"positive","negative","positive;negative","B",6.40687998606931,5
"206","62fbc9730a4b70bcc1c942b3","industry","calibrator_val_feedback","Valence","VC",1732222780283,"positive",2531,"positive","negative","positive;negative","B",7.83636976054512,6
"207","62fbc9730a4b70bcc1c942b3","grin","calibrator_val_feedback","Valence","VC",1732222783681,"positive",639,"positive","negative","positive;negative","B",6.45990445437753,7
"208","62fbc9730a4b70bcc1c942b3","icebox","calibrator_val_feedback","Valence","VC",1732222787625,"positive",1180,"positive","negative","positive;negative","B",7.07326971745971,8
"209","62fbc9730a4b70bcc1c942b3","insecure","calibrator_val_feedback","Valence","VC",1732222791227,"negative",840,"positive","negative","positive;negative","B",6.73340189183736,9
"210","62fbc9730a4b70bcc1c942b3","hat","calibrator_val_feedback","Valence","VC",1732222795442,"positive",1454,"positive","negative","positive;negative","B",7.28207365809346,10
"211","62fbc9730a4b70bcc1c942b3","jail","calibrator_val_no_feedback","Valence","VC",1732222798762,"negative",563,"B","positive;negative","","B",6.33327962813969,11
"212","62fbc9730a4b70bcc1c942b3","joke","calibrator_val_no_feedback","Valence","VC",1732222800349,"positive",827,"B","positive;negative","","B",6.71780469502369,12
"213","62fbc9730a4b70bcc1c942b3","kitten","calibrator_val_no_feedback","Valence","VC",1732222801663,"positive",557,"B","positive;negative","","B",6.32256523992728,13
"214","62fbc9730a4b70bcc1c942b3","invader","calibrator_val_no_feedback","Valence","VC",1732222803053,"negative",629,"B","positive;negative","","B",6.44413125670044,14
"215","62fbc9730a4b70bcc1c942b3","free","calibrator_val_no_feedback","Valence","VC",1732222804431,"positive",623,"B","positive;negative","","B",6.43454651878745,15
"216","62fbc9730a4b70bcc1c942b3","insecure","calibrator_val_no_feedback","Valence","VC",1732222805917,"negative",729,"B","positive;negative","","B",6.59167373200866,16
"217","62fbc9730a4b70bcc1c942b3","industry","calibrator_val_no_feedback","Valence","VC",1732222807236,"positive",565,"B","positive;negative","","B",6.33682573114644,17
"218","62fbc9730a4b70bcc1c942b3","icebox","calibrator_val_no_feedback","Valence","VC",1732222808577,"negative",586,"B","positive;negative","","B",6.37331978957701,18
"219","62fbc9730a4b70bcc1c942b3","hat","calibrator_val_no_feedback","Valence","VC",1732222809850,"positive",516,"B","positive;negative","","B",6.24610676548156,19
"220","62fbc9730a4b70bcc1c942b3","grin","calibrator_val_no_feedback","Valence","VC",1732222811137,"positive",529,"B","positive;negative","","B",6.2709884318583,20
"221","62fbc9730a4b70bcc1c942b3","polite","calibrator_conc_feedback","Concrete","VC",1732223064604,"abstract",1791,"concrete","abstract","concrete;abstract","B",7.49052940206071,21
"222","62fbc9730a4b70bcc1c942b3","grasshopper","calibrator_conc_feedback","Concrete","VC",1732223068164,"concrete",799,"concrete","abstract","concrete;abstract","B",6.68336094576627,22
"223","62fbc9730a4b70bcc1c942b3","kick","calibrator_conc_feedback","Concrete","VC",1732223071652,"concrete",727,"concrete","abstract","concrete;abstract","B",6.58892647753352,23
"224","62fbc9730a4b70bcc1c942b3","sugar","calibrator_conc_feedback","Concrete","VC",1732223075222,"concrete",810,"concrete","abstract","concrete;abstract","B",6.69703424766648,24
"225","62fbc9730a4b70bcc1c942b3","whistle","calibrator_conc_feedback","Concrete","VC",1732223081270,"abstract",3289,"concrete","abstract","concrete;abstract","B",8.09833884618906,25
"226","62fbc9730a4b70bcc1c942b3","insecure","calibrator_conc_feedback","Concrete","VC",1732223085033,"abstract",1003,"concrete","abstract","concrete;abstract","B",6.91075078796194,26
"227","62fbc9730a4b70bcc1c942b3","gas","calibrator_conc_feedback","Concrete","VC",1732223089060,"concrete",1267,"concrete","abstract","concrete;abstract","B",7.14440718032114,27
"228","62fbc9730a4b70bcc1c942b3","theory","calibrator_conc_feedback","Concrete","VC",1732223092503,"abstract",678,"concrete","abstract","concrete;abstract","B",6.5191472879404,28
"229","62fbc9730a4b70bcc1c942b3","shirt","calibrator_conc_feedback","Concrete","VC",1732223096650,"concrete",1385,"concrete","abstract","concrete;abstract","B",7.23345541862144,29
"230","62fbc9730a4b70bcc1c942b3","marriage","calibrator_conc_feedback","Concrete","VC",1732223100160,"concrete",753,"concrete","abstract","concrete;abstract","B",6.62406522779989,30
"231","62fbc9730a4b70bcc1c942b3","whistle","calibrator_conc_no_feedback","Concrete","VC",1732223106123,"concrete",3204,"B","concrete;abstract","","B",8.07215530818825,31
"232","62fbc9730a4b70bcc1c942b3","shirt","calibrator_conc_no_feedback","Concrete","VC",1732223107721,"concrete",841,"B","concrete;abstract","","B",6.73459165997295,32
"233","62fbc9730a4b70bcc1c942b3","insecure","calibrator_conc_no_feedback","Concrete","VC",1732223109491,"abstract",1013,"B","concrete;abstract","","B",6.92067150424868,33
"234","62fbc9730a4b70bcc1c942b3","kick","calibrator_conc_no_feedback","Concrete","VC",1732223110969,"concrete",719,"B","concrete;abstract","","B",6.57786135772105,34
"235","62fbc9730a4b70bcc1c942b3","polite","calibrator_conc_no_feedback","Concrete","VC",1732223112709,"abstract",984,"B","concrete;abstract","","B",6.89162589705225,35
"236","62fbc9730a4b70bcc1c942b3","grasshopper","calibrator_conc_no_feedback","Concrete","VC",1732223114638,"concrete",1172,"B","concrete;abstract","","B",7.06646697013696,36
"237","62fbc9730a4b70bcc1c942b3","marriage","calibrator_conc_no_feedback","Concrete","VC",1732223116122,"abstract",731,"B","concrete;abstract","","B",6.59441345974978,37
"238","62fbc9730a4b70bcc1c942b3","theory","calibrator_conc_no_feedback","Concrete","VC",1732223117739,"abstract",859,"B","concrete;abstract","","B",6.75576892198425,38
"239","62fbc9730a4b70bcc1c942b3","sugar","calibrator_conc_no_feedback","Concrete","VC",1732223119031,"concrete",536,"B","concrete;abstract","","B",6.2841341610708,39
"240","62fbc9730a4b70bcc1c942b3","gas","calibrator_conc_no_feedback","Concrete","VC",1732223120463,"concrete",677,"B","concrete;abstract","","B",6.51767127291227,40
"241","61088c529cff73b187d19e6d","shirt","calibrator_conc_feedback","Concrete","CV",1742562666012,"concrete",2040,"concrete","abstract","concrete;abstract","A",7.62070508683826,1
"242","61088c529cff73b187d19e6d","grasshopper","calibrator_conc_feedback","Concrete","CV",1742562670128,"concrete",1355,"concrete","abstract","concrete;abstract","A",7.2115567333138,2
"243","61088c529cff73b187d19e6d","whistle","calibrator_conc_feedback","Concrete","CV",1742562676250,"concrete",3364,"concrete","abstract","concrete;abstract","A",8.12088602109284,3
"244","61088c529cff73b187d19e6d","insecure","calibrator_conc_feedback","Concrete","CV",1742562680426,"abstract",1410,"concrete","abstract","concrete;abstract","A",7.25134498337221,4
"245","61088c529cff73b187d19e6d","sugar","calibrator_conc_feedback","Concrete","CV",1742562684228,"concrete",1039,"concrete","abstract","concrete;abstract","A",6.94601399109923,5
"246","61088c529cff73b187d19e6d","marriage","calibrator_conc_feedback","Concrete","CV",1742562689196,"abstract",2206,"concrete","abstract","concrete;abstract","A",7.69893619981345,6
"247","61088c529cff73b187d19e6d","gas","calibrator_conc_feedback","Concrete","CV",1742562694822,"concrete",2861,"concrete","abstract","concrete;abstract","A",7.95892649305011,7
"248","61088c529cff73b187d19e6d","theory","calibrator_conc_feedback","Concrete","CV",1742562698784,"abstract",1202,"concrete","abstract","concrete;abstract","A",7.09174211509515,8
"249","61088c529cff73b187d19e6d","polite","calibrator_conc_feedback","Concrete","CV",1742562702640,"abstract",1097,"concrete","abstract","concrete;abstract","A",7.00033446027523,9
"250","61088c529cff73b187d19e6d","kick","calibrator_conc_feedback","Concrete","CV",1742562709569,"concrete",4169,"concrete","abstract","concrete;abstract","A",8.3354314778808,10
"251","61088c529cff73b187d19e6d","gas","calibrator_conc_no_feedback","Concrete","CV",1742562713482,"concrete",1147,"A","concrete;abstract","","A",7.04490511712937,11
"252","61088c529cff73b187d19e6d","insecure","calibrator_conc_no_feedback","Concrete","CV",1742562715666,"abstract",1425,"A","concrete;abstract","","A",7.26192709270275,12
"253","61088c529cff73b187d19e6d","theory","calibrator_conc_no_feedback","Concrete","CV",1742562717400,"abstract",974,"A","concrete;abstract","","A",6.88141130364254,13
"254","61088c529cff73b187d19e6d","grasshopper","calibrator_conc_no_feedback","Concrete","CV",1742562719052,"concrete",895,"A","concrete;abstract","","A",6.79682371827486,14
"255","61088c529cff73b187d19e6d","kick","calibrator_conc_no_feedback","Concrete","CV",1742562720939,"concrete",1130,"A","concrete;abstract","","A",7.02997291170639,15
"256","61088c529cff73b187d19e6d","polite","calibrator_conc_no_feedback","Concrete","CV",1742562722541,"abstract",843,"A","concrete;abstract","","A",6.73696695800186,16
"257","61088c529cff73b187d19e6d","sugar","calibrator_conc_no_feedback","Concrete","CV",1742562724068,"concrete",768,"A","concrete;abstract","","A",6.64378973314767,17
"258","61088c529cff73b187d19e6d","whistle","calibrator_conc_no_feedback","Concrete","CV",1742562725768,"concrete",943,"A","concrete;abstract","","A",6.84906628263346,18
"259","61088c529cff73b187d19e6d","marriage","calibrator_conc_no_feedback","Concrete","CV",1742562727494,"abstract",969,"A","concrete;abstract","","A",6.87626461189077,19
"260","61088c529cff73b187d19e6d","shirt","calibrator_conc_no_feedback","Concrete","CV",1742562728914,"concrete",663,"A","concrete;abstract","","A",6.49677499018586,20
"261","61088c529cff73b187d19e6d","invader","calibrator_val_feedback","Valence","CV",1742562957534,"negative",2710,"positive","negative","positive;negative","A",7.90470391387375,21
"262","61088c529cff73b187d19e6d","insecure","calibrator_val_feedback","Valence","CV",1742562961249,"negative",957,"positive","negative","positive;negative","A",6.86380339145295,22
"263","61088c529cff73b187d19e6d","kitten","calibrator_val_feedback","Valence","CV",1742562964918,"positive",906,"positive","negative","positive;negative","A",6.80903930604298,23
"264","61088c529cff73b187d19e6d","grin","calibrator_val_feedback","Valence","CV",1742562969014,"positive",1334,"positive","negative","positive;negative","A",7.19593722647557,24
"265","61088c529cff73b187d19e6d","industry","calibrator_val_feedback","Valence","CV",1742562974468,"positive",2691,"positive","negative","positive;negative","A",7.89766815072691,25
"266","61088c529cff73b187d19e6d","icebox","calibrator_val_feedback","Valence","CV",1742562980001,"negative",2772,"positive","negative","positive;negative","A",7.92732436030979,26
"267","61088c529cff73b187d19e6d","jail","calibrator_val_feedback","Valence","CV",1742562983725,"negative",964,"positive","negative","positive;negative","A",6.87109129461055,27
"268","61088c529cff73b187d19e6d","free","calibrator_val_feedback","Valence","CV",1742562987366,"positive",883,"positive","negative","positive;negative","A",6.78332520060396,28
"269","61088c529cff73b187d19e6d","hat","calibrator_val_feedback","Valence","CV",1742562991804,"positive",1666,"positive","negative","positive;negative","A",7.41818082272679,29
"270","61088c529cff73b187d19e6d","joke","calibrator_val_feedback","Valence","CV",1742562995503,"positive",945,"positive","negative","positive;negative","A",6.85118492749374,30
"271","61088c529cff73b187d19e6d","hat","calibrator_val_no_feedback","Valence","CV",1742562999972,"positive",1708,"A","positive;negative","","A",7.44307837434852,31
"272","61088c529cff73b187d19e6d","joke","calibrator_val_no_feedback","Valence","CV",1742563002125,"positive",1396,"A","positive;negative","","A",7.24136628332232,32
"273","61088c529cff73b187d19e6d","icebox","calibrator_val_no_feedback","Valence","CV",1742563004325,"negative",1444,"A","positive;negative","","A",7.27517231945277,33
"274","61088c529cff73b187d19e6d","grin","calibrator_val_no_feedback","Valence","CV",1742563005959,"positive",876,"A","positive;negative","","A",6.77536609093639,34
"275","61088c529cff73b187d19e6d","industry","calibrator_val_no_feedback","Valence","CV",1742563007701,"positive",986,"A","positive;negative","","A",6.89365635460264,35
"276","61088c529cff73b187d19e6d","invader","calibrator_val_no_feedback","Valence","CV",1742563009310,"negative",852,"A","positive;negative","","A",6.74758652682932,36
"277","61088c529cff73b187d19e6d","jail","calibrator_val_no_feedback","Valence","CV",1742563010921,"negative",853,"A","positive;negative","","A",6.74875954749168,37
"278","61088c529cff73b187d19e6d","insecure","calibrator_val_no_feedback","Valence","CV",1742563012377,"negative",698,"A","positive;negative","","A",6.54821910276237,38
"279","61088c529cff73b187d19e6d","kitten","calibrator_val_no_feedback","Valence","CV",1742563013751,"positive",617,"A","positive;negative","","A",6.42486902390539,39
"280","61088c529cff73b187d19e6d","free","calibrator_val_no_feedback","Valence","CV",1742563015377,"positive",871,"A","positive;negative","","A",6.7696419768525,40
"281","5c10724111fe9a00013cd815","marriage","calibrator_conc_feedback","Concrete","CV",1732206758586,"abstract",2651,"abstract","concrete","abstract;concrete","A",7.88269220628903,1
"282","5c10724111fe9a00013cd815","grasshopper","calibrator_conc_feedback","Concrete","CV",1732206762801,"concrete",2856,"abstract","concrete","abstract;concrete","A",7.95717732345947,2
"283","5c10724111fe9a00013cd815","polite","calibrator_conc_feedback","Concrete","CV",1732206768895,"abstract",3321,"abstract","concrete","abstract;concrete","A",8.10802122137675,3
"284","5c10724111fe9a00013cd815","sugar","calibrator_conc_feedback","Concrete","CV",1732206773414,"concrete",1746,"abstract","concrete","abstract;concrete","A",7.46508273639955,4
"285","5c10724111fe9a00013cd815","gas","calibrator_conc_feedback","Concrete","CV",1732206778751,"concrete",2560,"abstract","concrete","abstract;concrete","A",7.84776253747361,5
"286","5c10724111fe9a00013cd815","insecure","calibrator_conc_feedback","Concrete","CV",1732206782929,"abstract",1402,"abstract","concrete","abstract;concrete","A",7.24565506759454,6
"287","5c10724111fe9a00013cd815","whistle","calibrator_conc_feedback","Concrete","CV",1732206787303,"concrete",1598,"abstract","concrete","abstract;concrete","A",7.37650812632622,7
"288","5c10724111fe9a00013cd815","kick","calibrator_conc_feedback","Concrete","CV",1732206792762,"concrete",2682,"abstract","concrete","abstract;concrete","A",7.89431806384162,8
"289","5c10724111fe9a00013cd815","theory","calibrator_conc_feedback","Concrete","CV",1732206797912,"abstract",2374,"abstract","concrete","abstract;concrete","A",7.77233157516961,9
"290","5c10724111fe9a00013cd815","shirt","calibrator_conc_feedback","Concrete","CV",1732206801787,"concrete",1104,"abstract","concrete","abstract;concrete","A",7.00669522683704,10
"291","5c10724111fe9a00013cd815","grasshopper","calibrator_conc_no_feedback","Concrete","CV",1732206806322,"concrete",1759,"A","abstract;concrete","","A",7.47250074473756,11
"292","5c10724111fe9a00013cd815","marriage","calibrator_conc_no_feedback","Concrete","CV",1732206809007,"abstract",1913,"A","abstract;concrete","","A",7.55642796944025,12
"293","5c10724111fe9a00013cd815","sugar","calibrator_conc_no_feedback","Concrete","CV",1732206811541,"concrete",1768,"A","abstract;concrete","","A",7.47760424319759,13
"294","5c10724111fe9a00013cd815","insecure","calibrator_conc_no_feedback","Concrete","CV",1732206813347,"abstract",1040,"A","abstract;concrete","","A",6.94697599213542,14
"295","5c10724111fe9a00013cd815","polite","calibrator_conc_no_feedback","Concrete","CV",1732206815517,"abstract",1399,"A","abstract;concrete","","A",7.24351297466548,15
"296","5c10724111fe9a00013cd815","gas","calibrator_conc_no_feedback","Concrete","CV",1732206817179,"concrete",900,"A","abstract;concrete","","A",6.80239476332431,16
"297","5c10724111fe9a00013cd815","kick","calibrator_conc_no_feedback","Concrete","CV",1732206819342,"concrete",1391,"A","abstract;concrete","","A",7.23777819192344,17
"298","5c10724111fe9a00013cd815","theory","calibrator_conc_no_feedback","Concrete","CV",1732206820966,"abstract",856,"A","abstract;concrete","","A",6.75227037614174,18
"299","5c10724111fe9a00013cd815","shirt","calibrator_conc_no_feedback","Concrete","CV",1732206823292,"concrete",1565,"A","abstract;concrete","","A",7.35564110297425,19
"300","5c10724111fe9a00013cd815","whistle","calibrator_conc_no_feedback","Concrete","CV",1732206825237,"concrete",1177,"A","abstract;concrete","","A",7.07072410726028,20
"301","5c10724111fe9a00013cd815","kitten","calibrator_val_feedback","Valence","CV",1732207129326,"positive",1336,"negative","positive","negative;positive","A",7.19743535409659,21
"302","5c10724111fe9a00013cd815","joke","calibrator_val_feedback","Valence","CV",1732207133856,"positive",2274,"negative","positive","negative;positive","A",7.72929567431048,22
"303","5c10724111fe9a00013cd815","hat","calibrator_val_feedback","Valence","CV",1732207137624,"positive",1498,"negative","positive","negative;positive","A",7.31188616407716,23
"304","5c10724111fe9a00013cd815","jail","calibrator_val_feedback","Valence","CV",1732207141846,"positive",2110,"negative","positive","negative;positive","A",7.65444322647011,24
"305","5c10724111fe9a00013cd815","free","calibrator_val_feedback","Valence","CV",1732207145858,"positive",1242,"negative","positive","negative;positive","A",7.12447826249342,25
"306","5c10724111fe9a00013cd815","insecure","calibrator_val_feedback","Valence","CV",1732207150223,"negative",1591,"negative","positive","negative;positive","A",7.37211802833779,26
"307","5c10724111fe9a00013cd815","grin","calibrator_val_feedback","Valence","CV",1732207154326,"positive",1325,"negative","positive","negative;positive","A",7.18916773842032,27
"308","5c10724111fe9a00013cd815","invader","calibrator_val_feedback","Valence","CV",1732207159718,"negative",2620,"negative","positive","negative;positive","A",7.87092959675514,28
"309","5c10724111fe9a00013cd815","icebox","calibrator_val_feedback","Valence","CV",1732207164987,"positive",2497,"negative","positive","negative;positive","A",7.82284529027977,29
"310","5c10724111fe9a00013cd815","industry","calibrator_val_feedback","Valence","CV",1732207170267,"positive",2504,"negative","positive","negative;positive","A",7.82564473221999,30
"311","5c10724111fe9a00013cd815","joke","calibrator_val_no_feedback","Valence","CV",1732207174848,"positive",1802,"A","negative;positive","","A",7.49665243816828,31
"312","5c10724111fe9a00013cd815","grin","calibrator_val_no_feedback","Valence","CV",1732207177067,"positive",1459,"A","negative;positive","","A",7.28550654852279,32
"313","5c10724111fe9a00013cd815","hat","calibrator_val_no_feedback","Valence","CV",1732207178863,"negative",1024,"A","negative;positive","","A",6.93147180559945,33
"314","5c10724111fe9a00013cd815","jail","calibrator_val_no_feedback","Valence","CV",1732207180734,"negative",1103,"A","negative;positive","","A",7.0057890192535,34
"315","5c10724111fe9a00013cd815","kitten","calibrator_val_no_feedback","Valence","CV",1732207182490,"positive",989,"A","negative;positive","","A",6.89669433162271,35
"316","5c10724111fe9a00013cd815","insecure","calibrator_val_no_feedback","Valence","CV",1732207184516,"negative",1256,"A","negative;positive","","A",7.13568734702814,36
"317","5c10724111fe9a00013cd815","icebox","calibrator_val_no_feedback","Valence","CV",1732207186292,"positive",1005,"A","negative;positive","","A",6.91274282049318,37
"318","5c10724111fe9a00013cd815","free","calibrator_val_no_feedback","Valence","CV",1732207188009,"positive",951,"A","negative;positive","","A",6.85751406254539,38
"319","5c10724111fe9a00013cd815","invader","calibrator_val_no_feedback","Valence","CV",1732207190044,"negative",1271,"A","negative;positive","","A",7.14755927118945,39
"320","5c10724111fe9a00013cd815","industry","calibrator_val_no_feedback","Valence","CV",1732207192257,"positive",1445,"A","negative;positive","","A",7.27586460054653,40
"321","5748814f7fd0ec000fb6e5bf","shirt","calibrator_conc_feedback","Concrete","CV",1732215451180,"concrete",1623,"concrete","abstract","concrete;abstract","B",7.39203156751459,1
"322","5748814f7fd0ec000fb6e5bf","insecure","calibrator_conc_feedback","Concrete","CV",1732215454397,"concrete",2290,"concrete","abstract","concrete;abstract","B",7.73630709654828,2
"323","5748814f7fd0ec000fb6e5bf","gas","calibrator_conc_feedback","Concrete","CV",1732215458684,"abstract",1522,"concrete","abstract","concrete;abstract","B",7.32778053842163,3
"324","5748814f7fd0ec000fb6e5bf","sugar","calibrator_conc_feedback","Concrete","CV",1732215464445,"concrete",3000,"concrete","abstract","concrete;abstract","B",8.00636756765025,4
"325","5748814f7fd0ec000fb6e5bf","kick","calibrator_conc_feedback","Concrete","CV",1732215468308,"abstract",1100,"concrete","abstract","concrete;abstract","B",7.00306545878646,5
"326","5748814f7fd0ec000fb6e5bf","whistle","calibrator_conc_feedback","Concrete","CV",1732215472158,"abstract",1083,"concrete","abstract","concrete;abstract","B",6.98749024700099,6
"327","5748814f7fd0ec000fb6e5bf","polite","calibrator_conc_feedback","Concrete","CV",1732215478948,"abstract",4024,"concrete","abstract","concrete;abstract","B",8.30003171177957,7
"328","5748814f7fd0ec000fb6e5bf","grasshopper","calibrator_conc_feedback","Concrete","CV",1732215482809,"concrete",1098,"concrete","abstract","concrete;abstract","B",7.00124562206948,8
"329","5748814f7fd0ec000fb6e5bf","marriage","calibrator_conc_feedback","Concrete","CV",1732215487322,"concrete",1749,"concrete","abstract","concrete;abstract","B",7.4667994750186,9
"330","5748814f7fd0ec000fb6e5bf","theory","calibrator_conc_feedback","Concrete","CV",1732215491133,"abstract",1044,"concrete","abstract","concrete;abstract","B",6.95081476844258,10
"331","5748814f7fd0ec000fb6e5bf","insecure","calibrator_conc_no_feedback","Concrete","CV",1732215494728,"abstract",832,"B","concrete;abstract","","B",6.72383244082121,11
"332","5748814f7fd0ec000fb6e5bf","grasshopper","calibrator_conc_no_feedback","Concrete","CV",1732215496156,"concrete",670,"B","concrete;abstract","","B",6.50727771238501,12
"333","5748814f7fd0ec000fb6e5bf","kick","calibrator_conc_no_feedback","Concrete","CV",1732215498471,"abstract",1553,"B","concrete;abstract","","B",7.34794382314869,13
"334","5748814f7fd0ec000fb6e5bf","polite","calibrator_conc_no_feedback","Concrete","CV",1732215501065,"abstract",1831,"B","concrete;abstract","","B",7.51261754467451,14
"335","5748814f7fd0ec000fb6e5bf","shirt","calibrator_conc_no_feedback","Concrete","CV",1732215502625,"concrete",799,"B","concrete;abstract","","B",6.68336094576627,15
"336","5748814f7fd0ec000fb6e5bf","theory","calibrator_conc_no_feedback","Concrete","CV",1732215505321,"abstract",1934,"B","concrete;abstract","","B",7.56734567601324,16
"337","5748814f7fd0ec000fb6e5bf","marriage","calibrator_conc_no_feedback","Concrete","CV",1732215506981,"concrete",903,"B","concrete;abstract","","B",6.80572255341699,17
"338","5748814f7fd0ec000fb6e5bf","whistle","calibrator_conc_no_feedback","Concrete","CV",1732215508711,"abstract",969,"B","concrete;abstract","","B",6.87626461189077,18
"339","5748814f7fd0ec000fb6e5bf","sugar","calibrator_conc_no_feedback","Concrete","CV",1732215510230,"concrete",756,"B","concrete;abstract","","B",6.62804137617953,19
"340","5748814f7fd0ec000fb6e5bf","gas","calibrator_conc_no_feedback","Concrete","CV",1732215512939,"concrete",1949,"B","concrete;abstract","","B",7.57507169950756,20
"341","5748814f7fd0ec000fb6e5bf","free","calibrator_val_feedback","Valence","CV",1732216418475,"positive",895,"positive","negative","positive;negative","B",6.79682371827486,21
"342","5748814f7fd0ec000fb6e5bf","hat","calibrator_val_feedback","Valence","CV",1732216423392,"positive",2153,"positive","negative","positive;negative","B",7.67461749736436,22
"343","5748814f7fd0ec000fb6e5bf","grin","calibrator_val_feedback","Valence","CV",1732216426920,"positive",764,"positive","negative","positive;negative","B",6.63856778916652,23
"344","5748814f7fd0ec000fb6e5bf","kitten","calibrator_val_feedback","Valence","CV",1732216430397,"positive",715,"positive","negative","positive;negative","B",6.57228254269401,24
"345","5748814f7fd0ec000fb6e5bf","jail","calibrator_val_feedback","Valence","CV",1732216434450,"negative",1293,"positive","negative","positive;negative","B",7.16472037877186,25
"346","5748814f7fd0ec000fb6e5bf","icebox","calibrator_val_feedback","Valence","CV",1732216439129,"positive",1915,"positive","negative","positive;negative","B",7.55747290161475,26
"347","5748814f7fd0ec000fb6e5bf","invader","calibrator_val_feedback","Valence","CV",1732216443142,"negative",1249,"positive","negative","positive;negative","B",7.13009851012558,27
"348","5748814f7fd0ec000fb6e5bf","joke","calibrator_val_feedback","Valence","CV",1732216447200,"positive",1300,"positive","negative","positive;negative","B",7.17011954344963,28
"349","5748814f7fd0ec000fb6e5bf","insecure","calibrator_val_feedback","Valence","CV",1732216451052,"negative",1085,"positive","negative","positive;negative","B",6.98933526597456,29
"350","5748814f7fd0ec000fb6e5bf","industry","calibrator_val_feedback","Valence","CV",1732216455398,"positive",1583,"positive","negative","positive;negative","B",7.36707705988101,30
"351","5748814f7fd0ec000fb6e5bf","free","calibrator_val_no_feedback","Valence","CV",1732216459069,"positive",907,"B","positive;negative","","B",6.81014245011514,31
"352","5748814f7fd0ec000fb6e5bf","icebox","calibrator_val_no_feedback","Valence","CV",1732216460775,"positive",946,"B","positive;negative","","B",6.85224256905188,32
"353","5748814f7fd0ec000fb6e5bf","jail","calibrator_val_no_feedback","Valence","CV",1732216462826,"negative",1290,"B","positive;negative","","B",7.16239749735572,33
"354","5748814f7fd0ec000fb6e5bf","hat","calibrator_val_no_feedback","Valence","CV",1732216464294,"positive",708,"B","positive;negative","","B",6.56244409369372,34
"355","5748814f7fd0ec000fb6e5bf","insecure","calibrator_val_no_feedback","Valence","CV",1732216465658,"negative",607,"B","positive;negative","","B",6.4085287910595,35
"356","5748814f7fd0ec000fb6e5bf","invader","calibrator_val_no_feedback","Valence","CV",1732216467020,"negative",602,"B","positive;negative","","B",6.40025744530882,36
"357","5748814f7fd0ec000fb6e5bf","grin","calibrator_val_no_feedback","Valence","CV",1732216468580,"positive",803,"B","positive;negative","","B",6.68835471394676,37
"358","5748814f7fd0ec000fb6e5bf","kitten","calibrator_val_no_feedback","Valence","CV",1732216469976,"positive",639,"B","positive;negative","","B",6.45990445437753,38
"359","5748814f7fd0ec000fb6e5bf","joke","calibrator_val_no_feedback","Valence","CV",1732216471561,"positive",824,"B","positive;negative","","B",6.71417052990947,39
"360","5748814f7fd0ec000fb6e5bf","industry","calibrator_val_no_feedback","Valence","CV",1732216473233,"positive",911,"B","positive;negative","","B",6.81454289725996,40
"361","60fc5d49ff20168d794fe083","marriage","calibrator_conc_feedback","Concrete","CV",1732205369797,"concrete",1629,"abstract","concrete","abstract;concrete","A",7.39572160860205,1
"362","60fc5d49ff20168d794fe083","theory","calibrator_conc_feedback","Concrete","CV",1732205372467,"abstract",1511,"abstract","concrete","abstract;concrete","A",7.32052696227274,2
"363","60fc5d49ff20168d794fe083","polite","calibrator_conc_feedback","Concrete","CV",1732205377745,"abstract",2520,"abstract","concrete","abstract;concrete","A",7.83201418050547,3
"364","60fc5d49ff20168d794fe083","gas","calibrator_conc_feedback","Concrete","CV",1732205381781,"concrete",1275,"abstract","concrete","abstract;concrete","A",7.15070145759253,4
"365","60fc5d49ff20168d794fe083","shirt","calibrator_conc_feedback","Concrete","CV",1732205385571,"concrete",1030,"abstract","concrete","abstract;concrete","A",6.93731408122368,5
"366","60fc5d49ff20168d794fe083","grasshopper","calibrator_conc_feedback","Concrete","CV",1732205389558,"concrete",1221,"abstract","concrete","abstract;concrete","A",7.1074254741107,6
"367","60fc5d49ff20168d794fe083","sugar","calibrator_conc_feedback","Concrete","CV",1732205393393,"concrete",1070,"abstract","concrete","abstract;concrete","A",6.97541392745595,7
"368","60fc5d49ff20168d794fe083","insecure","calibrator_conc_feedback","Concrete","CV",1732205397310,"abstract",1156,"abstract","concrete","abstract;concrete","A",7.05272104923232,8
"369","60fc5d49ff20168d794fe083","kick","calibrator_conc_feedback","Concrete","CV",1732205400950,"concrete",881,"abstract","concrete","abstract;concrete","A",6.78105762593618,9
"370","60fc5d49ff20168d794fe083","whistle","calibrator_conc_feedback","Concrete","CV",1732205404672,"concrete",962,"abstract","concrete","abstract;concrete","A",6.86901445066571,10
"371","60fc5d49ff20168d794fe083","kick","calibrator_conc_no_feedback","Concrete","CV",1732205408333,"concrete",905,"A","abstract;concrete","","A",6.80793494369993,11
"372","60fc5d49ff20168d794fe083","sugar","calibrator_conc_no_feedback","Concrete","CV",1732205409784,"concrete",695,"A","abstract;concrete","","A",6.54391184556479,12
"373","60fc5d49ff20168d794fe083","grasshopper","calibrator_conc_no_feedback","Concrete","CV",1732205411128,"concrete",589,"A","abstract;concrete","","A",6.37842618365159,13
"374","60fc5d49ff20168d794fe083","marriage","calibrator_conc_no_feedback","Concrete","CV",1732205412472,"concrete",588,"A","abstract;concrete","","A",6.37672694789863,14
"375","60fc5d49ff20168d794fe083","shirt","calibrator_conc_no_feedback","Concrete","CV",1732205413789,"concrete",559,"A","abstract;concrete","","A",6.3261494731551,15
"376","60fc5d49ff20168d794fe083","insecure","calibrator_conc_no_feedback","Concrete","CV",1732205415347,"abstract",804,"A","abstract;concrete","","A",6.68959926917897,16
"377","60fc5d49ff20168d794fe083","polite","calibrator_conc_no_feedback","Concrete","CV",1732205416834,"abstract",730,"A","abstract;concrete","","A",6.59304453414244,17
"378","60fc5d49ff20168d794fe083","gas","calibrator_conc_no_feedback","Concrete","CV",1732205418458,"concrete",867,"A","abstract;concrete","","A",6.76503897678054,18
"379","60fc5d49ff20168d794fe083","whistle","calibrator_conc_no_feedback","Concrete","CV",1732205419841,"concrete",630,"A","abstract;concrete","","A",6.44571981938558,19
"380","60fc5d49ff20168d794fe083","theory","calibrator_conc_no_feedback","Concrete","CV",1732205421458,"abstract",861,"A","abstract;concrete","","A",6.75809450442773,20
"381","60fc5d49ff20168d794fe083","hat","calibrator_val_feedback","Valence","CV",1732206083012,"positive",1046,"negative","positive","negative;positive","A",6.95272864462487,21
"382","60fc5d49ff20168d794fe083","kitten","calibrator_val_feedback","Valence","CV",1732206086987,"positive",1222,"negative","positive","negative;positive","A",7.10824413973154,22
"383","60fc5d49ff20168d794fe083","invader","calibrator_val_feedback","Valence","CV",1732206090477,"negative",736,"negative","positive","negative;positive","A",6.60123011872888,23
"384","60fc5d49ff20168d794fe083","free","calibrator_val_feedback","Valence","CV",1732206093885,"positive",653,"negative","positive","negative;positive","A",6.48157712927643,24
"385","60fc5d49ff20168d794fe083","icebox","calibrator_val_feedback","Valence","CV",1732206097759,"positive",1121,"negative","positive","negative;positive","A",7.02197642307216,25
"386","60fc5d49ff20168d794fe083","joke","calibrator_val_feedback","Valence","CV",1732206101795,"positive",1278,"negative","positive","negative;positive","A",7.15305163493748,26
"387","60fc5d49ff20168d794fe083","industry","calibrator_val_feedback","Valence","CV",1732206112121,"positive",7570,"negative","positive","negative;positive","A",8.9319483464315,27
"388","60fc5d49ff20168d794fe083","grin","calibrator_val_feedback","Valence","CV",1732206116033,"positive",1151,"negative","positive","negative;positive","A",7.04838640872188,28
"389","60fc5d49ff20168d794fe083","insecure","calibrator_val_feedback","Valence","CV",1732206120024,"negative",1233,"negative","positive","negative;positive","A",7.11720550316434,29
"390","60fc5d49ff20168d794fe083","jail","calibrator_val_feedback","Valence","CV",1732206123874,"negative",1089,"negative","positive","negative;positive","A",6.99301512293296,30
"391","60fc5d49ff20168d794fe083","free","calibrator_val_no_feedback","Valence","CV",1732206127576,"positive",947,"A","negative;positive","","A",6.85329909318608,31
"392","60fc5d49ff20168d794fe083","insecure","calibrator_val_no_feedback","Valence","CV",1732206131919,"negative",3588,"A","negative;positive","","A",8.18535022317869,32
"393","60fc5d49ff20168d794fe083","industry","calibrator_val_no_feedback","Valence","CV",1732206133821,"positive",1149,"A","negative;positive","","A",7.04664727784876,33
"394","60fc5d49ff20168d794fe083","invader","calibrator_val_no_feedback","Valence","CV",1732206135221,"negative",642,"A","negative;positive","","A",6.46458830368996,34
"395","60fc5d49ff20168d794fe083","jail","calibrator_val_no_feedback","Valence","CV",1732206136499,"negative",521,"A","negative;positive","","A",6.25575004175337,35
"396","60fc5d49ff20168d794fe083","grin","calibrator_val_no_feedback","Valence","CV",1732206138170,"positive",913,"A","negative;positive","","A",6.81673588059497,36
"397","60fc5d49ff20168d794fe083","joke","calibrator_val_no_feedback","Valence","CV",1732206140315,"positive",1389,"A","negative;positive","","A",7.23633934275434,37
"398","60fc5d49ff20168d794fe083","hat","calibrator_val_no_feedback","Valence","CV",1732206145348,"positive",4271,"A","negative;positive","","A",8.35960327084147,38
"399","60fc5d49ff20168d794fe083","kitten","calibrator_val_no_feedback","Valence","CV",1732206146694,"positive",589,"A","negative;positive","","A",6.37842618365159,39
"400","60fc5d49ff20168d794fe083","icebox","calibrator_val_no_feedback","Valence","CV",1732206148191,"positive",740,"A","negative;positive","","A",6.60665018619822,40
"401","5cf8318919f4a3001a24221e","industry","calibrator_val_feedback","Valence","VC",1742654257058,"negative",2302,"negative","positive","negative;positive","B",7.74153358928183,1
"402","5cf8318919f4a3001a24221e","free","calibrator_val_feedback","Valence","VC",1742654262133,"positive",2298,"negative","positive","negative;positive","B",7.7397944584087,2
"403","5cf8318919f4a3001a24221e","insecure","calibrator_val_feedback","Valence","VC",1742654265647,"negative",735,"negative","positive","negative;positive","B",6.59987049921284,3
"404","5cf8318919f4a3001a24221e","kitten","calibrator_val_feedback","Valence","VC",1742654269187,"positive",762,"negative","positive","negative;positive","B",6.63594655568665,4
"405","5cf8318919f4a3001a24221e","invader","calibrator_val_feedback","Valence","VC",1742654272787,"negative",816,"negative","positive","negative;positive","B",6.70441435496411,5
"406","5cf8318919f4a3001a24221e","joke","calibrator_val_feedback","Valence","VC",1742654276829,"positive",1265,"negative","positive","negative;positive","B",7.14282740116162,6
"407","5cf8318919f4a3001a24221e","jail","calibrator_val_feedback","Valence","VC",1742654280506,"negative",889,"negative","positive","negative;positive","B",6.7900972355139,7
"408","5cf8318919f4a3001a24221e","grin","calibrator_val_feedback","Valence","VC",1742654283914,"positive",625,"negative","positive","negative;positive","B",6.4377516497364,8
"409","5cf8318919f4a3001a24221e","hat","calibrator_val_feedback","Valence","VC",1742654288159,"positive",1464,"negative","positive","negative;positive","B",7.28892769452126,9
"410","5cf8318919f4a3001a24221e","icebox","calibrator_val_feedback","Valence","VC",1742654292755,"positive",1809,"negative","positive","negative;positive","B",7.50052948539529,10
"411","5cf8318919f4a3001a24221e","kitten","calibrator_val_no_feedback","Valence","VC",1742654296150,"positive",608,"B","negative;positive","","B",6.41017488196617,11
"412","5cf8318919f4a3001a24221e","insecure","calibrator_val_no_feedback","Valence","VC",1742654297685,"negative",765,"B","negative;positive","","B",6.63987583382654,12
"413","5cf8318919f4a3001a24221e","free","calibrator_val_no_feedback","Valence","VC",1742654299077,"positive",617,"B","negative;positive","","B",6.42486902390539,13
"414","5cf8318919f4a3001a24221e","joke","calibrator_val_no_feedback","Valence","VC",1742654300492,"positive",640,"B","negative;positive","","B",6.46146817635372,14
"415","5cf8318919f4a3001a24221e","jail","calibrator_val_no_feedback","Valence","VC",1742654301923,"negative",661,"B","negative;positive","","B",6.49375383985169,15
"416","5cf8318919f4a3001a24221e","industry","calibrator_val_no_feedback","Valence","VC",1742654303380,"negative",679,"B","negative;positive","","B",6.5206211275587,16
"417","5cf8318919f4a3001a24221e","icebox","calibrator_val_no_feedback","Valence","VC",1742654305305,"positive",1160,"B","negative;positive","","B",7.05617528410041,17
"418","5cf8318919f4a3001a24221e","invader","calibrator_val_no_feedback","Valence","VC",1742654306663,"negative",598,"B","negative;positive","","B",6.39359075395063,18
"419","5cf8318919f4a3001a24221e","hat","calibrator_val_no_feedback","Valence","VC",1742654308152,"positive",712,"B","negative;positive","","B",6.56807791141198,19
"420","5cf8318919f4a3001a24221e","grin","calibrator_val_no_feedback","Valence","VC",1742654309456,"positive",539,"B","negative;positive","","B",6.289715570909,20
"421","5cf8318919f4a3001a24221e","shirt","calibrator_conc_feedback","Concrete","VC",1742654665568,"concrete",1741,"abstract","concrete","abstract;concrete","B",7.46221493976819,21
"422","5cf8318919f4a3001a24221e","gas","calibrator_conc_feedback","Concrete","VC",1742654669696,"concrete",1347,"abstract","concrete","abstract;concrete","B",7.20563517641036,22
"423","5cf8318919f4a3001a24221e","insecure","calibrator_conc_feedback","Concrete","VC",1742654673591,"abstract",1124,"abstract","concrete","abstract;concrete","B",7.02464903045364,23
"424","5cf8318919f4a3001a24221e","grasshopper","calibrator_conc_feedback","Concrete","VC",1742654677136,"concrete",768,"abstract","concrete","abstract;concrete","B",6.64378973314767,24
"425","5cf8318919f4a3001a24221e","kick","calibrator_conc_feedback","Concrete","VC",1742654680665,"concrete",755,"abstract","concrete","abstract;concrete","B",6.62671774924902,25
"426","5cf8318919f4a3001a24221e","whistle","calibrator_conc_feedback","Concrete","VC",1742654684253,"concrete",812,"abstract","concrete","abstract;concrete","B",6.69950034016168,26
"427","5cf8318919f4a3001a24221e","polite","calibrator_conc_feedback","Concrete","VC",1742654687942,"abstract",910,"abstract","concrete","abstract;concrete","B",6.8134445995109,27
"428","5cf8318919f4a3001a24221e","sugar","calibrator_conc_feedback","Concrete","VC",1742654691312,"concrete",597,"abstract","concrete","abstract;concrete","B",6.3919171133926,28
"429","5cf8318919f4a3001a24221e","theory","calibrator_conc_feedback","Concrete","VC",1742654695091,"abstract",998,"abstract","concrete","abstract;concrete","B",6.90575327631146,29
"430","5cf8318919f4a3001a24221e","marriage","calibrator_conc_feedback","Concrete","VC",1742654699878,"abstract",2008,"abstract","concrete","abstract;concrete","B",7.60489448081162,30
"431","5cf8318919f4a3001a24221e","marriage","calibrator_conc_no_feedback","Concrete","VC",1742654703270,"abstract",603,"B","abstract;concrete","","B",6.40191719672719,31
"432","5cf8318919f4a3001a24221e","insecure","calibrator_conc_no_feedback","Concrete","VC",1742654705772,"abstract",1738,"B","abstract;concrete","","B",7.46049030582534,32
"433","5cf8318919f4a3001a24221e","whistle","calibrator_conc_no_feedback","Concrete","VC",1742654707344,"concrete",787,"B","abstract;concrete","","B",6.6682282484174,33
"434","5cf8318919f4a3001a24221e","sugar","calibrator_conc_no_feedback","Concrete","VC",1742654709004,"concrete",893,"B","abstract;concrete","","B",6.7945865808765,34
"435","5cf8318919f4a3001a24221e","polite","calibrator_conc_no_feedback","Concrete","VC",1742654710462,"abstract",691,"B","abstract;concrete","","B",6.53813982376767,35
"436","5cf8318919f4a3001a24221e","theory","calibrator_conc_no_feedback","Concrete","VC",1742654711905,"abstract",663,"B","abstract;concrete","","B",6.49677499018586,36
"437","5cf8318919f4a3001a24221e","kick","calibrator_conc_no_feedback","Concrete","VC",1742654713211,"concrete",524,"B","abstract;concrete","","B",6.26149168432104,37
"438","5cf8318919f4a3001a24221e","shirt","calibrator_conc_no_feedback","Concrete","VC",1742654714532,"concrete",547,"B","abstract;concrete","","B",6.30444880242198,38
"439","5cf8318919f4a3001a24221e","grasshopper","calibrator_conc_no_feedback","Concrete","VC",1742654715846,"concrete",534,"B","abstract;concrete","","B",6.2803958389602,39
"440","5cf8318919f4a3001a24221e","gas","calibrator_conc_no_feedback","Concrete","VC",1742654717132,"concrete",505,"B","abstract;concrete","","B",6.22455842927536,40
"441","64a826f6220bf56dca731156","icebox","calibrator_val_feedback","Valence","VC",1742653749894,"positive",1579,"negative","positive","negative;positive","B",7.36454701425564,1
"442","64a826f6220bf56dca731156","kitten","calibrator_val_feedback","Valence","VC",1742653753393,"positive",1042,"negative","positive","negative;positive","B",6.94889722231331,2
"443","64a826f6220bf56dca731156","industry","calibrator_val_feedback","Valence","VC",1742653756871,"negative",2414,"negative","positive","negative;positive","B",7.78904040165748,3
"444","64a826f6220bf56dca731156","jail","calibrator_val_feedback","Valence","VC",1742653760750,"negative",1119,"negative","positive","negative;positive","B",7.02019070831193,4
"445","64a826f6220bf56dca731156","free","calibrator_val_feedback","Valence","VC",1742653764959,"positive",1450,"negative","positive","negative;positive","B",7.27931883541462,5
"446","64a826f6220bf56dca731156","invader","calibrator_val_feedback","Valence","VC",1742653770246,"negative",1112,"negative","positive","negative;positive","B",7.01391547481053,6
"447","64a826f6220bf56dca731156","hat","calibrator_val_feedback","Valence","VC",1742653773062,"positive",1474,"negative","positive","negative;positive","B",7.29573507274928,7
"448","64a826f6220bf56dca731156","grin","calibrator_val_feedback","Valence","VC",1742653777270,"positive",1452,"negative","positive","negative;positive","B",7.28069719538474,8
"449","64a826f6220bf56dca731156","insecure","calibrator_val_feedback","Valence","VC",1742653781399,"negative",1371,"negative","positive","negative;positive","B",7.22329567956231,9
"450","64a826f6220bf56dca731156","joke","calibrator_val_feedback","Valence","VC",1742653785854,"positive",1698,"negative","positive","negative;positive","B",7.43720636687129,10
"451","64a826f6220bf56dca731156","hat","calibrator_val_no_feedback","Valence","VC",1742653789982,"positive",1370,"B","negative;positive","","B",7.22256601882217,11
"452","64a826f6220bf56dca731156","jail","calibrator_val_no_feedback","Valence","VC",1742653791966,"negative",1228,"B","negative;positive","","B",7.11314210870709,12
"453","64a826f6220bf56dca731156","insecure","calibrator_val_no_feedback","Valence","VC",1742653793727,"negative",1006,"B","negative;positive","","B",6.91373735065968,13
"454","64a826f6220bf56dca731156","icebox","calibrator_val_no_feedback","Valence","VC",1742653795710,"positive",1231,"B","negative;positive","","B",7.11558212618445,14
"455","64a826f6220bf56dca731156","kitten","calibrator_val_no_feedback","Valence","VC",1742653797169,"positive",702,"B","negative;positive","","B",6.55393340402581,15
"456","64a826f6220bf56dca731156","free","calibrator_val_no_feedback","Valence","VC",1742653799078,"negative",1151,"B","negative;positive","","B",7.04838640872188,16
"457","64a826f6220bf56dca731156","industry","calibrator_val_no_feedback","Valence","VC",1742653802021,"negative",2190,"B","negative;positive","","B",7.69165682281055,17
"458","64a826f6220bf56dca731156","grin","calibrator_val_no_feedback","Valence","VC",1742653803534,"positive",755,"B","negative;positive","","B",6.62671774924902,18
"459","64a826f6220bf56dca731156","joke","calibrator_val_no_feedback","Valence","VC",1742653804990,"positive",703,"B","negative;positive","","B",6.55535689181067,19
"460","64a826f6220bf56dca731156","invader","calibrator_val_no_feedback","Valence","VC",1742653806582,"negative",833,"B","negative;positive","","B",6.72503364216684,20
"461","64a826f6220bf56dca731156","theory","calibrator_conc_feedback","Concrete","VC",1742654210359,"abstract",1816,"abstract","concrete","abstract;concrete","B",7.50439155916124,21
"462","64a826f6220bf56dca731156","grasshopper","calibrator_conc_feedback","Concrete","VC",1742654212319,"concrete",1139,"abstract","concrete","abstract;concrete","B",7.03790596344718,22
"463","64a826f6220bf56dca731156","shirt","calibrator_conc_feedback","Concrete","VC",1742654216327,"concrete",1253,"abstract","concrete","abstract;concrete","B",7.13329595489607,23
"464","64a826f6220bf56dca731156","kick","calibrator_conc_feedback","Concrete","VC",1742654221974,"abstract",2892,"abstract","concrete","abstract;concrete","B",7.96970358327866,24
"465","64a826f6220bf56dca731156","whistle","calibrator_conc_feedback","Concrete","VC",1742654227072,"abstract",2342,"abstract","concrete","abstract;concrete","B",7.75876054415766,25
"466","64a826f6220bf56dca731156","insecure","calibrator_conc_feedback","Concrete","VC",1742654230967,"abstract",1136,"abstract","concrete","abstract;concrete","B",7.0352685992811,26
"467","64a826f6220bf56dca731156","marriage","calibrator_conc_feedback","Concrete","VC",1742654235862,"concrete",2139,"abstract","concrete","abstract;concrete","B",7.66809370908241,27
"468","64a826f6220bf56dca731156","polite","calibrator_conc_feedback","Concrete","VC",1742654240534,"abstract",1912,"abstract","concrete","abstract;concrete","B",7.55590509361135,28
"469","64a826f6220bf56dca731156","sugar","calibrator_conc_feedback","Concrete","VC",1742654245502,"concrete",2213,"abstract","concrete","abstract;concrete","B",7.70210434005105,29
"470","64a826f6220bf56dca731156","gas","calibrator_conc_feedback","Concrete","VC",1742654250231,"abstract",1970,"abstract","concrete","abstract;concrete","B",7.58578882173203,30
"471","64a826f6220bf56dca731156","shirt","calibrator_conc_no_feedback","Concrete","VC",1742654255255,"concrete",2267,"B","abstract;concrete","","B",7.72621265050753,31
"472","64a826f6220bf56dca731156","gas","calibrator_conc_no_feedback","Concrete","VC",1742654257262,"abstract",1250,"B","abstract;concrete","","B",7.13089883029635,32
"473","64a826f6220bf56dca731156","insecure","calibrator_conc_no_feedback","Concrete","VC",1742654259230,"abstract",1217,"B","abstract;concrete","","B",7.10414409298753,33
"474","64a826f6220bf56dca731156","sugar","calibrator_conc_no_feedback","Concrete","VC",1742654260838,"concrete",852,"B","abstract;concrete","","B",6.74758652682932,34
"475","64a826f6220bf56dca731156","theory","calibrator_conc_no_feedback","Concrete","VC",1742654262527,"abstract",937,"B","abstract;concrete","","B",6.84268328223842,35
"476","64a826f6220bf56dca731156","whistle","calibrator_conc_no_feedback","Concrete","VC",1742654265047,"abstract",1763,"B","abstract;concrete","","B",7.47477218239787,36
"477","64a826f6220bf56dca731156","kick","calibrator_conc_no_feedback","Concrete","VC",1742654266822,"abstract",1022,"B","abstract;concrete","","B",6.92951677076365,37
"478","64a826f6220bf56dca731156","marriage","calibrator_conc_no_feedback","Concrete","VC",1742654268902,"concrete",1324,"B","abstract;concrete","","B",7.18841273649695,38
"479","64a826f6220bf56dca731156","grasshopper","calibrator_conc_no_feedback","Concrete","VC",1742654270424,"concrete",768,"B","abstract;concrete","","B",6.64378973314767,39
"480","64a826f6220bf56dca731156","polite","calibrator_conc_no_feedback","Concrete","VC",1742654272465,"abstract",1284,"B","abstract;concrete","","B",7.15773548424991,40
"481","558ad919fdf99b7c4d36e519","whistle","calibrator_conc_feedback","Concrete","CV",1742646080396,"concrete",2108,"abstract","concrete","abstract;concrete","B",7.65349490966125,1
"482","558ad919fdf99b7c4d36e519","kick","calibrator_conc_feedback","Concrete","CV",1742646085791,"concrete",2634,"abstract","concrete","abstract;concrete","B",7.87625888230323,2
"483","558ad919fdf99b7c4d36e519","gas","calibrator_conc_feedback","Concrete","CV",1742646091467,"concrete",2914,"abstract","concrete","abstract;concrete","B",7.97728198675515,3
"484","558ad919fdf99b7c4d36e519","marriage","calibrator_conc_feedback","Concrete","CV",1742646096020,"abstract",1789,"abstract","concrete","abstract;concrete","B",7.48941208350872,4
"485","558ad919fdf99b7c4d36e519","sugar","calibrator_conc_feedback","Concrete","CV",1742646100864,"concrete",2081,"abstract","concrete","abstract;concrete","B",7.64060382639363,5
"486","558ad919fdf99b7c4d36e519","insecure","calibrator_conc_feedback","Concrete","CV",1742646104853,"abstract",1227,"abstract","concrete","abstract;concrete","B",7.11232744471091,6
"487","558ad919fdf99b7c4d36e519","shirt","calibrator_conc_feedback","Concrete","CV",1742646108964,"concrete",1344,"abstract","concrete","abstract;concrete","B",7.20340552108309,7
"488","558ad919fdf99b7c4d36e519","polite","calibrator_conc_feedback","Concrete","CV",1742646113001,"abstract",1275,"abstract","concrete","abstract;concrete","B",7.15070145759253,8
"489","558ad919fdf99b7c4d36e519","grasshopper","calibrator_conc_feedback","Concrete","CV",1742646116905,"concrete",1137,"abstract","concrete","abstract;concrete","B",7.03614849375054,9
"490","558ad919fdf99b7c4d36e519","theory","calibrator_conc_feedback","Concrete","CV",1742646121844,"abstract",2178,"abstract","concrete","abstract;concrete","B",7.68616230349291,10
"491","558ad919fdf99b7c4d36e519","whistle","calibrator_conc_no_feedback","Concrete","CV",1742646127175,"concrete",2563,"B","abstract;concrete","","B",7.84893372636407,11
"492","558ad919fdf99b7c4d36e519","theory","calibrator_conc_no_feedback","Concrete","CV",1742646129597,"abstract",1662,"B","abstract;concrete","","B",7.41577697541539,12
"493","558ad919fdf99b7c4d36e519","kick","calibrator_conc_no_feedback","Concrete","CV",1742646131424,"concrete",1070,"B","abstract;concrete","","B",6.97541392745595,13
"494","558ad919fdf99b7c4d36e519","marriage","calibrator_conc_no_feedback","Concrete","CV",1742646133006,"abstract",821,"B","abstract;concrete","","B",6.71052310945243,14
"495","558ad919fdf99b7c4d36e519","polite","calibrator_conc_no_feedback","Concrete","CV",1742646134685,"abstract",916,"B","abstract;concrete","","B",6.82001636467413,15
"496","558ad919fdf99b7c4d36e519","sugar","calibrator_conc_no_feedback","Concrete","CV",1742646136080,"concrete",636,"B","abstract;concrete","","B",6.45519856334012,16
"497","558ad919fdf99b7c4d36e519","grasshopper","calibrator_conc_no_feedback","Concrete","CV",1742646137619,"concrete",781,"B","abstract;concrete","","B",6.66057514983969,17
"498","558ad919fdf99b7c4d36e519","insecure","calibrator_conc_no_feedback","Concrete","CV",1742646139136,"abstract",757,"B","abstract;concrete","","B",6.62936325343745,18
"499","558ad919fdf99b7c4d36e519","gas","calibrator_conc_no_feedback","Concrete","CV",1742646140956,"concrete",1058,"B","abstract;concrete","","B",6.96413561241824,19
"500","558ad919fdf99b7c4d36e519","shirt","calibrator_conc_no_feedback","Concrete","CV",1742646142401,"concrete",681,"B","abstract;concrete","","B",6.52356230614951,20
"501","558ad919fdf99b7c4d36e519","free","calibrator_val_feedback","Valence","CV",1742646390084,"positive",3220,"negative","positive","negative;positive","B",8.07713663853845,21
"502","558ad919fdf99b7c4d36e519","joke","calibrator_val_feedback","Valence","CV",1742646394278,"positive",1425,"negative","positive","negative;positive","B",7.26192709270275,22
"503","558ad919fdf99b7c4d36e519","invader","calibrator_val_feedback","Valence","CV",1742646399028,"negative",1990,"negative","positive","negative;positive","B",7.59588991771854,23
"504","558ad919fdf99b7c4d36e519","jail","calibrator_val_feedback","Valence","CV",1742646403986,"negative",1878,"negative","positive","negative;positive","B",7.53796265976821,24
"505","558ad919fdf99b7c4d36e519","insecure","calibrator_val_feedback","Valence","CV",1742646408004,"negative",1569,"negative","positive","negative;positive","B",7.35819375273303,25
"506","558ad919fdf99b7c4d36e519","kitten","calibrator_val_feedback","Valence","CV",1742646413542,"positive",2773,"negative","positive","negative;positive","B",7.92768504561578,26
"507","558ad919fdf99b7c4d36e519","grin","calibrator_val_feedback","Valence","CV",1742646418622,"positive",2315,"negative","positive","negative;positive","B",7.74716496652033,27
"508","558ad919fdf99b7c4d36e519","hat","calibrator_val_feedback","Valence","CV",1742646424646,"positive",3254,"negative","positive","negative;positive","B",8.08764028777898,28
"509","558ad919fdf99b7c4d36e519","icebox","calibrator_val_feedback","Valence","CV",1742646428932,"positive",1522,"negative","positive","negative;positive","B",7.32778053842163,29
"510","558ad919fdf99b7c4d36e519","industry","calibrator_val_feedback","Valence","CV",1742646432936,"positive",1242,"negative","positive","negative;positive","B",7.12447826249342,30
"511","558ad919fdf99b7c4d36e519","kitten","calibrator_val_no_feedback","Valence","CV",1742646436628,"positive",929,"B","negative;positive","","B",6.83410873881384,31
"512","558ad919fdf99b7c4d36e519","invader","calibrator_val_no_feedback","Valence","CV",1742646438453,"negative",1064,"B","negative;positive","","B",6.96979066990159,32
"513","558ad919fdf99b7c4d36e519","jail","calibrator_val_no_feedback","Valence","CV",1742646440211,"negative",1001,"B","negative;positive","","B",6.90875477931522,33
"514","558ad919fdf99b7c4d36e519","icebox","calibrator_val_no_feedback","Valence","CV",1742646442326,"positive",1358,"B","negative;positive","","B",7.21376830811864,34
"515","558ad919fdf99b7c4d36e519","insecure","calibrator_val_no_feedback","Valence","CV",1742646444383,"negative",1294,"B","negative;positive","","B",7.16549347506085,35
"516","558ad919fdf99b7c4d36e519","grin","calibrator_val_no_feedback","Valence","CV",1742646445937,"positive",794,"B","negative;positive","","B",6.67708346124714,36
"517","558ad919fdf99b7c4d36e519","free","calibrator_val_no_feedback","Valence","CV",1742646447720,"positive",1018,"B","negative;positive","","B",6.92559519711047,37
"518","558ad919fdf99b7c4d36e519","hat","calibrator_val_no_feedback","Valence","CV",1742646449280,"positive",800,"B","negative;positive","","B",6.68461172766793,38
"519","558ad919fdf99b7c4d36e519","industry","calibrator_val_no_feedback","Valence","CV",1742646450827,"positive",785,"B","negative;positive","","B",6.66568371778241,39
"520","558ad919fdf99b7c4d36e519","joke","calibrator_val_no_feedback","Valence","CV",1742646452216,"positive",636,"B","negative;positive","","B",6.45519856334012,40
"521","60cab9dd5a974695b32eb2ab","hat","calibrator_val_feedback","Valence","VC",1742662246076,"positive",2413,"positive","negative","positive;negative","A",7.78862606562503,1
"522","60cab9dd5a974695b32eb2ab","industry","calibrator_val_feedback","Valence","VC",1742662250149,"positive",1316,"positive","negative","positive;negative","A",7.18235211188526,2
"523","60cab9dd5a974695b32eb2ab","insecure","calibrator_val_feedback","Valence","VC",1742662253811,"negative",891,"positive","negative","positive;negative","A",6.79234442747081,3
"524","60cab9dd5a974695b32eb2ab","jail","calibrator_val_feedback","Valence","VC",1742662257506,"negative",924,"positive","negative","positive;negative","A",6.82871207164168,4
"525","60cab9dd5a974695b32eb2ab","invader","calibrator_val_feedback","Valence","VC",1742662261425,"negative",1158,"positive","negative","positive;negative","A",7.05444965813294,5
"526","60cab9dd5a974695b32eb2ab","joke","calibrator_val_feedback","Valence","VC",1742662265419,"positive",1231,"positive","negative","positive;negative","A",7.11558212618445,6
"527","60cab9dd5a974695b32eb2ab","free","calibrator_val_feedback","Valence","VC",1742662269618,"positive",1431,"positive","negative","positive;negative","A",7.26612877955645,7
"528","60cab9dd5a974695b32eb2ab","icebox","calibrator_val_feedback","Valence","VC",1742662274162,"positive",1770,"positive","negative","positive;negative","A",7.47873482556787,8
"529","60cab9dd5a974695b32eb2ab","kitten","calibrator_val_feedback","Valence","VC",1742662277794,"positive",868,"positive","negative","positive;negative","A",6.76619171466035,9
"530","60cab9dd5a974695b32eb2ab","grin","calibrator_val_feedback","Valence","VC",1742662282441,"positive",1882,"positive","negative","positive;negative","A",7.54009032014532,10
"531","60cab9dd5a974695b32eb2ab","industry","calibrator_val_no_feedback","Valence","VC",1742662286400,"positive",1199,"A","positive;negative","","A",7.08924315502751,11
"532","60cab9dd5a974695b32eb2ab","invader","calibrator_val_no_feedback","Valence","VC",1742662288878,"negative",1719,"A","positive;negative","","A",7.44949800538285,12
"533","60cab9dd5a974695b32eb2ab","insecure","calibrator_val_no_feedback","Valence","VC",1742662290703,"negative",1058,"A","positive;negative","","A",6.96413561241824,13
"534","60cab9dd5a974695b32eb2ab","joke","calibrator_val_no_feedback","Valence","VC",1742662292757,"positive",1290,"A","positive;negative","","A",7.16239749735572,14
"535","60cab9dd5a974695b32eb2ab","icebox","calibrator_val_no_feedback","Valence","VC",1742662294428,"positive",910,"A","positive;negative","","A",6.8134445995109,15
"536","60cab9dd5a974695b32eb2ab","free","calibrator_val_no_feedback","Valence","VC",1742662295883,"positive",687,"A","positive;negative","","A",6.53233429222235,16
"537","60cab9dd5a974695b32eb2ab","jail","calibrator_val_no_feedback","Valence","VC",1742662297487,"negative",850,"A","positive;negative","","A",6.74523634948436,17
"538","60cab9dd5a974695b32eb2ab","hat","calibrator_val_no_feedback","Valence","VC",1742662299171,"positive",907,"A","positive;negative","","A",6.81014245011514,18
"539","60cab9dd5a974695b32eb2ab","kitten","calibrator_val_no_feedback","Valence","VC",1742662300776,"positive",833,"A","positive;negative","","A",6.72503364216684,19
"540","60cab9dd5a974695b32eb2ab","grin","calibrator_val_no_feedback","Valence","VC",1742662302332,"positive",789,"A","positive;negative","","A",6.67076632084587,20
"541","60cab9dd5a974695b32eb2ab","polite","calibrator_conc_feedback","Concrete","VC",1742662591159,"abstract",2110,"concrete","abstract","concrete;abstract","A",7.65444322647011,21
"542","60cab9dd5a974695b32eb2ab","gas","calibrator_conc_feedback","Concrete","VC",1742662593263,"concrete",1259,"concrete","abstract","concrete;abstract","A",7.13807303404435,22
"543","60cab9dd5a974695b32eb2ab","grasshopper","calibrator_conc_feedback","Concrete","VC",1742662597388,"concrete",1364,"concrete","abstract","concrete;abstract","A",7.21817683840341,23
"544","60cab9dd5a974695b32eb2ab","insecure","calibrator_conc_feedback","Concrete","VC",1742662601285,"abstract",1137,"concrete","abstract","concrete;abstract","A",7.03614849375054,24
"545","60cab9dd5a974695b32eb2ab","kick","calibrator_conc_feedback","Concrete","VC",1742662605768,"concrete",1719,"concrete","abstract","concrete;abstract","A",7.44949800538285,25
"546","60cab9dd5a974695b32eb2ab","whistle","calibrator_conc_feedback","Concrete","VC",1742662609215,"concrete",688,"concrete","abstract","concrete;abstract","A",6.53378883793334,26
"547","60cab9dd5a974695b32eb2ab","theory","calibrator_conc_feedback","Concrete","VC",1742662612811,"abstract",841,"concrete","abstract","concrete;abstract","A",6.73459165997295,27
"548","60cab9dd5a974695b32eb2ab","sugar","calibrator_conc_feedback","Concrete","VC",1742662616383,"concrete",818,"concrete","abstract","concrete;abstract","A",6.70686233660275,28
"549","60cab9dd5a974695b32eb2ab","marriage","calibrator_conc_feedback","Concrete","VC",1742662620920,"concrete",1777,"concrete","abstract","concrete;abstract","A",7.48268182815465,29
"550","60cab9dd5a974695b32eb2ab","shirt","calibrator_conc_feedback","Concrete","VC",1742662624437,"concrete",760,"concrete","abstract","concrete;abstract","A",6.63331843328038,30
"551","60cab9dd5a974695b32eb2ab","marriage","calibrator_conc_no_feedback","Concrete","VC",1742662628593,"concrete",1396,"A","concrete;abstract","","A",7.24136628332232,31
"552","60cab9dd5a974695b32eb2ab","kick","calibrator_conc_no_feedback","Concrete","VC",1742662630693,"concrete",1343,"A","concrete;abstract","","A",7.20266119652324,32
"553","60cab9dd5a974695b32eb2ab","shirt","calibrator_conc_no_feedback","Concrete","VC",1742662632158,"concrete",706,"A","concrete;abstract","","A",6.55961523749324,33
"554","60cab9dd5a974695b32eb2ab","gas","calibrator_conc_no_feedback","Concrete","VC",1742662633573,"concrete",660,"A","concrete;abstract","","A",6.49223983502047,34
"555","60cab9dd5a974695b32eb2ab","insecure","calibrator_conc_no_feedback","Concrete","VC",1742662634924,"abstract",600,"A","concrete;abstract","","A",6.39692965521615,35
"556","60cab9dd5a974695b32eb2ab","polite","calibrator_conc_no_feedback","Concrete","VC",1742662636435,"abstract",759,"A","concrete;abstract","","A",6.63200177739563,36
"557","60cab9dd5a974695b32eb2ab","theory","calibrator_conc_no_feedback","Concrete","VC",1742662637784,"abstract",596,"A","concrete;abstract","","A",6.39024066706535,37
"558","60cab9dd5a974695b32eb2ab","sugar","calibrator_conc_no_feedback","Concrete","VC",1742662639182,"concrete",643,"A","concrete;abstract","","A",6.46614472423762,38
"559","60cab9dd5a974695b32eb2ab","whistle","calibrator_conc_no_feedback","Concrete","VC",1742662640963,"concrete",1029,"A","concrete;abstract","","A",6.93634273583405,39
"560","60cab9dd5a974695b32eb2ab","grasshopper","calibrator_conc_no_feedback","Concrete","VC",1742662642405,"concrete",684,"A","concrete;abstract","","A",6.52795791762255,40
"561","5ca4b562613eb10015b6e5f8","grasshopper","calibrator_conc_feedback","Concrete","CV",1732203446320,"abstract",1327,"abstract","concrete","abstract;concrete","A",7.19067603433221,1
"562","5ca4b562613eb10015b6e5f8","whistle","calibrator_conc_feedback","Concrete","CV",1732203451842,"concrete",2748,"abstract","concrete","abstract;concrete","A",7.91862865334224,2
"563","5ca4b562613eb10015b6e5f8","gas","calibrator_conc_feedback","Concrete","CV",1732203456368,"concrete",1755,"abstract","concrete","abstract;concrete","A",7.47022413589997,3
"564","5ca4b562613eb10015b6e5f8","shirt","calibrator_conc_feedback","Concrete","CV",1732203460162,"concrete",1030,"abstract","concrete","abstract;concrete","A",6.93731408122368,4
"565","5ca4b562613eb10015b6e5f8","theory","calibrator_conc_feedback","Concrete","CV",1732203464286,"abstract",1345,"abstract","concrete","abstract;concrete","A",7.20414929203594,5
"566","5ca4b562613eb10015b6e5f8","insecure","calibrator_conc_feedback","Concrete","CV",1732203468209,"abstract",1152,"abstract","concrete","abstract;concrete","A",7.04925484125584,6
"567","5ca4b562613eb10015b6e5f8","polite","calibrator_conc_feedback","Concrete","CV",1732203472814,"abstract",1826,"abstract","concrete","abstract;concrete","A",7.50988306115491,7
"568","5ca4b562613eb10015b6e5f8","marriage","calibrator_conc_feedback","Concrete","CV",1732203477507,"concrete",1925,"abstract","concrete","abstract;concrete","A",7.56268124672188,8
"569","5ca4b562613eb10015b6e5f8","kick","calibrator_conc_feedback","Concrete","CV",1732203481967,"concrete",1689,"abstract","concrete","abstract;concrete","A",7.4318919168078,9
"570","5ca4b562613eb10015b6e5f8","sugar","calibrator_conc_feedback","Concrete","CV",1732203486337,"concrete",1589,"abstract","concrete","abstract;concrete","A",7.37086016653672,10
"571","5ca4b562613eb10015b6e5f8","shirt","calibrator_conc_no_feedback","Concrete","CV",1732203490194,"concrete",1083,"A","abstract;concrete","","A",6.98749024700099,11
"572","5ca4b562613eb10015b6e5f8","insecure","calibrator_conc_no_feedback","Concrete","CV",1732203493842,"abstract",2872,"A","abstract;concrete","","A",7.96276393016811,12
"573","5ca4b562613eb10015b6e5f8","sugar","calibrator_conc_no_feedback","Concrete","CV",1732203495360,"concrete",755,"A","abstract;concrete","","A",6.62671774924902,13
"574","5ca4b562613eb10015b6e5f8","polite","calibrator_conc_no_feedback","Concrete","CV",1732203497037,"abstract",916,"A","abstract;concrete","","A",6.82001636467413,14
"575","5ca4b562613eb10015b6e5f8","gas","calibrator_conc_no_feedback","Concrete","CV",1732203498910,"concrete",1100,"A","abstract;concrete","","A",7.00306545878646,15
"576","5ca4b562613eb10015b6e5f8","marriage","calibrator_conc_no_feedback","Concrete","CV",1732203501259,"concrete",1582,"A","abstract;concrete","","A",7.3664451483276,16
"577","5ca4b562613eb10015b6e5f8","kick","calibrator_conc_no_feedback","Concrete","CV",1732203502877,"concrete",853,"A","abstract;concrete","","A",6.74875954749168,17
