#
# Results on Tue, 18 Feb 2025 17:19:28 GMT
# USER AGENT: Mozilla/5.0 (Macintosh; Intel Mac OS X 10_15_7) AppleWebKit/537.36 (KHTML, like Gecko) Chrome/133.0.0.0 Safari/537.36
# Design number was non-random = 0
#
# Columns below this comment are as follows:
# 1. Results reception time.
# 2. MD5 hash of participant's IP address.
# 3. Controller name.
# 4. Order number of item.
# 5. Inner element number.
# 6. Label.
# 7. Latin Square Group.
# 8. PennElementType.
# 9. PennElementName.
# 10. Parameter.
# 11. Value.
# 12. EventTime.
# 13. Comments.
1739899168,492fb6e6fba0a4ddc683c28bebe415dd,PennController,1,0,welcome,NULL,PennController,0,_Trial_,Start,1739898589376,NULL
1739899168,492fb6e6fba0a4ddc683c28bebe415dd,PennController,1,0,welcome,NULL,PennController,0,_Header_,Start,1739898589376,NULL
1739899168,492fb6e6fba0a4ddc683c28bebe415dd,PennController,1,0,welcome,NULL,PennController,0,_Header_,End,1739898589628,NULL
1739899168,492fb6e6fba0a4ddc683c28bebe415dd,PennController,1,0,welcome,NULL,PennController,0,_Trial_,End,1739898590877,NULL
# 13. ID.
# 14. Comments.
1739899168,492fb6e6fba0a4ddc683c28bebe415dd,PennController,124,0,consent,NULL,PennController,2,_Trial_,Start,1739898590880,57f2da5c6c19420001438d19,NULL
1739899168,492fb6e6fba0a4ddc683c28bebe415dd,PennController,124,0,consent,NULL,PennController,2,_Header_,Start,1739898590880,57f2da5c6c19420001438d19,NULL
1739899168,492fb6e6fba0a4ddc683c28bebe415dd,PennController,124,0,consent,NULL,PennController,2,_Header_,End,1739898591131,57f2da5c6c19420001438d19,NULL
1739899168,492fb6e6fba0a4ddc683c28bebe415dd,PennController,124,0,consent,NULL,TextInput,ID,First,,1739898602834,57f2da5c6c19420001438d19,Meta
1739899168,492fb6e6fba0a4ddc683c28bebe415dd,PennController,124,0,consent,NULL,TextInput,ID,Final,57f2da5c6c19420001438d19,1739898604778,57f2da5c6c19420001438d19,NULL
1739899168,492fb6e6fba0a4ddc683c28bebe415dd,PennController,124,0,consent,NULL,PennController,2,_Trial_,End,1739898604779,57f2da5c6c19420001438d19,NULL
# 13. Comments.
1739899168,492fb6e6fba0a4ddc683c28bebe415dd,PennController,132,0,instructions1_syn,NULL,PennController,10,_Trial_,Start,1739898604780,NULL
1739899168,492fb6e6fba0a4ddc683c28bebe415dd,PennController,132,0,instructions1_syn,NULL,PennController,10,_Header_,Start,1739898604780,NULL
1739899168,492fb6e6fba0a4ddc683c28bebe415dd,PennController,132,0,instructions1_syn,NULL,PennController,10,_Header_,End,1739898605032,NULL
1739899168,492fb6e6fba0a4ddc683c28bebe415dd,PennController,132,0,instructions1_syn,NULL,PennController,10,_Trial_,End,1739898644993,NULL
1739899168,492fb6e6fba0a4ddc683c28bebe415dd,PennController,133,0,instructions2_syn,NULL,PennController,11,_Trial_,Start,1739898644995,NULL
1739899168,492fb6e6fba0a4ddc683c28bebe415dd,PennController,133,0,instructions2_syn,NULL,PennController,11,_Header_,Start,1739898644995,NULL
1739899168,492fb6e6fba0a4ddc683c28bebe415dd,PennController,133,0,instructions2_syn,NULL,PennController,11,_Header_,End,1739898645247,NULL
1739899168,492fb6e6fba0a4ddc683c28bebe415dd,PennController,133,0,instructions2_syn,NULL,PennController,11,_Trial_,End,1739898656493,NULL
1739899168,492fb6e6fba0a4ddc683c28bebe415dd,PennController,128,0,instructions3_hands,NULL,PennController,6,_Trial_,Start,1739898656494,NULL
1739899168,492fb6e6fba0a4ddc683c28bebe415dd,PennController,128,0,instructions3_hands,NULL,PennController,6,_Header_,Start,1739898656494,NULL
1739899168,492fb6e6fba0a4ddc683c28bebe415dd,PennController,128,0,instructions3_hands,NULL,PennController,6,_Header_,End,1739898656746,NULL
1739899168,492fb6e6fba0a4ddc683c28bebe415dd,PennController,128,0,instructions3_hands,NULL,PennController,6,_Trial_,End,1739898661752,NULL
1739899168,492fb6e6fba0a4ddc683c28bebe415dd,PennController,135,0,practice_intro_syn,NULL,PennController,13,_Trial_,Start,1739898661752,NULL
1739899168,492fb6e6fba0a4ddc683c28bebe415dd,PennController,135,0,practice_intro_syn,NULL,PennController,13,_Header_,Start,1739898661752,NULL
1739899168,492fb6e6fba0a4ddc683c28bebe415dd,PennController,135,0,practice_intro_syn,NULL,PennController,13,_Header_,End,1739898662004,NULL
1739899168,492fb6e6fba0a4ddc683c28bebe415dd,PennController,135,0,practice_intro_syn,NULL,PennController,13,_Trial_,End,1739898663524,NULL
# 13. ID.
# 14. ReactionTime.
# 15. Word.
# 16. selectedKey.
# 17. selectedValue.
# 18. Key_value_F.
# 19. Key_value_J.
# 20. Group.
# 21. Comments.
1739899168,492fb6e6fba0a4ddc683c28bebe415dd,PennController,93,0,calibrator_syn_feedback,NULL,PennController,104,_Trial_,Start,1739898663526,undefined,1597,traffic,undefined,verb,noun,verb,A,NULL
1739899168,492fb6e6fba0a4ddc683c28bebe415dd,PennController,93,0,calibrator_syn_feedback,NULL,PennController,104,_Header_,Start,1739898663526,undefined,1597,traffic,undefined,verb,noun,verb,A,NULL
1739899168,492fb6e6fba0a4ddc683c28bebe415dd,PennController,93,0,calibrator_syn_feedback,NULL,PennController,104,_Header_,End,1739898663778,undefined,1597,traffic,undefined,verb,noun,verb,A,NULL
1739899168,492fb6e6fba0a4ddc683c28bebe415dd,PennController,93,0,calibrator_syn_feedback,NULL,Selector,Selection,Selection,noun,1739898665880,undefined,1597,traffic,undefined,verb,noun,verb,A,noun;verb
1739899168,492fb6e6fba0a4ddc683c28bebe415dd,PennController,93,0,calibrator_syn_feedback,NULL,PennController,104,_Trial_,End,1739898667885,undefined,1597,traffic,undefined,verb,noun,verb,A,NULL
1739899168,492fb6e6fba0a4ddc683c28bebe415dd,PennController,86,0,calibrator_syn_feedback,NULL,PennController,97,_Trial_,Start,1739898667887,undefined,981,endure,undefined,verb,noun,verb,A,NULL
1739899168,492fb6e6fba0a4ddc683c28bebe415dd,PennController,86,0,calibrator_syn_feedback,NULL,PennController,97,_Header_,Start,1739898667887,undefined,981,endure,undefined,verb,noun,verb,A,NULL
1739899168,492fb6e6fba0a4ddc683c28bebe415dd,PennController,86,0,calibrator_syn_feedback,NULL,PennController,97,_Header_,End,1739898668138,undefined,981,endure,undefined,verb,noun,verb,A,NULL
1739899168,492fb6e6fba0a4ddc683c28bebe415dd,PennController,86,0,calibrator_syn_feedback,NULL,Selector,Selection,Selection,verb,1739898669624,undefined,981,endure,undefined,verb,noun,verb,A,noun;verb
1739899168,492fb6e6fba0a4ddc683c28bebe415dd,PennController,86,0,calibrator_syn_feedback,NULL,PennController,97,_Trial_,End,1739898671626,undefined,981,endure,undefined,verb,noun,verb,A,NULL
1739899168,492fb6e6fba0a4ddc683c28bebe415dd,PennController,85,0,calibrator_syn_feedback,NULL,PennController,96,_Trial_,Start,1739898671628,undefined,2488,depart,undefined,verb,noun,verb,A,NULL
1739899168,492fb6e6fba0a4ddc683c28bebe415dd,PennController,85,0,calibrator_syn_feedback,NULL,PennController,96,_Header_,Start,1739898671628,undefined,2488,depart,undefined,verb,noun,verb,A,NULL
1739899168,492fb6e6fba0a4ddc683c28bebe415dd,PennController,85,0,calibrator_syn_feedback,NULL,PennController,96,_Header_,End,1739898671882,undefined,2488,depart,undefined,verb,noun,verb,A,NULL
1739899168,492fb6e6fba0a4ddc683c28bebe415dd,PennController,85,0,calibrator_syn_feedback,NULL,Selector,Selection,Selection,noun,1739898674875,undefined,2488,depart,undefined,verb,noun,verb,A,noun;verb
1739899168,492fb6e6fba0a4ddc683c28bebe415dd,PennController,85,0,calibrator_syn_feedback,NULL,PennController,96,_Trial_,End,1739898676880,undefined,2488,depart,undefined,verb,noun,verb,A,NULL
1739899168,492fb6e6fba0a4ddc683c28bebe415dd,PennController,90,0,calibrator_syn_feedback,NULL,PennController,101,_Trial_,Start,1739898676882,undefined,1460,luggage,undefined,verb,noun,verb,A,NULL
1739899168,492fb6e6fba0a4ddc683c28bebe415dd,PennController,90,0,calibrator_syn_feedback,NULL,PennController,101,_Header_,Start,1739898676882,undefined,1460,luggage,undefined,verb,noun,verb,A,NULL
1739899168,492fb6e6fba0a4ddc683c28bebe415dd,PennController,90,0,calibrator_syn_feedback,NULL,PennController,101,_Header_,End,1739898677132,undefined,1460,luggage,undefined,verb,noun,verb,A,NULL
1739899168,492fb6e6fba0a4ddc683c28bebe415dd,PennController,90,0,calibrator_syn_feedback,NULL,Selector,Selection,Selection,noun,1739898679096,undefined,1460,luggage,undefined,verb,noun,verb,A,noun;verb
1739899168,492fb6e6fba0a4ddc683c28bebe415dd,PennController,90,0,calibrator_syn_feedback,NULL,PennController,101,_Trial_,End,1739898681101,undefined,1460,luggage,undefined,verb,noun,verb,A,NULL
1739899168,492fb6e6fba0a4ddc683c28bebe415dd,PennController,87,0,calibrator_syn_feedback,NULL,PennController,98,_Trial_,Start,1739898681102,undefined,888,concur,undefined,verb,noun,verb,A,NULL
1739899168,492fb6e6fba0a4ddc683c28bebe415dd,PennController,87,0,calibrator_syn_feedback,NULL,PennController,98,_Header_,Start,1739898681102,undefined,888,concur,undefined,verb,noun,verb,A,NULL
1739899168,492fb6e6fba0a4ddc683c28bebe415dd,PennController,87,0,calibrator_syn_feedback,NULL,PennController,98,_Header_,End,1739898681353,undefined,888,concur,undefined,verb,noun,verb,A,NULL
1739899168,492fb6e6fba0a4ddc683c28bebe415dd,PennController,87,0,calibrator_syn_feedback,NULL,Selector,Selection,Selection,verb,1739898682747,undefined,888,concur,undefined,verb,noun,verb,A,noun;verb
1739899168,492fb6e6fba0a4ddc683c28bebe415dd,PennController,87,0,calibrator_syn_feedback,NULL,PennController,98,_Trial_,End,1739898684751,undefined,888,concur,undefined,verb,noun,verb,A,NULL
1739899168,492fb6e6fba0a4ddc683c28bebe415dd,PennController,88,0,calibrator_syn_feedback,NULL,PennController,99,_Trial_,Start,1739898684753,undefined,1460,reside,undefined,verb,noun,verb,A,NULL
1739899168,492fb6e6fba0a4ddc683c28bebe415dd,PennController,88,0,calibrator_syn_feedback,NULL,PennController,99,_Header_,Start,1739898684753,undefined,1460,reside,undefined,verb,noun,verb,A,NULL
1739899168,492fb6e6fba0a4ddc683c28bebe415dd,PennController,88,0,calibrator_syn_feedback,NULL,PennController,99,_Header_,End,1739898685003,undefined,1460,reside,undefined,verb,noun,verb,A,NULL
1739899168,492fb6e6fba0a4ddc683c28bebe415dd,PennController,88,0,calibrator_syn_feedback,NULL,Selector,Selection,Selection,verb,1739898686966,undefined,1460,reside,undefined,verb,noun,verb,A,noun;verb
1739899168,492fb6e6fba0a4ddc683c28bebe415dd,PennController,88,0,calibrator_syn_feedback,NULL,PennController,99,_Trial_,End,1739898688972,undefined,1460,reside,undefined,verb,noun,verb,A,NULL
1739899168,492fb6e6fba0a4ddc683c28bebe415dd,PennController,92,0,calibrator_syn_feedback,NULL,PennController,103,_Trial_,Start,1739898688973,undefined,1220,wisdom,undefined,verb,noun,verb,A,NULL
1739899168,492fb6e6fba0a4ddc683c28bebe415dd,PennController,92,0,calibrator_syn_feedback,NULL,PennController,103,_Header_,Start,1739898688973,undefined,1220,wisdom,undefined,verb,noun,verb,A,NULL
1739899168,492fb6e6fba0a4ddc683c28bebe415dd,PennController,92,0,calibrator_syn_feedback,NULL,PennController,103,_Header_,End,1739898689225,undefined,1220,wisdom,undefined,verb,noun,verb,A,NULL
1739899168,492fb6e6fba0a4ddc683c28bebe415dd,PennController,92,0,calibrator_syn_feedback,NULL,Selector,Selection,Selection,verb,1739898690949,undefined,1220,wisdom,undefined,verb,noun,verb,A,noun;verb
1739899168,492fb6e6fba0a4ddc683c28bebe415dd,PennController,92,0,calibrator_syn_feedback,NULL,PennController,103,_Trial_,End,1739898692954,undefined,1220,wisdom,undefined,verb,noun,verb,A,NULL
1739899168,492fb6e6fba0a4ddc683c28bebe415dd,PennController,84,0,calibrator_syn_feedback,NULL,PennController,95,_Trial_,Start,1739898692956,undefined,693,exist,undefined,verb,noun,verb,A,NULL
1739899168,492fb6e6fba0a4ddc683c28bebe415dd,PennController,84,0,calibrator_syn_feedback,NULL,PennController,95,_Header_,Start,1739898692956,undefined,693,exist,undefined,verb,noun,verb,A,NULL
1739899168,492fb6e6fba0a4ddc683c28bebe415dd,PennController,84,0,calibrator_syn_feedback,NULL,PennController,95,_Header_,End,1739898693206,undefined,693,exist,undefined,verb,noun,verb,A,NULL
1739899168,492fb6e6fba0a4ddc683c28bebe415dd,PennController,84,0,calibrator_syn_feedback,NULL,Selector,Selection,Selection,verb,1739898694405,undefined,693,exist,undefined,verb,noun,verb,A,noun;verb
1739899168,492fb6e6fba0a4ddc683c28bebe415dd,PennController,84,0,calibrator_syn_feedback,NULL,PennController,95,_Trial_,End,1739898696410,undefined,693,exist,undefined,verb,noun,verb,A,NULL
1739899168,492fb6e6fba0a4ddc683c28bebe415dd,PennController,89,0,calibrator_syn_feedback,NULL,PennController,100,_Trial_,Start,1739898696412,undefined,1483,furniture,undefined,verb,noun,verb,A,NULL
1739899168,492fb6e6fba0a4ddc683c28bebe415dd,PennController,89,0,calibrator_syn_feedback,NULL,PennController,100,_Header_,Start,1739898696412,undefined,1483,furniture,undefined,verb,noun,verb,A,NULL
1739899168,492fb6e6fba0a4ddc683c28bebe415dd,PennController,89,0,calibrator_syn_feedback,NULL,PennController,100,_Header_,End,1739898696665,undefined,1483,furniture,undefined,verb,noun,verb,A,NULL
1739899168,492fb6e6fba0a4ddc683c28bebe415dd,PennController,89,0,calibrator_syn_feedback,NULL,Selector,Selection,Selection,noun,1739898698653,undefined,1483,furniture,undefined,verb,noun,verb,A,noun;verb
1739899168,492fb6e6fba0a4ddc683c28bebe415dd,PennController,89,0,calibrator_syn_feedback,NULL,PennController,100,_Trial_,End,1739898700659,undefined,1483,furniture,undefined,verb,noun,verb,A,NULL
1739899168,492fb6e6fba0a4ddc683c28bebe415dd,PennController,91,0,calibrator_syn_feedback,NULL,PennController,102,_Trial_,Start,1739898700660,undefined,1740,childhood,undefined,verb,noun,verb,A,NULL
1739899168,492fb6e6fba0a4ddc683c28bebe415dd,PennController,91,0,calibrator_syn_feedback,NULL,PennController,102,_Header_,Start,1739898700660,undefined,1740,childhood,undefined,verb,noun,verb,A,NULL
1739899168,492fb6e6fba0a4ddc683c28bebe415dd,PennController,91,0,calibrator_syn_feedback,NULL,PennController,102,_Header_,End,1739898700910,undefined,1740,childhood,undefined,verb,noun,verb,A,NULL
1739899168,492fb6e6fba0a4ddc683c28bebe415dd,PennController,91,0,calibrator_syn_feedback,NULL,Selector,Selection,Selection,verb,1739898703155,undefined,1740,childhood,undefined,verb,noun,verb,A,noun;verb
1739899168,492fb6e6fba0a4ddc683c28bebe415dd,PennController,91,0,calibrator_syn_feedback,NULL,PennController,102,_Trial_,End,1739898705159,undefined,1740,childhood,undefined,verb,noun,verb,A,NULL
# 16. Key_value_F.
# 17. Key_value_J.
# 18. Group.
# 19. Comments.
1739899168,492fb6e6fba0a4ddc683c28bebe415dd,PennController,99,0,calibrator_syn_no_feedback,NULL,PennController,110,_Trial_,Start,1739898705161,undefined,895,furniture,noun,verb,A,NULL
1739899168,492fb6e6fba0a4ddc683c28bebe415dd,PennController,99,0,calibrator_syn_no_feedback,NULL,PennController,110,_Header_,Start,1739898705161,undefined,895,furniture,noun,verb,A,NULL
1739899168,492fb6e6fba0a4ddc683c28bebe415dd,PennController,99,0,calibrator_syn_no_feedback,NULL,PennController,110,_Header_,End,1739898705411,undefined,895,furniture,noun,verb,A,NULL
1739899168,492fb6e6fba0a4ddc683c28bebe415dd,PennController,99,0,calibrator_syn_no_feedback,NULL,Selector,unnamed-Selector,Selection,noun,1739898706808,undefined,895,furniture,noun,verb,A,noun;verb
1739899168,492fb6e6fba0a4ddc683c28bebe415dd,PennController,99,0,calibrator_syn_no_feedback,NULL,PennController,110,_Trial_,End,1739898706809,undefined,895,furniture,noun,verb,A,NULL
1739899168,492fb6e6fba0a4ddc683c28bebe415dd,PennController,97,0,calibrator_syn_no_feedback,NULL,PennController,108,_Trial_,Start,1739898706809,undefined,846,concur,noun,verb,A,NULL
1739899168,492fb6e6fba0a4ddc683c28bebe415dd,PennController,97,0,calibrator_syn_no_feedback,NULL,PennController,108,_Header_,Start,1739898706809,undefined,846,concur,noun,verb,A,NULL
1739899168,492fb6e6fba0a4ddc683c28bebe415dd,PennController,97,0,calibrator_syn_no_feedback,NULL,PennController,108,_Header_,End,1739898707060,undefined,846,concur,noun,verb,A,NULL
1739899168,492fb6e6fba0a4ddc683c28bebe415dd,PennController,97,0,calibrator_syn_no_feedback,NULL,Selector,unnamed-Selector,Selection,verb,1739898708412,undefined,846,concur,noun,verb,A,noun;verb
1739899168,492fb6e6fba0a4ddc683c28bebe415dd,PennController,97,0,calibrator_syn_no_feedback,NULL,PennController,108,_Trial_,End,1739898708413,undefined,846,concur,noun,verb,A,NULL
1739899168,492fb6e6fba0a4ddc683c28bebe415dd,PennController,94,0,calibrator_syn_no_feedback,NULL,PennController,105,_Trial_,Start,1739898708414,undefined,954,exist,noun,verb,A,NULL
1739899168,492fb6e6fba0a4ddc683c28bebe415dd,PennController,94,0,calibrator_syn_no_feedback,NULL,PennController,105,_Header_,Start,1739898708414,undefined,954,exist,noun,verb,A,NULL
1739899168,492fb6e6fba0a4ddc683c28bebe415dd,PennController,94,0,calibrator_syn_no_feedback,NULL,PennController,105,_Header_,End,1739898708665,undefined,954,exist,noun,verb,A,NULL
1739899168,492fb6e6fba0a4ddc683c28bebe415dd,PennController,94,0,calibrator_syn_no_feedback,NULL,Selector,unnamed-Selector,Selection,verb,1739898710123,undefined,954,exist,noun,verb,A,noun;verb
1739899168,492fb6e6fba0a4ddc683c28bebe415dd,PennController,94,0,calibrator_syn_no_feedback,NULL,PennController,105,_Trial_,End,1739898710123,undefined,954,exist,noun,verb,A,NULL
1739899168,492fb6e6fba0a4ddc683c28bebe415dd,PennController,101,0,calibrator_syn_no_feedback,NULL,PennController,112,_Trial_,Start,1739898710124,undefined,1206,childhood,noun,verb,A,NULL
1739899168,492fb6e6fba0a4ddc683c28bebe415dd,PennController,101,0,calibrator_syn_no_feedback,NULL,PennController,112,_Header_,Start,1739898710124,undefined,1206,childhood,noun,verb,A,NULL
1739899168,492fb6e6fba0a4ddc683c28bebe415dd,PennController,101,0,calibrator_syn_no_feedback,NULL,PennController,112,_Header_,End,1739898710377,undefined,1206,childhood,noun,verb,A,NULL
1739899168,492fb6e6fba0a4ddc683c28bebe415dd,PennController,101,0,calibrator_syn_no_feedback,NULL,Selector,unnamed-Selector,Selection,noun,1739898712085,undefined,1206,childhood,noun,verb,A,noun;verb
1739899168,492fb6e6fba0a4ddc683c28bebe415dd,PennController,101,0,calibrator_syn_no_feedback,NULL,PennController,112,_Trial_,End,1739898712087,undefined,1206,childhood,noun,verb,A,NULL
1739899168,492fb6e6fba0a4ddc683c28bebe415dd,PennController,95,0,calibrator_syn_no_feedback,NULL,PennController,106,_Trial_,Start,1739898712088,undefined,1247,depart,noun,verb,A,NULL
1739899168,492fb6e6fba0a4ddc683c28bebe415dd,PennController,95,0,calibrator_syn_no_feedback,NULL,PennController,106,_Header_,Start,1739898712088,undefined,1247,depart,noun,verb,A,NULL
1739899168,492fb6e6fba0a4ddc683c28bebe415dd,PennController,95,0,calibrator_syn_no_feedback,NULL,PennController,106,_Header_,End,1739898712338,undefined,1247,depart,noun,verb,A,NULL
1739899168,492fb6e6fba0a4ddc683c28bebe415dd,PennController,95,0,calibrator_syn_no_feedback,NULL,Selector,unnamed-Selector,Selection,noun,1739898714089,undefined,1247,depart,noun,verb,A,noun;verb
1739899168,492fb6e6fba0a4ddc683c28bebe415dd,PennController,95,0,calibrator_syn_no_feedback,NULL,PennController,106,_Trial_,End,1739898714090,undefined,1247,depart,noun,verb,A,NULL
1739899168,492fb6e6fba0a4ddc683c28bebe415dd,PennController,100,0,calibrator_syn_no_feedback,NULL,PennController,111,_Trial_,Start,1739898714091,undefined,965,luggage,noun,verb,A,NULL
1739899168,492fb6e6fba0a4ddc683c28bebe415dd,PennController,100,0,calibrator_syn_no_feedback,NULL,PennController,111,_Header_,Start,1739898714091,undefined,965,luggage,noun,verb,A,NULL
1739899168,492fb6e6fba0a4ddc683c28bebe415dd,PennController,100,0,calibrator_syn_no_feedback,NULL,PennController,111,_Header_,End,1739898714343,undefined,965,luggage,noun,verb,A,NULL
1739899168,492fb6e6fba0a4ddc683c28bebe415dd,PennController,100,0,calibrator_syn_no_feedback,NULL,Selector,unnamed-Selector,Selection,noun,1739898715813,undefined,965,luggage,noun,verb,A,noun;verb
1739899168,492fb6e6fba0a4ddc683c28bebe415dd,PennController,100,0,calibrator_syn_no_feedback,NULL,PennController,111,_Trial_,End,1739898715814,undefined,965,luggage,noun,verb,A,NULL
1739899168,492fb6e6fba0a4ddc683c28bebe415dd,PennController,96,0,calibrator_syn_no_feedback,NULL,PennController,107,_Trial_,Start,1739898715814,undefined,752,endure,noun,verb,A,NULL
1739899168,492fb6e6fba0a4ddc683c28bebe415dd,PennController,96,0,calibrator_syn_no_feedback,NULL,PennController,107,_Header_,Start,1739898715814,undefined,752,endure,noun,verb,A,NULL
1739899168,492fb6e6fba0a4ddc683c28bebe415dd,PennController,96,0,calibrator_syn_no_feedback,NULL,PennController,107,_Header_,End,1739898716065,undefined,752,endure,noun,verb,A,NULL
1739899168,492fb6e6fba0a4ddc683c28bebe415dd,PennController,96,0,calibrator_syn_no_feedback,NULL,Selector,unnamed-Selector,Selection,verb,1739898717319,undefined,752,endure,noun,verb,A,noun;verb
1739899168,492fb6e6fba0a4ddc683c28bebe415dd,PennController,96,0,calibrator_syn_no_feedback,NULL,PennController,107,_Trial_,End,1739898717320,undefined,752,endure,noun,verb,A,NULL
1739899168,492fb6e6fba0a4ddc683c28bebe415dd,PennController,102,0,calibrator_syn_no_feedback,NULL,PennController,113,_Trial_,Start,1739898717320,undefined,1063,wisdom,noun,verb,A,NULL
1739899168,492fb6e6fba0a4ddc683c28bebe415dd,PennController,102,0,calibrator_syn_no_feedback,NULL,PennController,113,_Header_,Start,1739898717320,undefined,1063,wisdom,noun,verb,A,NULL
1739899168,492fb6e6fba0a4ddc683c28bebe415dd,PennController,102,0,calibrator_syn_no_feedback,NULL,PennController,113,_Header_,End,1739898717570,undefined,1063,wisdom,noun,verb,A,NULL
1739899168,492fb6e6fba0a4ddc683c28bebe415dd,PennController,102,0,calibrator_syn_no_feedback,NULL,Selector,unnamed-Selector,Selection,verb,1739898719139,undefined,1063,wisdom,noun,verb,A,noun;verb
1739899168,492fb6e6fba0a4ddc683c28bebe415dd,PennController,102,0,calibrator_syn_no_feedback,NULL,PennController,113,_Trial_,End,1739898719140,undefined,1063,wisdom,noun,verb,A,NULL
1739899168,492fb6e6fba0a4ddc683c28bebe415dd,PennController,98,0,calibrator_syn_no_feedback,NULL,PennController,109,_Trial_,Start,1739898719141,undefined,848,reside,noun,verb,A,NULL
1739899168,492fb6e6fba0a4ddc683c28bebe415dd,PennController,98,0,calibrator_syn_no_feedback,NULL,PennController,109,_Header_,Start,1739898719141,undefined,848,reside,noun,verb,A,NULL
1739899168,492fb6e6fba0a4ddc683c28bebe415dd,PennController,98,0,calibrator_syn_no_feedback,NULL,PennController,109,_Header_,End,1739898719391,undefined,848,reside,noun,verb,A,NULL
1739899168,492fb6e6fba0a4ddc683c28bebe415dd,PennController,98,0,calibrator_syn_no_feedback,NULL,Selector,unnamed-Selector,Selection,verb,1739898720743,undefined,848,reside,noun,verb,A,noun;verb
1739899168,492fb6e6fba0a4ddc683c28bebe415dd,PennController,98,0,calibrator_syn_no_feedback,NULL,PennController,109,_Trial_,End,1739898720744,undefined,848,reside,noun,verb,A,NULL
1739899168,492fb6e6fba0a4ddc683c28bebe415dd,PennController,103,0,calibrator_syn_no_feedback,NULL,PennController,114,_Trial_,Start,1739898720746,undefined,701,traffic,noun,verb,A,NULL
1739899168,492fb6e6fba0a4ddc683c28bebe415dd,PennController,103,0,calibrator_syn_no_feedback,NULL,PennController,114,_Header_,Start,1739898720746,undefined,701,traffic,noun,verb,A,NULL
1739899168,492fb6e6fba0a4ddc683c28bebe415dd,PennController,103,0,calibrator_syn_no_feedback,NULL,PennController,114,_Header_,End,1739898720997,undefined,701,traffic,noun,verb,A,NULL
1739899168,492fb6e6fba0a4ddc683c28bebe415dd,PennController,103,0,calibrator_syn_no_feedback,NULL,Selector,unnamed-Selector,Selection,verb,1739898722200,undefined,701,traffic,noun,verb,A,noun;verb
1739899168,492fb6e6fba0a4ddc683c28bebe415dd,PennController,103,0,calibrator_syn_no_feedback,NULL,PennController,114,_Trial_,End,1739898722201,undefined,701,traffic,noun,verb,A,NULL
# 13. Comments.
1739899168,492fb6e6fba0a4ddc683c28bebe415dd,PennController,136,0,endinstructions_syn,NULL,PennController,14,_Trial_,Start,1739898722202,NULL
1739899168,492fb6e6fba0a4ddc683c28bebe415dd,PennController,136,0,endinstructions_syn,NULL,PennController,14,_Header_,Start,1739898722202,NULL
1739899168,492fb6e6fba0a4ddc683c28bebe415dd,PennController,136,0,endinstructions_syn,NULL,PennController,14,_Header_,End,1739898722453,NULL
1739899168,492fb6e6fba0a4ddc683c28bebe415dd,PennController,136,0,endinstructions_syn,NULL,PennController,14,_Trial_,End,1739898728977,NULL
# 13. ID.
# 14. ReactionTime.
# 15. Word.
# 16. ConcValCombo.
# 17. Key_value_F.
# 18. Key_value_J.
# 19. Group.
# 20. Comments.
1739899168,492fb6e6fba0a4ddc683c28bebe415dd,PennController,40,0,test_syn,NULL,PennController,51,_Trial_,Start,1739898728978,undefined,896,breathe,concrete-postiive,noun,verb,A,NULL
1739899168,492fb6e6fba0a4ddc683c28bebe415dd,PennController,40,0,test_syn,NULL,PennController,51,_Header_,Start,1739898728978,undefined,896,breathe,concrete-postiive,noun,verb,A,NULL
1739899168,492fb6e6fba0a4ddc683c28bebe415dd,PennController,40,0,test_syn,NULL,PennController,51,_Header_,End,1739898729232,undefined,896,breathe,concrete-postiive,noun,verb,A,NULL
1739899168,492fb6e6fba0a4ddc683c28bebe415dd,PennController,40,0,test_syn,NULL,Selector,unnamed-Selector,Selection,verb,1739898730629,undefined,896,breathe,concrete-postiive,noun,verb,A,noun;verb
1739899168,492fb6e6fba0a4ddc683c28bebe415dd,PennController,40,0,test_syn,NULL,PennController,51,_Trial_,End,1739898730629,undefined,896,breathe,concrete-postiive,noun,verb,A,NULL
1739899168,492fb6e6fba0a4ddc683c28bebe415dd,PennController,43,0,test_syn,NULL,PennController,54,_Trial_,Start,1739898730630,undefined,610,running,concrete-postiive,noun,verb,A,NULL
1739899168,492fb6e6fba0a4ddc683c28bebe415dd,PennController,43,0,test_syn,NULL,PennController,54,_Header_,Start,1739898730630,undefined,610,running,concrete-postiive,noun,verb,A,NULL
1739899168,492fb6e6fba0a4ddc683c28bebe415dd,PennController,43,0,test_syn,NULL,PennController,54,_Header_,End,1739898730882,undefined,610,running,concrete-postiive,noun,verb,A,NULL
1739899168,492fb6e6fba0a4ddc683c28bebe415dd,PennController,43,0,test_syn,NULL,Selector,unnamed-Selector,Selection,verb,1739898731995,undefined,610,running,concrete-postiive,noun,verb,A,noun;verb
1739899168,492fb6e6fba0a4ddc683c28bebe415dd,PennController,43,0,test_syn,NULL,PennController,54,_Trial_,End,1739898731996,undefined,610,running,concrete-postiive,noun,verb,A,NULL
1739899168,492fb6e6fba0a4ddc683c28bebe415dd,PennController,8,0,test_syn,NULL,PennController,19,_Trial_,Start,1739898731997,undefined,490,slave,concrete-negative,noun,verb,A,NULL
1739899168,492fb6e6fba0a4ddc683c28bebe415dd,PennController,8,0,test_syn,NULL,PennController,19,_Header_,Start,1739898731997,undefined,490,slave,concrete-negative,noun,verb,A,NULL
1739899168,492fb6e6fba0a4ddc683c28bebe415dd,PennController,8,0,test_syn,NULL,PennController,19,_Header_,End,1739898732248,undefined,490,slave,concrete-negative,noun,verb,A,NULL
1739899168,492fb6e6fba0a4ddc683c28bebe415dd,PennController,8,0,test_syn,NULL,Selector,unnamed-Selector,Selection,verb,1739898733240,undefined,490,slave,concrete-negative,noun,verb,A,noun;verb
1739899168,492fb6e6fba0a4ddc683c28bebe415dd,PennController,8,0,test_syn,NULL,PennController,19,_Trial_,End,1739898733240,undefined,490,slave,concrete-negative,noun,verb,A,NULL
1739899168,492fb6e6fba0a4ddc683c28bebe415dd,PennController,12,0,test_syn,NULL,PennController,23,_Trial_,Start,1739898733241,undefined,730,bleed,concrete-negative,noun,verb,A,NULL
1739899168,492fb6e6fba0a4ddc683c28bebe415dd,PennController,12,0,test_syn,NULL,PennController,23,_Header_,Start,1739898733241,undefined,730,bleed,concrete-negative,noun,verb,A,NULL
1739899168,492fb6e6fba0a4ddc683c28bebe415dd,PennController,12,0,test_syn,NULL,PennController,23,_Header_,End,1739898733491,undefined,730,bleed,concrete-negative,noun,verb,A,NULL
1739899168,492fb6e6fba0a4ddc683c28bebe415dd,PennController,12,0,test_syn,NULL,Selector,unnamed-Selector,Selection,verb,1739898734723,undefined,730,bleed,concrete-negative,noun,verb,A,noun;verb
1739899168,492fb6e6fba0a4ddc683c28bebe415dd,PennController,12,0,test_syn,NULL,PennController,23,_Trial_,End,1739898734723,undefined,730,bleed,concrete-negative,noun,verb,A,NULL
1739899168,492fb6e6fba0a4ddc683c28bebe415dd,PennController,39,0,test_syn,NULL,PennController,50,_Trial_,Start,1739898734723,undefined,594,glide,concrete-postiive,noun,verb,A,NULL
1739899168,492fb6e6fba0a4ddc683c28bebe415dd,PennController,39,0,test_syn,NULL,PennController,50,_Header_,Start,1739898734723,undefined,594,glide,concrete-postiive,noun,verb,A,NULL
1739899168,492fb6e6fba0a4ddc683c28bebe415dd,PennController,39,0,test_syn,NULL,PennController,50,_Header_,End,1739898734978,undefined,594,glide,concrete-postiive,noun,verb,A,NULL
1739899168,492fb6e6fba0a4ddc683c28bebe415dd,PennController,39,0,test_syn,NULL,Selector,unnamed-Selector,Selection,noun,1739898736073,undefined,594,glide,concrete-postiive,noun,verb,A,noun;verb
1739899168,492fb6e6fba0a4ddc683c28bebe415dd,PennController,39,0,test_syn,NULL,PennController,50,_Trial_,End,1739898736074,undefined,594,glide,concrete-postiive,noun,verb,A,NULL
1739899168,492fb6e6fba0a4ddc683c28bebe415dd,PennController,22,0,test_syn,NULL,PennController,33,_Trial_,Start,1739898736075,undefined,840,resent,abstract-negative,noun,verb,A,NULL
1739899168,492fb6e6fba0a4ddc683c28bebe415dd,PennController,22,0,test_syn,NULL,PennController,33,_Header_,Start,1739898736075,undefined,840,resent,abstract-negative,noun,verb,A,NULL
1739899168,492fb6e6fba0a4ddc683c28bebe415dd,PennController,22,0,test_syn,NULL,PennController,33,_Header_,End,1739898736325,undefined,840,resent,abstract-negative,noun,verb,A,NULL
1739899168,492fb6e6fba0a4ddc683c28bebe415dd,PennController,22,0,test_syn,NULL,Selector,unnamed-Selector,Selection,verb,1739898737666,undefined,840,resent,abstract-negative,noun,verb,A,noun;verb
1739899168,492fb6e6fba0a4ddc683c28bebe415dd,PennController,22,0,test_syn,NULL,PennController,33,_Trial_,End,1739898737668,undefined,840,resent,abstract-negative,noun,verb,A,NULL
1739899168,492fb6e6fba0a4ddc683c28bebe415dd,PennController,38,0,test_syn,NULL,PennController,49,_Trial_,Start,1739898737669,undefined,588,home,concrete-postiive,noun,verb,A,NULL
1739899168,492fb6e6fba0a4ddc683c28bebe415dd,PennController,38,0,test_syn,NULL,PennController,49,_Header_,Start,1739898737669,undefined,588,home,concrete-postiive,noun,verb,A,NULL
1739899168,492fb6e6fba0a4ddc683c28bebe415dd,PennController,38,0,test_syn,NULL,PennController,49,_Header_,End,1739898737923,undefined,588,home,concrete-postiive,noun,verb,A,NULL
1739899168,492fb6e6fba0a4ddc683c28bebe415dd,PennController,38,0,test_syn,NULL,Selector,unnamed-Selector,Selection,noun,1739898739013,undefined,588,home,concrete-postiive,noun,verb,A,noun;verb
1739899168,492fb6e6fba0a4ddc683c28bebe415dd,PennController,38,0,test_syn,NULL,PennController,49,_Trial_,End,1739898739014,undefined,588,home,concrete-postiive,noun,verb,A,NULL
1739899168,492fb6e6fba0a4ddc683c28bebe415dd,PennController,5,0,test_syn,NULL,PennController,16,_Trial_,Start,1739898739015,undefined,589,garbage,concrete-negative,noun,verb,A,NULL
1739899168,492fb6e6fba0a4ddc683c28bebe415dd,PennController,5,0,test_syn,NULL,PennController,16,_Header_,Start,1739898739015,undefined,589,garbage,concrete-negative,noun,verb,A,NULL
1739899168,492fb6e6fba0a4ddc683c28bebe415dd,PennController,5,0,test_syn,NULL,PennController,16,_Header_,End,1739898739266,undefined,589,garbage,concrete-negative,noun,verb,A,NULL
1739899168,492fb6e6fba0a4ddc683c28bebe415dd,PennController,5,0,test_syn,NULL,Selector,unnamed-Selector,Selection,noun,1739898740357,undefined,589,garbage,concrete-negative,noun,verb,A,noun;verb
1739899168,492fb6e6fba0a4ddc683c28bebe415dd,PennController,5,0,test_syn,NULL,PennController,16,_Trial_,End,1739898740358,undefined,589,garbage,concrete-negative,noun,verb,A,NULL
1739899168,492fb6e6fba0a4ddc683c28bebe415dd,PennController,15,0,test_syn,NULL,PennController,26,_Trial_,Start,1739898740358,undefined,517,hatred,abstract-negative,noun,verb,A,NULL
1739899168,492fb6e6fba0a4ddc683c28bebe415dd,PennController,15,0,test_syn,NULL,PennController,26,_Header_,Start,1739898740358,undefined,517,hatred,abstract-negative,noun,verb,A,NULL
1739899168,492fb6e6fba0a4ddc683c28bebe415dd,PennController,15,0,test_syn,NULL,PennController,26,_Header_,End,1739898740609,undefined,517,hatred,abstract-negative,noun,verb,A,NULL
1739899168,492fb6e6fba0a4ddc683c28bebe415dd,PennController,15,0,test_syn,NULL,Selector,unnamed-Selector,Selection,verb,1739898741628,undefined,517,hatred,abstract-negative,noun,verb,A,noun;verb
1739899168,492fb6e6fba0a4ddc683c28bebe415dd,PennController,15,0,test_syn,NULL,PennController,26,_Trial_,End,1739898741629,undefined,517,hatred,abstract-negative,noun,verb,A,NULL
1739899168,492fb6e6fba0a4ddc683c28bebe415dd,PennController,16,0,test_syn,NULL,PennController,27,_Trial_,Start,1739898741629,undefined,521,anxiety,abstract-negative,noun,verb,A,NULL
1739899168,492fb6e6fba0a4ddc683c28bebe415dd,PennController,16,0,test_syn,NULL,PennController,27,_Header_,Start,1739898741629,undefined,521,anxiety,abstract-negative,noun,verb,A,NULL
1739899168,492fb6e6fba0a4ddc683c28bebe415dd,PennController,16,0,test_syn,NULL,PennController,27,_Header_,End,1739898741880,undefined,521,anxiety,abstract-negative,noun,verb,A,NULL
1739899168,492fb6e6fba0a4ddc683c28bebe415dd,PennController,16,0,test_syn,NULL,Selector,unnamed-Selector,Selection,verb,1739898742905,undefined,521,anxiety,abstract-negative,noun,verb,A,noun;verb
1739899168,492fb6e6fba0a4ddc683c28bebe415dd,PennController,16,0,test_syn,NULL,PennController,27,_Trial_,End,1739898742906,undefined,521,anxiety,abstract-negative,noun,verb,A,NULL
1739899168,492fb6e6fba0a4ddc683c28bebe415dd,PennController,9,0,test_syn,NULL,PennController,20,_Trial_,Start,1739898742907,undefined,734,choke,concrete-negative,noun,verb,A,NULL
1739899168,492fb6e6fba0a4ddc683c28bebe415dd,PennController,9,0,test_syn,NULL,PennController,20,_Header_,Start,1739898742907,undefined,734,choke,concrete-negative,noun,verb,A,NULL
1739899168,492fb6e6fba0a4ddc683c28bebe415dd,PennController,9,0,test_syn,NULL,PennController,20,_Header_,End,1739898743158,undefined,734,choke,concrete-negative,noun,verb,A,NULL
1739899168,492fb6e6fba0a4ddc683c28bebe415dd,PennController,9,0,test_syn,NULL,Selector,unnamed-Selector,Selection,verb,1739898744394,undefined,734,choke,concrete-negative,noun,verb,A,noun;verb
1739899168,492fb6e6fba0a4ddc683c28bebe415dd,PennController,9,0,test_syn,NULL,PennController,20,_Trial_,End,1739898744395,undefined,734,choke,concrete-negative,noun,verb,A,NULL
1739899168,492fb6e6fba0a4ddc683c28bebe415dd,PennController,33,0,test_syn,NULL,PennController,44,_Trial_,Start,1739898744396,undefined,513,imagine,abstract-positive,noun,verb,A,NULL
1739899168,492fb6e6fba0a4ddc683c28bebe415dd,PennController,33,0,test_syn,NULL,PennController,44,_Header_,Start,1739898744396,undefined,513,imagine,abstract-positive,noun,verb,A,NULL
1739899168,492fb6e6fba0a4ddc683c28bebe415dd,PennController,33,0,test_syn,NULL,PennController,44,_Header_,End,1739898744648,undefined,513,imagine,abstract-positive,noun,verb,A,NULL
1739899168,492fb6e6fba0a4ddc683c28bebe415dd,PennController,33,0,test_syn,NULL,Selector,unnamed-Selector,Selection,verb,1739898745663,undefined,513,imagine,abstract-positive,noun,verb,A,noun;verb
1739899168,492fb6e6fba0a4ddc683c28bebe415dd,PennController,33,0,test_syn,NULL,PennController,44,_Trial_,End,1739898745664,undefined,513,imagine,abstract-positive,noun,verb,A,NULL
1739899168,492fb6e6fba0a4ddc683c28bebe415dd,PennController,25,0,test_syn,NULL,PennController,36,_Trial_,Start,1739898745664,undefined,496,freedom,abstract-positive,noun,verb,A,NULL
1739899168,492fb6e6fba0a4ddc683c28bebe415dd,PennController,25,0,test_syn,NULL,PennController,36,_Header_,Start,1739898745664,undefined,496,freedom,abstract-positive,noun,verb,A,NULL
1739899168,492fb6e6fba0a4ddc683c28bebe415dd,PennController,25,0,test_syn,NULL,PennController,36,_Header_,End,1739898745915,undefined,496,freedom,abstract-positive,noun,verb,A,NULL
1739899168,492fb6e6fba0a4ddc683c28bebe415dd,PennController,25,0,test_syn,NULL,Selector,unnamed-Selector,Selection,verb,1739898746915,undefined,496,freedom,abstract-positive,noun,verb,A,noun;verb
1739899168,492fb6e6fba0a4ddc683c28bebe415dd,PennController,25,0,test_syn,NULL,PennController,36,_Trial_,End,1739898746916,undefined,496,freedom,abstract-positive,noun,verb,A,NULL
1739899168,492fb6e6fba0a4ddc683c28bebe415dd,PennController,20,0,test_syn,NULL,PennController,31,_Trial_,Start,1739898746917,undefined,524,criticize,abstract-negative,noun,verb,A,NULL
1739899168,492fb6e6fba0a4ddc683c28bebe415dd,PennController,20,0,test_syn,NULL,PennController,31,_Header_,Start,1739898746917,undefined,524,criticize,abstract-negative,noun,verb,A,NULL
1739899168,492fb6e6fba0a4ddc683c28bebe415dd,PennController,20,0,test_syn,NULL,PennController,31,_Header_,End,1739898747168,undefined,524,criticize,abstract-negative,noun,verb,A,NULL
1739899168,492fb6e6fba0a4ddc683c28bebe415dd,PennController,20,0,test_syn,NULL,Selector,unnamed-Selector,Selection,verb,1739898748197,undefined,524,criticize,abstract-negative,noun,verb,A,noun;verb
1739899168,492fb6e6fba0a4ddc683c28bebe415dd,PennController,20,0,test_syn,NULL,PennController,31,_Trial_,End,1739898748199,undefined,524,criticize,abstract-negative,noun,verb,A,NULL
1739899168,492fb6e6fba0a4ddc683c28bebe415dd,PennController,21,0,test_syn,NULL,PennController,32,_Trial_,Start,1739898748200,undefined,393,exploit,abstract-negative,noun,verb,A,NULL
1739899168,492fb6e6fba0a4ddc683c28bebe415dd,PennController,21,0,test_syn,NULL,PennController,32,_Header_,Start,1739898748200,undefined,393,exploit,abstract-negative,noun,verb,A,NULL
1739899168,492fb6e6fba0a4ddc683c28bebe415dd,PennController,21,0,test_syn,NULL,PennController,32,_Header_,End,1739898748451,undefined,393,exploit,abstract-negative,noun,verb,A,NULL
1739899168,492fb6e6fba0a4ddc683c28bebe415dd,PennController,21,0,test_syn,NULL,Selector,unnamed-Selector,Selection,verb,1739898749346,undefined,393,exploit,abstract-negative,noun,verb,A,noun;verb
1739899168,492fb6e6fba0a4ddc683c28bebe415dd,PennController,21,0,test_syn,NULL,PennController,32,_Trial_,End,1739898749346,undefined,393,exploit,abstract-negative,noun,verb,A,NULL
1739899168,492fb6e6fba0a4ddc683c28bebe415dd,PennController,19,0,test_syn,NULL,PennController,30,_Trial_,Start,1739898749347,undefined,459,befall,abstract-negative,noun,verb,A,NULL
1739899168,492fb6e6fba0a4ddc683c28bebe415dd,PennController,19,0,test_syn,NULL,PennController,30,_Header_,Start,1739898749347,undefined,459,befall,abstract-negative,noun,verb,A,NULL
1739899168,492fb6e6fba0a4ddc683c28bebe415dd,PennController,19,0,test_syn,NULL,PennController,30,_Header_,End,1739898749599,undefined,459,befall,abstract-negative,noun,verb,A,NULL
1739899168,492fb6e6fba0a4ddc683c28bebe415dd,PennController,19,0,test_syn,NULL,Selector,unnamed-Selector,Selection,verb,1739898750558,undefined,459,befall,abstract-negative,noun,verb,A,noun;verb
1739899168,492fb6e6fba0a4ddc683c28bebe415dd,PennController,19,0,test_syn,NULL,PennController,30,_Trial_,End,1739898750559,undefined,459,befall,abstract-negative,noun,verb,A,NULL
1739899168,492fb6e6fba0a4ddc683c28bebe415dd,PennController,17,0,test_syn,NULL,PennController,28,_Trial_,Start,1739898750560,undefined,687,failure,abstract-negative,noun,verb,A,NULL
1739899168,492fb6e6fba0a4ddc683c28bebe415dd,PennController,17,0,test_syn,NULL,PennController,28,_Header_,Start,1739898750560,undefined,687,failure,abstract-negative,noun,verb,A,NULL
1739899168,492fb6e6fba0a4ddc683c28bebe415dd,PennController,17,0,test_syn,NULL,PennController,28,_Header_,End,1739898750810,undefined,687,failure,abstract-negative,noun,verb,A,NULL
1739899168,492fb6e6fba0a4ddc683c28bebe415dd,PennController,17,0,test_syn,NULL,Selector,unnamed-Selector,Selection,verb,1739898751997,undefined,687,failure,abstract-negative,noun,verb,A,noun;verb
1739899168,492fb6e6fba0a4ddc683c28bebe415dd,PennController,17,0,test_syn,NULL,PennController,28,_Trial_,End,1739898751998,undefined,687,failure,abstract-negative,noun,verb,A,NULL
1739899168,492fb6e6fba0a4ddc683c28bebe415dd,PennController,37,0,test_syn,NULL,PennController,48,_Trial_,Start,1739898751999,undefined,439,flowers,concrete-postiive,noun,verb,A,NULL
1739899168,492fb6e6fba0a4ddc683c28bebe415dd,PennController,37,0,test_syn,NULL,PennController,48,_Header_,Start,1739898751999,undefined,439,flowers,concrete-postiive,noun,verb,A,NULL
1739899168,492fb6e6fba0a4ddc683c28bebe415dd,PennController,37,0,test_syn,NULL,PennController,48,_Header_,End,1739898752250,undefined,439,flowers,concrete-postiive,noun,verb,A,NULL
1739899168,492fb6e6fba0a4ddc683c28bebe415dd,PennController,37,0,test_syn,NULL,Selector,unnamed-Selector,Selection,noun,1739898753193,undefined,439,flowers,concrete-postiive,noun,verb,A,noun;verb
1739899168,492fb6e6fba0a4ddc683c28bebe415dd,PennController,37,0,test_syn,NULL,PennController,48,_Trial_,End,1739898753194,undefined,439,flowers,concrete-postiive,noun,verb,A,NULL
1739899168,492fb6e6fba0a4ddc683c28bebe415dd,PennController,24,0,test_syn,NULL,PennController,35,_Trial_,Start,1739898753195,undefined,490,compassion,abstract-positive,noun,verb,A,NULL
1739899168,492fb6e6fba0a4ddc683c28bebe415dd,PennController,24,0,test_syn,NULL,PennController,35,_Header_,Start,1739898753195,undefined,490,compassion,abstract-positive,noun,verb,A,NULL
1739899168,492fb6e6fba0a4ddc683c28bebe415dd,PennController,24,0,test_syn,NULL,PennController,35,_Header_,End,1739898753447,undefined,490,compassion,abstract-positive,noun,verb,A,NULL
1739899168,492fb6e6fba0a4ddc683c28bebe415dd,PennController,24,0,test_syn,NULL,Selector,unnamed-Selector,Selection,verb,1739898754438,undefined,490,compassion,abstract-positive,noun,verb,A,noun;verb
1739899168,492fb6e6fba0a4ddc683c28bebe415dd,PennController,24,0,test_syn,NULL,PennController,35,_Trial_,End,1739898754439,undefined,490,compassion,abstract-positive,noun,verb,A,NULL
1739899168,492fb6e6fba0a4ddc683c28bebe415dd,PennController,26,0,test_syn,NULL,PennController,37,_Trial_,Start,1739898754439,undefined,463,gratitude,abstract-positive,noun,verb,A,NULL
1739899168,492fb6e6fba0a4ddc683c28bebe415dd,PennController,26,0,test_syn,NULL,PennController,37,_Header_,Start,1739898754439,undefined,463,gratitude,abstract-positive,noun,verb,A,NULL
1739899168,492fb6e6fba0a4ddc683c28bebe415dd,PennController,26,0,test_syn,NULL,PennController,37,_Header_,End,1739898754692,undefined,463,gratitude,abstract-positive,noun,verb,A,NULL
1739899168,492fb6e6fba0a4ddc683c28bebe415dd,PennController,26,0,test_syn,NULL,Selector,unnamed-Selector,Selection,verb,1739898755660,undefined,463,gratitude,abstract-positive,noun,verb,A,noun;verb
1739899168,492fb6e6fba0a4ddc683c28bebe415dd,PennController,26,0,test_syn,NULL,PennController,37,_Trial_,End,1739898755661,undefined,463,gratitude,abstract-positive,noun,verb,A,NULL
1739899168,492fb6e6fba0a4ddc683c28bebe415dd,PennController,36,0,test_syn,NULL,PennController,47,_Trial_,Start,1739898755663,undefined,426,fireplace,concrete-postiive,noun,verb,A,NULL
1739899168,492fb6e6fba0a4ddc683c28bebe415dd,PennController,36,0,test_syn,NULL,PennController,47,_Header_,Start,1739898755663,undefined,426,fireplace,concrete-postiive,noun,verb,A,NULL
1739899168,492fb6e6fba0a4ddc683c28bebe415dd,PennController,36,0,test_syn,NULL,PennController,47,_Header_,End,1739898755913,undefined,426,fireplace,concrete-postiive,noun,verb,A,NULL
1739899168,492fb6e6fba0a4ddc683c28bebe415dd,PennController,36,0,test_syn,NULL,Selector,unnamed-Selector,Selection,verb,1739898756840,undefined,426,fireplace,concrete-postiive,noun,verb,A,noun;verb
1739899168,492fb6e6fba0a4ddc683c28bebe415dd,PennController,36,0,test_syn,NULL,PennController,47,_Trial_,End,1739898756841,undefined,426,fireplace,concrete-postiive,noun,verb,A,NULL
1739899168,492fb6e6fba0a4ddc683c28bebe415dd,PennController,6,0,test_syn,NULL,PennController,17,_Trial_,Start,1739898756842,undefined,791,mud,concrete-negative,noun,verb,A,NULL
1739899168,492fb6e6fba0a4ddc683c28bebe415dd,PennController,6,0,test_syn,NULL,PennController,17,_Header_,Start,1739898756842,undefined,791,mud,concrete-negative,noun,verb,A,NULL
1739899168,492fb6e6fba0a4ddc683c28bebe415dd,PennController,6,0,test_syn,NULL,PennController,17,_Header_,End,1739898757092,undefined,791,mud,concrete-negative,noun,verb,A,NULL
1739899168,492fb6e6fba0a4ddc683c28bebe415dd,PennController,6,0,test_syn,NULL,Selector,unnamed-Selector,Selection,noun,1739898758389,undefined,791,mud,concrete-negative,noun,verb,A,noun;verb
1739899168,492fb6e6fba0a4ddc683c28bebe415dd,PennController,6,0,test_syn,NULL,PennController,17,_Trial_,End,1739898758390,undefined,791,mud,concrete-negative,noun,verb,A,NULL
1739899168,492fb6e6fba0a4ddc683c28bebe415dd,PennController,4,0,test_syn,NULL,PennController,15,_Trial_,Start,1739898758391,undefined,715,toxin,concrete-negative,noun,verb,A,NULL
1739899168,492fb6e6fba0a4ddc683c28bebe415dd,PennController,4,0,test_syn,NULL,PennController,15,_Header_,Start,1739898758391,undefined,715,toxin,concrete-negative,noun,verb,A,NULL
1739899168,492fb6e6fba0a4ddc683c28bebe415dd,PennController,4,0,test_syn,NULL,PennController,15,_Header_,End,1739898758641,undefined,715,toxin,concrete-negative,noun,verb,A,NULL
1739899168,492fb6e6fba0a4ddc683c28bebe415dd,PennController,4,0,test_syn,NULL,Selector,unnamed-Selector,Selection,noun,1739898759860,undefined,715,toxin,concrete-negative,noun,verb,A,noun;verb
1739899168,492fb6e6fba0a4ddc683c28bebe415dd,PennController,4,0,test_syn,NULL,PennController,15,_Trial_,End,1739898759861,undefined,715,toxin,concrete-negative,noun,verb,A,NULL
1739899168,492fb6e6fba0a4ddc683c28bebe415dd,PennController,30,0,test_syn,NULL,PennController,41,_Trial_,Start,1739898759862,undefined,612,cherish,abstract-positive,noun,verb,A,NULL
1739899168,492fb6e6fba0a4ddc683c28bebe415dd,PennController,30,0,test_syn,NULL,PennController,41,_Header_,Start,1739898759862,undefined,612,cherish,abstract-positive,noun,verb,A,NULL
1739899168,492fb6e6fba0a4ddc683c28bebe415dd,PennController,30,0,test_syn,NULL,PennController,41,_Header_,End,1739898760112,undefined,612,cherish,abstract-positive,noun,verb,A,NULL
1739899168,492fb6e6fba0a4ddc683c28bebe415dd,PennController,30,0,test_syn,NULL,Selector,unnamed-Selector,Selection,verb,1739898761225,undefined,612,cherish,abstract-positive,noun,verb,A,noun;verb
1739899168,492fb6e6fba0a4ddc683c28bebe415dd,PennController,30,0,test_syn,NULL,PennController,41,_Trial_,End,1739898761226,undefined,612,cherish,abstract-positive,noun,verb,A,NULL
1739899168,492fb6e6fba0a4ddc683c28bebe415dd,PennController,41,0,test_syn,NULL,PennController,52,_Trial_,Start,1739898761227,undefined,586,glisten,concrete-postiive,noun,verb,A,NULL
1739899168,492fb6e6fba0a4ddc683c28bebe415dd,PennController,41,0,test_syn,NULL,PennController,52,_Header_,Start,1739898761227,undefined,586,glisten,concrete-postiive,noun,verb,A,NULL
1739899168,492fb6e6fba0a4ddc683c28bebe415dd,PennController,41,0,test_syn,NULL,PennController,52,_Header_,End,1739898761479,undefined,586,glisten,concrete-postiive,noun,verb,A,NULL
1739899168,492fb6e6fba0a4ddc683c28bebe415dd,PennController,41,0,test_syn,NULL,Selector,unnamed-Selector,Selection,verb,1739898762570,undefined,586,glisten,concrete-postiive,noun,verb,A,noun;verb
1739899168,492fb6e6fba0a4ddc683c28bebe415dd,PennController,41,0,test_syn,NULL,PennController,52,_Trial_,End,1739898762571,undefined,586,glisten,concrete-postiive,noun,verb,A,NULL
1739899168,492fb6e6fba0a4ddc683c28bebe415dd,PennController,42,0,test_syn,NULL,PennController,53,_Trial_,Start,1739898762572,undefined,669,eat,concrete-postiive,noun,verb,A,NULL
1739899168,492fb6e6fba0a4ddc683c28bebe415dd,PennController,42,0,test_syn,NULL,PennController,53,_Header_,Start,1739898762572,undefined,669,eat,concrete-postiive,noun,verb,A,NULL
1739899168,492fb6e6fba0a4ddc683c28bebe415dd,PennController,42,0,test_syn,NULL,PennController,53,_Header_,End,1739898762822,undefined,669,eat,concrete-postiive,noun,verb,A,NULL
1739899168,492fb6e6fba0a4ddc683c28bebe415dd,PennController,42,0,test_syn,NULL,Selector,unnamed-Selector,Selection,noun,1739898763996,undefined,669,eat,concrete-postiive,noun,verb,A,noun;verb
1739899168,492fb6e6fba0a4ddc683c28bebe415dd,PennController,42,0,test_syn,NULL,PennController,53,_Trial_,End,1739898763997,undefined,669,eat,concrete-postiive,noun,verb,A,NULL
1739899168,492fb6e6fba0a4ddc683c28bebe415dd,PennController,35,0,test_syn,NULL,PennController,46,_Trial_,Start,1739898763998,undefined,805,chocolate,concrete-postiive,noun,verb,A,NULL
1739899168,492fb6e6fba0a4ddc683c28bebe415dd,PennController,35,0,test_syn,NULL,PennController,46,_Header_,Start,1739898763998,undefined,805,chocolate,concrete-postiive,noun,verb,A,NULL
1739899168,492fb6e6fba0a4ddc683c28bebe415dd,PennController,35,0,test_syn,NULL,PennController,46,_Header_,End,1739898764250,undefined,805,chocolate,concrete-postiive,noun,verb,A,NULL
1739899168,492fb6e6fba0a4ddc683c28bebe415dd,PennController,35,0,test_syn,NULL,Selector,unnamed-Selector,Selection,noun,1739898765558,undefined,805,chocolate,concrete-postiive,noun,verb,A,noun;verb
1739899168,492fb6e6fba0a4ddc683c28bebe415dd,PennController,35,0,test_syn,NULL,PennController,46,_Trial_,End,1739898765558,undefined,805,chocolate,concrete-postiive,noun,verb,A,NULL
1739899168,492fb6e6fba0a4ddc683c28bebe415dd,PennController,23,0,test_syn,NULL,PennController,34,_Trial_,Start,1739898765559,undefined,553,obsess,abstract-negative,noun,verb,A,NULL
1739899168,492fb6e6fba0a4ddc683c28bebe415dd,PennController,23,0,test_syn,NULL,PennController,34,_Header_,Start,1739898765559,undefined,553,obsess,abstract-negative,noun,verb,A,NULL
1739899168,492fb6e6fba0a4ddc683c28bebe415dd,PennController,23,0,test_syn,NULL,PennController,34,_Header_,End,1739898765810,undefined,553,obsess,abstract-negative,noun,verb,A,NULL
1739899168,492fb6e6fba0a4ddc683c28bebe415dd,PennController,23,0,test_syn,NULL,Selector,unnamed-Selector,Selection,verb,1739898766868,undefined,553,obsess,abstract-negative,noun,verb,A,noun;verb
1739899168,492fb6e6fba0a4ddc683c28bebe415dd,PennController,23,0,test_syn,NULL,PennController,34,_Trial_,End,1739898766869,undefined,553,obsess,abstract-negative,noun,verb,A,NULL
1739899168,492fb6e6fba0a4ddc683c28bebe415dd,PennController,31,0,test_syn,NULL,PennController,42,_Trial_,Start,1739898766870,undefined,542,enlighten,abstract-positive,noun,verb,A,NULL
1739899168,492fb6e6fba0a4ddc683c28bebe415dd,PennController,31,0,test_syn,NULL,PennController,42,_Header_,Start,1739898766870,undefined,542,enlighten,abstract-positive,noun,verb,A,NULL
1739899168,492fb6e6fba0a4ddc683c28bebe415dd,PennController,31,0,test_syn,NULL,PennController,42,_Header_,End,1739898767121,undefined,542,enlighten,abstract-positive,noun,verb,A,NULL
1739899168,492fb6e6fba0a4ddc683c28bebe415dd,PennController,31,0,test_syn,NULL,Selector,unnamed-Selector,Selection,verb,1739898768165,undefined,542,enlighten,abstract-positive,noun,verb,A,noun;verb
1739899168,492fb6e6fba0a4ddc683c28bebe415dd,PennController,31,0,test_syn,NULL,PennController,42,_Trial_,End,1739898768166,undefined,542,enlighten,abstract-positive,noun,verb,A,NULL
1739899168,492fb6e6fba0a4ddc683c28bebe415dd,PennController,18,0,test_syn,NULL,PennController,29,_Trial_,Start,1739898768167,undefined,490,grief,abstract-negative,noun,verb,A,NULL
1739899168,492fb6e6fba0a4ddc683c28bebe415dd,PennController,18,0,test_syn,NULL,PennController,29,_Header_,Start,1739898768167,undefined,490,grief,abstract-negative,noun,verb,A,NULL
1739899168,492fb6e6fba0a4ddc683c28bebe415dd,PennController,18,0,test_syn,NULL,PennController,29,_Header_,End,1739898768418,undefined,490,grief,abstract-negative,noun,verb,A,NULL
1739899168,492fb6e6fba0a4ddc683c28bebe415dd,PennController,18,0,test_syn,NULL,Selector,unnamed-Selector,Selection,verb,1739898769409,undefined,490,grief,abstract-negative,noun,verb,A,noun;verb
1739899168,492fb6e6fba0a4ddc683c28bebe415dd,PennController,18,0,test_syn,NULL,PennController,29,_Trial_,End,1739898769410,undefined,490,grief,abstract-negative,noun,verb,A,NULL
1739899168,492fb6e6fba0a4ddc683c28bebe415dd,PennController,32,0,test_syn,NULL,PennController,43,_Trial_,Start,1739898769412,undefined,536,fulfill,abstract-positive,noun,verb,A,NULL
1739899168,492fb6e6fba0a4ddc683c28bebe415dd,PennController,32,0,test_syn,NULL,PennController,43,_Header_,Start,1739898769412,undefined,536,fulfill,abstract-positive,noun,verb,A,NULL
1739899168,492fb6e6fba0a4ddc683c28bebe415dd,PennController,32,0,test_syn,NULL,PennController,43,_Header_,End,1739898769663,undefined,536,fulfill,abstract-positive,noun,verb,A,NULL
1739899168,492fb6e6fba0a4ddc683c28bebe415dd,PennController,32,0,test_syn,NULL,Selector,unnamed-Selector,Selection,verb,1739898770703,undefined,536,fulfill,abstract-positive,noun,verb,A,noun;verb
1739899168,492fb6e6fba0a4ddc683c28bebe415dd,PennController,32,0,test_syn,NULL,PennController,43,_Trial_,End,1739898770704,undefined,536,fulfill,abstract-positive,noun,verb,A,NULL
1739899168,492fb6e6fba0a4ddc683c28bebe415dd,PennController,10,0,test_syn,NULL,PennController,21,_Trial_,Start,1739898770706,undefined,475,fester,concrete-negative,noun,verb,A,NULL
1739899168,492fb6e6fba0a4ddc683c28bebe415dd,PennController,10,0,test_syn,NULL,PennController,21,_Header_,Start,1739898770706,undefined,475,fester,concrete-negative,noun,verb,A,NULL
1739899168,492fb6e6fba0a4ddc683c28bebe415dd,PennController,10,0,test_syn,NULL,PennController,21,_Header_,End,1739898770958,undefined,475,fester,concrete-negative,noun,verb,A,NULL
1739899168,492fb6e6fba0a4ddc683c28bebe415dd,PennController,10,0,test_syn,NULL,Selector,unnamed-Selector,Selection,verb,1739898771938,undefined,475,fester,concrete-negative,noun,verb,A,noun;verb
1739899168,492fb6e6fba0a4ddc683c28bebe415dd,PennController,10,0,test_syn,NULL,PennController,21,_Trial_,End,1739898771938,undefined,475,fester,concrete-negative,noun,verb,A,NULL
1739899168,492fb6e6fba0a4ddc683c28bebe415dd,PennController,7,0,test_syn,NULL,PennController,18,_Trial_,Start,1739898771939,undefined,452,corpse,concrete-negative,noun,verb,A,NULL
1739899168,492fb6e6fba0a4ddc683c28bebe415dd,PennController,7,0,test_syn,NULL,PennController,18,_Header_,Start,1739898771939,undefined,452,corpse,concrete-negative,noun,verb,A,NULL
1739899168,492fb6e6fba0a4ddc683c28bebe415dd,PennController,7,0,test_syn,NULL,PennController,18,_Header_,End,1739898772192,undefined,452,corpse,concrete-negative,noun,verb,A,NULL
1739899168,492fb6e6fba0a4ddc683c28bebe415dd,PennController,7,0,test_syn,NULL,Selector,unnamed-Selector,Selection,verb,1739898773146,undefined,452,corpse,concrete-negative,noun,verb,A,noun;verb
1739899168,492fb6e6fba0a4ddc683c28bebe415dd,PennController,7,0,test_syn,NULL,PennController,18,_Trial_,End,1739898773147,undefined,452,corpse,concrete-negative,noun,verb,A,NULL
1739899168,492fb6e6fba0a4ddc683c28bebe415dd,PennController,34,0,test_syn,NULL,PennController,45,_Trial_,Start,1739898773148,undefined,542,beach,concrete-postiive,noun,verb,A,NULL
1739899168,492fb6e6fba0a4ddc683c28bebe415dd,PennController,34,0,test_syn,NULL,PennController,45,_Header_,Start,1739898773148,undefined,542,beach,concrete-postiive,noun,verb,A,NULL
1739899168,492fb6e6fba0a4ddc683c28bebe415dd,PennController,34,0,test_syn,NULL,PennController,45,_Header_,End,1739898773400,undefined,542,beach,concrete-postiive,noun,verb,A,NULL
1739899168,492fb6e6fba0a4ddc683c28bebe415dd,PennController,34,0,test_syn,NULL,Selector,unnamed-Selector,Selection,noun,1739898774446,undefined,542,beach,concrete-postiive,noun,verb,A,noun;verb
1739899168,492fb6e6fba0a4ddc683c28bebe415dd,PennController,34,0,test_syn,NULL,PennController,45,_Trial_,End,1739898774447,undefined,542,beach,concrete-postiive,noun,verb,A,NULL
1739899168,492fb6e6fba0a4ddc683c28bebe415dd,PennController,28,0,test_syn,NULL,PennController,39,_Trial_,Start,1739898774449,undefined,611,kindness,abstract-positive,noun,verb,A,NULL
1739899168,492fb6e6fba0a4ddc683c28bebe415dd,PennController,28,0,test_syn,NULL,PennController,39,_Header_,Start,1739898774449,undefined,611,kindness,abstract-positive,noun,verb,A,NULL
1739899168,492fb6e6fba0a4ddc683c28bebe415dd,PennController,28,0,test_syn,NULL,PennController,39,_Header_,End,1739898774700,undefined,611,kindness,abstract-positive,noun,verb,A,NULL
1739899168,492fb6e6fba0a4ddc683c28bebe415dd,PennController,28,0,test_syn,NULL,Selector,unnamed-Selector,Selection,verb,1739898775816,undefined,611,kindness,abstract-positive,noun,verb,A,noun;verb
1739899168,492fb6e6fba0a4ddc683c28bebe415dd,PennController,28,0,test_syn,NULL,PennController,39,_Trial_,End,1739898775817,undefined,611,kindness,abstract-positive,noun,verb,A,NULL
1739899168,492fb6e6fba0a4ddc683c28bebe415dd,PennController,13,0,test_syn,NULL,PennController,24,_Trial_,Start,1739898775818,undefined,562,stab,concrete-negative,noun,verb,A,NULL
1739899168,492fb6e6fba0a4ddc683c28bebe415dd,PennController,13,0,test_syn,NULL,PennController,24,_Header_,Start,1739898775818,undefined,562,stab,concrete-negative,noun,verb,A,NULL
1739899168,492fb6e6fba0a4ddc683c28bebe415dd,PennController,13,0,test_syn,NULL,PennController,24,_Header_,End,1739898776072,undefined,562,stab,concrete-negative,noun,verb,A,NULL
1739899168,492fb6e6fba0a4ddc683c28bebe415dd,PennController,13,0,test_syn,NULL,Selector,unnamed-Selector,Selection,noun,1739898777136,undefined,562,stab,concrete-negative,noun,verb,A,noun;verb
1739899168,492fb6e6fba0a4ddc683c28bebe415dd,PennController,13,0,test_syn,NULL,PennController,24,_Trial_,End,1739898777137,undefined,562,stab,concrete-negative,noun,verb,A,NULL
1739899168,492fb6e6fba0a4ddc683c28bebe415dd,PennController,11,0,test_syn,NULL,PennController,22,_Trial_,Start,1739898777138,undefined,492,writhe,concrete-negative,noun,verb,A,NULL
1739899168,492fb6e6fba0a4ddc683c28bebe415dd,PennController,11,0,test_syn,NULL,PennController,22,_Header_,Start,1739898777138,undefined,492,writhe,concrete-negative,noun,verb,A,NULL
1739899168,492fb6e6fba0a4ddc683c28bebe415dd,PennController,11,0,test_syn,NULL,PennController,22,_Header_,End,1739898777390,undefined,492,writhe,concrete-negative,noun,verb,A,NULL
1739899168,492fb6e6fba0a4ddc683c28bebe415dd,PennController,11,0,test_syn,NULL,Selector,unnamed-Selector,Selection,verb,1739898778388,undefined,492,writhe,concrete-negative,noun,verb,A,noun;verb
1739899168,492fb6e6fba0a4ddc683c28bebe415dd,PennController,11,0,test_syn,NULL,PennController,22,_Trial_,End,1739898778389,undefined,492,writhe,concrete-negative,noun,verb,A,NULL
1739899168,492fb6e6fba0a4ddc683c28bebe415dd,PennController,27,0,test_syn,NULL,PennController,38,_Trial_,Start,1739898778390,undefined,600,inspiration,abstract-positive,noun,verb,A,NULL
1739899168,492fb6e6fba0a4ddc683c28bebe415dd,PennController,27,0,test_syn,NULL,PennController,38,_Header_,Start,1739898778390,undefined,600,inspiration,abstract-positive,noun,verb,A,NULL
1739899168,492fb6e6fba0a4ddc683c28bebe415dd,PennController,27,0,test_syn,NULL,PennController,38,_Header_,End,1739898778641,undefined,600,inspiration,abstract-positive,noun,verb,A,NULL
1739899168,492fb6e6fba0a4ddc683c28bebe415dd,PennController,27,0,test_syn,NULL,Selector,unnamed-Selector,Selection,verb,1739898779746,undefined,600,inspiration,abstract-positive,noun,verb,A,noun;verb
1739899168,492fb6e6fba0a4ddc683c28bebe415dd,PennController,27,0,test_syn,NULL,PennController,38,_Trial_,End,1739898779748,undefined,600,inspiration,abstract-positive,noun,verb,A,NULL
1739899168,492fb6e6fba0a4ddc683c28bebe415dd,PennController,14,0,test_syn,NULL,PennController,25,_Trial_,Start,1739898779749,undefined,421,terror,abstract-negative,noun,verb,A,NULL
1739899168,492fb6e6fba0a4ddc683c28bebe415dd,PennController,14,0,test_syn,NULL,PennController,25,_Header_,Start,1739898779749,undefined,421,terror,abstract-negative,noun,verb,A,NULL
1739899168,492fb6e6fba0a4ddc683c28bebe415dd,PennController,14,0,test_syn,NULL,PennController,25,_Header_,End,1739898779999,undefined,421,terror,abstract-negative,noun,verb,A,NULL
1739899168,492fb6e6fba0a4ddc683c28bebe415dd,PennController,14,0,test_syn,NULL,Selector,unnamed-Selector,Selection,verb,1739898780925,undefined,421,terror,abstract-negative,noun,verb,A,noun;verb
1739899168,492fb6e6fba0a4ddc683c28bebe415dd,PennController,14,0,test_syn,NULL,PennController,25,_Trial_,End,1739898780927,undefined,421,terror,abstract-negative,noun,verb,A,NULL
1739899168,492fb6e6fba0a4ddc683c28bebe415dd,PennController,29,0,test_syn,NULL,PennController,40,_Trial_,Start,1739898780928,undefined,487,admire,abstract-positive,noun,verb,A,NULL
1739899168,492fb6e6fba0a4ddc683c28bebe415dd,PennController,29,0,test_syn,NULL,PennController,40,_Header_,Start,1739898780928,undefined,487,admire,abstract-positive,noun,verb,A,NULL
1739899168,492fb6e6fba0a4ddc683c28bebe415dd,PennController,29,0,test_syn,NULL,PennController,40,_Header_,End,1739898781179,undefined,487,admire,abstract-positive,noun,verb,A,NULL
1739899168,492fb6e6fba0a4ddc683c28bebe415dd,PennController,29,0,test_syn,NULL,Selector,unnamed-Selector,Selection,verb,1739898782169,undefined,487,admire,abstract-positive,noun,verb,A,noun;verb
1739899168,492fb6e6fba0a4ddc683c28bebe415dd,PennController,29,0,test_syn,NULL,PennController,40,_Trial_,End,1739898782169,undefined,487,admire,abstract-positive,noun,verb,A,NULL
1739899168,492fb6e6fba0a4ddc683c28bebe415dd,PennController,8,0,test_syn,NULL,PennController,19,_Trial_,Start,1739898782170,undefined,489,slave,concrete-negative,noun,verb,A,NULL
1739899168,492fb6e6fba0a4ddc683c28bebe415dd,PennController,8,0,test_syn,NULL,PennController,19,_Header_,Start,1739898782170,undefined,489,slave,concrete-negative,noun,verb,A,NULL
1739899168,492fb6e6fba0a4ddc683c28bebe415dd,PennController,8,0,test_syn,NULL,PennController,19,_Header_,End,1739898782421,undefined,489,slave,concrete-negative,noun,verb,A,NULL
1739899168,492fb6e6fba0a4ddc683c28bebe415dd,PennController,8,0,test_syn,NULL,Selector,unnamed-Selector,Selection,verb,1739898783414,undefined,489,slave,concrete-negative,noun,verb,A,noun;verb
1739899168,492fb6e6fba0a4ddc683c28bebe415dd,PennController,8,0,test_syn,NULL,PennController,19,_Trial_,End,1739898783415,undefined,489,slave,concrete-negative,noun,verb,A,NULL
1739899168,492fb6e6fba0a4ddc683c28bebe415dd,PennController,20,0,test_syn,NULL,PennController,31,_Trial_,Start,1739898783415,undefined,600,criticize,abstract-negative,noun,verb,A,NULL
1739899168,492fb6e6fba0a4ddc683c28bebe415dd,PennController,20,0,test_syn,NULL,PennController,31,_Header_,Start,1739898783415,undefined,600,criticize,abstract-negative,noun,verb,A,NULL
1739899168,492fb6e6fba0a4ddc683c28bebe415dd,PennController,20,0,test_syn,NULL,PennController,31,_Header_,End,1739898783666,undefined,600,criticize,abstract-negative,noun,verb,A,NULL
1739899168,492fb6e6fba0a4ddc683c28bebe415dd,PennController,20,0,test_syn,NULL,Selector,unnamed-Selector,Selection,verb,1739898784770,undefined,600,criticize,abstract-negative,noun,verb,A,noun;verb
1739899168,492fb6e6fba0a4ddc683c28bebe415dd,PennController,20,0,test_syn,NULL,PennController,31,_Trial_,End,1739898784772,undefined,600,criticize,abstract-negative,noun,verb,A,NULL
1739899168,492fb6e6fba0a4ddc683c28bebe415dd,PennController,12,0,test_syn,NULL,PennController,23,_Trial_,Start,1739898784773,undefined,748,bleed,concrete-negative,noun,verb,A,NULL
1739899168,492fb6e6fba0a4ddc683c28bebe415dd,PennController,12,0,test_syn,NULL,PennController,23,_Header_,Start,1739898784773,undefined,748,bleed,concrete-negative,noun,verb,A,NULL
1739899168,492fb6e6fba0a4ddc683c28bebe415dd,PennController,12,0,test_syn,NULL,PennController,23,_Header_,End,1739898785023,undefined,748,bleed,concrete-negative,noun,verb,A,NULL
1739899168,492fb6e6fba0a4ddc683c28bebe415dd,PennController,12,0,test_syn,NULL,Selector,unnamed-Selector,Selection,verb,1739898786273,undefined,748,bleed,concrete-negative,noun,verb,A,noun;verb
1739899168,492fb6e6fba0a4ddc683c28bebe415dd,PennController,12,0,test_syn,NULL,PennController,23,_Trial_,End,1739898786273,undefined,748,bleed,concrete-negative,noun,verb,A,NULL
1739899168,492fb6e6fba0a4ddc683c28bebe415dd,PennController,26,0,test_syn,NULL,PennController,37,_Trial_,Start,1739898786274,undefined,567,gratitude,abstract-positive,noun,verb,A,NULL
1739899168,492fb6e6fba0a4ddc683c28bebe415dd,PennController,26,0,test_syn,NULL,PennController,37,_Header_,Start,1739898786274,undefined,567,gratitude,abstract-positive,noun,verb,A,NULL
1739899168,492fb6e6fba0a4ddc683c28bebe415dd,PennController,26,0,test_syn,NULL,PennController,37,_Header_,End,1739898786524,undefined,567,gratitude,abstract-positive,noun,verb,A,NULL
1739899168,492fb6e6fba0a4ddc683c28bebe415dd,PennController,26,0,test_syn,NULL,Selector,unnamed-Selector,Selection,verb,1739898787595,undefined,567,gratitude,abstract-positive,noun,verb,A,noun;verb
1739899168,492fb6e6fba0a4ddc683c28bebe415dd,PennController,26,0,test_syn,NULL,PennController,37,_Trial_,End,1739898787597,undefined,567,gratitude,abstract-positive,noun,verb,A,NULL
1739899168,492fb6e6fba0a4ddc683c28bebe415dd,PennController,35,0,test_syn,NULL,PennController,46,_Trial_,Start,1739898787598,undefined,473,chocolate,concrete-postiive,noun,verb,A,NULL
1739899168,492fb6e6fba0a4ddc683c28bebe415dd,PennController,35,0,test_syn,NULL,PennController,46,_Header_,Start,1739898787598,undefined,473,chocolate,concrete-postiive,noun,verb,A,NULL
1739899168,492fb6e6fba0a4ddc683c28bebe415dd,PennController,35,0,test_syn,NULL,PennController,46,_Header_,End,1739898787848,undefined,473,chocolate,concrete-postiive,noun,verb,A,NULL
1739899168,492fb6e6fba0a4ddc683c28bebe415dd,PennController,35,0,test_syn,NULL,Selector,unnamed-Selector,Selection,noun,1739898788827,undefined,473,chocolate,concrete-postiive,noun,verb,A,noun;verb
1739899168,492fb6e6fba0a4ddc683c28bebe415dd,PennController,35,0,test_syn,NULL,PennController,46,_Trial_,End,1739898788827,undefined,473,chocolate,concrete-postiive,noun,verb,A,NULL
1739899168,492fb6e6fba0a4ddc683c28bebe415dd,PennController,10,0,test_syn,NULL,PennController,21,_Trial_,Start,1739898788828,undefined,576,fester,concrete-negative,noun,verb,A,NULL
1739899168,492fb6e6fba0a4ddc683c28bebe415dd,PennController,10,0,test_syn,NULL,PennController,21,_Header_,Start,1739898788828,undefined,576,fester,concrete-negative,noun,verb,A,NULL
1739899168,492fb6e6fba0a4ddc683c28bebe415dd,PennController,10,0,test_syn,NULL,PennController,21,_Header_,End,1739898789080,undefined,576,fester,concrete-negative,noun,verb,A,NULL
1739899168,492fb6e6fba0a4ddc683c28bebe415dd,PennController,10,0,test_syn,NULL,Selector,unnamed-Selector,Selection,verb,1739898790157,undefined,576,fester,concrete-negative,noun,verb,A,noun;verb
1739899168,492fb6e6fba0a4ddc683c28bebe415dd,PennController,10,0,test_syn,NULL,PennController,21,_Trial_,End,1739898790158,undefined,576,fester,concrete-negative,noun,verb,A,NULL
1739899168,492fb6e6fba0a4ddc683c28bebe415dd,PennController,15,0,test_syn,NULL,PennController,26,_Trial_,Start,1739898790159,undefined,533,hatred,abstract-negative,noun,verb,A,NULL
1739899168,492fb6e6fba0a4ddc683c28bebe415dd,PennController,15,0,test_syn,NULL,PennController,26,_Header_,Start,1739898790159,undefined,533,hatred,abstract-negative,noun,verb,A,NULL
1739899168,492fb6e6fba0a4ddc683c28bebe415dd,PennController,15,0,test_syn,NULL,PennController,26,_Header_,End,1739898790412,undefined,533,hatred,abstract-negative,noun,verb,A,NULL
1739899168,492fb6e6fba0a4ddc683c28bebe415dd,PennController,15,0,test_syn,NULL,Selector,unnamed-Selector,Selection,verb,1739898791449,undefined,533,hatred,abstract-negative,noun,verb,A,noun;verb
1739899168,492fb6e6fba0a4ddc683c28bebe415dd,PennController,15,0,test_syn,NULL,PennController,26,_Trial_,End,1739898791451,undefined,533,hatred,abstract-negative,noun,verb,A,NULL
1739899168,492fb6e6fba0a4ddc683c28bebe415dd,PennController,30,0,test_syn,NULL,PennController,41,_Trial_,Start,1739898791452,undefined,442,cherish,abstract-positive,noun,verb,A,NULL
1739899168,492fb6e6fba0a4ddc683c28bebe415dd,PennController,30,0,test_syn,NULL,PennController,41,_Header_,Start,1739898791452,undefined,442,cherish,abstract-positive,noun,verb,A,NULL
1739899168,492fb6e6fba0a4ddc683c28bebe415dd,PennController,30,0,test_syn,NULL,PennController,41,_Header_,End,1739898791703,undefined,442,cherish,abstract-positive,noun,verb,A,NULL
1739899168,492fb6e6fba0a4ddc683c28bebe415dd,PennController,30,0,test_syn,NULL,Selector,unnamed-Selector,Selection,verb,1739898792649,undefined,442,cherish,abstract-positive,noun,verb,A,noun;verb
1739899168,492fb6e6fba0a4ddc683c28bebe415dd,PennController,30,0,test_syn,NULL,PennController,41,_Trial_,End,1739898792650,undefined,442,cherish,abstract-positive,noun,verb,A,NULL
1739899168,492fb6e6fba0a4ddc683c28bebe415dd,PennController,6,0,test_syn,NULL,PennController,17,_Trial_,Start,1739898792652,undefined,479,mud,concrete-negative,noun,verb,A,NULL
1739899168,492fb6e6fba0a4ddc683c28bebe415dd,PennController,6,0,test_syn,NULL,PennController,17,_Header_,Start,1739898792652,undefined,479,mud,concrete-negative,noun,verb,A,NULL
1739899168,492fb6e6fba0a4ddc683c28bebe415dd,PennController,6,0,test_syn,NULL,PennController,17,_Header_,End,1739898792903,undefined,479,mud,concrete-negative,noun,verb,A,NULL
1739899168,492fb6e6fba0a4ddc683c28bebe415dd,PennController,6,0,test_syn,NULL,Selector,unnamed-Selector,Selection,verb,1739898793883,undefined,479,mud,concrete-negative,noun,verb,A,noun;verb
1739899168,492fb6e6fba0a4ddc683c28bebe415dd,PennController,6,0,test_syn,NULL,PennController,17,_Trial_,End,1739898793883,undefined,479,mud,concrete-negative,noun,verb,A,NULL
1739899168,492fb6e6fba0a4ddc683c28bebe415dd,PennController,23,0,test_syn,NULL,PennController,34,_Trial_,Start,1739898793884,undefined,511,obsess,abstract-negative,noun,verb,A,NULL
1739899168,492fb6e6fba0a4ddc683c28bebe415dd,PennController,23,0,test_syn,NULL,PennController,34,_Header_,Start,1739898793884,undefined,511,obsess,abstract-negative,noun,verb,A,NULL
1739899168,492fb6e6fba0a4ddc683c28bebe415dd,PennController,23,0,test_syn,NULL,PennController,34,_Header_,End,1739898794134,undefined,511,obsess,abstract-negative,noun,verb,A,NULL
1739899168,492fb6e6fba0a4ddc683c28bebe415dd,PennController,23,0,test_syn,NULL,Selector,unnamed-Selector,Selection,verb,1739898795150,undefined,511,obsess,abstract-negative,noun,verb,A,noun;verb
1739899168,492fb6e6fba0a4ddc683c28bebe415dd,PennController,23,0,test_syn,NULL,PennController,34,_Trial_,End,1739898795152,undefined,511,obsess,abstract-negative,noun,verb,A,NULL
1739899168,492fb6e6fba0a4ddc683c28bebe415dd,PennController,24,0,test_syn,NULL,PennController,35,_Trial_,Start,1739898795153,undefined,595,compassion,abstract-positive,noun,verb,A,NULL
1739899168,492fb6e6fba0a4ddc683c28bebe415dd,PennController,24,0,test_syn,NULL,PennController,35,_Header_,Start,1739898795153,undefined,595,compassion,abstract-positive,noun,verb,A,NULL
1739899168,492fb6e6fba0a4ddc683c28bebe415dd,PennController,24,0,test_syn,NULL,PennController,35,_Header_,End,1739898795404,undefined,595,compassion,abstract-positive,noun,verb,A,NULL
1739899168,492fb6e6fba0a4ddc683c28bebe415dd,PennController,24,0,test_syn,NULL,Selector,unnamed-Selector,Selection,verb,1739898796504,undefined,595,compassion,abstract-positive,noun,verb,A,noun;verb
1739899168,492fb6e6fba0a4ddc683c28bebe415dd,PennController,24,0,test_syn,NULL,PennController,35,_Trial_,End,1739898796505,undefined,595,compassion,abstract-positive,noun,verb,A,NULL
1739899168,492fb6e6fba0a4ddc683c28bebe415dd,PennController,34,0,test_syn,NULL,PennController,45,_Trial_,Start,1739898796507,undefined,614,beach,concrete-postiive,noun,verb,A,NULL
1739899168,492fb6e6fba0a4ddc683c28bebe415dd,PennController,34,0,test_syn,NULL,PennController,45,_Header_,Start,1739898796507,undefined,614,beach,concrete-postiive,noun,verb,A,NULL
1739899168,492fb6e6fba0a4ddc683c28bebe415dd,PennController,34,0,test_syn,NULL,PennController,45,_Header_,End,1739898796757,undefined,614,beach,concrete-postiive,noun,verb,A,NULL
1739899168,492fb6e6fba0a4ddc683c28bebe415dd,PennController,34,0,test_syn,NULL,Selector,unnamed-Selector,Selection,noun,1739898797873,undefined,614,beach,concrete-postiive,noun,verb,A,noun;verb
1739899168,492fb6e6fba0a4ddc683c28bebe415dd,PennController,34,0,test_syn,NULL,PennController,45,_Trial_,End,1739898797874,undefined,614,beach,concrete-postiive,noun,verb,A,NULL
1739899168,492fb6e6fba0a4ddc683c28bebe415dd,PennController,40,0,test_syn,NULL,PennController,51,_Trial_,Start,1739898797874,undefined,552,breathe,concrete-postiive,noun,verb,A,NULL
1739899168,492fb6e6fba0a4ddc683c28bebe415dd,PennController,40,0,test_syn,NULL,PennController,51,_Header_,Start,1739898797874,undefined,552,breathe,concrete-postiive,noun,verb,A,NULL
1739899168,492fb6e6fba0a4ddc683c28bebe415dd,PennController,40,0,test_syn,NULL,PennController,51,_Header_,End,1739898798126,undefined,552,breathe,concrete-postiive,noun,verb,A,NULL
1739899168,492fb6e6fba0a4ddc683c28bebe415dd,PennController,40,0,test_syn,NULL,Selector,unnamed-Selector,Selection,verb,1739898799178,undefined,552,breathe,concrete-postiive,noun,verb,A,noun;verb
1739899168,492fb6e6fba0a4ddc683c28bebe415dd,PennController,40,0,test_syn,NULL,PennController,51,_Trial_,End,1739898799179,undefined,552,breathe,concrete-postiive,noun,verb,A,NULL
1739899168,492fb6e6fba0a4ddc683c28bebe415dd,PennController,17,0,test_syn,NULL,PennController,28,_Trial_,Start,1739898799180,undefined,518,failure,abstract-negative,noun,verb,A,NULL
1739899168,492fb6e6fba0a4ddc683c28bebe415dd,PennController,17,0,test_syn,NULL,PennController,28,_Header_,Start,1739898799180,undefined,518,failure,abstract-negative,noun,verb,A,NULL
1739899168,492fb6e6fba0a4ddc683c28bebe415dd,PennController,17,0,test_syn,NULL,PennController,28,_Header_,End,1739898799432,undefined,518,failure,abstract-negative,noun,verb,A,NULL
1739899168,492fb6e6fba0a4ddc683c28bebe415dd,PennController,17,0,test_syn,NULL,Selector,unnamed-Selector,Selection,verb,1739898800454,undefined,518,failure,abstract-negative,noun,verb,A,noun;verb
1739899168,492fb6e6fba0a4ddc683c28bebe415dd,PennController,17,0,test_syn,NULL,PennController,28,_Trial_,End,1739898800455,undefined,518,failure,abstract-negative,noun,verb,A,NULL
1739899168,492fb6e6fba0a4ddc683c28bebe415dd,PennController,27,0,test_syn,NULL,PennController,38,_Trial_,Start,1739898800456,undefined,514,inspiration,abstract-positive,noun,verb,A,NULL
1739899168,492fb6e6fba0a4ddc683c28bebe415dd,PennController,27,0,test_syn,NULL,PennController,38,_Header_,Start,1739898800456,undefined,514,inspiration,abstract-positive,noun,verb,A,NULL
1739899168,492fb6e6fba0a4ddc683c28bebe415dd,PennController,27,0,test_syn,NULL,PennController,38,_Header_,End,1739898800707,undefined,514,inspiration,abstract-positive,noun,verb,A,NULL
1739899168,492fb6e6fba0a4ddc683c28bebe415dd,PennController,27,0,test_syn,NULL,Selector,unnamed-Selector,Selection,verb,1739898801725,undefined,514,inspiration,abstract-positive,noun,verb,A,noun;verb
1739899168,492fb6e6fba0a4ddc683c28bebe415dd,PennController,27,0,test_syn,NULL,PennController,38,_Trial_,End,1739898801726,undefined,514,inspiration,abstract-positive,noun,verb,A,NULL
1739899168,492fb6e6fba0a4ddc683c28bebe415dd,PennController,25,0,test_syn,NULL,PennController,36,_Trial_,Start,1739898801727,undefined,607,freedom,abstract-positive,noun,verb,A,NULL
1739899168,492fb6e6fba0a4ddc683c28bebe415dd,PennController,25,0,test_syn,NULL,PennController,36,_Header_,Start,1739898801727,undefined,607,freedom,abstract-positive,noun,verb,A,NULL
1739899168,492fb6e6fba0a4ddc683c28bebe415dd,PennController,25,0,test_syn,NULL,PennController,36,_Header_,End,1739898801980,undefined,607,freedom,abstract-positive,noun,verb,A,NULL
1739899168,492fb6e6fba0a4ddc683c28bebe415dd,PennController,25,0,test_syn,NULL,Selector,unnamed-Selector,Selection,verb,1739898803088,undefined,607,freedom,abstract-positive,noun,verb,A,noun;verb
1739899168,492fb6e6fba0a4ddc683c28bebe415dd,PennController,25,0,test_syn,NULL,PennController,36,_Trial_,End,1739898803089,undefined,607,freedom,abstract-positive,noun,verb,A,NULL
1739899168,492fb6e6fba0a4ddc683c28bebe415dd,PennController,5,0,test_syn,NULL,PennController,16,_Trial_,Start,1739898803090,undefined,522,garbage,concrete-negative,noun,verb,A,NULL
1739899168,492fb6e6fba0a4ddc683c28bebe415dd,PennController,5,0,test_syn,NULL,PennController,16,_Header_,Start,1739898803090,undefined,522,garbage,concrete-negative,noun,verb,A,NULL
1739899168,492fb6e6fba0a4ddc683c28bebe415dd,PennController,5,0,test_syn,NULL,PennController,16,_Header_,End,1739898803341,undefined,522,garbage,concrete-negative,noun,verb,A,NULL
1739899168,492fb6e6fba0a4ddc683c28bebe415dd,PennController,5,0,test_syn,NULL,Selector,unnamed-Selector,Selection,noun,1739898804369,undefined,522,garbage,concrete-negative,noun,verb,A,noun;verb
1739899168,492fb6e6fba0a4ddc683c28bebe415dd,PennController,5,0,test_syn,NULL,PennController,16,_Trial_,End,1739898804370,undefined,522,garbage,concrete-negative,noun,verb,A,NULL
1739899168,492fb6e6fba0a4ddc683c28bebe415dd,PennController,41,0,test_syn,NULL,PennController,52,_Trial_,Start,1739898804370,undefined,468,glisten,concrete-postiive,noun,verb,A,NULL
1739899168,492fb6e6fba0a4ddc683c28bebe415dd,PennController,41,0,test_syn,NULL,PennController,52,_Header_,Start,1739898804370,undefined,468,glisten,concrete-postiive,noun,verb,A,NULL
1739899168,492fb6e6fba0a4ddc683c28bebe415dd,PennController,41,0,test_syn,NULL,PennController,52,_Header_,End,1739898804624,undefined,468,glisten,concrete-postiive,noun,verb,A,NULL
1739899168,492fb6e6fba0a4ddc683c28bebe415dd,PennController,41,0,test_syn,NULL,Selector,unnamed-Selector,Selection,verb,1739898805594,undefined,468,glisten,concrete-postiive,noun,verb,A,noun;verb
1739899168,492fb6e6fba0a4ddc683c28bebe415dd,PennController,41,0,test_syn,NULL,PennController,52,_Trial_,End,1739898805595,undefined,468,glisten,concrete-postiive,noun,verb,A,NULL
1739899168,492fb6e6fba0a4ddc683c28bebe415dd,PennController,43,0,test_syn,NULL,PennController,54,_Trial_,Start,1739898805596,undefined,419,running,concrete-postiive,noun,verb,A,NULL
1739899168,492fb6e6fba0a4ddc683c28bebe415dd,PennController,43,0,test_syn,NULL,PennController,54,_Header_,Start,1739898805596,undefined,419,running,concrete-postiive,noun,verb,A,NULL
1739899168,492fb6e6fba0a4ddc683c28bebe415dd,PennController,43,0,test_syn,NULL,PennController,54,_Header_,End,1739898805848,undefined,419,running,concrete-postiive,noun,verb,A,NULL
1739899168,492fb6e6fba0a4ddc683c28bebe415dd,PennController,43,0,test_syn,NULL,Selector,unnamed-Selector,Selection,verb,1739898806768,undefined,419,running,concrete-postiive,noun,verb,A,noun;verb
1739899168,492fb6e6fba0a4ddc683c28bebe415dd,PennController,43,0,test_syn,NULL,PennController,54,_Trial_,End,1739898806769,undefined,419,running,concrete-postiive,noun,verb,A,NULL
1739899168,492fb6e6fba0a4ddc683c28bebe415dd,PennController,32,0,test_syn,NULL,PennController,43,_Trial_,Start,1739898806770,undefined,438,fulfill,abstract-positive,noun,verb,A,NULL
1739899168,492fb6e6fba0a4ddc683c28bebe415dd,PennController,32,0,test_syn,NULL,PennController,43,_Header_,Start,1739898806770,undefined,438,fulfill,abstract-positive,noun,verb,A,NULL
1739899168,492fb6e6fba0a4ddc683c28bebe415dd,PennController,32,0,test_syn,NULL,PennController,43,_Header_,End,1739898807020,undefined,438,fulfill,abstract-positive,noun,verb,A,NULL
1739899168,492fb6e6fba0a4ddc683c28bebe415dd,PennController,32,0,test_syn,NULL,Selector,unnamed-Selector,Selection,verb,1739898807960,undefined,438,fulfill,abstract-positive,noun,verb,A,noun;verb
1739899168,492fb6e6fba0a4ddc683c28bebe415dd,PennController,32,0,test_syn,NULL,PennController,43,_Trial_,End,1739898807961,undefined,438,fulfill,abstract-positive,noun,verb,A,NULL
1739899168,492fb6e6fba0a4ddc683c28bebe415dd,PennController,22,0,test_syn,NULL,PennController,33,_Trial_,Start,1739898807962,undefined,374,resent,abstract-negative,noun,verb,A,NULL
1739899168,492fb6e6fba0a4ddc683c28bebe415dd,PennController,22,0,test_syn,NULL,PennController,33,_Header_,Start,1739898807962,undefined,374,resent,abstract-negative,noun,verb,A,NULL
1739899168,492fb6e6fba0a4ddc683c28bebe415dd,PennController,22,0,test_syn,NULL,PennController,33,_Header_,End,1739898808213,undefined,374,resent,abstract-negative,noun,verb,A,NULL
1739899168,492fb6e6fba0a4ddc683c28bebe415dd,PennController,22,0,test_syn,NULL,Selector,unnamed-Selector,Selection,verb,1739898809091,undefined,374,resent,abstract-negative,noun,verb,A,noun;verb
1739899168,492fb6e6fba0a4ddc683c28bebe415dd,PennController,22,0,test_syn,NULL,PennController,33,_Trial_,End,1739898809092,undefined,374,resent,abstract-negative,noun,verb,A,NULL
1739899168,492fb6e6fba0a4ddc683c28bebe415dd,PennController,18,0,test_syn,NULL,PennController,29,_Trial_,Start,1739898809092,undefined,361,grief,abstract-negative,noun,verb,A,NULL
1739899168,492fb6e6fba0a4ddc683c28bebe415dd,PennController,18,0,test_syn,NULL,PennController,29,_Header_,Start,1739898809092,undefined,361,grief,abstract-negative,noun,verb,A,NULL
1739899168,492fb6e6fba0a4ddc683c28bebe415dd,PennController,18,0,test_syn,NULL,PennController,29,_Header_,End,1739898809344,undefined,361,grief,abstract-negative,noun,verb,A,NULL
1739899168,492fb6e6fba0a4ddc683c28bebe415dd,PennController,18,0,test_syn,NULL,Selector,unnamed-Selector,Selection,verb,1739898810210,undefined,361,grief,abstract-negative,noun,verb,A,noun;verb
1739899168,492fb6e6fba0a4ddc683c28bebe415dd,PennController,18,0,test_syn,NULL,PennController,29,_Trial_,End,1739898810211,undefined,361,grief,abstract-negative,noun,verb,A,NULL
1739899168,492fb6e6fba0a4ddc683c28bebe415dd,PennController,31,0,test_syn,NULL,PennController,42,_Trial_,Start,1739898810212,undefined,362,enlighten,abstract-positive,noun,verb,A,NULL
1739899168,492fb6e6fba0a4ddc683c28bebe415dd,PennController,31,0,test_syn,NULL,PennController,42,_Header_,Start,1739898810212,undefined,362,enlighten,abstract-positive,noun,verb,A,NULL
1739899168,492fb6e6fba0a4ddc683c28bebe415dd,PennController,31,0,test_syn,NULL,PennController,42,_Header_,End,1739898810464,undefined,362,enlighten,abstract-positive,noun,verb,A,NULL
1739899168,492fb6e6fba0a4ddc683c28bebe415dd,PennController,31,0,test_syn,NULL,Selector,unnamed-Selector,Selection,verb,1739898811332,undefined,362,enlighten,abstract-positive,noun,verb,A,noun;verb
1739899168,492fb6e6fba0a4ddc683c28bebe415dd,PennController,31,0,test_syn,NULL,PennController,42,_Trial_,End,1739898811333,undefined,362,enlighten,abstract-positive,noun,verb,A,NULL
1739899168,492fb6e6fba0a4ddc683c28bebe415dd,PennController,28,0,test_syn,NULL,PennController,39,_Trial_,Start,1739898811334,undefined,462,kindness,abstract-positive,noun,verb,A,NULL
1739899168,492fb6e6fba0a4ddc683c28bebe415dd,PennController,28,0,test_syn,NULL,PennController,39,_Header_,Start,1739898811334,undefined,462,kindness,abstract-positive,noun,verb,A,NULL
1739899168,492fb6e6fba0a4ddc683c28bebe415dd,PennController,28,0,test_syn,NULL,PennController,39,_Header_,End,1739898811585,undefined,462,kindness,abstract-positive,noun,verb,A,NULL
1739899168,492fb6e6fba0a4ddc683c28bebe415dd,PennController,28,0,test_syn,NULL,Selector,unnamed-Selector,Selection,verb,1739898812548,undefined,462,kindness,abstract-positive,noun,verb,A,noun;verb
1739899168,492fb6e6fba0a4ddc683c28bebe415dd,PennController,28,0,test_syn,NULL,PennController,39,_Trial_,End,1739898812549,undefined,462,kindness,abstract-positive,noun,verb,A,NULL
1739899168,492fb6e6fba0a4ddc683c28bebe415dd,PennController,38,0,test_syn,NULL,PennController,49,_Trial_,Start,1739898812550,undefined,683,home,concrete-postiive,noun,verb,A,NULL
1739899168,492fb6e6fba0a4ddc683c28bebe415dd,PennController,38,0,test_syn,NULL,PennController,49,_Header_,Start,1739898812550,undefined,683,home,concrete-postiive,noun,verb,A,NULL
1739899168,492fb6e6fba0a4ddc683c28bebe415dd,PennController,38,0,test_syn,NULL,PennController,49,_Header_,End,1739898812803,undefined,683,home,concrete-postiive,noun,verb,A,NULL
1739899168,492fb6e6fba0a4ddc683c28bebe415dd,PennController,38,0,test_syn,NULL,Selector,unnamed-Selector,Selection,noun,1739898813991,undefined,683,home,concrete-postiive,noun,verb,A,noun;verb
1739899168,492fb6e6fba0a4ddc683c28bebe415dd,PennController,38,0,test_syn,NULL,PennController,49,_Trial_,End,1739898813992,undefined,683,home,concrete-postiive,noun,verb,A,NULL
1739899168,492fb6e6fba0a4ddc683c28bebe415dd,PennController,29,0,test_syn,NULL,PennController,40,_Trial_,Start,1739898813992,undefined,420,admire,abstract-positive,noun,verb,A,NULL
1739899168,492fb6e6fba0a4ddc683c28bebe415dd,PennController,29,0,test_syn,NULL,PennController,40,_Header_,Start,1739898813992,undefined,420,admire,abstract-positive,noun,verb,A,NULL
1739899168,492fb6e6fba0a4ddc683c28bebe415dd,PennController,29,0,test_syn,NULL,PennController,40,_Header_,End,1739898814245,undefined,420,admire,abstract-positive,noun,verb,A,NULL
1739899168,492fb6e6fba0a4ddc683c28bebe415dd,PennController,29,0,test_syn,NULL,Selector,unnamed-Selector,Selection,verb,1739898815170,undefined,420,admire,abstract-positive,noun,verb,A,noun;verb
1739899168,492fb6e6fba0a4ddc683c28bebe415dd,PennController,29,0,test_syn,NULL,PennController,40,_Trial_,End,1739898815171,undefined,420,admire,abstract-positive,noun,verb,A,NULL
1739899168,492fb6e6fba0a4ddc683c28bebe415dd,PennController,11,0,test_syn,NULL,PennController,22,_Trial_,Start,1739898815172,undefined,475,writhe,concrete-negative,noun,verb,A,NULL
1739899168,492fb6e6fba0a4ddc683c28bebe415dd,PennController,11,0,test_syn,NULL,PennController,22,_Header_,Start,1739898815172,undefined,475,writhe,concrete-negative,noun,verb,A,NULL
1739899168,492fb6e6fba0a4ddc683c28bebe415dd,PennController,11,0,test_syn,NULL,PennController,22,_Header_,End,1739898815424,undefined,475,writhe,concrete-negative,noun,verb,A,NULL
1739899168,492fb6e6fba0a4ddc683c28bebe415dd,PennController,11,0,test_syn,NULL,Selector,unnamed-Selector,Selection,verb,1739898816402,undefined,475,writhe,concrete-negative,noun,verb,A,noun;verb
1739899168,492fb6e6fba0a4ddc683c28bebe415dd,PennController,11,0,test_syn,NULL,PennController,22,_Trial_,End,1739898816403,undefined,475,writhe,concrete-negative,noun,verb,A,NULL
1739899168,492fb6e6fba0a4ddc683c28bebe415dd,PennController,21,0,test_syn,NULL,PennController,32,_Trial_,Start,1739898816404,undefined,475,exploit,abstract-negative,noun,verb,A,NULL
1739899168,492fb6e6fba0a4ddc683c28bebe415dd,PennController,21,0,test_syn,NULL,PennController,32,_Header_,Start,1739898816404,undefined,475,exploit,abstract-negative,noun,verb,A,NULL
1739899168,492fb6e6fba0a4ddc683c28bebe415dd,PennController,21,0,test_syn,NULL,PennController,32,_Header_,End,1739898816654,undefined,475,exploit,abstract-negative,noun,verb,A,NULL
1739899168,492fb6e6fba0a4ddc683c28bebe415dd,PennController,21,0,test_syn,NULL,Selector,unnamed-Selector,Selection,verb,1739898817632,undefined,475,exploit,abstract-negative,noun,verb,A,noun;verb
1739899168,492fb6e6fba0a4ddc683c28bebe415dd,PennController,21,0,test_syn,NULL,PennController,32,_Trial_,End,1739898817633,undefined,475,exploit,abstract-negative,noun,verb,A,NULL
1739899168,492fb6e6fba0a4ddc683c28bebe415dd,PennController,9,0,test_syn,NULL,PennController,20,_Trial_,Start,1739898817634,undefined,653,choke,concrete-negative,noun,verb,A,NULL
1739899168,492fb6e6fba0a4ddc683c28bebe415dd,PennController,9,0,test_syn,NULL,PennController,20,_Header_,Start,1739898817634,undefined,653,choke,concrete-negative,noun,verb,A,NULL
1739899168,492fb6e6fba0a4ddc683c28bebe415dd,PennController,9,0,test_syn,NULL,PennController,20,_Header_,End,1739898817886,undefined,653,choke,concrete-negative,noun,verb,A,NULL
1739899168,492fb6e6fba0a4ddc683c28bebe415dd,PennController,9,0,test_syn,NULL,Selector,unnamed-Selector,Selection,verb,1739898819041,undefined,653,choke,concrete-negative,noun,verb,A,noun;verb
1739899168,492fb6e6fba0a4ddc683c28bebe415dd,PennController,9,0,test_syn,NULL,PennController,20,_Trial_,End,1739898819042,undefined,653,choke,concrete-negative,noun,verb,A,NULL
1739899168,492fb6e6fba0a4ddc683c28bebe415dd,PennController,14,0,test_syn,NULL,PennController,25,_Trial_,Start,1739898819043,undefined,432,terror,abstract-negative,noun,verb,A,NULL
1739899168,492fb6e6fba0a4ddc683c28bebe415dd,PennController,14,0,test_syn,NULL,PennController,25,_Header_,Start,1739898819043,undefined,432,terror,abstract-negative,noun,verb,A,NULL
1739899168,492fb6e6fba0a4ddc683c28bebe415dd,PennController,14,0,test_syn,NULL,PennController,25,_Header_,End,1739898819293,undefined,432,terror,abstract-negative,noun,verb,A,NULL
1739899168,492fb6e6fba0a4ddc683c28bebe415dd,PennController,14,0,test_syn,NULL,Selector,unnamed-Selector,Selection,verb,1739898820226,undefined,432,terror,abstract-negative,noun,verb,A,noun;verb
1739899168,492fb6e6fba0a4ddc683c28bebe415dd,PennController,14,0,test_syn,NULL,PennController,25,_Trial_,End,1739898820227,undefined,432,terror,abstract-negative,noun,verb,A,NULL
1739899168,492fb6e6fba0a4ddc683c28bebe415dd,PennController,16,0,test_syn,NULL,PennController,27,_Trial_,Start,1739898820228,undefined,452,anxiety,abstract-negative,noun,verb,A,NULL
1739899168,492fb6e6fba0a4ddc683c28bebe415dd,PennController,16,0,test_syn,NULL,PennController,27,_Header_,Start,1739898820228,undefined,452,anxiety,abstract-negative,noun,verb,A,NULL
1739899168,492fb6e6fba0a4ddc683c28bebe415dd,PennController,16,0,test_syn,NULL,PennController,27,_Header_,End,1739898820480,undefined,452,anxiety,abstract-negative,noun,verb,A,NULL
1739899168,492fb6e6fba0a4ddc683c28bebe415dd,PennController,16,0,test_syn,NULL,Selector,unnamed-Selector,Selection,verb,1739898821434,undefined,452,anxiety,abstract-negative,noun,verb,A,noun;verb
1739899168,492fb6e6fba0a4ddc683c28bebe415dd,PennController,16,0,test_syn,NULL,PennController,27,_Trial_,End,1739898821435,undefined,452,anxiety,abstract-negative,noun,verb,A,NULL
1739899168,492fb6e6fba0a4ddc683c28bebe415dd,PennController,19,0,test_syn,NULL,PennController,30,_Trial_,Start,1739898821436,undefined,377,befall,abstract-negative,noun,verb,A,NULL
1739899168,492fb6e6fba0a4ddc683c28bebe415dd,PennController,19,0,test_syn,NULL,PennController,30,_Header_,Start,1739898821436,undefined,377,befall,abstract-negative,noun,verb,A,NULL
1739899168,492fb6e6fba0a4ddc683c28bebe415dd,PennController,19,0,test_syn,NULL,PennController,30,_Header_,End,1739898821688,undefined,377,befall,abstract-negative,noun,verb,A,NULL
1739899168,492fb6e6fba0a4ddc683c28bebe415dd,PennController,19,0,test_syn,NULL,Selector,unnamed-Selector,Selection,verb,1739898822566,undefined,377,befall,abstract-negative,noun,verb,A,noun;verb
1739899168,492fb6e6fba0a4ddc683c28bebe415dd,PennController,19,0,test_syn,NULL,PennController,30,_Trial_,End,1739898822567,undefined,377,befall,abstract-negative,noun,verb,A,NULL
1739899168,492fb6e6fba0a4ddc683c28bebe415dd,PennController,36,0,test_syn,NULL,PennController,47,_Trial_,Start,1739898822568,undefined,537,fireplace,concrete-postiive,noun,verb,A,NULL
1739899168,492fb6e6fba0a4ddc683c28bebe415dd,PennController,36,0,test_syn,NULL,PennController,47,_Header_,Start,1739898822568,undefined,537,fireplace,concrete-postiive,noun,verb,A,NULL
1739899168,492fb6e6fba0a4ddc683c28bebe415dd,PennController,36,0,test_syn,NULL,PennController,47,_Header_,End,1739898822819,undefined,537,fireplace,concrete-postiive,noun,verb,A,NULL
1739899168,492fb6e6fba0a4ddc683c28bebe415dd,PennController,36,0,test_syn,NULL,Selector,unnamed-Selector,Selection,noun,1739898823858,undefined,537,fireplace,concrete-postiive,noun,verb,A,noun;verb
1739899168,492fb6e6fba0a4ddc683c28bebe415dd,PennController,36,0,test_syn,NULL,PennController,47,_Trial_,End,1739898823859,undefined,537,fireplace,concrete-postiive,noun,verb,A,NULL
1739899168,492fb6e6fba0a4ddc683c28bebe415dd,PennController,4,0,test_syn,NULL,PennController,15,_Trial_,Start,1739898823860,undefined,397,toxin,concrete-negative,noun,verb,A,NULL
1739899168,492fb6e6fba0a4ddc683c28bebe415dd,PennController,4,0,test_syn,NULL,PennController,15,_Header_,Start,1739898823860,undefined,397,toxin,concrete-negative,noun,verb,A,NULL
1739899168,492fb6e6fba0a4ddc683c28bebe415dd,PennController,4,0,test_syn,NULL,PennController,15,_Header_,End,1739898824113,undefined,397,toxin,concrete-negative,noun,verb,A,NULL
1739899168,492fb6e6fba0a4ddc683c28bebe415dd,PennController,4,0,test_syn,NULL,Selector,unnamed-Selector,Selection,verb,1739898825015,undefined,397,toxin,concrete-negative,noun,verb,A,noun;verb
1739899168,492fb6e6fba0a4ddc683c28bebe415dd,PennController,4,0,test_syn,NULL,PennController,15,_Trial_,End,1739898825016,undefined,397,toxin,concrete-negative,noun,verb,A,NULL
1739899168,492fb6e6fba0a4ddc683c28bebe415dd,PennController,7,0,test_syn,NULL,PennController,18,_Trial_,Start,1739898825017,undefined,570,corpse,concrete-negative,noun,verb,A,NULL
1739899168,492fb6e6fba0a4ddc683c28bebe415dd,PennController,7,0,test_syn,NULL,PennController,18,_Header_,Start,1739898825017,undefined,570,corpse,concrete-negative,noun,verb,A,NULL
1739899168,492fb6e6fba0a4ddc683c28bebe415dd,PennController,7,0,test_syn,NULL,PennController,18,_Header_,End,1739898825267,undefined,570,corpse,concrete-negative,noun,verb,A,NULL
1739899168,492fb6e6fba0a4ddc683c28bebe415dd,PennController,7,0,test_syn,NULL,Selector,unnamed-Selector,Selection,verb,1739898826342,undefined,570,corpse,concrete-negative,noun,verb,A,noun;verb
1739899168,492fb6e6fba0a4ddc683c28bebe415dd,PennController,7,0,test_syn,NULL,PennController,18,_Trial_,End,1739898826343,undefined,570,corpse,concrete-negative,noun,verb,A,NULL
1739899168,492fb6e6fba0a4ddc683c28bebe415dd,PennController,13,0,test_syn,NULL,PennController,24,_Trial_,Start,1739898826344,undefined,1172,stab,concrete-negative,noun,verb,A,NULL
1739899168,492fb6e6fba0a4ddc683c28bebe415dd,PennController,13,0,test_syn,NULL,PennController,24,_Header_,Start,1739898826344,undefined,1172,stab,concrete-negative,noun,verb,A,NULL
1739899168,492fb6e6fba0a4ddc683c28bebe415dd,PennController,13,0,test_syn,NULL,PennController,24,_Header_,End,1739898826596,undefined,1172,stab,concrete-negative,noun,verb,A,NULL
1739899168,492fb6e6fba0a4ddc683c28bebe415dd,PennController,13,0,test_syn,NULL,Selector,unnamed-Selector,Selection,verb,1739898828273,undefined,1172,stab,concrete-negative,noun,verb,A,noun;verb
1739899168,492fb6e6fba0a4ddc683c28bebe415dd,PennController,13,0,test_syn,NULL,PennController,24,_Trial_,End,1739898828274,undefined,1172,stab,concrete-negative,noun,verb,A,NULL
1739899168,492fb6e6fba0a4ddc683c28bebe415dd,PennController,39,0,test_syn,NULL,PennController,50,_Trial_,Start,1739898828275,undefined,567,glide,concrete-postiive,noun,verb,A,NULL
1739899168,492fb6e6fba0a4ddc683c28bebe415dd,PennController,39,0,test_syn,NULL,PennController,50,_Header_,Start,1739898828275,undefined,567,glide,concrete-postiive,noun,verb,A,NULL
1739899168,492fb6e6fba0a4ddc683c28bebe415dd,PennController,39,0,test_syn,NULL,PennController,50,_Header_,End,1739898828526,undefined,567,glide,concrete-postiive,noun,verb,A,NULL
1739899168,492fb6e6fba0a4ddc683c28bebe415dd,PennController,39,0,test_syn,NULL,Selector,unnamed-Selector,Selection,verb,1739898829595,undefined,567,glide,concrete-postiive,noun,verb,A,noun;verb
1739899168,492fb6e6fba0a4ddc683c28bebe415dd,PennController,39,0,test_syn,NULL,PennController,50,_Trial_,End,1739898829596,undefined,567,glide,concrete-postiive,noun,verb,A,NULL
1739899168,492fb6e6fba0a4ddc683c28bebe415dd,PennController,33,0,test_syn,NULL,PennController,44,_Trial_,Start,1739898829596,undefined,471,imagine,abstract-positive,noun,verb,A,NULL
1739899168,492fb6e6fba0a4ddc683c28bebe415dd,PennController,33,0,test_syn,NULL,PennController,44,_Header_,Start,1739898829596,undefined,471,imagine,abstract-positive,noun,verb,A,NULL
1739899168,492fb6e6fba0a4ddc683c28bebe415dd,PennController,33,0,test_syn,NULL,PennController,44,_Header_,End,1739898829848,undefined,471,imagine,abstract-positive,noun,verb,A,NULL
1739899168,492fb6e6fba0a4ddc683c28bebe415dd,PennController,33,0,test_syn,NULL,Selector,unnamed-Selector,Selection,verb,1739898830824,undefined,471,imagine,abstract-positive,noun,verb,A,noun;verb
1739899168,492fb6e6fba0a4ddc683c28bebe415dd,PennController,33,0,test_syn,NULL,PennController,44,_Trial_,End,1739898830825,undefined,471,imagine,abstract-positive,noun,verb,A,NULL
1739899168,492fb6e6fba0a4ddc683c28bebe415dd,PennController,37,0,test_syn,NULL,PennController,48,_Trial_,Start,1739898830826,undefined,492,flowers,concrete-postiive,noun,verb,A,NULL
1739899168,492fb6e6fba0a4ddc683c28bebe415dd,PennController,37,0,test_syn,NULL,PennController,48,_Header_,Start,1739898830826,undefined,492,flowers,concrete-postiive,noun,verb,A,NULL
1739899168,492fb6e6fba0a4ddc683c28bebe415dd,PennController,37,0,test_syn,NULL,PennController,48,_Header_,End,1739898831078,undefined,492,flowers,concrete-postiive,noun,verb,A,NULL
1739899168,492fb6e6fba0a4ddc683c28bebe415dd,PennController,37,0,test_syn,NULL,Selector,unnamed-Selector,Selection,verb,1739898832075,undefined,492,flowers,concrete-postiive,noun,verb,A,noun;verb
1739899168,492fb6e6fba0a4ddc683c28bebe415dd,PennController,37,0,test_syn,NULL,PennController,48,_Trial_,End,1739898832076,undefined,492,flowers,concrete-postiive,noun,verb,A,NULL
1739899168,492fb6e6fba0a4ddc683c28bebe415dd,PennController,42,0,test_syn,NULL,PennController,53,_Trial_,Start,1739898832077,undefined,481,eat,concrete-postiive,noun,verb,A,NULL
1739899168,492fb6e6fba0a4ddc683c28bebe415dd,PennController,42,0,test_syn,NULL,PennController,53,_Header_,Start,1739898832077,undefined,481,eat,concrete-postiive,noun,verb,A,NULL
1739899168,492fb6e6fba0a4ddc683c28bebe415dd,PennController,42,0,test_syn,NULL,PennController,53,_Header_,End,1739898832328,undefined,481,eat,concrete-postiive,noun,verb,A,NULL
1739899168,492fb6e6fba0a4ddc683c28bebe415dd,PennController,42,0,test_syn,NULL,Selector,unnamed-Selector,Selection,verb,1739898833314,undefined,481,eat,concrete-postiive,noun,verb,A,noun;verb
1739899168,492fb6e6fba0a4ddc683c28bebe415dd,PennController,42,0,test_syn,NULL,PennController,53,_Trial_,End,1739898833314,undefined,481,eat,concrete-postiive,noun,verb,A,NULL
1739899168,492fb6e6fba0a4ddc683c28bebe415dd,PennController,6,0,test_syn,NULL,PennController,17,_Trial_,Start,1739898833315,undefined,449,mud,concrete-negative,noun,verb,A,NULL
1739899168,492fb6e6fba0a4ddc683c28bebe415dd,PennController,6,0,test_syn,NULL,PennController,17,_Header_,Start,1739898833315,undefined,449,mud,concrete-negative,noun,verb,A,NULL
1739899168,492fb6e6fba0a4ddc683c28bebe415dd,PennController,6,0,test_syn,NULL,PennController,17,_Header_,End,1739898833567,undefined,449,mud,concrete-negative,noun,verb,A,NULL
1739899168,492fb6e6fba0a4ddc683c28bebe415dd,PennController,6,0,test_syn,NULL,Selector,unnamed-Selector,Selection,verb,1739898834517,undefined,449,mud,concrete-negative,noun,verb,A,noun;verb
1739899168,492fb6e6fba0a4ddc683c28bebe415dd,PennController,6,0,test_syn,NULL,PennController,17,_Trial_,End,1739898834518,undefined,449,mud,concrete-negative,noun,verb,A,NULL
1739899168,492fb6e6fba0a4ddc683c28bebe415dd,PennController,40,0,test_syn,NULL,PennController,51,_Trial_,Start,1739898834520,undefined,567,breathe,concrete-postiive,noun,verb,A,NULL
1739899168,492fb6e6fba0a4ddc683c28bebe415dd,PennController,40,0,test_syn,NULL,PennController,51,_Header_,Start,1739898834520,undefined,567,breathe,concrete-postiive,noun,verb,A,NULL
1739899168,492fb6e6fba0a4ddc683c28bebe415dd,PennController,40,0,test_syn,NULL,PennController,51,_Header_,End,1739898834770,undefined,567,breathe,concrete-postiive,noun,verb,A,NULL
1739899168,492fb6e6fba0a4ddc683c28bebe415dd,PennController,40,0,test_syn,NULL,Selector,unnamed-Selector,Selection,verb,1739898835837,undefined,567,breathe,concrete-postiive,noun,verb,A,noun;verb
1739899168,492fb6e6fba0a4ddc683c28bebe415dd,PennController,40,0,test_syn,NULL,PennController,51,_Trial_,End,1739898835838,undefined,567,breathe,concrete-postiive,noun,verb,A,NULL
1739899168,492fb6e6fba0a4ddc683c28bebe415dd,PennController,23,0,test_syn,NULL,PennController,34,_Trial_,Start,1739898835839,undefined,688,obsess,abstract-negative,noun,verb,A,NULL
1739899168,492fb6e6fba0a4ddc683c28bebe415dd,PennController,23,0,test_syn,NULL,PennController,34,_Header_,Start,1739898835839,undefined,688,obsess,abstract-negative,noun,verb,A,NULL
1739899168,492fb6e6fba0a4ddc683c28bebe415dd,PennController,23,0,test_syn,NULL,PennController,34,_Header_,End,1739898836090,undefined,688,obsess,abstract-negative,noun,verb,A,NULL
1739899168,492fb6e6fba0a4ddc683c28bebe415dd,PennController,23,0,test_syn,NULL,Selector,unnamed-Selector,Selection,verb,1739898837282,undefined,688,obsess,abstract-negative,noun,verb,A,noun;verb
1739899168,492fb6e6fba0a4ddc683c28bebe415dd,PennController,23,0,test_syn,NULL,PennController,34,_Trial_,End,1739898837283,undefined,688,obsess,abstract-negative,noun,verb,A,NULL
