#
# Results on Tue, 18 Feb 2025 14:53:51 GMT
# USER AGENT: Mozilla/5.0 (Windows NT 10.0; Win64; x64; rv:135.0) Gecko/20100101 Firefox/135.0
# Design number was non-random = 0
#
# Columns below this comment are as follows:
# 1. Results reception time.
# 2. MD5 hash of participant's IP address.
# 3. Controller name.
# 4. Order number of item.
# 5. Inner element number.
# 6. Label.
# 7. Latin Square Group.
# 8. PennElementType.
# 9. PennElementName.
# 10. Parameter.
# 11. Value.
# 12. EventTime.
# 13. Comments.
1739890431,bab29a4a95f9d024947e7477aa518c96,PennController,1,0,welcome,NULL,PennController,0,_Trial_,Start,1739889699241,NULL
1739890431,bab29a4a95f9d024947e7477aa518c96,PennController,1,0,welcome,NULL,PennController,0,_Header_,Start,1739889699241,NULL
1739890431,bab29a4a95f9d024947e7477aa518c96,PennController,1,0,welcome,NULL,PennController,0,_Header_,End,1739889699497,NULL
1739890431,bab29a4a95f9d024947e7477aa518c96,PennController,1,0,welcome,NULL,PennController,0,_Trial_,End,1739889703442,NULL
# 13. ID.
# 14. Comments.
1739890431,bab29a4a95f9d024947e7477aa518c96,PennController,124,0,consent,NULL,PennController,2,_Trial_,Start,1739889703446,6234965d3869b875dc31d93a,NULL
1739890431,bab29a4a95f9d024947e7477aa518c96,PennController,124,0,consent,NULL,PennController,2,_Header_,Start,1739889703446,6234965d3869b875dc31d93a,NULL
1739890431,bab29a4a95f9d024947e7477aa518c96,PennController,124,0,consent,NULL,PennController,2,_Header_,End,1739889703706,6234965d3869b875dc31d93a,NULL
1739890431,bab29a4a95f9d024947e7477aa518c96,PennController,124,0,consent,NULL,TextInput,ID,First,,1739889708585,6234965d3869b875dc31d93a,Control
1739890431,bab29a4a95f9d024947e7477aa518c96,PennController,124,0,consent,NULL,TextInput,ID,Final,6234965d3869b875dc31d93a,1739889710376,6234965d3869b875dc31d93a,NULL
1739890431,bab29a4a95f9d024947e7477aa518c96,PennController,124,0,consent,NULL,PennController,2,_Trial_,End,1739889710379,6234965d3869b875dc31d93a,NULL
# 13. Comments.
1739890431,bab29a4a95f9d024947e7477aa518c96,PennController,126,0,instructions1_val,NULL,PennController,4,_Trial_,Start,1739889710390,NULL
1739890431,bab29a4a95f9d024947e7477aa518c96,PennController,126,0,instructions1_val,NULL,PennController,4,_Header_,Start,1739889710390,NULL
1739890431,bab29a4a95f9d024947e7477aa518c96,PennController,126,0,instructions1_val,NULL,PennController,4,_Header_,End,1739889710647,NULL
1739890431,bab29a4a95f9d024947e7477aa518c96,PennController,126,0,instructions1_val,NULL,PennController,4,_Trial_,End,1739889719476,NULL
1739890431,bab29a4a95f9d024947e7477aa518c96,PennController,127,0,instructions2_val,NULL,PennController,5,_Trial_,Start,1739889719480,NULL
1739890431,bab29a4a95f9d024947e7477aa518c96,PennController,127,0,instructions2_val,NULL,PennController,5,_Header_,Start,1739889719480,NULL
1739890431,bab29a4a95f9d024947e7477aa518c96,PennController,127,0,instructions2_val,NULL,PennController,5,_Header_,End,1739889719737,NULL
1739890431,bab29a4a95f9d024947e7477aa518c96,PennController,127,0,instructions2_val,NULL,PennController,5,_Trial_,End,1739889723866,NULL
1739890431,bab29a4a95f9d024947e7477aa518c96,PennController,128,0,instructions3_hands,NULL,PennController,6,_Trial_,Start,1739889723868,NULL
1739890431,bab29a4a95f9d024947e7477aa518c96,PennController,128,0,instructions3_hands,NULL,PennController,6,_Header_,Start,1739889723868,NULL
1739890431,bab29a4a95f9d024947e7477aa518c96,PennController,128,0,instructions3_hands,NULL,PennController,6,_Header_,End,1739889724122,NULL
1739890431,bab29a4a95f9d024947e7477aa518c96,PennController,128,0,instructions3_hands,NULL,PennController,6,_Trial_,End,1739889726027,NULL
1739890431,bab29a4a95f9d024947e7477aa518c96,PennController,129,0,practice_intro_val,NULL,PennController,7,_Trial_,Start,1739889726029,NULL
1739890431,bab29a4a95f9d024947e7477aa518c96,PennController,129,0,practice_intro_val,NULL,PennController,7,_Header_,Start,1739889726029,NULL
1739890431,bab29a4a95f9d024947e7477aa518c96,PennController,129,0,practice_intro_val,NULL,PennController,7,_Header_,End,1739889726282,NULL
1739890431,bab29a4a95f9d024947e7477aa518c96,PennController,129,0,practice_intro_val,NULL,PennController,7,_Trial_,End,1739889728143,NULL
# 13. ID.
# 14. ReactionTime.
# 15. Word.
# 16. selectedKey.
# 17. selectedValue.
# 18. Key_value_F.
# 19. Key_value_J.
# 20. Group.
# 21. Comments.
1739890431,bab29a4a95f9d024947e7477aa518c96,PennController,110,0,calibrator_val_feedback,NULL,PennController,121,_Trial_,Start,1739889728145,undefined,732,invader,undefined,negative,positive,negative,A,NULL
1739890431,bab29a4a95f9d024947e7477aa518c96,PennController,110,0,calibrator_val_feedback,NULL,PennController,121,_Header_,Start,1739889728145,undefined,732,invader,undefined,negative,positive,negative,A,NULL
1739890431,bab29a4a95f9d024947e7477aa518c96,PennController,110,0,calibrator_val_feedback,NULL,PennController,121,_Header_,End,1739889728403,undefined,732,invader,undefined,negative,positive,negative,A,NULL
1739890431,bab29a4a95f9d024947e7477aa518c96,PennController,110,0,calibrator_val_feedback,NULL,Selector,Selection,Selection,negative,1739889729651,undefined,732,invader,undefined,negative,positive,negative,A,positive;negative
1739890431,bab29a4a95f9d024947e7477aa518c96,PennController,110,0,calibrator_val_feedback,NULL,PennController,121,_Trial_,End,1739889731668,undefined,732,invader,undefined,negative,positive,negative,A,NULL
1739890431,bab29a4a95f9d024947e7477aa518c96,PennController,111,0,calibrator_val_feedback,NULL,PennController,122,_Trial_,Start,1739889731671,undefined,533,jail,undefined,negative,positive,negative,A,NULL
1739890431,bab29a4a95f9d024947e7477aa518c96,PennController,111,0,calibrator_val_feedback,NULL,PennController,122,_Header_,Start,1739889731671,undefined,533,jail,undefined,negative,positive,negative,A,NULL
1739890431,bab29a4a95f9d024947e7477aa518c96,PennController,111,0,calibrator_val_feedback,NULL,PennController,122,_Header_,End,1739889731922,undefined,533,jail,undefined,negative,positive,negative,A,NULL
1739890431,bab29a4a95f9d024947e7477aa518c96,PennController,111,0,calibrator_val_feedback,NULL,Selector,Selection,Selection,negative,1739889732969,undefined,533,jail,undefined,negative,positive,negative,A,positive;negative
1739890431,bab29a4a95f9d024947e7477aa518c96,PennController,111,0,calibrator_val_feedback,NULL,PennController,122,_Trial_,End,1739889734978,undefined,533,jail,undefined,negative,positive,negative,A,NULL
1739890431,bab29a4a95f9d024947e7477aa518c96,PennController,107,0,calibrator_val_feedback,NULL,PennController,118,_Trial_,Start,1739889734981,undefined,1013,icebox,undefined,negative,positive,negative,A,NULL
1739890431,bab29a4a95f9d024947e7477aa518c96,PennController,107,0,calibrator_val_feedback,NULL,PennController,118,_Header_,Start,1739889734981,undefined,1013,icebox,undefined,negative,positive,negative,A,NULL
1739890431,bab29a4a95f9d024947e7477aa518c96,PennController,107,0,calibrator_val_feedback,NULL,PennController,118,_Header_,End,1739889735242,undefined,1013,icebox,undefined,negative,positive,negative,A,NULL
1739890431,bab29a4a95f9d024947e7477aa518c96,PennController,107,0,calibrator_val_feedback,NULL,Selector,Selection,Selection,positive,1739889736763,undefined,1013,icebox,undefined,negative,positive,negative,A,positive;negative
1739890431,bab29a4a95f9d024947e7477aa518c96,PennController,107,0,calibrator_val_feedback,NULL,PennController,118,_Trial_,End,1739889738775,undefined,1013,icebox,undefined,negative,positive,negative,A,NULL
1739890431,bab29a4a95f9d024947e7477aa518c96,PennController,109,0,calibrator_val_feedback,NULL,PennController,120,_Trial_,Start,1739889738777,undefined,895,insecure,undefined,negative,positive,negative,A,NULL
1739890431,bab29a4a95f9d024947e7477aa518c96,PennController,109,0,calibrator_val_feedback,NULL,PennController,120,_Header_,Start,1739889738777,undefined,895,insecure,undefined,negative,positive,negative,A,NULL
1739890431,bab29a4a95f9d024947e7477aa518c96,PennController,109,0,calibrator_val_feedback,NULL,PennController,120,_Header_,End,1739889739032,undefined,895,insecure,undefined,negative,positive,negative,A,NULL
1739890431,bab29a4a95f9d024947e7477aa518c96,PennController,109,0,calibrator_val_feedback,NULL,Selector,Selection,Selection,negative,1739889740433,undefined,895,insecure,undefined,negative,positive,negative,A,positive;negative
1739890431,bab29a4a95f9d024947e7477aa518c96,PennController,109,0,calibrator_val_feedback,NULL,PennController,120,_Trial_,End,1739889742438,undefined,895,insecure,undefined,negative,positive,negative,A,NULL
1739890431,bab29a4a95f9d024947e7477aa518c96,PennController,112,0,calibrator_val_feedback,NULL,PennController,123,_Trial_,Start,1739889742442,undefined,978,joke,undefined,negative,positive,negative,A,NULL
1739890431,bab29a4a95f9d024947e7477aa518c96,PennController,112,0,calibrator_val_feedback,NULL,PennController,123,_Header_,Start,1739889742442,undefined,978,joke,undefined,negative,positive,negative,A,NULL
1739890431,bab29a4a95f9d024947e7477aa518c96,PennController,112,0,calibrator_val_feedback,NULL,PennController,123,_Header_,End,1739889742692,undefined,978,joke,undefined,negative,positive,negative,A,NULL
1739890431,bab29a4a95f9d024947e7477aa518c96,PennController,112,0,calibrator_val_feedback,NULL,Selector,Selection,Selection,positive,1739889744181,undefined,978,joke,undefined,negative,positive,negative,A,positive;negative
1739890431,bab29a4a95f9d024947e7477aa518c96,PennController,112,0,calibrator_val_feedback,NULL,PennController,123,_Trial_,End,1739889746192,undefined,978,joke,undefined,negative,positive,negative,A,NULL
1739890431,bab29a4a95f9d024947e7477aa518c96,PennController,113,0,calibrator_val_feedback,NULL,PennController,124,_Trial_,Start,1739889746195,undefined,553,kitten,undefined,negative,positive,negative,A,NULL
1739890431,bab29a4a95f9d024947e7477aa518c96,PennController,113,0,calibrator_val_feedback,NULL,PennController,124,_Header_,Start,1739889746195,undefined,553,kitten,undefined,negative,positive,negative,A,NULL
1739890431,bab29a4a95f9d024947e7477aa518c96,PennController,113,0,calibrator_val_feedback,NULL,PennController,124,_Header_,End,1739889746456,undefined,553,kitten,undefined,negative,positive,negative,A,NULL
1739890431,bab29a4a95f9d024947e7477aa518c96,PennController,113,0,calibrator_val_feedback,NULL,Selector,Selection,Selection,positive,1739889747520,undefined,553,kitten,undefined,negative,positive,negative,A,positive;negative
1739890431,bab29a4a95f9d024947e7477aa518c96,PennController,113,0,calibrator_val_feedback,NULL,PennController,124,_Trial_,End,1739889749525,undefined,553,kitten,undefined,negative,positive,negative,A,NULL
1739890431,bab29a4a95f9d024947e7477aa518c96,PennController,106,0,calibrator_val_feedback,NULL,PennController,117,_Trial_,Start,1739889749528,undefined,1234,hat,undefined,negative,positive,negative,A,NULL
1739890431,bab29a4a95f9d024947e7477aa518c96,PennController,106,0,calibrator_val_feedback,NULL,PennController,117,_Header_,Start,1739889749528,undefined,1234,hat,undefined,negative,positive,negative,A,NULL
1739890431,bab29a4a95f9d024947e7477aa518c96,PennController,106,0,calibrator_val_feedback,NULL,PennController,117,_Header_,End,1739889749780,undefined,1234,hat,undefined,negative,positive,negative,A,NULL
1739890431,bab29a4a95f9d024947e7477aa518c96,PennController,106,0,calibrator_val_feedback,NULL,Selector,Selection,Selection,positive,1739889751521,undefined,1234,hat,undefined,negative,positive,negative,A,positive;negative
1739890431,bab29a4a95f9d024947e7477aa518c96,PennController,106,0,calibrator_val_feedback,NULL,PennController,117,_Trial_,End,1739889753536,undefined,1234,hat,undefined,negative,positive,negative,A,NULL
1739890431,bab29a4a95f9d024947e7477aa518c96,PennController,105,0,calibrator_val_feedback,NULL,PennController,116,_Trial_,Start,1739889753540,undefined,720,grin,undefined,negative,positive,negative,A,NULL
1739890431,bab29a4a95f9d024947e7477aa518c96,PennController,105,0,calibrator_val_feedback,NULL,PennController,116,_Header_,Start,1739889753540,undefined,720,grin,undefined,negative,positive,negative,A,NULL
1739890431,bab29a4a95f9d024947e7477aa518c96,PennController,105,0,calibrator_val_feedback,NULL,PennController,116,_Header_,End,1739889753792,undefined,720,grin,undefined,negative,positive,negative,A,NULL
1739890431,bab29a4a95f9d024947e7477aa518c96,PennController,105,0,calibrator_val_feedback,NULL,Selector,Selection,Selection,positive,1739889755027,undefined,720,grin,undefined,negative,positive,negative,A,positive;negative
1739890431,bab29a4a95f9d024947e7477aa518c96,PennController,105,0,calibrator_val_feedback,NULL,PennController,116,_Trial_,End,1739889757045,undefined,720,grin,undefined,negative,positive,negative,A,NULL
1739890431,bab29a4a95f9d024947e7477aa518c96,PennController,104,0,calibrator_val_feedback,NULL,PennController,115,_Trial_,Start,1739889757050,undefined,760,free,undefined,negative,positive,negative,A,NULL
1739890431,bab29a4a95f9d024947e7477aa518c96,PennController,104,0,calibrator_val_feedback,NULL,PennController,115,_Header_,Start,1739889757050,undefined,760,free,undefined,negative,positive,negative,A,NULL
1739890431,bab29a4a95f9d024947e7477aa518c96,PennController,104,0,calibrator_val_feedback,NULL,PennController,115,_Header_,End,1739889757303,undefined,760,free,undefined,negative,positive,negative,A,NULL
1739890431,bab29a4a95f9d024947e7477aa518c96,PennController,104,0,calibrator_val_feedback,NULL,Selector,Selection,Selection,positive,1739889758575,undefined,760,free,undefined,negative,positive,negative,A,positive;negative
1739890431,bab29a4a95f9d024947e7477aa518c96,PennController,104,0,calibrator_val_feedback,NULL,PennController,115,_Trial_,End,1739889760589,undefined,760,free,undefined,negative,positive,negative,A,NULL
1739890431,bab29a4a95f9d024947e7477aa518c96,PennController,108,0,calibrator_val_feedback,NULL,PennController,119,_Trial_,Start,1739889760591,undefined,923,industry,undefined,negative,positive,negative,A,NULL
1739890431,bab29a4a95f9d024947e7477aa518c96,PennController,108,0,calibrator_val_feedback,NULL,PennController,119,_Header_,Start,1739889760591,undefined,923,industry,undefined,negative,positive,negative,A,NULL
1739890431,bab29a4a95f9d024947e7477aa518c96,PennController,108,0,calibrator_val_feedback,NULL,PennController,119,_Header_,End,1739889760852,undefined,923,industry,undefined,negative,positive,negative,A,NULL
1739890431,bab29a4a95f9d024947e7477aa518c96,PennController,108,0,calibrator_val_feedback,NULL,Selector,Selection,Selection,positive,1739889762285,undefined,923,industry,undefined,negative,positive,negative,A,positive;negative
1739890431,bab29a4a95f9d024947e7477aa518c96,PennController,108,0,calibrator_val_feedback,NULL,PennController,119,_Trial_,End,1739889764294,undefined,923,industry,undefined,negative,positive,negative,A,NULL
# 16. Key_value_F.
# 17. Key_value_J.
# 18. Group.
# 19. Comments.
1739890431,bab29a4a95f9d024947e7477aa518c96,PennController,117,0,calibrator_val_no_feedback,NULL,PennController,128,_Trial_,Start,1739889764295,undefined,833,icebox,positive,negative,A,NULL
1739890431,bab29a4a95f9d024947e7477aa518c96,PennController,117,0,calibrator_val_no_feedback,NULL,PennController,128,_Header_,Start,1739889764295,undefined,833,icebox,positive,negative,A,NULL
1739890431,bab29a4a95f9d024947e7477aa518c96,PennController,117,0,calibrator_val_no_feedback,NULL,PennController,128,_Header_,End,1739889764550,undefined,833,icebox,positive,negative,A,NULL
1739890431,bab29a4a95f9d024947e7477aa518c96,PennController,117,0,calibrator_val_no_feedback,NULL,Selector,unnamed-Selector,Selection,positive,1739889765896,undefined,833,icebox,positive,negative,A,positive;negative
1739890431,bab29a4a95f9d024947e7477aa518c96,PennController,117,0,calibrator_val_no_feedback,NULL,PennController,128,_Trial_,End,1739889765898,undefined,833,icebox,positive,negative,A,NULL
1739890431,bab29a4a95f9d024947e7477aa518c96,PennController,123,0,calibrator_val_no_feedback,NULL,PennController,134,_Trial_,Start,1739889765901,undefined,805,kitten,positive,negative,A,NULL
1739890431,bab29a4a95f9d024947e7477aa518c96,PennController,123,0,calibrator_val_no_feedback,NULL,PennController,134,_Header_,Start,1739889765901,undefined,805,kitten,positive,negative,A,NULL
1739890431,bab29a4a95f9d024947e7477aa518c96,PennController,123,0,calibrator_val_no_feedback,NULL,PennController,134,_Header_,End,1739889766152,undefined,805,kitten,positive,negative,A,NULL
1739890431,bab29a4a95f9d024947e7477aa518c96,PennController,123,0,calibrator_val_no_feedback,NULL,Selector,unnamed-Selector,Selection,positive,1739889767465,undefined,805,kitten,positive,negative,A,positive;negative
1739890431,bab29a4a95f9d024947e7477aa518c96,PennController,123,0,calibrator_val_no_feedback,NULL,PennController,134,_Trial_,End,1739889767467,undefined,805,kitten,positive,negative,A,NULL
1739890431,bab29a4a95f9d024947e7477aa518c96,PennController,116,0,calibrator_val_no_feedback,NULL,PennController,127,_Trial_,Start,1739889767468,undefined,714,hat,positive,negative,A,NULL
1739890431,bab29a4a95f9d024947e7477aa518c96,PennController,116,0,calibrator_val_no_feedback,NULL,PennController,127,_Header_,Start,1739889767468,undefined,714,hat,positive,negative,A,NULL
1739890431,bab29a4a95f9d024947e7477aa518c96,PennController,116,0,calibrator_val_no_feedback,NULL,PennController,127,_Header_,End,1739889767721,undefined,714,hat,positive,negative,A,NULL
1739890431,bab29a4a95f9d024947e7477aa518c96,PennController,116,0,calibrator_val_no_feedback,NULL,Selector,unnamed-Selector,Selection,positive,1739889768937,undefined,714,hat,positive,negative,A,positive;negative
1739890431,bab29a4a95f9d024947e7477aa518c96,PennController,116,0,calibrator_val_no_feedback,NULL,PennController,127,_Trial_,End,1739889768939,undefined,714,hat,positive,negative,A,NULL
1739890431,bab29a4a95f9d024947e7477aa518c96,PennController,118,0,calibrator_val_no_feedback,NULL,PennController,129,_Trial_,Start,1739889768941,undefined,623,industry,positive,negative,A,NULL
1739890431,bab29a4a95f9d024947e7477aa518c96,PennController,118,0,calibrator_val_no_feedback,NULL,PennController,129,_Header_,Start,1739889768941,undefined,623,industry,positive,negative,A,NULL
1739890431,bab29a4a95f9d024947e7477aa518c96,PennController,118,0,calibrator_val_no_feedback,NULL,PennController,129,_Header_,End,1739889769199,undefined,623,industry,positive,negative,A,NULL
1739890431,bab29a4a95f9d024947e7477aa518c96,PennController,118,0,calibrator_val_no_feedback,NULL,Selector,unnamed-Selector,Selection,positive,1739889770322,undefined,623,industry,positive,negative,A,positive;negative
1739890431,bab29a4a95f9d024947e7477aa518c96,PennController,118,0,calibrator_val_no_feedback,NULL,PennController,129,_Trial_,End,1739889770329,undefined,623,industry,positive,negative,A,NULL
1739890431,bab29a4a95f9d024947e7477aa518c96,PennController,119,0,calibrator_val_no_feedback,NULL,PennController,130,_Trial_,Start,1739889770337,undefined,583,insecure,positive,negative,A,NULL
1739890431,bab29a4a95f9d024947e7477aa518c96,PennController,119,0,calibrator_val_no_feedback,NULL,PennController,130,_Header_,Start,1739889770337,undefined,583,insecure,positive,negative,A,NULL
1739890431,bab29a4a95f9d024947e7477aa518c96,PennController,119,0,calibrator_val_no_feedback,NULL,PennController,130,_Header_,End,1739889770591,undefined,583,insecure,positive,negative,A,NULL
1739890431,bab29a4a95f9d024947e7477aa518c96,PennController,119,0,calibrator_val_no_feedback,NULL,Selector,unnamed-Selector,Selection,negative,1739889771692,undefined,583,insecure,positive,negative,A,positive;negative
1739890431,bab29a4a95f9d024947e7477aa518c96,PennController,119,0,calibrator_val_no_feedback,NULL,PennController,130,_Trial_,End,1739889771695,undefined,583,insecure,positive,negative,A,NULL
1739890431,bab29a4a95f9d024947e7477aa518c96,PennController,114,0,calibrator_val_no_feedback,NULL,PennController,125,_Trial_,Start,1739889771698,undefined,793,free,positive,negative,A,NULL
1739890431,bab29a4a95f9d024947e7477aa518c96,PennController,114,0,calibrator_val_no_feedback,NULL,PennController,125,_Header_,Start,1739889771698,undefined,793,free,positive,negative,A,NULL
1739890431,bab29a4a95f9d024947e7477aa518c96,PennController,114,0,calibrator_val_no_feedback,NULL,PennController,125,_Header_,End,1739889771953,undefined,793,free,positive,negative,A,NULL
1739890431,bab29a4a95f9d024947e7477aa518c96,PennController,114,0,calibrator_val_no_feedback,NULL,Selector,unnamed-Selector,Selection,positive,1739889773255,undefined,793,free,positive,negative,A,positive;negative
1739890431,bab29a4a95f9d024947e7477aa518c96,PennController,114,0,calibrator_val_no_feedback,NULL,PennController,125,_Trial_,End,1739889773259,undefined,793,free,positive,negative,A,NULL
1739890431,bab29a4a95f9d024947e7477aa518c96,PennController,122,0,calibrator_val_no_feedback,NULL,PennController,133,_Trial_,Start,1739889773262,undefined,529,joke,positive,negative,A,NULL
1739890431,bab29a4a95f9d024947e7477aa518c96,PennController,122,0,calibrator_val_no_feedback,NULL,PennController,133,_Header_,Start,1739889773262,undefined,529,joke,positive,negative,A,NULL
1739890431,bab29a4a95f9d024947e7477aa518c96,PennController,122,0,calibrator_val_no_feedback,NULL,PennController,133,_Header_,End,1739889773518,undefined,529,joke,positive,negative,A,NULL
1739890431,bab29a4a95f9d024947e7477aa518c96,PennController,122,0,calibrator_val_no_feedback,NULL,Selector,unnamed-Selector,Selection,positive,1739889774564,undefined,529,joke,positive,negative,A,positive;negative
1739890431,bab29a4a95f9d024947e7477aa518c96,PennController,122,0,calibrator_val_no_feedback,NULL,PennController,133,_Trial_,End,1739889774566,undefined,529,joke,positive,negative,A,NULL
1739890431,bab29a4a95f9d024947e7477aa518c96,PennController,120,0,calibrator_val_no_feedback,NULL,PennController,131,_Trial_,Start,1739889774569,undefined,1017,invader,positive,negative,A,NULL
1739890431,bab29a4a95f9d024947e7477aa518c96,PennController,120,0,calibrator_val_no_feedback,NULL,PennController,131,_Header_,Start,1739889774569,undefined,1017,invader,positive,negative,A,NULL
1739890431,bab29a4a95f9d024947e7477aa518c96,PennController,120,0,calibrator_val_no_feedback,NULL,PennController,131,_Header_,End,1739889774831,undefined,1017,invader,positive,negative,A,NULL
1739890431,bab29a4a95f9d024947e7477aa518c96,PennController,120,0,calibrator_val_no_feedback,NULL,Selector,unnamed-Selector,Selection,negative,1739889776364,undefined,1017,invader,positive,negative,A,positive;negative
1739890431,bab29a4a95f9d024947e7477aa518c96,PennController,120,0,calibrator_val_no_feedback,NULL,PennController,131,_Trial_,End,1739889776368,undefined,1017,invader,positive,negative,A,NULL
1739890431,bab29a4a95f9d024947e7477aa518c96,PennController,121,0,calibrator_val_no_feedback,NULL,PennController,132,_Trial_,Start,1739889776372,undefined,493,jail,positive,negative,A,NULL
1739890431,bab29a4a95f9d024947e7477aa518c96,PennController,121,0,calibrator_val_no_feedback,NULL,PennController,132,_Header_,Start,1739889776372,undefined,493,jail,positive,negative,A,NULL
1739890431,bab29a4a95f9d024947e7477aa518c96,PennController,121,0,calibrator_val_no_feedback,NULL,PennController,132,_Header_,End,1739889776622,undefined,493,jail,positive,negative,A,NULL
1739890431,bab29a4a95f9d024947e7477aa518c96,PennController,121,0,calibrator_val_no_feedback,NULL,Selector,unnamed-Selector,Selection,negative,1739889777630,undefined,493,jail,positive,negative,A,positive;negative
1739890431,bab29a4a95f9d024947e7477aa518c96,PennController,121,0,calibrator_val_no_feedback,NULL,PennController,132,_Trial_,End,1739889777636,undefined,493,jail,positive,negative,A,NULL
1739890431,bab29a4a95f9d024947e7477aa518c96,PennController,115,0,calibrator_val_no_feedback,NULL,PennController,126,_Trial_,Start,1739889777640,undefined,614,grin,positive,negative,A,NULL
1739890431,bab29a4a95f9d024947e7477aa518c96,PennController,115,0,calibrator_val_no_feedback,NULL,PennController,126,_Header_,Start,1739889777640,undefined,614,grin,positive,negative,A,NULL
1739890431,bab29a4a95f9d024947e7477aa518c96,PennController,115,0,calibrator_val_no_feedback,NULL,PennController,126,_Header_,End,1739889777902,undefined,614,grin,positive,negative,A,NULL
1739890431,bab29a4a95f9d024947e7477aa518c96,PennController,115,0,calibrator_val_no_feedback,NULL,Selector,unnamed-Selector,Selection,positive,1739889779021,undefined,614,grin,positive,negative,A,positive;negative
1739890431,bab29a4a95f9d024947e7477aa518c96,PennController,115,0,calibrator_val_no_feedback,NULL,PennController,126,_Trial_,End,1739889779024,undefined,614,grin,positive,negative,A,NULL
# 13. Comments.
1739890431,bab29a4a95f9d024947e7477aa518c96,PennController,130,0,endinstructions_val,NULL,PennController,8,_Trial_,Start,1739889779026,NULL
1739890431,bab29a4a95f9d024947e7477aa518c96,PennController,130,0,endinstructions_val,NULL,PennController,8,_Header_,Start,1739889779026,NULL
1739890431,bab29a4a95f9d024947e7477aa518c96,PennController,130,0,endinstructions_val,NULL,PennController,8,_Header_,End,1739889779278,NULL
1739890431,bab29a4a95f9d024947e7477aa518c96,PennController,130,0,endinstructions_val,NULL,PennController,8,_Trial_,End,1739889783477,NULL
# 13. ID.
# 14. ReactionTime.
# 15. Word.
# 16. ConcValCombo.
# 17. Key_value_F.
# 18. Key_value_J.
# 19. Group.
# 20. Comments.
1739890431,bab29a4a95f9d024947e7477aa518c96,PennController,64,0,test_val,NULL,PennController,75,_Trial_,Start,1739889783479,undefined,693,compassion,abstract-positive,positive,negative,A,NULL
1739890431,bab29a4a95f9d024947e7477aa518c96,PennController,64,0,test_val,NULL,PennController,75,_Header_,Start,1739889783479,undefined,693,compassion,abstract-positive,positive,negative,A,NULL
1739890431,bab29a4a95f9d024947e7477aa518c96,PennController,64,0,test_val,NULL,PennController,75,_Header_,End,1739889783737,undefined,693,compassion,abstract-positive,positive,negative,A,NULL
1739890431,bab29a4a95f9d024947e7477aa518c96,PennController,64,0,test_val,NULL,Selector,unnamed-Selector,Selection,positive,1739889784945,undefined,693,compassion,abstract-positive,positive,negative,A,positive;negative
1739890431,bab29a4a95f9d024947e7477aa518c96,PennController,64,0,test_val,NULL,PennController,75,_Trial_,End,1739889784947,undefined,693,compassion,abstract-positive,positive,negative,A,NULL
1739890431,bab29a4a95f9d024947e7477aa518c96,PennController,71,0,test_val,NULL,PennController,82,_Trial_,Start,1739889784949,undefined,532,enlighten,abstract-positive,positive,negative,A,NULL
1739890431,bab29a4a95f9d024947e7477aa518c96,PennController,71,0,test_val,NULL,PennController,82,_Header_,Start,1739889784949,undefined,532,enlighten,abstract-positive,positive,negative,A,NULL
1739890431,bab29a4a95f9d024947e7477aa518c96,PennController,71,0,test_val,NULL,PennController,82,_Header_,End,1739889785201,undefined,532,enlighten,abstract-positive,positive,negative,A,NULL
1739890431,bab29a4a95f9d024947e7477aa518c96,PennController,71,0,test_val,NULL,Selector,unnamed-Selector,Selection,positive,1739889786240,undefined,532,enlighten,abstract-positive,positive,negative,A,positive;negative
1739890431,bab29a4a95f9d024947e7477aa518c96,PennController,71,0,test_val,NULL,PennController,82,_Trial_,End,1739889786243,undefined,532,enlighten,abstract-positive,positive,negative,A,NULL
1739890431,bab29a4a95f9d024947e7477aa518c96,PennController,66,0,test_val,NULL,PennController,77,_Trial_,Start,1739889786245,undefined,546,gratitude,abstract-positive,positive,negative,A,NULL
1739890431,bab29a4a95f9d024947e7477aa518c96,PennController,66,0,test_val,NULL,PennController,77,_Header_,Start,1739889786245,undefined,546,gratitude,abstract-positive,positive,negative,A,NULL
1739890431,bab29a4a95f9d024947e7477aa518c96,PennController,66,0,test_val,NULL,PennController,77,_Header_,End,1739889786508,undefined,546,gratitude,abstract-positive,positive,negative,A,NULL
1739890431,bab29a4a95f9d024947e7477aa518c96,PennController,66,0,test_val,NULL,Selector,unnamed-Selector,Selection,positive,1739889787563,undefined,546,gratitude,abstract-positive,positive,negative,A,positive;negative
1739890431,bab29a4a95f9d024947e7477aa518c96,PennController,66,0,test_val,NULL,PennController,77,_Trial_,End,1739889787566,undefined,546,gratitude,abstract-positive,positive,negative,A,NULL
1739890431,bab29a4a95f9d024947e7477aa518c96,PennController,78,0,test_val,NULL,PennController,89,_Trial_,Start,1739889787569,undefined,505,home,concrete-postiive,positive,negative,A,NULL
1739890431,bab29a4a95f9d024947e7477aa518c96,PennController,78,0,test_val,NULL,PennController,89,_Header_,Start,1739889787569,undefined,505,home,concrete-postiive,positive,negative,A,NULL
1739890431,bab29a4a95f9d024947e7477aa518c96,PennController,78,0,test_val,NULL,PennController,89,_Header_,End,1739889787831,undefined,505,home,concrete-postiive,positive,negative,A,NULL
1739890431,bab29a4a95f9d024947e7477aa518c96,PennController,78,0,test_val,NULL,Selector,unnamed-Selector,Selection,positive,1739889788855,undefined,505,home,concrete-postiive,positive,negative,A,positive;negative
1739890431,bab29a4a95f9d024947e7477aa518c96,PennController,78,0,test_val,NULL,PennController,89,_Trial_,End,1739889788857,undefined,505,home,concrete-postiive,positive,negative,A,NULL
1739890431,bab29a4a95f9d024947e7477aa518c96,PennController,65,0,test_val,NULL,PennController,76,_Trial_,Start,1739889788859,undefined,500,freedom,abstract-positive,positive,negative,A,NULL
1739890431,bab29a4a95f9d024947e7477aa518c96,PennController,65,0,test_val,NULL,PennController,76,_Header_,Start,1739889788859,undefined,500,freedom,abstract-positive,positive,negative,A,NULL
1739890431,bab29a4a95f9d024947e7477aa518c96,PennController,65,0,test_val,NULL,PennController,76,_Header_,End,1739889789119,undefined,500,freedom,abstract-positive,positive,negative,A,NULL
1739890431,bab29a4a95f9d024947e7477aa518c96,PennController,65,0,test_val,NULL,Selector,unnamed-Selector,Selection,positive,1739889790134,undefined,500,freedom,abstract-positive,positive,negative,A,positive;negative
1739890431,bab29a4a95f9d024947e7477aa518c96,PennController,65,0,test_val,NULL,PennController,76,_Trial_,End,1739889790135,undefined,500,freedom,abstract-positive,positive,negative,A,NULL
1739890431,bab29a4a95f9d024947e7477aa518c96,PennController,49,0,test_val,NULL,PennController,60,_Trial_,Start,1739889790138,undefined,567,choke,concrete-negative,positive,negative,A,NULL
1739890431,bab29a4a95f9d024947e7477aa518c96,PennController,49,0,test_val,NULL,PennController,60,_Header_,Start,1739889790138,undefined,567,choke,concrete-negative,positive,negative,A,NULL
1739890431,bab29a4a95f9d024947e7477aa518c96,PennController,49,0,test_val,NULL,PennController,60,_Header_,End,1739889790389,undefined,567,choke,concrete-negative,positive,negative,A,NULL
1739890431,bab29a4a95f9d024947e7477aa518c96,PennController,49,0,test_val,NULL,Selector,unnamed-Selector,Selection,negative,1739889791459,undefined,567,choke,concrete-negative,positive,negative,A,positive;negative
1739890431,bab29a4a95f9d024947e7477aa518c96,PennController,49,0,test_val,NULL,PennController,60,_Trial_,End,1739889791461,undefined,567,choke,concrete-negative,positive,negative,A,NULL
1739890431,bab29a4a95f9d024947e7477aa518c96,PennController,67,0,test_val,NULL,PennController,78,_Trial_,Start,1739889791463,undefined,538,inspiration,abstract-positive,positive,negative,A,NULL
1739890431,bab29a4a95f9d024947e7477aa518c96,PennController,67,0,test_val,NULL,PennController,78,_Header_,Start,1739889791463,undefined,538,inspiration,abstract-positive,positive,negative,A,NULL
1739890431,bab29a4a95f9d024947e7477aa518c96,PennController,67,0,test_val,NULL,PennController,78,_Header_,End,1739889791718,undefined,538,inspiration,abstract-positive,positive,negative,A,NULL
1739890431,bab29a4a95f9d024947e7477aa518c96,PennController,67,0,test_val,NULL,Selector,unnamed-Selector,Selection,positive,1739889792767,undefined,538,inspiration,abstract-positive,positive,negative,A,positive;negative
1739890431,bab29a4a95f9d024947e7477aa518c96,PennController,67,0,test_val,NULL,PennController,78,_Trial_,End,1739889792770,undefined,538,inspiration,abstract-positive,positive,negative,A,NULL
1739890431,bab29a4a95f9d024947e7477aa518c96,PennController,58,0,test_val,NULL,PennController,69,_Trial_,Start,1739889792772,undefined,554,grief,abstract-negative,positive,negative,A,NULL
1739890431,bab29a4a95f9d024947e7477aa518c96,PennController,58,0,test_val,NULL,PennController,69,_Header_,Start,1739889792772,undefined,554,grief,abstract-negative,positive,negative,A,NULL
1739890431,bab29a4a95f9d024947e7477aa518c96,PennController,58,0,test_val,NULL,PennController,69,_Header_,End,1739889793029,undefined,554,grief,abstract-negative,positive,negative,A,NULL
1739890431,bab29a4a95f9d024947e7477aa518c96,PennController,58,0,test_val,NULL,Selector,unnamed-Selector,Selection,negative,1739889794105,undefined,554,grief,abstract-negative,positive,negative,A,positive;negative
1739890431,bab29a4a95f9d024947e7477aa518c96,PennController,58,0,test_val,NULL,PennController,69,_Trial_,End,1739889794107,undefined,554,grief,abstract-negative,positive,negative,A,NULL
1739890431,bab29a4a95f9d024947e7477aa518c96,PennController,57,0,test_val,NULL,PennController,68,_Trial_,Start,1739889794110,undefined,590,failure,abstract-negative,positive,negative,A,NULL
1739890431,bab29a4a95f9d024947e7477aa518c96,PennController,57,0,test_val,NULL,PennController,68,_Header_,Start,1739889794110,undefined,590,failure,abstract-negative,positive,negative,A,NULL
1739890431,bab29a4a95f9d024947e7477aa518c96,PennController,57,0,test_val,NULL,PennController,68,_Header_,End,1739889794373,undefined,590,failure,abstract-negative,positive,negative,A,NULL
1739890431,bab29a4a95f9d024947e7477aa518c96,PennController,57,0,test_val,NULL,Selector,unnamed-Selector,Selection,negative,1739889795470,undefined,590,failure,abstract-negative,positive,negative,A,positive;negative
1739890431,bab29a4a95f9d024947e7477aa518c96,PennController,57,0,test_val,NULL,PennController,68,_Trial_,End,1739889795472,undefined,590,failure,abstract-negative,positive,negative,A,NULL
1739890431,bab29a4a95f9d024947e7477aa518c96,PennController,83,0,test_val,NULL,PennController,94,_Trial_,Start,1739889795474,undefined,664,running,concrete-postiive,positive,negative,A,NULL
1739890431,bab29a4a95f9d024947e7477aa518c96,PennController,83,0,test_val,NULL,PennController,94,_Header_,Start,1739889795474,undefined,664,running,concrete-postiive,positive,negative,A,NULL
1739890431,bab29a4a95f9d024947e7477aa518c96,PennController,83,0,test_val,NULL,PennController,94,_Header_,End,1739889795729,undefined,664,running,concrete-postiive,positive,negative,A,NULL
1739890431,bab29a4a95f9d024947e7477aa518c96,PennController,83,0,test_val,NULL,Selector,unnamed-Selector,Selection,positive,1739889796907,undefined,664,running,concrete-postiive,positive,negative,A,positive;negative
1739890431,bab29a4a95f9d024947e7477aa518c96,PennController,83,0,test_val,NULL,PennController,94,_Trial_,End,1739889796910,undefined,664,running,concrete-postiive,positive,negative,A,NULL
1739890431,bab29a4a95f9d024947e7477aa518c96,PennController,56,0,test_val,NULL,PennController,67,_Trial_,Start,1739889796914,undefined,848,anxiety,abstract-negative,positive,negative,A,NULL
1739890431,bab29a4a95f9d024947e7477aa518c96,PennController,56,0,test_val,NULL,PennController,67,_Header_,Start,1739889796914,undefined,848,anxiety,abstract-negative,positive,negative,A,NULL
1739890431,bab29a4a95f9d024947e7477aa518c96,PennController,56,0,test_val,NULL,PennController,67,_Header_,End,1739889797173,undefined,848,anxiety,abstract-negative,positive,negative,A,NULL
1739890431,bab29a4a95f9d024947e7477aa518c96,PennController,56,0,test_val,NULL,Selector,unnamed-Selector,Selection,negative,1739889798529,undefined,848,anxiety,abstract-negative,positive,negative,A,positive;negative
1739890431,bab29a4a95f9d024947e7477aa518c96,PennController,56,0,test_val,NULL,PennController,67,_Trial_,End,1739889798531,undefined,848,anxiety,abstract-negative,positive,negative,A,NULL
1739890431,bab29a4a95f9d024947e7477aa518c96,PennController,77,0,test_val,NULL,PennController,88,_Trial_,Start,1739889798533,undefined,639,flowers,concrete-postiive,positive,negative,A,NULL
1739890431,bab29a4a95f9d024947e7477aa518c96,PennController,77,0,test_val,NULL,PennController,88,_Header_,Start,1739889798533,undefined,639,flowers,concrete-postiive,positive,negative,A,NULL
1739890431,bab29a4a95f9d024947e7477aa518c96,PennController,77,0,test_val,NULL,PennController,88,_Header_,End,1739889798798,undefined,639,flowers,concrete-postiive,positive,negative,A,NULL
1739890431,bab29a4a95f9d024947e7477aa518c96,PennController,77,0,test_val,NULL,Selector,unnamed-Selector,Selection,positive,1739889799943,undefined,639,flowers,concrete-postiive,positive,negative,A,positive;negative
1739890431,bab29a4a95f9d024947e7477aa518c96,PennController,77,0,test_val,NULL,PennController,88,_Trial_,End,1739889799944,undefined,639,flowers,concrete-postiive,positive,negative,A,NULL
1739890431,bab29a4a95f9d024947e7477aa518c96,PennController,44,0,test_val,NULL,PennController,55,_Trial_,Start,1739889799945,undefined,886,toxin,concrete-negative,positive,negative,A,NULL
1739890431,bab29a4a95f9d024947e7477aa518c96,PennController,44,0,test_val,NULL,PennController,55,_Header_,Start,1739889799945,undefined,886,toxin,concrete-negative,positive,negative,A,NULL
1739890431,bab29a4a95f9d024947e7477aa518c96,PennController,44,0,test_val,NULL,PennController,55,_Header_,End,1739889800202,undefined,886,toxin,concrete-negative,positive,negative,A,NULL
1739890431,bab29a4a95f9d024947e7477aa518c96,PennController,44,0,test_val,NULL,Selector,unnamed-Selector,Selection,negative,1739889801595,undefined,886,toxin,concrete-negative,positive,negative,A,positive;negative
1739890431,bab29a4a95f9d024947e7477aa518c96,PennController,44,0,test_val,NULL,PennController,55,_Trial_,End,1739889801597,undefined,886,toxin,concrete-negative,positive,negative,A,NULL
1739890431,bab29a4a95f9d024947e7477aa518c96,PennController,75,0,test_val,NULL,PennController,86,_Trial_,Start,1739889801600,undefined,597,chocolate,concrete-postiive,positive,negative,A,NULL
1739890431,bab29a4a95f9d024947e7477aa518c96,PennController,75,0,test_val,NULL,PennController,86,_Header_,Start,1739889801600,undefined,597,chocolate,concrete-postiive,positive,negative,A,NULL
1739890431,bab29a4a95f9d024947e7477aa518c96,PennController,75,0,test_val,NULL,PennController,86,_Header_,End,1739889801852,undefined,597,chocolate,concrete-postiive,positive,negative,A,NULL
1739890431,bab29a4a95f9d024947e7477aa518c96,PennController,75,0,test_val,NULL,Selector,unnamed-Selector,Selection,positive,1739889802955,undefined,597,chocolate,concrete-postiive,positive,negative,A,positive;negative
1739890431,bab29a4a95f9d024947e7477aa518c96,PennController,75,0,test_val,NULL,PennController,86,_Trial_,End,1739889802956,undefined,597,chocolate,concrete-postiive,positive,negative,A,NULL
1739890431,bab29a4a95f9d024947e7477aa518c96,PennController,54,0,test_val,NULL,PennController,65,_Trial_,Start,1739889802957,undefined,571,terror,abstract-negative,positive,negative,A,NULL
1739890431,bab29a4a95f9d024947e7477aa518c96,PennController,54,0,test_val,NULL,PennController,65,_Header_,Start,1739889802957,undefined,571,terror,abstract-negative,positive,negative,A,NULL
1739890431,bab29a4a95f9d024947e7477aa518c96,PennController,54,0,test_val,NULL,PennController,65,_Header_,End,1739889803219,undefined,571,terror,abstract-negative,positive,negative,A,NULL
1739890431,bab29a4a95f9d024947e7477aa518c96,PennController,54,0,test_val,NULL,Selector,unnamed-Selector,Selection,negative,1739889804303,undefined,571,terror,abstract-negative,positive,negative,A,positive;negative
1739890431,bab29a4a95f9d024947e7477aa518c96,PennController,54,0,test_val,NULL,PennController,65,_Trial_,End,1739889804305,undefined,571,terror,abstract-negative,positive,negative,A,NULL
1739890431,bab29a4a95f9d024947e7477aa518c96,PennController,55,0,test_val,NULL,PennController,66,_Trial_,Start,1739889804307,undefined,591,hatred,abstract-negative,positive,negative,A,NULL
1739890431,bab29a4a95f9d024947e7477aa518c96,PennController,55,0,test_val,NULL,PennController,66,_Header_,Start,1739889804307,undefined,591,hatred,abstract-negative,positive,negative,A,NULL
1739890431,bab29a4a95f9d024947e7477aa518c96,PennController,55,0,test_val,NULL,PennController,66,_Header_,End,1739889804570,undefined,591,hatred,abstract-negative,positive,negative,A,NULL
1739890431,bab29a4a95f9d024947e7477aa518c96,PennController,55,0,test_val,NULL,Selector,unnamed-Selector,Selection,negative,1739889805673,undefined,591,hatred,abstract-negative,positive,negative,A,positive;negative
1739890431,bab29a4a95f9d024947e7477aa518c96,PennController,55,0,test_val,NULL,PennController,66,_Trial_,End,1739889805675,undefined,591,hatred,abstract-negative,positive,negative,A,NULL
1739890431,bab29a4a95f9d024947e7477aa518c96,PennController,62,0,test_val,NULL,PennController,73,_Trial_,Start,1739889805676,undefined,611,resent,abstract-negative,positive,negative,A,NULL
1739890431,bab29a4a95f9d024947e7477aa518c96,PennController,62,0,test_val,NULL,PennController,73,_Header_,Start,1739889805676,undefined,611,resent,abstract-negative,positive,negative,A,NULL
1739890431,bab29a4a95f9d024947e7477aa518c96,PennController,62,0,test_val,NULL,PennController,73,_Header_,End,1739889805931,undefined,611,resent,abstract-negative,positive,negative,A,NULL
1739890431,bab29a4a95f9d024947e7477aa518c96,PennController,62,0,test_val,NULL,Selector,unnamed-Selector,Selection,negative,1739889807053,undefined,611,resent,abstract-negative,positive,negative,A,positive;negative
1739890431,bab29a4a95f9d024947e7477aa518c96,PennController,62,0,test_val,NULL,PennController,73,_Trial_,End,1739889807056,undefined,611,resent,abstract-negative,positive,negative,A,NULL
1739890431,bab29a4a95f9d024947e7477aa518c96,PennController,70,0,test_val,NULL,PennController,81,_Trial_,Start,1739889807059,undefined,897,cherish,abstract-positive,positive,negative,A,NULL
1739890431,bab29a4a95f9d024947e7477aa518c96,PennController,70,0,test_val,NULL,PennController,81,_Header_,Start,1739889807059,undefined,897,cherish,abstract-positive,positive,negative,A,NULL
1739890431,bab29a4a95f9d024947e7477aa518c96,PennController,70,0,test_val,NULL,PennController,81,_Header_,End,1739889807317,undefined,897,cherish,abstract-positive,positive,negative,A,NULL
1739890431,bab29a4a95f9d024947e7477aa518c96,PennController,70,0,test_val,NULL,Selector,unnamed-Selector,Selection,positive,1739889808721,undefined,897,cherish,abstract-positive,positive,negative,A,positive;negative
1739890431,bab29a4a95f9d024947e7477aa518c96,PennController,70,0,test_val,NULL,PennController,81,_Trial_,End,1739889808723,undefined,897,cherish,abstract-positive,positive,negative,A,NULL
1739890431,bab29a4a95f9d024947e7477aa518c96,PennController,68,0,test_val,NULL,PennController,79,_Trial_,Start,1739889808724,undefined,558,kindness,abstract-positive,positive,negative,A,NULL
1739890431,bab29a4a95f9d024947e7477aa518c96,PennController,68,0,test_val,NULL,PennController,79,_Header_,Start,1739889808725,undefined,558,kindness,abstract-positive,positive,negative,A,NULL
1739890431,bab29a4a95f9d024947e7477aa518c96,PennController,68,0,test_val,NULL,PennController,79,_Header_,End,1739889808979,undefined,558,kindness,abstract-positive,positive,negative,A,NULL
1739890431,bab29a4a95f9d024947e7477aa518c96,PennController,68,0,test_val,NULL,Selector,unnamed-Selector,Selection,positive,1739889810050,undefined,558,kindness,abstract-positive,positive,negative,A,positive;negative
1739890431,bab29a4a95f9d024947e7477aa518c96,PennController,68,0,test_val,NULL,PennController,79,_Trial_,End,1739889810053,undefined,558,kindness,abstract-positive,positive,negative,A,NULL
1739890431,bab29a4a95f9d024947e7477aa518c96,PennController,50,0,test_val,NULL,PennController,61,_Trial_,Start,1739889810055,undefined,749,fester,concrete-negative,positive,negative,A,NULL
1739890431,bab29a4a95f9d024947e7477aa518c96,PennController,50,0,test_val,NULL,PennController,61,_Header_,Start,1739889810055,undefined,749,fester,concrete-negative,positive,negative,A,NULL
1739890431,bab29a4a95f9d024947e7477aa518c96,PennController,50,0,test_val,NULL,PennController,61,_Header_,End,1739889810307,undefined,749,fester,concrete-negative,positive,negative,A,NULL
1739890431,bab29a4a95f9d024947e7477aa518c96,PennController,50,0,test_val,NULL,Selector,unnamed-Selector,Selection,negative,1739889811568,undefined,749,fester,concrete-negative,positive,negative,A,positive;negative
1739890431,bab29a4a95f9d024947e7477aa518c96,PennController,50,0,test_val,NULL,PennController,61,_Trial_,End,1739889811570,undefined,749,fester,concrete-negative,positive,negative,A,NULL
1739890431,bab29a4a95f9d024947e7477aa518c96,PennController,46,0,test_val,NULL,PennController,57,_Trial_,Start,1739889811572,undefined,594,mud,concrete-negative,positive,negative,A,NULL
1739890431,bab29a4a95f9d024947e7477aa518c96,PennController,46,0,test_val,NULL,PennController,57,_Header_,Start,1739889811572,undefined,594,mud,concrete-negative,positive,negative,A,NULL
1739890431,bab29a4a95f9d024947e7477aa518c96,PennController,46,0,test_val,NULL,PennController,57,_Header_,End,1739889811832,undefined,594,mud,concrete-negative,positive,negative,A,NULL
1739890431,bab29a4a95f9d024947e7477aa518c96,PennController,46,0,test_val,NULL,Selector,unnamed-Selector,Selection,negative,1739889812934,undefined,594,mud,concrete-negative,positive,negative,A,positive;negative
1739890431,bab29a4a95f9d024947e7477aa518c96,PennController,46,0,test_val,NULL,PennController,57,_Trial_,End,1739889812936,undefined,594,mud,concrete-negative,positive,negative,A,NULL
1739890431,bab29a4a95f9d024947e7477aa518c96,PennController,74,0,test_val,NULL,PennController,85,_Trial_,Start,1739889812938,undefined,576,beach,concrete-postiive,positive,negative,A,NULL
1739890431,bab29a4a95f9d024947e7477aa518c96,PennController,74,0,test_val,NULL,PennController,85,_Header_,Start,1739889812938,undefined,576,beach,concrete-postiive,positive,negative,A,NULL
1739890431,bab29a4a95f9d024947e7477aa518c96,PennController,74,0,test_val,NULL,PennController,85,_Header_,End,1739889813199,undefined,576,beach,concrete-postiive,positive,negative,A,NULL
1739890431,bab29a4a95f9d024947e7477aa518c96,PennController,74,0,test_val,NULL,Selector,unnamed-Selector,Selection,positive,1739889814294,undefined,576,beach,concrete-postiive,positive,negative,A,positive;negative
1739890431,bab29a4a95f9d024947e7477aa518c96,PennController,74,0,test_val,NULL,PennController,85,_Trial_,End,1739889814295,undefined,576,beach,concrete-postiive,positive,negative,A,NULL
1739890431,bab29a4a95f9d024947e7477aa518c96,PennController,51,0,test_val,NULL,PennController,62,_Trial_,Start,1739889814297,undefined,675,writhe,concrete-negative,positive,negative,A,NULL
1739890431,bab29a4a95f9d024947e7477aa518c96,PennController,51,0,test_val,NULL,PennController,62,_Header_,Start,1739889814297,undefined,675,writhe,concrete-negative,positive,negative,A,NULL
1739890431,bab29a4a95f9d024947e7477aa518c96,PennController,51,0,test_val,NULL,PennController,62,_Header_,End,1739889814552,undefined,675,writhe,concrete-negative,positive,negative,A,NULL
1739890431,bab29a4a95f9d024947e7477aa518c96,PennController,51,0,test_val,NULL,Selector,unnamed-Selector,Selection,negative,1739889815746,undefined,675,writhe,concrete-negative,positive,negative,A,positive;negative
1739890431,bab29a4a95f9d024947e7477aa518c96,PennController,51,0,test_val,NULL,PennController,62,_Trial_,End,1739889815748,undefined,675,writhe,concrete-negative,positive,negative,A,NULL
1739890431,bab29a4a95f9d024947e7477aa518c96,PennController,63,0,test_val,NULL,PennController,74,_Trial_,Start,1739889815750,undefined,859,obsess,abstract-negative,positive,negative,A,NULL
1739890431,bab29a4a95f9d024947e7477aa518c96,PennController,63,0,test_val,NULL,PennController,74,_Header_,Start,1739889815750,undefined,859,obsess,abstract-negative,positive,negative,A,NULL
1739890431,bab29a4a95f9d024947e7477aa518c96,PennController,63,0,test_val,NULL,PennController,74,_Header_,End,1739889816007,undefined,859,obsess,abstract-negative,positive,negative,A,NULL
1739890431,bab29a4a95f9d024947e7477aa518c96,PennController,63,0,test_val,NULL,Selector,unnamed-Selector,Selection,negative,1739889817373,undefined,859,obsess,abstract-negative,positive,negative,A,positive;negative
1739890431,bab29a4a95f9d024947e7477aa518c96,PennController,63,0,test_val,NULL,PennController,74,_Trial_,End,1739889817376,undefined,859,obsess,abstract-negative,positive,negative,A,NULL
1739890431,bab29a4a95f9d024947e7477aa518c96,PennController,48,0,test_val,NULL,PennController,59,_Trial_,Start,1739889817378,undefined,801,slave,concrete-negative,positive,negative,A,NULL
1739890431,bab29a4a95f9d024947e7477aa518c96,PennController,48,0,test_val,NULL,PennController,59,_Header_,Start,1739889817378,undefined,801,slave,concrete-negative,positive,negative,A,NULL
1739890431,bab29a4a95f9d024947e7477aa518c96,PennController,48,0,test_val,NULL,PennController,59,_Header_,End,1739889817631,undefined,801,slave,concrete-negative,positive,negative,A,NULL
1739890431,bab29a4a95f9d024947e7477aa518c96,PennController,48,0,test_val,NULL,Selector,unnamed-Selector,Selection,negative,1739889818942,undefined,801,slave,concrete-negative,positive,negative,A,positive;negative
1739890431,bab29a4a95f9d024947e7477aa518c96,PennController,48,0,test_val,NULL,PennController,59,_Trial_,End,1739889818944,undefined,801,slave,concrete-negative,positive,negative,A,NULL
1739890431,bab29a4a95f9d024947e7477aa518c96,PennController,52,0,test_val,NULL,PennController,63,_Trial_,Start,1739889818947,undefined,650,bleed,concrete-negative,positive,negative,A,NULL
1739890431,bab29a4a95f9d024947e7477aa518c96,PennController,52,0,test_val,NULL,PennController,63,_Header_,Start,1739889818947,undefined,650,bleed,concrete-negative,positive,negative,A,NULL
1739890431,bab29a4a95f9d024947e7477aa518c96,PennController,52,0,test_val,NULL,PennController,63,_Header_,End,1739889819201,undefined,650,bleed,concrete-negative,positive,negative,A,NULL
1739890431,bab29a4a95f9d024947e7477aa518c96,PennController,52,0,test_val,NULL,Selector,unnamed-Selector,Selection,negative,1739889820363,undefined,650,bleed,concrete-negative,positive,negative,A,positive;negative
1739890431,bab29a4a95f9d024947e7477aa518c96,PennController,52,0,test_val,NULL,PennController,63,_Trial_,End,1739889820365,undefined,650,bleed,concrete-negative,positive,negative,A,NULL
1739890431,bab29a4a95f9d024947e7477aa518c96,PennController,59,0,test_val,NULL,PennController,70,_Trial_,Start,1739889820367,undefined,669,befall,abstract-negative,positive,negative,A,NULL
1739890431,bab29a4a95f9d024947e7477aa518c96,PennController,59,0,test_val,NULL,PennController,70,_Header_,Start,1739889820367,undefined,669,befall,abstract-negative,positive,negative,A,NULL
1739890431,bab29a4a95f9d024947e7477aa518c96,PennController,59,0,test_val,NULL,PennController,70,_Header_,End,1739889820622,undefined,669,befall,abstract-negative,positive,negative,A,NULL
1739890431,bab29a4a95f9d024947e7477aa518c96,PennController,59,0,test_val,NULL,Selector,unnamed-Selector,Selection,negative,1739889821801,undefined,669,befall,abstract-negative,positive,negative,A,positive;negative
1739890431,bab29a4a95f9d024947e7477aa518c96,PennController,59,0,test_val,NULL,PennController,70,_Trial_,End,1739889821803,undefined,669,befall,abstract-negative,positive,negative,A,NULL
1739890431,bab29a4a95f9d024947e7477aa518c96,PennController,61,0,test_val,NULL,PennController,72,_Trial_,Start,1739889821805,undefined,639,exploit,abstract-negative,positive,negative,A,NULL
1739890431,bab29a4a95f9d024947e7477aa518c96,PennController,61,0,test_val,NULL,PennController,72,_Header_,Start,1739889821805,undefined,639,exploit,abstract-negative,positive,negative,A,NULL
1739890431,bab29a4a95f9d024947e7477aa518c96,PennController,61,0,test_val,NULL,PennController,72,_Header_,End,1739889822061,undefined,639,exploit,abstract-negative,positive,negative,A,NULL
1739890431,bab29a4a95f9d024947e7477aa518c96,PennController,61,0,test_val,NULL,Selector,unnamed-Selector,Selection,negative,1739889823212,undefined,639,exploit,abstract-negative,positive,negative,A,positive;negative
1739890431,bab29a4a95f9d024947e7477aa518c96,PennController,61,0,test_val,NULL,PennController,72,_Trial_,End,1739889823214,undefined,639,exploit,abstract-negative,positive,negative,A,NULL
1739890431,bab29a4a95f9d024947e7477aa518c96,PennController,76,0,test_val,NULL,PennController,87,_Trial_,Start,1739889823216,undefined,604,fireplace,concrete-postiive,positive,negative,A,NULL
1739890431,bab29a4a95f9d024947e7477aa518c96,PennController,76,0,test_val,NULL,PennController,87,_Header_,Start,1739889823216,undefined,604,fireplace,concrete-postiive,positive,negative,A,NULL
1739890431,bab29a4a95f9d024947e7477aa518c96,PennController,76,0,test_val,NULL,PennController,87,_Header_,End,1739889823471,undefined,604,fireplace,concrete-postiive,positive,negative,A,NULL
1739890431,bab29a4a95f9d024947e7477aa518c96,PennController,76,0,test_val,NULL,Selector,unnamed-Selector,Selection,positive,1739889824587,undefined,604,fireplace,concrete-postiive,positive,negative,A,positive;negative
1739890431,bab29a4a95f9d024947e7477aa518c96,PennController,76,0,test_val,NULL,PennController,87,_Trial_,End,1739889824589,undefined,604,fireplace,concrete-postiive,positive,negative,A,NULL
1739890431,bab29a4a95f9d024947e7477aa518c96,PennController,72,0,test_val,NULL,PennController,83,_Trial_,Start,1739889824590,undefined,1231,fulfill,abstract-positive,positive,negative,A,NULL
1739890431,bab29a4a95f9d024947e7477aa518c96,PennController,72,0,test_val,NULL,PennController,83,_Header_,Start,1739889824590,undefined,1231,fulfill,abstract-positive,positive,negative,A,NULL
1739890431,bab29a4a95f9d024947e7477aa518c96,PennController,72,0,test_val,NULL,PennController,83,_Header_,End,1739889824841,undefined,1231,fulfill,abstract-positive,positive,negative,A,NULL
1739890431,bab29a4a95f9d024947e7477aa518c96,PennController,72,0,test_val,NULL,Selector,unnamed-Selector,Selection,positive,1739889826583,undefined,1231,fulfill,abstract-positive,positive,negative,A,positive;negative
1739890431,bab29a4a95f9d024947e7477aa518c96,PennController,72,0,test_val,NULL,PennController,83,_Trial_,End,1739889826585,undefined,1231,fulfill,abstract-positive,positive,negative,A,NULL
1739890431,bab29a4a95f9d024947e7477aa518c96,PennController,73,0,test_val,NULL,PennController,84,_Trial_,Start,1739889826587,undefined,688,imagine,abstract-positive,positive,negative,A,NULL
1739890431,bab29a4a95f9d024947e7477aa518c96,PennController,73,0,test_val,NULL,PennController,84,_Header_,Start,1739889826587,undefined,688,imagine,abstract-positive,positive,negative,A,NULL
1739890431,bab29a4a95f9d024947e7477aa518c96,PennController,73,0,test_val,NULL,PennController,84,_Header_,End,1739889826841,undefined,688,imagine,abstract-positive,positive,negative,A,NULL
1739890431,bab29a4a95f9d024947e7477aa518c96,PennController,73,0,test_val,NULL,Selector,unnamed-Selector,Selection,positive,1739889828039,undefined,688,imagine,abstract-positive,positive,negative,A,positive;negative
1739890431,bab29a4a95f9d024947e7477aa518c96,PennController,73,0,test_val,NULL,PennController,84,_Trial_,End,1739889828041,undefined,688,imagine,abstract-positive,positive,negative,A,NULL
1739890431,bab29a4a95f9d024947e7477aa518c96,PennController,69,0,test_val,NULL,PennController,80,_Trial_,Start,1739889828042,undefined,481,admire,abstract-positive,positive,negative,A,NULL
1739890431,bab29a4a95f9d024947e7477aa518c96,PennController,69,0,test_val,NULL,PennController,80,_Header_,Start,1739889828042,undefined,481,admire,abstract-positive,positive,negative,A,NULL
1739890431,bab29a4a95f9d024947e7477aa518c96,PennController,69,0,test_val,NULL,PennController,80,_Header_,End,1739889828300,undefined,481,admire,abstract-positive,positive,negative,A,NULL
1739890431,bab29a4a95f9d024947e7477aa518c96,PennController,69,0,test_val,NULL,Selector,unnamed-Selector,Selection,positive,1739889829293,undefined,481,admire,abstract-positive,positive,negative,A,positive;negative
1739890431,bab29a4a95f9d024947e7477aa518c96,PennController,69,0,test_val,NULL,PennController,80,_Trial_,End,1739889829296,undefined,481,admire,abstract-positive,positive,negative,A,NULL
1739890431,bab29a4a95f9d024947e7477aa518c96,PennController,47,0,test_val,NULL,PennController,58,_Trial_,Start,1739889829298,undefined,755,corpse,concrete-negative,positive,negative,A,NULL
1739890431,bab29a4a95f9d024947e7477aa518c96,PennController,47,0,test_val,NULL,PennController,58,_Header_,Start,1739889829298,undefined,755,corpse,concrete-negative,positive,negative,A,NULL
1739890431,bab29a4a95f9d024947e7477aa518c96,PennController,47,0,test_val,NULL,PennController,58,_Header_,End,1739889829551,undefined,755,corpse,concrete-negative,positive,negative,A,NULL
1739890431,bab29a4a95f9d024947e7477aa518c96,PennController,47,0,test_val,NULL,Selector,unnamed-Selector,Selection,negative,1739889830817,undefined,755,corpse,concrete-negative,positive,negative,A,positive;negative
1739890431,bab29a4a95f9d024947e7477aa518c96,PennController,47,0,test_val,NULL,PennController,58,_Trial_,End,1739889830819,undefined,755,corpse,concrete-negative,positive,negative,A,NULL
1739890431,bab29a4a95f9d024947e7477aa518c96,PennController,81,0,test_val,NULL,PennController,92,_Trial_,Start,1739889830820,undefined,1070,glisten,concrete-postiive,positive,negative,A,NULL
1739890431,bab29a4a95f9d024947e7477aa518c96,PennController,81,0,test_val,NULL,PennController,92,_Header_,Start,1739889830820,undefined,1070,glisten,concrete-postiive,positive,negative,A,NULL
1739890431,bab29a4a95f9d024947e7477aa518c96,PennController,81,0,test_val,NULL,PennController,92,_Header_,End,1739889831071,undefined,1070,glisten,concrete-postiive,positive,negative,A,NULL
1739890431,bab29a4a95f9d024947e7477aa518c96,PennController,81,0,test_val,NULL,Selector,unnamed-Selector,Selection,positive,1739889832653,undefined,1070,glisten,concrete-postiive,positive,negative,A,positive;negative
1739890431,bab29a4a95f9d024947e7477aa518c96,PennController,81,0,test_val,NULL,PennController,92,_Trial_,End,1739889832655,undefined,1070,glisten,concrete-postiive,positive,negative,A,NULL
1739890431,bab29a4a95f9d024947e7477aa518c96,PennController,45,0,test_val,NULL,PennController,56,_Trial_,Start,1739889832658,undefined,612,garbage,concrete-negative,positive,negative,A,NULL
1739890431,bab29a4a95f9d024947e7477aa518c96,PennController,45,0,test_val,NULL,PennController,56,_Header_,Start,1739889832658,undefined,612,garbage,concrete-negative,positive,negative,A,NULL
1739890431,bab29a4a95f9d024947e7477aa518c96,PennController,45,0,test_val,NULL,PennController,56,_Header_,End,1739889832911,undefined,612,garbage,concrete-negative,positive,negative,A,NULL
1739890431,bab29a4a95f9d024947e7477aa518c96,PennController,45,0,test_val,NULL,Selector,unnamed-Selector,Selection,negative,1739889834034,undefined,612,garbage,concrete-negative,positive,negative,A,positive;negative
1739890431,bab29a4a95f9d024947e7477aa518c96,PennController,45,0,test_val,NULL,PennController,56,_Trial_,End,1739889834036,undefined,612,garbage,concrete-negative,positive,negative,A,NULL
1739890431,bab29a4a95f9d024947e7477aa518c96,PennController,79,0,test_val,NULL,PennController,90,_Trial_,Start,1739889834038,undefined,668,glide,concrete-postiive,positive,negative,A,NULL
1739890431,bab29a4a95f9d024947e7477aa518c96,PennController,79,0,test_val,NULL,PennController,90,_Header_,Start,1739889834038,undefined,668,glide,concrete-postiive,positive,negative,A,NULL
1739890431,bab29a4a95f9d024947e7477aa518c96,PennController,79,0,test_val,NULL,PennController,90,_Header_,End,1739889834291,undefined,668,glide,concrete-postiive,positive,negative,A,NULL
1739890431,bab29a4a95f9d024947e7477aa518c96,PennController,79,0,test_val,NULL,Selector,unnamed-Selector,Selection,positive,1739889835460,undefined,668,glide,concrete-postiive,positive,negative,A,positive;negative
1739890431,bab29a4a95f9d024947e7477aa518c96,PennController,79,0,test_val,NULL,PennController,90,_Trial_,End,1739889835463,undefined,668,glide,concrete-postiive,positive,negative,A,NULL
1739890431,bab29a4a95f9d024947e7477aa518c96,PennController,80,0,test_val,NULL,PennController,91,_Trial_,Start,1739889835465,undefined,710,breathe,concrete-postiive,positive,negative,A,NULL
1739890431,bab29a4a95f9d024947e7477aa518c96,PennController,80,0,test_val,NULL,PennController,91,_Header_,Start,1739889835465,undefined,710,breathe,concrete-postiive,positive,negative,A,NULL
1739890431,bab29a4a95f9d024947e7477aa518c96,PennController,80,0,test_val,NULL,PennController,91,_Header_,End,1739889835721,undefined,710,breathe,concrete-postiive,positive,negative,A,NULL
1739890431,bab29a4a95f9d024947e7477aa518c96,PennController,80,0,test_val,NULL,Selector,unnamed-Selector,Selection,positive,1739889836943,undefined,710,breathe,concrete-postiive,positive,negative,A,positive;negative
1739890431,bab29a4a95f9d024947e7477aa518c96,PennController,80,0,test_val,NULL,PennController,91,_Trial_,End,1739889836945,undefined,710,breathe,concrete-postiive,positive,negative,A,NULL
1739890431,bab29a4a95f9d024947e7477aa518c96,PennController,60,0,test_val,NULL,PennController,71,_Trial_,Start,1739889836946,undefined,655,criticize,abstract-negative,positive,negative,A,NULL
1739890431,bab29a4a95f9d024947e7477aa518c96,PennController,60,0,test_val,NULL,PennController,71,_Header_,Start,1739889836946,undefined,655,criticize,abstract-negative,positive,negative,A,NULL
1739890431,bab29a4a95f9d024947e7477aa518c96,PennController,60,0,test_val,NULL,PennController,71,_Header_,End,1739889837200,undefined,655,criticize,abstract-negative,positive,negative,A,NULL
1739890431,bab29a4a95f9d024947e7477aa518c96,PennController,60,0,test_val,NULL,Selector,unnamed-Selector,Selection,negative,1739889838369,undefined,655,criticize,abstract-negative,positive,negative,A,positive;negative
1739890431,bab29a4a95f9d024947e7477aa518c96,PennController,60,0,test_val,NULL,PennController,71,_Trial_,End,1739889838370,undefined,655,criticize,abstract-negative,positive,negative,A,NULL
1739890431,bab29a4a95f9d024947e7477aa518c96,PennController,82,0,test_val,NULL,PennController,93,_Trial_,Start,1739889838371,undefined,572,eat,concrete-postiive,positive,negative,A,NULL
1739890431,bab29a4a95f9d024947e7477aa518c96,PennController,82,0,test_val,NULL,PennController,93,_Header_,Start,1739889838371,undefined,572,eat,concrete-postiive,positive,negative,A,NULL
1739890431,bab29a4a95f9d024947e7477aa518c96,PennController,82,0,test_val,NULL,PennController,93,_Header_,End,1739889838631,undefined,572,eat,concrete-postiive,positive,negative,A,NULL
1739890431,bab29a4a95f9d024947e7477aa518c96,PennController,82,0,test_val,NULL,Selector,unnamed-Selector,Selection,positive,1739889839715,undefined,572,eat,concrete-postiive,positive,negative,A,positive;negative
1739890431,bab29a4a95f9d024947e7477aa518c96,PennController,82,0,test_val,NULL,PennController,93,_Trial_,End,1739889839717,undefined,572,eat,concrete-postiive,positive,negative,A,NULL
1739890431,bab29a4a95f9d024947e7477aa518c96,PennController,53,0,test_val,NULL,PennController,64,_Trial_,Start,1739889839718,undefined,659,stab,concrete-negative,positive,negative,A,NULL
1739890431,bab29a4a95f9d024947e7477aa518c96,PennController,53,0,test_val,NULL,PennController,64,_Header_,Start,1739889839718,undefined,659,stab,concrete-negative,positive,negative,A,NULL
1739890431,bab29a4a95f9d024947e7477aa518c96,PennController,53,0,test_val,NULL,PennController,64,_Header_,End,1739889839976,undefined,659,stab,concrete-negative,positive,negative,A,NULL
1739890431,bab29a4a95f9d024947e7477aa518c96,PennController,53,0,test_val,NULL,Selector,unnamed-Selector,Selection,negative,1739889841142,undefined,659,stab,concrete-negative,positive,negative,A,positive;negative
1739890431,bab29a4a95f9d024947e7477aa518c96,PennController,53,0,test_val,NULL,PennController,64,_Trial_,End,1739889841143,undefined,659,stab,concrete-negative,positive,negative,A,NULL
1739890431,bab29a4a95f9d024947e7477aa518c96,PennController,71,0,test_val,NULL,PennController,82,_Trial_,Start,1739889841145,undefined,559,enlighten,abstract-positive,positive,negative,A,NULL
1739890431,bab29a4a95f9d024947e7477aa518c96,PennController,71,0,test_val,NULL,PennController,82,_Header_,Start,1739889841145,undefined,559,enlighten,abstract-positive,positive,negative,A,NULL
1739890431,bab29a4a95f9d024947e7477aa518c96,PennController,71,0,test_val,NULL,PennController,82,_Header_,End,1739889841408,undefined,559,enlighten,abstract-positive,positive,negative,A,NULL
1739890431,bab29a4a95f9d024947e7477aa518c96,PennController,71,0,test_val,NULL,Selector,unnamed-Selector,Selection,positive,1739889842482,undefined,559,enlighten,abstract-positive,positive,negative,A,positive;negative
1739890431,bab29a4a95f9d024947e7477aa518c96,PennController,71,0,test_val,NULL,PennController,82,_Trial_,End,1739889842484,undefined,559,enlighten,abstract-positive,positive,negative,A,NULL
1739890431,bab29a4a95f9d024947e7477aa518c96,PennController,69,0,test_val,NULL,PennController,80,_Trial_,Start,1739889842485,undefined,550,admire,abstract-positive,positive,negative,A,NULL
1739890431,bab29a4a95f9d024947e7477aa518c96,PennController,69,0,test_val,NULL,PennController,80,_Header_,Start,1739889842485,undefined,550,admire,abstract-positive,positive,negative,A,NULL
1739890431,bab29a4a95f9d024947e7477aa518c96,PennController,69,0,test_val,NULL,PennController,80,_Header_,End,1739889842747,undefined,550,admire,abstract-positive,positive,negative,A,NULL
1739890431,bab29a4a95f9d024947e7477aa518c96,PennController,69,0,test_val,NULL,Selector,unnamed-Selector,Selection,positive,1739889843802,undefined,550,admire,abstract-positive,positive,negative,A,positive;negative
1739890431,bab29a4a95f9d024947e7477aa518c96,PennController,69,0,test_val,NULL,PennController,80,_Trial_,End,1739889843803,undefined,550,admire,abstract-positive,positive,negative,A,NULL
1739890431,bab29a4a95f9d024947e7477aa518c96,PennController,52,0,test_val,NULL,PennController,63,_Trial_,Start,1739889843805,undefined,614,bleed,concrete-negative,positive,negative,A,NULL
1739890431,bab29a4a95f9d024947e7477aa518c96,PennController,52,0,test_val,NULL,PennController,63,_Header_,Start,1739889843805,undefined,614,bleed,concrete-negative,positive,negative,A,NULL
1739890431,bab29a4a95f9d024947e7477aa518c96,PennController,52,0,test_val,NULL,PennController,63,_Header_,End,1739889844069,undefined,614,bleed,concrete-negative,positive,negative,A,NULL
1739890431,bab29a4a95f9d024947e7477aa518c96,PennController,52,0,test_val,NULL,Selector,unnamed-Selector,Selection,negative,1739889845195,undefined,614,bleed,concrete-negative,positive,negative,A,positive;negative
1739890431,bab29a4a95f9d024947e7477aa518c96,PennController,52,0,test_val,NULL,PennController,63,_Trial_,End,1739889845197,undefined,614,bleed,concrete-negative,positive,negative,A,NULL
1739890431,bab29a4a95f9d024947e7477aa518c96,PennController,72,0,test_val,NULL,PennController,83,_Trial_,Start,1739889845199,undefined,719,fulfill,abstract-positive,positive,negative,A,NULL
1739890431,bab29a4a95f9d024947e7477aa518c96,PennController,72,0,test_val,NULL,PennController,83,_Header_,Start,1739889845199,undefined,719,fulfill,abstract-positive,positive,negative,A,NULL
1739890431,bab29a4a95f9d024947e7477aa518c96,PennController,72,0,test_val,NULL,PennController,83,_Header_,End,1739889845452,undefined,719,fulfill,abstract-positive,positive,negative,A,NULL
1739890431,bab29a4a95f9d024947e7477aa518c96,PennController,72,0,test_val,NULL,Selector,unnamed-Selector,Selection,positive,1739889846687,undefined,719,fulfill,abstract-positive,positive,negative,A,positive;negative
1739890431,bab29a4a95f9d024947e7477aa518c96,PennController,72,0,test_val,NULL,PennController,83,_Trial_,End,1739889846688,undefined,719,fulfill,abstract-positive,positive,negative,A,NULL
1739890431,bab29a4a95f9d024947e7477aa518c96,PennController,77,0,test_val,NULL,PennController,88,_Trial_,Start,1739889846689,undefined,604,flowers,concrete-postiive,positive,negative,A,NULL
1739890431,bab29a4a95f9d024947e7477aa518c96,PennController,77,0,test_val,NULL,PennController,88,_Header_,Start,1739889846689,undefined,604,flowers,concrete-postiive,positive,negative,A,NULL
1739890431,bab29a4a95f9d024947e7477aa518c96,PennController,77,0,test_val,NULL,PennController,88,_Header_,End,1739889846942,undefined,604,flowers,concrete-postiive,positive,negative,A,NULL
1739890431,bab29a4a95f9d024947e7477aa518c96,PennController,77,0,test_val,NULL,Selector,unnamed-Selector,Selection,positive,1739889848056,undefined,604,flowers,concrete-postiive,positive,negative,A,positive;negative
1739890431,bab29a4a95f9d024947e7477aa518c96,PennController,77,0,test_val,NULL,PennController,88,_Trial_,End,1739889848058,undefined,604,flowers,concrete-postiive,positive,negative,A,NULL
1739890431,bab29a4a95f9d024947e7477aa518c96,PennController,44,0,test_val,NULL,PennController,55,_Trial_,Start,1739889848060,undefined,644,toxin,concrete-negative,positive,negative,A,NULL
1739890431,bab29a4a95f9d024947e7477aa518c96,PennController,44,0,test_val,NULL,PennController,55,_Header_,Start,1739889848060,undefined,644,toxin,concrete-negative,positive,negative,A,NULL
1739890431,bab29a4a95f9d024947e7477aa518c96,PennController,44,0,test_val,NULL,PennController,55,_Header_,End,1739889848321,undefined,644,toxin,concrete-negative,positive,negative,A,NULL
1739890431,bab29a4a95f9d024947e7477aa518c96,PennController,44,0,test_val,NULL,Selector,unnamed-Selector,Selection,negative,1739889849475,undefined,644,toxin,concrete-negative,positive,negative,A,positive;negative
1739890431,bab29a4a95f9d024947e7477aa518c96,PennController,44,0,test_val,NULL,PennController,55,_Trial_,End,1739889849477,undefined,644,toxin,concrete-negative,positive,negative,A,NULL
1739890431,bab29a4a95f9d024947e7477aa518c96,PennController,79,0,test_val,NULL,PennController,90,_Trial_,Start,1739889849478,undefined,555,glide,concrete-postiive,positive,negative,A,NULL
1739890431,bab29a4a95f9d024947e7477aa518c96,PennController,79,0,test_val,NULL,PennController,90,_Header_,Start,1739889849478,undefined,555,glide,concrete-postiive,positive,negative,A,NULL
1739890431,bab29a4a95f9d024947e7477aa518c96,PennController,79,0,test_val,NULL,PennController,90,_Header_,End,1739889849732,undefined,555,glide,concrete-postiive,positive,negative,A,NULL
1739890431,bab29a4a95f9d024947e7477aa518c96,PennController,79,0,test_val,NULL,Selector,unnamed-Selector,Selection,positive,1739889850804,undefined,555,glide,concrete-postiive,positive,negative,A,positive;negative
1739890431,bab29a4a95f9d024947e7477aa518c96,PennController,79,0,test_val,NULL,PennController,90,_Trial_,End,1739889850807,undefined,555,glide,concrete-postiive,positive,negative,A,NULL
1739890431,bab29a4a95f9d024947e7477aa518c96,PennController,50,0,test_val,NULL,PennController,61,_Trial_,Start,1739889850808,undefined,771,fester,concrete-negative,positive,negative,A,NULL
1739890431,bab29a4a95f9d024947e7477aa518c96,PennController,50,0,test_val,NULL,PennController,61,_Header_,Start,1739889850808,undefined,771,fester,concrete-negative,positive,negative,A,NULL
1739890431,bab29a4a95f9d024947e7477aa518c96,PennController,50,0,test_val,NULL,PennController,61,_Header_,End,1739889851063,undefined,771,fester,concrete-negative,positive,negative,A,NULL
1739890431,bab29a4a95f9d024947e7477aa518c96,PennController,50,0,test_val,NULL,Selector,unnamed-Selector,Selection,negative,1739889852344,undefined,771,fester,concrete-negative,positive,negative,A,positive;negative
1739890431,bab29a4a95f9d024947e7477aa518c96,PennController,50,0,test_val,NULL,PennController,61,_Trial_,End,1739889852345,undefined,771,fester,concrete-negative,positive,negative,A,NULL
1739890431,bab29a4a95f9d024947e7477aa518c96,PennController,61,0,test_val,NULL,PennController,72,_Trial_,Start,1739889852347,undefined,638,exploit,abstract-negative,positive,negative,A,NULL
1739890431,bab29a4a95f9d024947e7477aa518c96,PennController,61,0,test_val,NULL,PennController,72,_Header_,Start,1739889852347,undefined,638,exploit,abstract-negative,positive,negative,A,NULL
1739890431,bab29a4a95f9d024947e7477aa518c96,PennController,61,0,test_val,NULL,PennController,72,_Header_,End,1739889852607,undefined,638,exploit,abstract-negative,positive,negative,A,NULL
1739890431,bab29a4a95f9d024947e7477aa518c96,PennController,61,0,test_val,NULL,Selector,unnamed-Selector,Selection,negative,1739889853748,undefined,638,exploit,abstract-negative,positive,negative,A,positive;negative
1739890431,bab29a4a95f9d024947e7477aa518c96,PennController,61,0,test_val,NULL,PennController,72,_Trial_,End,1739889853749,undefined,638,exploit,abstract-negative,positive,negative,A,NULL
1739890431,bab29a4a95f9d024947e7477aa518c96,PennController,57,0,test_val,NULL,PennController,68,_Trial_,Start,1739889853752,undefined,606,failure,abstract-negative,positive,negative,A,NULL
1739890431,bab29a4a95f9d024947e7477aa518c96,PennController,57,0,test_val,NULL,PennController,68,_Header_,Start,1739889853752,undefined,606,failure,abstract-negative,positive,negative,A,NULL
1739890431,bab29a4a95f9d024947e7477aa518c96,PennController,57,0,test_val,NULL,PennController,68,_Header_,End,1739889854014,undefined,606,failure,abstract-negative,positive,negative,A,NULL
1739890431,bab29a4a95f9d024947e7477aa518c96,PennController,57,0,test_val,NULL,Selector,unnamed-Selector,Selection,negative,1739889855136,undefined,606,failure,abstract-negative,positive,negative,A,positive;negative
1739890431,bab29a4a95f9d024947e7477aa518c96,PennController,57,0,test_val,NULL,PennController,68,_Trial_,End,1739889855137,undefined,606,failure,abstract-negative,positive,negative,A,NULL
1739890431,bab29a4a95f9d024947e7477aa518c96,PennController,78,0,test_val,NULL,PennController,89,_Trial_,Start,1739889855139,undefined,781,home,concrete-postiive,positive,negative,A,NULL
1739890431,bab29a4a95f9d024947e7477aa518c96,PennController,78,0,test_val,NULL,PennController,89,_Header_,Start,1739889855139,undefined,781,home,concrete-postiive,positive,negative,A,NULL
1739890431,bab29a4a95f9d024947e7477aa518c96,PennController,78,0,test_val,NULL,PennController,89,_Header_,End,1739889855402,undefined,781,home,concrete-postiive,positive,negative,A,NULL
1739890431,bab29a4a95f9d024947e7477aa518c96,PennController,78,0,test_val,NULL,Selector,unnamed-Selector,Selection,positive,1739889856699,undefined,781,home,concrete-postiive,positive,negative,A,positive;negative
1739890431,bab29a4a95f9d024947e7477aa518c96,PennController,78,0,test_val,NULL,PennController,89,_Trial_,End,1739889856701,undefined,781,home,concrete-postiive,positive,negative,A,NULL
1739890431,bab29a4a95f9d024947e7477aa518c96,PennController,73,0,test_val,NULL,PennController,84,_Trial_,Start,1739889856702,undefined,531,imagine,abstract-positive,positive,negative,A,NULL
1739890431,bab29a4a95f9d024947e7477aa518c96,PennController,73,0,test_val,NULL,PennController,84,_Header_,Start,1739889856702,undefined,531,imagine,abstract-positive,positive,negative,A,NULL
1739890431,bab29a4a95f9d024947e7477aa518c96,PennController,73,0,test_val,NULL,PennController,84,_Header_,End,1739889856961,undefined,531,imagine,abstract-positive,positive,negative,A,NULL
1739890431,bab29a4a95f9d024947e7477aa518c96,PennController,73,0,test_val,NULL,Selector,unnamed-Selector,Selection,positive,1739889858008,undefined,531,imagine,abstract-positive,positive,negative,A,positive;negative
1739890431,bab29a4a95f9d024947e7477aa518c96,PennController,73,0,test_val,NULL,PennController,84,_Trial_,End,1739889858010,undefined,531,imagine,abstract-positive,positive,negative,A,NULL
1739890431,bab29a4a95f9d024947e7477aa518c96,PennController,60,0,test_val,NULL,PennController,71,_Trial_,Start,1739889858013,undefined,698,criticize,abstract-negative,positive,negative,A,NULL
1739890431,bab29a4a95f9d024947e7477aa518c96,PennController,60,0,test_val,NULL,PennController,71,_Header_,Start,1739889858013,undefined,698,criticize,abstract-negative,positive,negative,A,NULL
1739890431,bab29a4a95f9d024947e7477aa518c96,PennController,60,0,test_val,NULL,PennController,71,_Header_,End,1739889858269,undefined,698,criticize,abstract-negative,positive,negative,A,NULL
1739890431,bab29a4a95f9d024947e7477aa518c96,PennController,60,0,test_val,NULL,Selector,unnamed-Selector,Selection,negative,1739889859483,undefined,698,criticize,abstract-negative,positive,negative,A,positive;negative
1739890431,bab29a4a95f9d024947e7477aa518c96,PennController,60,0,test_val,NULL,PennController,71,_Trial_,End,1739889859486,undefined,698,criticize,abstract-negative,positive,negative,A,NULL
1739890431,bab29a4a95f9d024947e7477aa518c96,PennController,83,0,test_val,NULL,PennController,94,_Trial_,Start,1739889859488,undefined,569,running,concrete-postiive,positive,negative,A,NULL
1739890431,bab29a4a95f9d024947e7477aa518c96,PennController,83,0,test_val,NULL,PennController,94,_Header_,Start,1739889859488,undefined,569,running,concrete-postiive,positive,negative,A,NULL
1739890431,bab29a4a95f9d024947e7477aa518c96,PennController,83,0,test_val,NULL,PennController,94,_Header_,End,1739889859752,undefined,569,running,concrete-postiive,positive,negative,A,NULL
1739890431,bab29a4a95f9d024947e7477aa518c96,PennController,83,0,test_val,NULL,Selector,unnamed-Selector,Selection,positive,1739889860835,undefined,569,running,concrete-postiive,positive,negative,A,positive;negative
1739890431,bab29a4a95f9d024947e7477aa518c96,PennController,83,0,test_val,NULL,PennController,94,_Trial_,End,1739889860837,undefined,569,running,concrete-postiive,positive,negative,A,NULL
1739890431,bab29a4a95f9d024947e7477aa518c96,PennController,55,0,test_val,NULL,PennController,66,_Trial_,Start,1739889860838,undefined,513,hatred,abstract-negative,positive,negative,A,NULL
1739890431,bab29a4a95f9d024947e7477aa518c96,PennController,55,0,test_val,NULL,PennController,66,_Header_,Start,1739889860838,undefined,513,hatred,abstract-negative,positive,negative,A,NULL
1739890431,bab29a4a95f9d024947e7477aa518c96,PennController,55,0,test_val,NULL,PennController,66,_Header_,End,1739889861092,undefined,513,hatred,abstract-negative,positive,negative,A,NULL
1739890431,bab29a4a95f9d024947e7477aa518c96,PennController,55,0,test_val,NULL,Selector,unnamed-Selector,Selection,negative,1739889862118,undefined,513,hatred,abstract-negative,positive,negative,A,positive;negative
1739890431,bab29a4a95f9d024947e7477aa518c96,PennController,55,0,test_val,NULL,PennController,66,_Trial_,End,1739889862120,undefined,513,hatred,abstract-negative,positive,negative,A,NULL
1739890431,bab29a4a95f9d024947e7477aa518c96,PennController,65,0,test_val,NULL,PennController,76,_Trial_,Start,1739889862122,undefined,577,freedom,abstract-positive,positive,negative,A,NULL
1739890431,bab29a4a95f9d024947e7477aa518c96,PennController,65,0,test_val,NULL,PennController,76,_Header_,Start,1739889862122,undefined,577,freedom,abstract-positive,positive,negative,A,NULL
1739890431,bab29a4a95f9d024947e7477aa518c96,PennController,65,0,test_val,NULL,PennController,76,_Header_,End,1739889862385,undefined,577,freedom,abstract-positive,positive,negative,A,NULL
1739890431,bab29a4a95f9d024947e7477aa518c96,PennController,65,0,test_val,NULL,Selector,unnamed-Selector,Selection,positive,1739889863476,undefined,577,freedom,abstract-positive,positive,negative,A,positive;negative
1739890431,bab29a4a95f9d024947e7477aa518c96,PennController,65,0,test_val,NULL,PennController,76,_Trial_,End,1739889863479,undefined,577,freedom,abstract-positive,positive,negative,A,NULL
1739890431,bab29a4a95f9d024947e7477aa518c96,PennController,67,0,test_val,NULL,PennController,78,_Trial_,Start,1739889863480,undefined,599,inspiration,abstract-positive,positive,negative,A,NULL
1739890431,bab29a4a95f9d024947e7477aa518c96,PennController,67,0,test_val,NULL,PennController,78,_Header_,Start,1739889863480,undefined,599,inspiration,abstract-positive,positive,negative,A,NULL
1739890431,bab29a4a95f9d024947e7477aa518c96,PennController,67,0,test_val,NULL,PennController,78,_Header_,End,1739889863743,undefined,599,inspiration,abstract-positive,positive,negative,A,NULL
1739890431,bab29a4a95f9d024947e7477aa518c96,PennController,67,0,test_val,NULL,Selector,unnamed-Selector,Selection,positive,1739889864856,undefined,599,inspiration,abstract-positive,positive,negative,A,positive;negative
1739890431,bab29a4a95f9d024947e7477aa518c96,PennController,67,0,test_val,NULL,PennController,78,_Trial_,End,1739889864858,undefined,599,inspiration,abstract-positive,positive,negative,A,NULL
1739890431,bab29a4a95f9d024947e7477aa518c96,PennController,80,0,test_val,NULL,PennController,91,_Trial_,Start,1739889864859,undefined,837,breathe,concrete-postiive,positive,negative,A,NULL
1739890431,bab29a4a95f9d024947e7477aa518c96,PennController,80,0,test_val,NULL,PennController,91,_Header_,Start,1739889864859,undefined,837,breathe,concrete-postiive,positive,negative,A,NULL
1739890431,bab29a4a95f9d024947e7477aa518c96,PennController,80,0,test_val,NULL,PennController,91,_Header_,End,1739889865110,undefined,837,breathe,concrete-postiive,positive,negative,A,NULL
1739890431,bab29a4a95f9d024947e7477aa518c96,PennController,80,0,test_val,NULL,Selector,unnamed-Selector,Selection,positive,1739889866463,undefined,837,breathe,concrete-postiive,positive,negative,A,positive;negative
1739890431,bab29a4a95f9d024947e7477aa518c96,PennController,80,0,test_val,NULL,PennController,91,_Trial_,End,1739889866464,undefined,837,breathe,concrete-postiive,positive,negative,A,NULL
1739890431,bab29a4a95f9d024947e7477aa518c96,PennController,54,0,test_val,NULL,PennController,65,_Trial_,Start,1739889866465,undefined,525,terror,abstract-negative,positive,negative,A,NULL
1739890431,bab29a4a95f9d024947e7477aa518c96,PennController,54,0,test_val,NULL,PennController,65,_Header_,Start,1739889866465,undefined,525,terror,abstract-negative,positive,negative,A,NULL
1739890431,bab29a4a95f9d024947e7477aa518c96,PennController,54,0,test_val,NULL,PennController,65,_Header_,End,1739889866731,undefined,525,terror,abstract-negative,positive,negative,A,NULL
1739890431,bab29a4a95f9d024947e7477aa518c96,PennController,54,0,test_val,NULL,Selector,unnamed-Selector,Selection,negative,1739889867770,undefined,525,terror,abstract-negative,positive,negative,A,positive;negative
1739890431,bab29a4a95f9d024947e7477aa518c96,PennController,54,0,test_val,NULL,PennController,65,_Trial_,End,1739889867771,undefined,525,terror,abstract-negative,positive,negative,A,NULL
1739890431,bab29a4a95f9d024947e7477aa518c96,PennController,49,0,test_val,NULL,PennController,60,_Trial_,Start,1739889867772,undefined,644,choke,concrete-negative,positive,negative,A,NULL
1739890431,bab29a4a95f9d024947e7477aa518c96,PennController,49,0,test_val,NULL,PennController,60,_Header_,Start,1739889867772,undefined,644,choke,concrete-negative,positive,negative,A,NULL
1739890431,bab29a4a95f9d024947e7477aa518c96,PennController,49,0,test_val,NULL,PennController,60,_Header_,End,1739889868025,undefined,644,choke,concrete-negative,positive,negative,A,NULL
1739890431,bab29a4a95f9d024947e7477aa518c96,PennController,49,0,test_val,NULL,Selector,unnamed-Selector,Selection,negative,1739889869182,undefined,644,choke,concrete-negative,positive,negative,A,positive;negative
1739890431,bab29a4a95f9d024947e7477aa518c96,PennController,49,0,test_val,NULL,PennController,60,_Trial_,End,1739889869184,undefined,644,choke,concrete-negative,positive,negative,A,NULL
1739890431,bab29a4a95f9d024947e7477aa518c96,PennController,58,0,test_val,NULL,PennController,69,_Trial_,Start,1739889869187,undefined,562,grief,abstract-negative,positive,negative,A,NULL
1739890431,bab29a4a95f9d024947e7477aa518c96,PennController,58,0,test_val,NULL,PennController,69,_Header_,Start,1739889869187,undefined,562,grief,abstract-negative,positive,negative,A,NULL
1739890431,bab29a4a95f9d024947e7477aa518c96,PennController,58,0,test_val,NULL,PennController,69,_Header_,End,1739889869442,undefined,562,grief,abstract-negative,positive,negative,A,NULL
1739890431,bab29a4a95f9d024947e7477aa518c96,PennController,58,0,test_val,NULL,Selector,unnamed-Selector,Selection,negative,1739889870518,undefined,562,grief,abstract-negative,positive,negative,A,positive;negative
1739890431,bab29a4a95f9d024947e7477aa518c96,PennController,58,0,test_val,NULL,PennController,69,_Trial_,End,1739889870520,undefined,562,grief,abstract-negative,positive,negative,A,NULL
1739890431,bab29a4a95f9d024947e7477aa518c96,PennController,70,0,test_val,NULL,PennController,81,_Trial_,Start,1739889870522,undefined,1185,cherish,abstract-positive,positive,negative,A,NULL
1739890431,bab29a4a95f9d024947e7477aa518c96,PennController,70,0,test_val,NULL,PennController,81,_Header_,Start,1739889870522,undefined,1185,cherish,abstract-positive,positive,negative,A,NULL
1739890431,bab29a4a95f9d024947e7477aa518c96,PennController,70,0,test_val,NULL,PennController,81,_Header_,End,1739889870783,undefined,1185,cherish,abstract-positive,positive,negative,A,NULL
1739890431,bab29a4a95f9d024947e7477aa518c96,PennController,70,0,test_val,NULL,Selector,unnamed-Selector,Selection,positive,1739889872470,undefined,1185,cherish,abstract-positive,positive,negative,A,positive;negative
1739890431,bab29a4a95f9d024947e7477aa518c96,PennController,70,0,test_val,NULL,PennController,81,_Trial_,End,1739889872471,undefined,1185,cherish,abstract-positive,positive,negative,A,NULL
1739890431,bab29a4a95f9d024947e7477aa518c96,PennController,75,0,test_val,NULL,PennController,86,_Trial_,Start,1739889872473,undefined,514,chocolate,concrete-postiive,positive,negative,A,NULL
1739890431,bab29a4a95f9d024947e7477aa518c96,PennController,75,0,test_val,NULL,PennController,86,_Header_,Start,1739889872473,undefined,514,chocolate,concrete-postiive,positive,negative,A,NULL
1739890431,bab29a4a95f9d024947e7477aa518c96,PennController,75,0,test_val,NULL,PennController,86,_Header_,End,1739889872731,undefined,514,chocolate,concrete-postiive,positive,negative,A,NULL
1739890431,bab29a4a95f9d024947e7477aa518c96,PennController,75,0,test_val,NULL,Selector,unnamed-Selector,Selection,positive,1739889873761,undefined,514,chocolate,concrete-postiive,positive,negative,A,positive;negative
1739890431,bab29a4a95f9d024947e7477aa518c96,PennController,75,0,test_val,NULL,PennController,86,_Trial_,End,1739889873762,undefined,514,chocolate,concrete-postiive,positive,negative,A,NULL
1739890431,bab29a4a95f9d024947e7477aa518c96,PennController,68,0,test_val,NULL,PennController,79,_Trial_,Start,1739889873764,undefined,631,kindness,abstract-positive,positive,negative,A,NULL
1739890431,bab29a4a95f9d024947e7477aa518c96,PennController,68,0,test_val,NULL,PennController,79,_Header_,Start,1739889873764,undefined,631,kindness,abstract-positive,positive,negative,A,NULL
1739890431,bab29a4a95f9d024947e7477aa518c96,PennController,68,0,test_val,NULL,PennController,79,_Header_,End,1739889874024,undefined,631,kindness,abstract-positive,positive,negative,A,NULL
1739890431,bab29a4a95f9d024947e7477aa518c96,PennController,68,0,test_val,NULL,Selector,unnamed-Selector,Selection,positive,1739889875171,undefined,631,kindness,abstract-positive,positive,negative,A,positive;negative
1739890431,bab29a4a95f9d024947e7477aa518c96,PennController,68,0,test_val,NULL,PennController,79,_Trial_,End,1739889875172,undefined,631,kindness,abstract-positive,positive,negative,A,NULL
1739890431,bab29a4a95f9d024947e7477aa518c96,PennController,81,0,test_val,NULL,PennController,92,_Trial_,Start,1739889875173,undefined,718,glisten,concrete-postiive,positive,negative,A,NULL
1739890431,bab29a4a95f9d024947e7477aa518c96,PennController,81,0,test_val,NULL,PennController,92,_Header_,Start,1739889875173,undefined,718,glisten,concrete-postiive,positive,negative,A,NULL
1739890431,bab29a4a95f9d024947e7477aa518c96,PennController,81,0,test_val,NULL,PennController,92,_Header_,End,1739889875429,undefined,718,glisten,concrete-postiive,positive,negative,A,NULL
1739890431,bab29a4a95f9d024947e7477aa518c96,PennController,81,0,test_val,NULL,Selector,unnamed-Selector,Selection,positive,1739889876660,undefined,718,glisten,concrete-postiive,positive,negative,A,positive;negative
1739890431,bab29a4a95f9d024947e7477aa518c96,PennController,81,0,test_val,NULL,PennController,92,_Trial_,End,1739889876661,undefined,718,glisten,concrete-postiive,positive,negative,A,NULL
1739890431,bab29a4a95f9d024947e7477aa518c96,PennController,76,0,test_val,NULL,PennController,87,_Trial_,Start,1739889876663,undefined,607,fireplace,concrete-postiive,positive,negative,A,NULL
1739890431,bab29a4a95f9d024947e7477aa518c96,PennController,76,0,test_val,NULL,PennController,87,_Header_,Start,1739889876663,undefined,607,fireplace,concrete-postiive,positive,negative,A,NULL
1739890431,bab29a4a95f9d024947e7477aa518c96,PennController,76,0,test_val,NULL,PennController,87,_Header_,End,1739889876922,undefined,607,fireplace,concrete-postiive,positive,negative,A,NULL
1739890431,bab29a4a95f9d024947e7477aa518c96,PennController,76,0,test_val,NULL,Selector,unnamed-Selector,Selection,positive,1739889878045,undefined,607,fireplace,concrete-postiive,positive,negative,A,positive;negative
1739890431,bab29a4a95f9d024947e7477aa518c96,PennController,76,0,test_val,NULL,PennController,87,_Trial_,End,1739889878048,undefined,607,fireplace,concrete-postiive,positive,negative,A,NULL
1739890431,bab29a4a95f9d024947e7477aa518c96,PennController,74,0,test_val,NULL,PennController,85,_Trial_,Start,1739889878050,undefined,619,beach,concrete-postiive,positive,negative,A,NULL
1739890431,bab29a4a95f9d024947e7477aa518c96,PennController,74,0,test_val,NULL,PennController,85,_Header_,Start,1739889878050,undefined,619,beach,concrete-postiive,positive,negative,A,NULL
1739890431,bab29a4a95f9d024947e7477aa518c96,PennController,74,0,test_val,NULL,PennController,85,_Header_,End,1739889878311,undefined,619,beach,concrete-postiive,positive,negative,A,NULL
1739890431,bab29a4a95f9d024947e7477aa518c96,PennController,74,0,test_val,NULL,Selector,unnamed-Selector,Selection,positive,1739889879447,undefined,619,beach,concrete-postiive,positive,negative,A,positive;negative
1739890431,bab29a4a95f9d024947e7477aa518c96,PennController,74,0,test_val,NULL,PennController,85,_Trial_,End,1739889879448,undefined,619,beach,concrete-postiive,positive,negative,A,NULL
1739890431,bab29a4a95f9d024947e7477aa518c96,PennController,45,0,test_val,NULL,PennController,56,_Trial_,Start,1739889879450,undefined,510,garbage,concrete-negative,positive,negative,A,NULL
1739890431,bab29a4a95f9d024947e7477aa518c96,PennController,45,0,test_val,NULL,PennController,56,_Header_,Start,1739889879450,undefined,510,garbage,concrete-negative,positive,negative,A,NULL
1739890431,bab29a4a95f9d024947e7477aa518c96,PennController,45,0,test_val,NULL,PennController,56,_Header_,End,1739889879705,undefined,510,garbage,concrete-negative,positive,negative,A,NULL
1739890431,bab29a4a95f9d024947e7477aa518c96,PennController,45,0,test_val,NULL,Selector,unnamed-Selector,Selection,negative,1739889880730,undefined,510,garbage,concrete-negative,positive,negative,A,positive;negative
1739890431,bab29a4a95f9d024947e7477aa518c96,PennController,45,0,test_val,NULL,PennController,56,_Trial_,End,1739889880732,undefined,510,garbage,concrete-negative,positive,negative,A,NULL
1739890431,bab29a4a95f9d024947e7477aa518c96,PennController,48,0,test_val,NULL,PennController,59,_Trial_,Start,1739889880734,undefined,436,slave,concrete-negative,positive,negative,A,NULL
1739890431,bab29a4a95f9d024947e7477aa518c96,PennController,48,0,test_val,NULL,PennController,59,_Header_,Start,1739889880734,undefined,436,slave,concrete-negative,positive,negative,A,NULL
1739890431,bab29a4a95f9d024947e7477aa518c96,PennController,48,0,test_val,NULL,PennController,59,_Header_,End,1739889880998,undefined,436,slave,concrete-negative,positive,negative,A,NULL
1739890431,bab29a4a95f9d024947e7477aa518c96,PennController,48,0,test_val,NULL,Selector,unnamed-Selector,Selection,negative,1739889881950,undefined,436,slave,concrete-negative,positive,negative,A,positive;negative
1739890431,bab29a4a95f9d024947e7477aa518c96,PennController,48,0,test_val,NULL,PennController,59,_Trial_,End,1739889881952,undefined,436,slave,concrete-negative,positive,negative,A,NULL
1739890431,bab29a4a95f9d024947e7477aa518c96,PennController,59,0,test_val,NULL,PennController,70,_Trial_,Start,1739889881953,undefined,569,befall,abstract-negative,positive,negative,A,NULL
1739890431,bab29a4a95f9d024947e7477aa518c96,PennController,59,0,test_val,NULL,PennController,70,_Header_,Start,1739889881953,undefined,569,befall,abstract-negative,positive,negative,A,NULL
1739890431,bab29a4a95f9d024947e7477aa518c96,PennController,59,0,test_val,NULL,PennController,70,_Header_,End,1739889882214,undefined,569,befall,abstract-negative,positive,negative,A,NULL
1739890431,bab29a4a95f9d024947e7477aa518c96,PennController,59,0,test_val,NULL,Selector,unnamed-Selector,Selection,negative,1739889883299,undefined,569,befall,abstract-negative,positive,negative,A,positive;negative
1739890431,bab29a4a95f9d024947e7477aa518c96,PennController,59,0,test_val,NULL,PennController,70,_Trial_,End,1739889883300,undefined,569,befall,abstract-negative,positive,negative,A,NULL
1739890431,bab29a4a95f9d024947e7477aa518c96,PennController,53,0,test_val,NULL,PennController,64,_Trial_,Start,1739889883302,undefined,519,stab,concrete-negative,positive,negative,A,NULL
1739890431,bab29a4a95f9d024947e7477aa518c96,PennController,53,0,test_val,NULL,PennController,64,_Header_,Start,1739889883302,undefined,519,stab,concrete-negative,positive,negative,A,NULL
1739890431,bab29a4a95f9d024947e7477aa518c96,PennController,53,0,test_val,NULL,PennController,64,_Header_,End,1739889883561,undefined,519,stab,concrete-negative,positive,negative,A,NULL
1739890431,bab29a4a95f9d024947e7477aa518c96,PennController,53,0,test_val,NULL,Selector,unnamed-Selector,Selection,negative,1739889884591,undefined,519,stab,concrete-negative,positive,negative,A,positive;negative
1739890431,bab29a4a95f9d024947e7477aa518c96,PennController,53,0,test_val,NULL,PennController,64,_Trial_,End,1739889884594,undefined,519,stab,concrete-negative,positive,negative,A,NULL
1739890431,bab29a4a95f9d024947e7477aa518c96,PennController,51,0,test_val,NULL,PennController,62,_Trial_,Start,1739889884597,undefined,491,writhe,concrete-negative,positive,negative,A,NULL
1739890431,bab29a4a95f9d024947e7477aa518c96,PennController,51,0,test_val,NULL,PennController,62,_Header_,Start,1739889884597,undefined,491,writhe,concrete-negative,positive,negative,A,NULL
1739890431,bab29a4a95f9d024947e7477aa518c96,PennController,51,0,test_val,NULL,PennController,62,_Header_,End,1739889884851,undefined,491,writhe,concrete-negative,positive,negative,A,NULL
1739890431,bab29a4a95f9d024947e7477aa518c96,PennController,51,0,test_val,NULL,Selector,unnamed-Selector,Selection,negative,1739889885855,undefined,491,writhe,concrete-negative,positive,negative,A,positive;negative
1739890431,bab29a4a95f9d024947e7477aa518c96,PennController,51,0,test_val,NULL,PennController,62,_Trial_,End,1739889885856,undefined,491,writhe,concrete-negative,positive,negative,A,NULL
1739890431,bab29a4a95f9d024947e7477aa518c96,PennController,66,0,test_val,NULL,PennController,77,_Trial_,Start,1739889885858,undefined,578,gratitude,abstract-positive,positive,negative,A,NULL
1739890431,bab29a4a95f9d024947e7477aa518c96,PennController,66,0,test_val,NULL,PennController,77,_Header_,Start,1739889885858,undefined,578,gratitude,abstract-positive,positive,negative,A,NULL
1739890431,bab29a4a95f9d024947e7477aa518c96,PennController,66,0,test_val,NULL,PennController,77,_Header_,End,1739889886110,undefined,578,gratitude,abstract-positive,positive,negative,A,NULL
1739890431,bab29a4a95f9d024947e7477aa518c96,PennController,66,0,test_val,NULL,Selector,unnamed-Selector,Selection,positive,1739889887190,undefined,578,gratitude,abstract-positive,positive,negative,A,positive;negative
1739890431,bab29a4a95f9d024947e7477aa518c96,PennController,66,0,test_val,NULL,PennController,77,_Trial_,End,1739889887193,undefined,578,gratitude,abstract-positive,positive,negative,A,NULL
1739890431,bab29a4a95f9d024947e7477aa518c96,PennController,64,0,test_val,NULL,PennController,75,_Trial_,Start,1739889887195,undefined,470,compassion,abstract-positive,positive,negative,A,NULL
1739890431,bab29a4a95f9d024947e7477aa518c96,PennController,64,0,test_val,NULL,PennController,75,_Header_,Start,1739889887195,undefined,470,compassion,abstract-positive,positive,negative,A,NULL
1739890431,bab29a4a95f9d024947e7477aa518c96,PennController,64,0,test_val,NULL,PennController,75,_Header_,End,1739889887451,undefined,470,compassion,abstract-positive,positive,negative,A,NULL
1739890431,bab29a4a95f9d024947e7477aa518c96,PennController,64,0,test_val,NULL,Selector,unnamed-Selector,Selection,positive,1739889888430,undefined,470,compassion,abstract-positive,positive,negative,A,positive;negative
1739890431,bab29a4a95f9d024947e7477aa518c96,PennController,64,0,test_val,NULL,PennController,75,_Trial_,End,1739889888432,undefined,470,compassion,abstract-positive,positive,negative,A,NULL
1739890431,bab29a4a95f9d024947e7477aa518c96,PennController,47,0,test_val,NULL,PennController,58,_Trial_,Start,1739889888434,undefined,633,corpse,concrete-negative,positive,negative,A,NULL
1739890431,bab29a4a95f9d024947e7477aa518c96,PennController,47,0,test_val,NULL,PennController,58,_Header_,Start,1739889888434,undefined,633,corpse,concrete-negative,positive,negative,A,NULL
1739890431,bab29a4a95f9d024947e7477aa518c96,PennController,47,0,test_val,NULL,PennController,58,_Header_,End,1739889888692,undefined,633,corpse,concrete-negative,positive,negative,A,NULL
1739890431,bab29a4a95f9d024947e7477aa518c96,PennController,47,0,test_val,NULL,Selector,unnamed-Selector,Selection,negative,1739889889836,undefined,633,corpse,concrete-negative,positive,negative,A,positive;negative
1739890431,bab29a4a95f9d024947e7477aa518c96,PennController,47,0,test_val,NULL,PennController,58,_Trial_,End,1739889889837,undefined,633,corpse,concrete-negative,positive,negative,A,NULL
1739890431,bab29a4a95f9d024947e7477aa518c96,PennController,63,0,test_val,NULL,PennController,74,_Trial_,Start,1739889889839,undefined,1163,obsess,abstract-negative,positive,negative,A,NULL
1739890431,bab29a4a95f9d024947e7477aa518c96,PennController,63,0,test_val,NULL,PennController,74,_Header_,Start,1739889889839,undefined,1163,obsess,abstract-negative,positive,negative,A,NULL
1739890431,bab29a4a95f9d024947e7477aa518c96,PennController,63,0,test_val,NULL,PennController,74,_Header_,End,1739889890092,undefined,1163,obsess,abstract-negative,positive,negative,A,NULL
1739890431,bab29a4a95f9d024947e7477aa518c96,PennController,63,0,test_val,NULL,Selector,unnamed-Selector,Selection,negative,1739889891766,undefined,1163,obsess,abstract-negative,positive,negative,A,positive;negative
1739890431,bab29a4a95f9d024947e7477aa518c96,PennController,63,0,test_val,NULL,PennController,74,_Trial_,End,1739889891768,undefined,1163,obsess,abstract-negative,positive,negative,A,NULL
1739890431,bab29a4a95f9d024947e7477aa518c96,PennController,46,0,test_val,NULL,PennController,57,_Trial_,Start,1739889891769,undefined,559,mud,concrete-negative,positive,negative,A,NULL
1739890431,bab29a4a95f9d024947e7477aa518c96,PennController,46,0,test_val,NULL,PennController,57,_Header_,Start,1739889891769,undefined,559,mud,concrete-negative,positive,negative,A,NULL
1739890431,bab29a4a95f9d024947e7477aa518c96,PennController,46,0,test_val,NULL,PennController,57,_Header_,End,1739889892021,undefined,559,mud,concrete-negative,positive,negative,A,NULL
1739890431,bab29a4a95f9d024947e7477aa518c96,PennController,46,0,test_val,NULL,Selector,unnamed-Selector,Selection,negative,1739889893082,undefined,559,mud,concrete-negative,positive,negative,A,positive;negative
1739890431,bab29a4a95f9d024947e7477aa518c96,PennController,46,0,test_val,NULL,PennController,57,_Trial_,End,1739889893084,undefined,559,mud,concrete-negative,positive,negative,A,NULL
1739890431,bab29a4a95f9d024947e7477aa518c96,PennController,56,0,test_val,NULL,PennController,67,_Trial_,Start,1739889893086,undefined,524,anxiety,abstract-negative,positive,negative,A,NULL
