#
# Results on Mon, 10 Feb 2025 13:40:53 GMT
# USER AGENT: Mozilla/5.0 (Windows NT 10.0; Win64; x64) AppleWebKit/537.36 (KHTML, like Gecko) Chrome/132.0.0.0 Safari/537.36 Edg/132.0.0.0
# Design number was non-random = 0
#
# Columns below this comment are as follows:
# 1. Results reception time.
# 2. MD5 hash of participant's IP address.
# 3. Controller name.
# 4. Order number of item.
# 5. Inner element number.
# 6. Label.
# 7. Latin Square Group.
# 8. PennElementType.
# 9. PennElementName.
# 10. Parameter.
# 11. Value.
# 12. EventTime.
# 13. Comments.
1739194853,0f17dcd1b8abc33b98deae0549816148,PennController,1,0,welcome,NULL,PennController,0,_Trial_,Start,1739194265496,NULL
1739194853,0f17dcd1b8abc33b98deae0549816148,PennController,1,0,welcome,NULL,PennController,0,_Header_,Start,1739194265496,NULL
1739194853,0f17dcd1b8abc33b98deae0549816148,PennController,1,0,welcome,NULL,PennController,0,_Header_,End,1739194265750,NULL
1739194853,0f17dcd1b8abc33b98deae0549816148,PennController,1,0,welcome,NULL,PennController,0,_Trial_,End,1739194271975,NULL
# 13. ID.
# 14. Comments.
1739194853,0f17dcd1b8abc33b98deae0549816148,PennController,124,0,consent,NULL,PennController,2,_Trial_,Start,1739194271976,5f0b7f45bd7f5a0e21a8b561,NULL
1739194853,0f17dcd1b8abc33b98deae0549816148,PennController,124,0,consent,NULL,PennController,2,_Header_,Start,1739194271976,5f0b7f45bd7f5a0e21a8b561,NULL
1739194853,0f17dcd1b8abc33b98deae0549816148,PennController,124,0,consent,NULL,PennController,2,_Header_,End,1739194272229,5f0b7f45bd7f5a0e21a8b561,NULL
1739194853,0f17dcd1b8abc33b98deae0549816148,PennController,124,0,consent,NULL,TextInput,ID,Final,5f0b7f45bd7f5a0e21a8b561,1739194292899,5f0b7f45bd7f5a0e21a8b561,NULL
1739194853,0f17dcd1b8abc33b98deae0549816148,PennController,124,0,consent,NULL,TextInput,ID,First,,1739194284094,5f0b7f45bd7f5a0e21a8b561,5
1739194853,0f17dcd1b8abc33b98deae0549816148,PennController,124,0,consent,NULL,PennController,2,_Trial_,End,1739194292899,5f0b7f45bd7f5a0e21a8b561,NULL
# 13. Comments.
1739194853,0f17dcd1b8abc33b98deae0549816148,PennController,126,0,instructions1_conc,NULL,PennController,4,_Trial_,Start,1739194292900,NULL
1739194853,0f17dcd1b8abc33b98deae0549816148,PennController,126,0,instructions1_conc,NULL,PennController,4,_Header_,Start,1739194292900,NULL
1739194853,0f17dcd1b8abc33b98deae0549816148,PennController,126,0,instructions1_conc,NULL,PennController,4,_Header_,End,1739194293153,NULL
1739194853,0f17dcd1b8abc33b98deae0549816148,PennController,126,0,instructions1_conc,NULL,PennController,4,_Trial_,End,1739194303749,NULL
1739194853,0f17dcd1b8abc33b98deae0549816148,PennController,127,0,instructions2_conc,NULL,PennController,5,_Trial_,Start,1739194303750,NULL
1739194853,0f17dcd1b8abc33b98deae0549816148,PennController,127,0,instructions2_conc,NULL,PennController,5,_Header_,Start,1739194303750,NULL
1739194853,0f17dcd1b8abc33b98deae0549816148,PennController,127,0,instructions2_conc,NULL,PennController,5,_Header_,End,1739194304001,NULL
1739194853,0f17dcd1b8abc33b98deae0549816148,PennController,127,0,instructions2_conc,NULL,PennController,5,_Trial_,End,1739194309330,NULL
1739194853,0f17dcd1b8abc33b98deae0549816148,PennController,134,0,instructions3_hands,NULL,PennController,12,_Trial_,Start,1739194309330,NULL
1739194853,0f17dcd1b8abc33b98deae0549816148,PennController,134,0,instructions3_hands,NULL,PennController,12,_Header_,Start,1739194309330,NULL
1739194853,0f17dcd1b8abc33b98deae0549816148,PennController,134,0,instructions3_hands,NULL,PennController,12,_Header_,End,1739194309580,NULL
1739194853,0f17dcd1b8abc33b98deae0549816148,PennController,134,0,instructions3_hands,NULL,PennController,12,_Trial_,End,1739194315403,NULL
1739194853,0f17dcd1b8abc33b98deae0549816148,PennController,129,0,practice_intro_conc,NULL,PennController,7,_Trial_,Start,1739194315404,NULL
1739194853,0f17dcd1b8abc33b98deae0549816148,PennController,129,0,practice_intro_conc,NULL,PennController,7,_Header_,Start,1739194315404,NULL
1739194853,0f17dcd1b8abc33b98deae0549816148,PennController,129,0,practice_intro_conc,NULL,PennController,7,_Header_,End,1739194315658,NULL
1739194853,0f17dcd1b8abc33b98deae0549816148,PennController,129,0,practice_intro_conc,NULL,PennController,7,_Trial_,End,1739194317053,NULL
# 13. ID.
# 14. ReactionTime.
# 15. Word.
# 16. selectedKey.
# 17. selectedValue.
# 18. Key_value_F.
# 19. Key_value_J.
# 20. Group.
# 21. Comments.
1739194853,0f17dcd1b8abc33b98deae0549816148,PennController,88,0,calibrator_conc_feedback,NULL,PennController,99,_Trial_,Start,1739194317054,undefined,1952,polite,undefined,abstract,concrete,abstract,A,NULL
1739194853,0f17dcd1b8abc33b98deae0549816148,PennController,88,0,calibrator_conc_feedback,NULL,PennController,99,_Header_,Start,1739194317054,undefined,1952,polite,undefined,abstract,concrete,abstract,A,NULL
1739194853,0f17dcd1b8abc33b98deae0549816148,PennController,88,0,calibrator_conc_feedback,NULL,PennController,99,_Header_,End,1739194317305,undefined,1952,polite,undefined,abstract,concrete,abstract,A,NULL
1739194853,0f17dcd1b8abc33b98deae0549816148,PennController,88,0,calibrator_conc_feedback,NULL,Selector,Selection,Selection,abstract,1739194321706,undefined,1952,polite,undefined,abstract,concrete,abstract,A,concrete;abstract
1739194853,0f17dcd1b8abc33b98deae0549816148,PennController,88,0,calibrator_conc_feedback,NULL,PennController,99,_Trial_,End,1739194321764,undefined,1952,polite,undefined,abstract,concrete,abstract,A,NULL
1739194853,0f17dcd1b8abc33b98deae0549816148,PennController,91,0,calibrator_conc_feedback,NULL,PennController,102,_Trial_,Start,1739194321764,undefined,2836,theory,undefined,abstract,concrete,abstract,A,NULL
1739194853,0f17dcd1b8abc33b98deae0549816148,PennController,91,0,calibrator_conc_feedback,NULL,PennController,102,_Header_,Start,1739194321764,undefined,2836,theory,undefined,abstract,concrete,abstract,A,NULL
1739194853,0f17dcd1b8abc33b98deae0549816148,PennController,91,0,calibrator_conc_feedback,NULL,PennController,102,_Header_,End,1739194322016,undefined,2836,theory,undefined,abstract,concrete,abstract,A,NULL
1739194853,0f17dcd1b8abc33b98deae0549816148,PennController,91,0,calibrator_conc_feedback,NULL,Selector,Selection,Selection,abstract,1739194327135,undefined,2836,theory,undefined,abstract,concrete,abstract,A,concrete;abstract
1739194853,0f17dcd1b8abc33b98deae0549816148,PennController,91,0,calibrator_conc_feedback,NULL,PennController,102,_Trial_,End,1739194327359,undefined,2836,theory,undefined,abstract,concrete,abstract,A,NULL
1739194853,0f17dcd1b8abc33b98deae0549816148,PennController,89,0,calibrator_conc_feedback,NULL,PennController,100,_Trial_,Start,1739194327360,undefined,1158,shirt,undefined,abstract,concrete,abstract,A,NULL
1739194853,0f17dcd1b8abc33b98deae0549816148,PennController,89,0,calibrator_conc_feedback,NULL,PennController,100,_Header_,Start,1739194327360,undefined,1158,shirt,undefined,abstract,concrete,abstract,A,NULL
1739194853,0f17dcd1b8abc33b98deae0549816148,PennController,89,0,calibrator_conc_feedback,NULL,PennController,100,_Header_,End,1739194327613,undefined,1158,shirt,undefined,abstract,concrete,abstract,A,NULL
1739194853,0f17dcd1b8abc33b98deae0549816148,PennController,89,0,calibrator_conc_feedback,NULL,Selector,Selection,Selection,concrete,1739194330547,undefined,1158,shirt,undefined,abstract,concrete,abstract,A,concrete;abstract
1739194853,0f17dcd1b8abc33b98deae0549816148,PennController,89,0,calibrator_conc_feedback,NULL,PennController,100,_Trial_,End,1739194331278,undefined,1158,shirt,undefined,abstract,concrete,abstract,A,NULL
1739194853,0f17dcd1b8abc33b98deae0549816148,PennController,87,0,calibrator_conc_feedback,NULL,PennController,98,_Trial_,Start,1739194331279,undefined,1454,marriage,undefined,abstract,concrete,abstract,A,NULL
1739194853,0f17dcd1b8abc33b98deae0549816148,PennController,87,0,calibrator_conc_feedback,NULL,PennController,98,_Header_,Start,1739194331279,undefined,1454,marriage,undefined,abstract,concrete,abstract,A,NULL
1739194853,0f17dcd1b8abc33b98deae0549816148,PennController,87,0,calibrator_conc_feedback,NULL,PennController,98,_Header_,End,1739194331532,undefined,1454,marriage,undefined,abstract,concrete,abstract,A,NULL
1739194853,0f17dcd1b8abc33b98deae0549816148,PennController,87,0,calibrator_conc_feedback,NULL,Selector,Selection,Selection,concrete,1739194334250,undefined,1454,marriage,undefined,abstract,concrete,abstract,A,concrete;abstract
1739194853,0f17dcd1b8abc33b98deae0549816148,PennController,87,0,calibrator_conc_feedback,NULL,PennController,98,_Trial_,End,1739194335490,undefined,1454,marriage,undefined,abstract,concrete,abstract,A,NULL
1739194853,0f17dcd1b8abc33b98deae0549816148,PennController,93,0,calibrator_conc_feedback,NULL,PennController,104,_Trial_,Start,1739194335491,undefined,2618,insecure,undefined,abstract,concrete,abstract,A,NULL
1739194853,0f17dcd1b8abc33b98deae0549816148,PennController,93,0,calibrator_conc_feedback,NULL,PennController,104,_Header_,Start,1739194335491,undefined,2618,insecure,undefined,abstract,concrete,abstract,A,NULL
1739194853,0f17dcd1b8abc33b98deae0549816148,PennController,93,0,calibrator_conc_feedback,NULL,PennController,104,_Header_,End,1739194335742,undefined,2618,insecure,undefined,abstract,concrete,abstract,A,NULL
1739194853,0f17dcd1b8abc33b98deae0549816148,PennController,93,0,calibrator_conc_feedback,NULL,Selector,Selection,Selection,abstract,1739194339265,undefined,2618,insecure,undefined,abstract,concrete,abstract,A,concrete;abstract
1739194853,0f17dcd1b8abc33b98deae0549816148,PennController,93,0,calibrator_conc_feedback,NULL,PennController,104,_Trial_,End,1739194340863,undefined,2618,insecure,undefined,abstract,concrete,abstract,A,NULL
1739194853,0f17dcd1b8abc33b98deae0549816148,PennController,86,0,calibrator_conc_feedback,NULL,PennController,97,_Trial_,Start,1739194340863,undefined,1553,kick,undefined,abstract,concrete,abstract,A,NULL
1739194853,0f17dcd1b8abc33b98deae0549816148,PennController,86,0,calibrator_conc_feedback,NULL,PennController,97,_Header_,Start,1739194340863,undefined,1553,kick,undefined,abstract,concrete,abstract,A,NULL
1739194853,0f17dcd1b8abc33b98deae0549816148,PennController,86,0,calibrator_conc_feedback,NULL,PennController,97,_Header_,End,1739194341116,undefined,1553,kick,undefined,abstract,concrete,abstract,A,NULL
1739194853,0f17dcd1b8abc33b98deae0549816148,PennController,86,0,calibrator_conc_feedback,NULL,Selector,Selection,Selection,concrete,1739194343787,undefined,1553,kick,undefined,abstract,concrete,abstract,A,concrete;abstract
1739194853,0f17dcd1b8abc33b98deae0549816148,PennController,86,0,calibrator_conc_feedback,NULL,PennController,97,_Trial_,End,1739194345174,undefined,1553,kick,undefined,abstract,concrete,abstract,A,NULL
1739194853,0f17dcd1b8abc33b98deae0549816148,PennController,85,0,calibrator_conc_feedback,NULL,PennController,96,_Trial_,Start,1739194345175,undefined,972,grasshopper,undefined,abstract,concrete,abstract,A,NULL
1739194853,0f17dcd1b8abc33b98deae0549816148,PennController,85,0,calibrator_conc_feedback,NULL,PennController,96,_Header_,Start,1739194345175,undefined,972,grasshopper,undefined,abstract,concrete,abstract,A,NULL
1739194853,0f17dcd1b8abc33b98deae0549816148,PennController,85,0,calibrator_conc_feedback,NULL,PennController,96,_Header_,End,1739194345429,undefined,972,grasshopper,undefined,abstract,concrete,abstract,A,NULL
1739194853,0f17dcd1b8abc33b98deae0549816148,PennController,85,0,calibrator_conc_feedback,NULL,Selector,Selection,Selection,concrete,1739194347231,undefined,972,grasshopper,undefined,abstract,concrete,abstract,A,concrete;abstract
1739194853,0f17dcd1b8abc33b98deae0549816148,PennController,85,0,calibrator_conc_feedback,NULL,PennController,96,_Trial_,End,1739194348905,undefined,972,grasshopper,undefined,abstract,concrete,abstract,A,NULL
1739194853,0f17dcd1b8abc33b98deae0549816148,PennController,84,0,calibrator_conc_feedback,NULL,PennController,95,_Trial_,Start,1739194348906,undefined,1289,gas,undefined,abstract,concrete,abstract,A,NULL
1739194853,0f17dcd1b8abc33b98deae0549816148,PennController,84,0,calibrator_conc_feedback,NULL,PennController,95,_Header_,Start,1739194348906,undefined,1289,gas,undefined,abstract,concrete,abstract,A,NULL
1739194853,0f17dcd1b8abc33b98deae0549816148,PennController,84,0,calibrator_conc_feedback,NULL,PennController,95,_Header_,End,1739194349157,undefined,1289,gas,undefined,abstract,concrete,abstract,A,NULL
1739194853,0f17dcd1b8abc33b98deae0549816148,PennController,84,0,calibrator_conc_feedback,NULL,Selector,Selection,Selection,concrete,1739194351320,undefined,1289,gas,undefined,abstract,concrete,abstract,A,concrete;abstract
1739194853,0f17dcd1b8abc33b98deae0549816148,PennController,84,0,calibrator_conc_feedback,NULL,PennController,95,_Trial_,End,1739194352952,undefined,1289,gas,undefined,abstract,concrete,abstract,A,NULL
1739194853,0f17dcd1b8abc33b98deae0549816148,PennController,92,0,calibrator_conc_feedback,NULL,PennController,103,_Trial_,Start,1739194352953,undefined,1037,whistle,undefined,abstract,concrete,abstract,A,NULL
1739194853,0f17dcd1b8abc33b98deae0549816148,PennController,92,0,calibrator_conc_feedback,NULL,PennController,103,_Header_,Start,1739194352953,undefined,1037,whistle,undefined,abstract,concrete,abstract,A,NULL
1739194853,0f17dcd1b8abc33b98deae0549816148,PennController,92,0,calibrator_conc_feedback,NULL,PennController,103,_Header_,End,1739194353204,undefined,1037,whistle,undefined,abstract,concrete,abstract,A,NULL
1739194853,0f17dcd1b8abc33b98deae0549816148,PennController,92,0,calibrator_conc_feedback,NULL,Selector,Selection,Selection,concrete,1739194355017,undefined,1037,whistle,undefined,abstract,concrete,abstract,A,concrete;abstract
1739194853,0f17dcd1b8abc33b98deae0549816148,PennController,92,0,calibrator_conc_feedback,NULL,PennController,103,_Trial_,End,1739194356745,undefined,1037,whistle,undefined,abstract,concrete,abstract,A,NULL
1739194853,0f17dcd1b8abc33b98deae0549816148,PennController,90,0,calibrator_conc_feedback,NULL,PennController,101,_Trial_,Start,1739194356745,undefined,742,sugar,undefined,abstract,concrete,abstract,A,NULL
1739194853,0f17dcd1b8abc33b98deae0549816148,PennController,90,0,calibrator_conc_feedback,NULL,PennController,101,_Header_,Start,1739194356745,undefined,742,sugar,undefined,abstract,concrete,abstract,A,NULL
1739194853,0f17dcd1b8abc33b98deae0549816148,PennController,90,0,calibrator_conc_feedback,NULL,PennController,101,_Header_,End,1739194357000,undefined,742,sugar,undefined,abstract,concrete,abstract,A,NULL
1739194853,0f17dcd1b8abc33b98deae0549816148,PennController,90,0,calibrator_conc_feedback,NULL,Selector,Selection,Selection,concrete,1739194358500,undefined,742,sugar,undefined,abstract,concrete,abstract,A,concrete;abstract
1739194853,0f17dcd1b8abc33b98deae0549816148,PennController,90,0,calibrator_conc_feedback,NULL,PennController,101,_Trial_,End,1739194360248,undefined,742,sugar,undefined,abstract,concrete,abstract,A,NULL
# 16. Key_value_F.
# 17. Key_value_J.
# 18. Group.
# 19. Comments.
1739194853,0f17dcd1b8abc33b98deae0549816148,PennController,94,0,calibrator_conc_no_feedback,NULL,PennController,105,_Trial_,Start,1739194360249,undefined,870,gas,concrete,abstract,A,NULL
1739194853,0f17dcd1b8abc33b98deae0549816148,PennController,94,0,calibrator_conc_no_feedback,NULL,PennController,105,_Header_,Start,1739194360249,undefined,870,gas,concrete,abstract,A,NULL
1739194853,0f17dcd1b8abc33b98deae0549816148,PennController,94,0,calibrator_conc_no_feedback,NULL,PennController,105,_Header_,End,1739194360500,undefined,870,gas,concrete,abstract,A,NULL
1739194853,0f17dcd1b8abc33b98deae0549816148,PennController,94,0,calibrator_conc_no_feedback,NULL,Selector,unnamed-Selector,Selection,concrete,1739194361872,undefined,870,gas,concrete,abstract,A,concrete;abstract
1739194853,0f17dcd1b8abc33b98deae0549816148,PennController,94,0,calibrator_conc_no_feedback,NULL,PennController,105,_Trial_,End,1739194361872,undefined,870,gas,concrete,abstract,A,NULL
1739194853,0f17dcd1b8abc33b98deae0549816148,PennController,96,0,calibrator_conc_no_feedback,NULL,PennController,107,_Trial_,Start,1739194361873,undefined,953,kick,concrete,abstract,A,NULL
1739194853,0f17dcd1b8abc33b98deae0549816148,PennController,96,0,calibrator_conc_no_feedback,NULL,PennController,107,_Header_,Start,1739194361873,undefined,953,kick,concrete,abstract,A,NULL
1739194853,0f17dcd1b8abc33b98deae0549816148,PennController,96,0,calibrator_conc_no_feedback,NULL,PennController,107,_Header_,End,1739194362124,undefined,953,kick,concrete,abstract,A,NULL
1739194853,0f17dcd1b8abc33b98deae0549816148,PennController,96,0,calibrator_conc_no_feedback,NULL,Selector,unnamed-Selector,Selection,concrete,1739194363580,undefined,953,kick,concrete,abstract,A,concrete;abstract
1739194853,0f17dcd1b8abc33b98deae0549816148,PennController,96,0,calibrator_conc_no_feedback,NULL,PennController,107,_Trial_,End,1739194363581,undefined,953,kick,concrete,abstract,A,NULL
1739194853,0f17dcd1b8abc33b98deae0549816148,PennController,95,0,calibrator_conc_no_feedback,NULL,PennController,106,_Trial_,Start,1739194363581,undefined,552,grasshopper,concrete,abstract,A,NULL
1739194853,0f17dcd1b8abc33b98deae0549816148,PennController,95,0,calibrator_conc_no_feedback,NULL,PennController,106,_Header_,Start,1739194363581,undefined,552,grasshopper,concrete,abstract,A,NULL
1739194853,0f17dcd1b8abc33b98deae0549816148,PennController,95,0,calibrator_conc_no_feedback,NULL,PennController,106,_Header_,End,1739194363834,undefined,552,grasshopper,concrete,abstract,A,NULL
1739194853,0f17dcd1b8abc33b98deae0549816148,PennController,95,0,calibrator_conc_no_feedback,NULL,Selector,unnamed-Selector,Selection,concrete,1739194364891,undefined,552,grasshopper,concrete,abstract,A,concrete;abstract
1739194853,0f17dcd1b8abc33b98deae0549816148,PennController,95,0,calibrator_conc_no_feedback,NULL,PennController,106,_Trial_,End,1739194364891,undefined,552,grasshopper,concrete,abstract,A,NULL
1739194853,0f17dcd1b8abc33b98deae0549816148,PennController,97,0,calibrator_conc_no_feedback,NULL,PennController,108,_Trial_,Start,1739194364892,undefined,529,marriage,concrete,abstract,A,NULL
1739194853,0f17dcd1b8abc33b98deae0549816148,PennController,97,0,calibrator_conc_no_feedback,NULL,PennController,108,_Header_,Start,1739194364892,undefined,529,marriage,concrete,abstract,A,NULL
1739194853,0f17dcd1b8abc33b98deae0549816148,PennController,97,0,calibrator_conc_no_feedback,NULL,PennController,108,_Header_,End,1739194365146,undefined,529,marriage,concrete,abstract,A,NULL
1739194853,0f17dcd1b8abc33b98deae0549816148,PennController,97,0,calibrator_conc_no_feedback,NULL,Selector,unnamed-Selector,Selection,concrete,1739194366180,undefined,529,marriage,concrete,abstract,A,concrete;abstract
1739194853,0f17dcd1b8abc33b98deae0549816148,PennController,97,0,calibrator_conc_no_feedback,NULL,PennController,108,_Trial_,End,1739194366180,undefined,529,marriage,concrete,abstract,A,NULL
1739194853,0f17dcd1b8abc33b98deae0549816148,PennController,98,0,calibrator_conc_no_feedback,NULL,PennController,109,_Trial_,Start,1739194366181,undefined,619,polite,concrete,abstract,A,NULL
1739194853,0f17dcd1b8abc33b98deae0549816148,PennController,98,0,calibrator_conc_no_feedback,NULL,PennController,109,_Header_,Start,1739194366181,undefined,619,polite,concrete,abstract,A,NULL
1739194853,0f17dcd1b8abc33b98deae0549816148,PennController,98,0,calibrator_conc_no_feedback,NULL,PennController,109,_Header_,End,1739194366433,undefined,619,polite,concrete,abstract,A,NULL
1739194853,0f17dcd1b8abc33b98deae0549816148,PennController,98,0,calibrator_conc_no_feedback,NULL,Selector,unnamed-Selector,Selection,abstract,1739194367556,undefined,619,polite,concrete,abstract,A,concrete;abstract
1739194853,0f17dcd1b8abc33b98deae0549816148,PennController,98,0,calibrator_conc_no_feedback,NULL,PennController,109,_Trial_,End,1739194367556,undefined,619,polite,concrete,abstract,A,NULL
1739194853,0f17dcd1b8abc33b98deae0549816148,PennController,99,0,calibrator_conc_no_feedback,NULL,PennController,110,_Trial_,Start,1739194367557,undefined,635,shirt,concrete,abstract,A,NULL
1739194853,0f17dcd1b8abc33b98deae0549816148,PennController,99,0,calibrator_conc_no_feedback,NULL,PennController,110,_Header_,Start,1739194367557,undefined,635,shirt,concrete,abstract,A,NULL
1739194853,0f17dcd1b8abc33b98deae0549816148,PennController,99,0,calibrator_conc_no_feedback,NULL,PennController,110,_Header_,End,1739194367807,undefined,635,shirt,concrete,abstract,A,NULL
1739194853,0f17dcd1b8abc33b98deae0549816148,PennController,99,0,calibrator_conc_no_feedback,NULL,Selector,unnamed-Selector,Selection,concrete,1739194368948,undefined,635,shirt,concrete,abstract,A,concrete;abstract
1739194853,0f17dcd1b8abc33b98deae0549816148,PennController,99,0,calibrator_conc_no_feedback,NULL,PennController,110,_Trial_,End,1739194368949,undefined,635,shirt,concrete,abstract,A,NULL
1739194853,0f17dcd1b8abc33b98deae0549816148,PennController,103,0,calibrator_conc_no_feedback,NULL,PennController,114,_Trial_,Start,1739194368949,undefined,2143,insecure,concrete,abstract,A,NULL
1739194853,0f17dcd1b8abc33b98deae0549816148,PennController,103,0,calibrator_conc_no_feedback,NULL,PennController,114,_Header_,Start,1739194368949,undefined,2143,insecure,concrete,abstract,A,NULL
1739194853,0f17dcd1b8abc33b98deae0549816148,PennController,103,0,calibrator_conc_no_feedback,NULL,PennController,114,_Header_,End,1739194369203,undefined,2143,insecure,concrete,abstract,A,NULL
1739194853,0f17dcd1b8abc33b98deae0549816148,PennController,103,0,calibrator_conc_no_feedback,NULL,Selector,unnamed-Selector,Selection,concrete,1739194371849,undefined,2143,insecure,concrete,abstract,A,concrete;abstract
1739194853,0f17dcd1b8abc33b98deae0549816148,PennController,103,0,calibrator_conc_no_feedback,NULL,PennController,114,_Trial_,End,1739194371849,undefined,2143,insecure,concrete,abstract,A,NULL
1739194853,0f17dcd1b8abc33b98deae0549816148,PennController,102,0,calibrator_conc_no_feedback,NULL,PennController,113,_Trial_,Start,1739194371850,undefined,731,whistle,concrete,abstract,A,NULL
1739194853,0f17dcd1b8abc33b98deae0549816148,PennController,102,0,calibrator_conc_no_feedback,NULL,PennController,113,_Header_,Start,1739194371850,undefined,731,whistle,concrete,abstract,A,NULL
1739194853,0f17dcd1b8abc33b98deae0549816148,PennController,102,0,calibrator_conc_no_feedback,NULL,PennController,113,_Header_,End,1739194372102,undefined,731,whistle,concrete,abstract,A,NULL
1739194853,0f17dcd1b8abc33b98deae0549816148,PennController,102,0,calibrator_conc_no_feedback,NULL,Selector,unnamed-Selector,Selection,concrete,1739194373338,undefined,731,whistle,concrete,abstract,A,concrete;abstract
1739194853,0f17dcd1b8abc33b98deae0549816148,PennController,102,0,calibrator_conc_no_feedback,NULL,PennController,113,_Trial_,End,1739194373339,undefined,731,whistle,concrete,abstract,A,NULL
1739194853,0f17dcd1b8abc33b98deae0549816148,PennController,100,0,calibrator_conc_no_feedback,NULL,PennController,111,_Trial_,Start,1739194373339,undefined,513,sugar,concrete,abstract,A,NULL
1739194853,0f17dcd1b8abc33b98deae0549816148,PennController,100,0,calibrator_conc_no_feedback,NULL,PennController,111,_Header_,Start,1739194373339,undefined,513,sugar,concrete,abstract,A,NULL
1739194853,0f17dcd1b8abc33b98deae0549816148,PennController,100,0,calibrator_conc_no_feedback,NULL,PennController,111,_Header_,End,1739194373590,undefined,513,sugar,concrete,abstract,A,NULL
1739194853,0f17dcd1b8abc33b98deae0549816148,PennController,100,0,calibrator_conc_no_feedback,NULL,Selector,unnamed-Selector,Selection,concrete,1739194374605,undefined,513,sugar,concrete,abstract,A,concrete;abstract
1739194853,0f17dcd1b8abc33b98deae0549816148,PennController,100,0,calibrator_conc_no_feedback,NULL,PennController,111,_Trial_,End,1739194374606,undefined,513,sugar,concrete,abstract,A,NULL
1739194853,0f17dcd1b8abc33b98deae0549816148,PennController,101,0,calibrator_conc_no_feedback,NULL,PennController,112,_Trial_,Start,1739194374607,undefined,669,theory,concrete,abstract,A,NULL
1739194853,0f17dcd1b8abc33b98deae0549816148,PennController,101,0,calibrator_conc_no_feedback,NULL,PennController,112,_Header_,Start,1739194374607,undefined,669,theory,concrete,abstract,A,NULL
1739194853,0f17dcd1b8abc33b98deae0549816148,PennController,101,0,calibrator_conc_no_feedback,NULL,PennController,112,_Header_,End,1739194374858,undefined,669,theory,concrete,abstract,A,NULL
1739194853,0f17dcd1b8abc33b98deae0549816148,PennController,101,0,calibrator_conc_no_feedback,NULL,Selector,unnamed-Selector,Selection,abstract,1739194376030,undefined,669,theory,concrete,abstract,A,concrete;abstract
1739194853,0f17dcd1b8abc33b98deae0549816148,PennController,101,0,calibrator_conc_no_feedback,NULL,PennController,112,_Trial_,End,1739194376031,undefined,669,theory,concrete,abstract,A,NULL
# 13. Comments.
1739194853,0f17dcd1b8abc33b98deae0549816148,PennController,130,0,endinstructions_conc,NULL,PennController,8,_Trial_,Start,1739194376032,NULL
1739194853,0f17dcd1b8abc33b98deae0549816148,PennController,130,0,endinstructions_conc,NULL,PennController,8,_Header_,Start,1739194376032,NULL
1739194853,0f17dcd1b8abc33b98deae0549816148,PennController,130,0,endinstructions_conc,NULL,PennController,8,_Header_,End,1739194376285,NULL
1739194853,0f17dcd1b8abc33b98deae0549816148,PennController,130,0,endinstructions_conc,NULL,PennController,8,_Trial_,End,1739194388113,NULL
# 13. ID.
# 14. ReactionTime.
# 15. Word.
# 16. ConcValCombo.
# 17. Key_value_F.
# 18. Key_value_J.
# 19. Group.
# 20. Comments.
1739194853,0f17dcd1b8abc33b98deae0549816148,PennController,23,0,test_conc,NULL,PennController,34,_Trial_,Start,1739194388113,undefined,1181,handmade,concrete-positive,concrete,abstract,A,NULL
1739194853,0f17dcd1b8abc33b98deae0549816148,PennController,23,0,test_conc,NULL,PennController,34,_Header_,Start,1739194388113,undefined,1181,handmade,concrete-positive,concrete,abstract,A,NULL
1739194853,0f17dcd1b8abc33b98deae0549816148,PennController,23,0,test_conc,NULL,PennController,34,_Header_,End,1739194388366,undefined,1181,handmade,concrete-positive,concrete,abstract,A,NULL
1739194853,0f17dcd1b8abc33b98deae0549816148,PennController,23,0,test_conc,NULL,Selector,unnamed-Selector,Selection,concrete,1739194390053,undefined,1181,handmade,concrete-positive,concrete,abstract,A,concrete;abstract
1739194853,0f17dcd1b8abc33b98deae0549816148,PennController,23,0,test_conc,NULL,PennController,34,_Trial_,End,1739194390053,undefined,1181,handmade,concrete-positive,concrete,abstract,A,NULL
1739194853,0f17dcd1b8abc33b98deae0549816148,PennController,12,0,test_conc,NULL,PennController,23,_Trial_,Start,1739194390054,undefined,1908,sinful,abstract-negative,concrete,abstract,A,NULL
1739194853,0f17dcd1b8abc33b98deae0549816148,PennController,12,0,test_conc,NULL,PennController,23,_Header_,Start,1739194390054,undefined,1908,sinful,abstract-negative,concrete,abstract,A,NULL
1739194853,0f17dcd1b8abc33b98deae0549816148,PennController,12,0,test_conc,NULL,PennController,23,_Header_,End,1739194390307,undefined,1908,sinful,abstract-negative,concrete,abstract,A,NULL
1739194853,0f17dcd1b8abc33b98deae0549816148,PennController,12,0,test_conc,NULL,Selector,unnamed-Selector,Selection,abstract,1739194392717,undefined,1908,sinful,abstract-negative,concrete,abstract,A,concrete;abstract
1739194853,0f17dcd1b8abc33b98deae0549816148,PennController,12,0,test_conc,NULL,PennController,23,_Trial_,End,1739194392718,undefined,1908,sinful,abstract-negative,concrete,abstract,A,NULL
1739194853,0f17dcd1b8abc33b98deae0549816148,PennController,31,0,test_conc,NULL,PennController,42,_Trial_,Start,1739194392718,undefined,647,pleasant,abstract-positive,concrete,abstract,A,NULL
1739194853,0f17dcd1b8abc33b98deae0549816148,PennController,31,0,test_conc,NULL,PennController,42,_Header_,Start,1739194392718,undefined,647,pleasant,abstract-positive,concrete,abstract,A,NULL
1739194853,0f17dcd1b8abc33b98deae0549816148,PennController,31,0,test_conc,NULL,PennController,42,_Header_,End,1739194392972,undefined,647,pleasant,abstract-positive,concrete,abstract,A,NULL
1739194853,0f17dcd1b8abc33b98deae0549816148,PennController,31,0,test_conc,NULL,Selector,unnamed-Selector,Selection,concrete,1739194394122,undefined,647,pleasant,abstract-positive,concrete,abstract,A,concrete;abstract
1739194853,0f17dcd1b8abc33b98deae0549816148,PennController,31,0,test_conc,NULL,PennController,42,_Trial_,End,1739194394123,undefined,647,pleasant,abstract-positive,concrete,abstract,A,NULL
1739194853,0f17dcd1b8abc33b98deae0549816148,PennController,37,0,test_conc,NULL,PennController,48,_Trial_,Start,1739194394123,undefined,1019,rusted,concrete-negative,concrete,abstract,A,NULL
1739194853,0f17dcd1b8abc33b98deae0549816148,PennController,37,0,test_conc,NULL,PennController,48,_Header_,Start,1739194394123,undefined,1019,rusted,concrete-negative,concrete,abstract,A,NULL
1739194853,0f17dcd1b8abc33b98deae0549816148,PennController,37,0,test_conc,NULL,PennController,48,_Header_,End,1739194394374,undefined,1019,rusted,concrete-negative,concrete,abstract,A,NULL
1739194853,0f17dcd1b8abc33b98deae0549816148,PennController,37,0,test_conc,NULL,Selector,unnamed-Selector,Selection,concrete,1739194395897,undefined,1019,rusted,concrete-negative,concrete,abstract,A,concrete;abstract
1739194853,0f17dcd1b8abc33b98deae0549816148,PennController,37,0,test_conc,NULL,PennController,48,_Trial_,End,1739194395897,undefined,1019,rusted,concrete-negative,concrete,abstract,A,NULL
1739194853,0f17dcd1b8abc33b98deae0549816148,PennController,28,0,test_conc,NULL,PennController,39,_Trial_,Start,1739194395898,undefined,726,possible,abstract-positive,concrete,abstract,A,NULL
1739194853,0f17dcd1b8abc33b98deae0549816148,PennController,28,0,test_conc,NULL,PennController,39,_Header_,Start,1739194395898,undefined,726,possible,abstract-positive,concrete,abstract,A,NULL
1739194853,0f17dcd1b8abc33b98deae0549816148,PennController,28,0,test_conc,NULL,PennController,39,_Header_,End,1739194396151,undefined,726,possible,abstract-positive,concrete,abstract,A,NULL
1739194853,0f17dcd1b8abc33b98deae0549816148,PennController,28,0,test_conc,NULL,Selector,unnamed-Selector,Selection,abstract,1739194397382,undefined,726,possible,abstract-positive,concrete,abstract,A,concrete;abstract
1739194853,0f17dcd1b8abc33b98deae0549816148,PennController,28,0,test_conc,NULL,PennController,39,_Trial_,End,1739194397383,undefined,726,possible,abstract-positive,concrete,abstract,A,NULL
1739194853,0f17dcd1b8abc33b98deae0549816148,PennController,38,0,test_conc,NULL,PennController,49,_Trial_,Start,1739194397383,undefined,1087,thorny,concrete-negative,concrete,abstract,A,NULL
1739194853,0f17dcd1b8abc33b98deae0549816148,PennController,38,0,test_conc,NULL,PennController,49,_Header_,Start,1739194397383,undefined,1087,thorny,concrete-negative,concrete,abstract,A,NULL
1739194853,0f17dcd1b8abc33b98deae0549816148,PennController,38,0,test_conc,NULL,PennController,49,_Header_,End,1739194397634,undefined,1087,thorny,concrete-negative,concrete,abstract,A,NULL
1739194853,0f17dcd1b8abc33b98deae0549816148,PennController,38,0,test_conc,NULL,Selector,unnamed-Selector,Selection,concrete,1739194399223,undefined,1087,thorny,concrete-negative,concrete,abstract,A,concrete;abstract
1739194853,0f17dcd1b8abc33b98deae0549816148,PennController,38,0,test_conc,NULL,PennController,49,_Trial_,End,1739194399224,undefined,1087,thorny,concrete-negative,concrete,abstract,A,NULL
1739194853,0f17dcd1b8abc33b98deae0549816148,PennController,4,0,test_conc,NULL,PennController,15,_Trial_,Start,1739194399225,undefined,1100,worthless,abstract-negative,concrete,abstract,A,NULL
1739194853,0f17dcd1b8abc33b98deae0549816148,PennController,4,0,test_conc,NULL,PennController,15,_Header_,Start,1739194399225,undefined,1100,worthless,abstract-negative,concrete,abstract,A,NULL
1739194853,0f17dcd1b8abc33b98deae0549816148,PennController,4,0,test_conc,NULL,PennController,15,_Header_,End,1739194399475,undefined,1100,worthless,abstract-negative,concrete,abstract,A,NULL
1739194853,0f17dcd1b8abc33b98deae0549816148,PennController,4,0,test_conc,NULL,Selector,unnamed-Selector,Selection,concrete,1739194401079,undefined,1100,worthless,abstract-negative,concrete,abstract,A,concrete;abstract
1739194853,0f17dcd1b8abc33b98deae0549816148,PennController,4,0,test_conc,NULL,PennController,15,_Trial_,End,1739194401080,undefined,1100,worthless,abstract-negative,concrete,abstract,A,NULL
1739194853,0f17dcd1b8abc33b98deae0549816148,PennController,41,0,test_conc,NULL,PennController,52,_Trial_,Start,1739194401081,undefined,615,wrinkled,concrete-negative,concrete,abstract,A,NULL
1739194853,0f17dcd1b8abc33b98deae0549816148,PennController,41,0,test_conc,NULL,PennController,52,_Header_,Start,1739194401081,undefined,615,wrinkled,concrete-negative,concrete,abstract,A,NULL
1739194853,0f17dcd1b8abc33b98deae0549816148,PennController,41,0,test_conc,NULL,PennController,52,_Header_,End,1739194401335,undefined,615,wrinkled,concrete-negative,concrete,abstract,A,NULL
1739194853,0f17dcd1b8abc33b98deae0549816148,PennController,41,0,test_conc,NULL,Selector,unnamed-Selector,Selection,concrete,1739194402455,undefined,615,wrinkled,concrete-negative,concrete,abstract,A,concrete;abstract
1739194853,0f17dcd1b8abc33b98deae0549816148,PennController,41,0,test_conc,NULL,PennController,52,_Trial_,End,1739194402456,undefined,615,wrinkled,concrete-negative,concrete,abstract,A,NULL
1739194853,0f17dcd1b8abc33b98deae0549816148,PennController,22,0,test_conc,NULL,PennController,33,_Trial_,Start,1739194402456,undefined,753,pregnant,concrete-positive,concrete,abstract,A,NULL
1739194853,0f17dcd1b8abc33b98deae0549816148,PennController,22,0,test_conc,NULL,PennController,33,_Header_,Start,1739194402456,undefined,753,pregnant,concrete-positive,concrete,abstract,A,NULL
1739194853,0f17dcd1b8abc33b98deae0549816148,PennController,22,0,test_conc,NULL,PennController,33,_Header_,End,1739194402709,undefined,753,pregnant,concrete-positive,concrete,abstract,A,NULL
1739194853,0f17dcd1b8abc33b98deae0549816148,PennController,22,0,test_conc,NULL,Selector,unnamed-Selector,Selection,concrete,1739194403967,undefined,753,pregnant,concrete-positive,concrete,abstract,A,concrete;abstract
1739194853,0f17dcd1b8abc33b98deae0549816148,PennController,22,0,test_conc,NULL,PennController,33,_Trial_,End,1739194403967,undefined,753,pregnant,concrete-positive,concrete,abstract,A,NULL
1739194853,0f17dcd1b8abc33b98deae0549816148,PennController,32,0,test_conc,NULL,PennController,43,_Trial_,Start,1739194403968,undefined,655,helpful,abstract-positive,concrete,abstract,A,NULL
1739194853,0f17dcd1b8abc33b98deae0549816148,PennController,32,0,test_conc,NULL,PennController,43,_Header_,Start,1739194403968,undefined,655,helpful,abstract-positive,concrete,abstract,A,NULL
1739194853,0f17dcd1b8abc33b98deae0549816148,PennController,32,0,test_conc,NULL,PennController,43,_Header_,End,1739194404219,undefined,655,helpful,abstract-positive,concrete,abstract,A,NULL
1739194853,0f17dcd1b8abc33b98deae0549816148,PennController,32,0,test_conc,NULL,Selector,unnamed-Selector,Selection,concrete,1739194405380,undefined,655,helpful,abstract-positive,concrete,abstract,A,concrete;abstract
1739194853,0f17dcd1b8abc33b98deae0549816148,PennController,32,0,test_conc,NULL,PennController,43,_Trial_,End,1739194405380,undefined,655,helpful,abstract-positive,concrete,abstract,A,NULL
1739194853,0f17dcd1b8abc33b98deae0549816148,PennController,43,0,test_conc,NULL,PennController,54,_Trial_,Start,1739194405381,undefined,728,bloody,concrete-negative,concrete,abstract,A,NULL
1739194853,0f17dcd1b8abc33b98deae0549816148,PennController,43,0,test_conc,NULL,PennController,54,_Header_,Start,1739194405381,undefined,728,bloody,concrete-negative,concrete,abstract,A,NULL
1739194853,0f17dcd1b8abc33b98deae0549816148,PennController,43,0,test_conc,NULL,PennController,54,_Header_,End,1739194405631,undefined,728,bloody,concrete-negative,concrete,abstract,A,NULL
1739194853,0f17dcd1b8abc33b98deae0549816148,PennController,43,0,test_conc,NULL,Selector,unnamed-Selector,Selection,concrete,1739194406860,undefined,728,bloody,concrete-negative,concrete,abstract,A,concrete;abstract
1739194853,0f17dcd1b8abc33b98deae0549816148,PennController,43,0,test_conc,NULL,PennController,54,_Trial_,End,1739194406860,undefined,728,bloody,concrete-negative,concrete,abstract,A,NULL
1739194853,0f17dcd1b8abc33b98deae0549816148,PennController,10,0,test_conc,NULL,PennController,21,_Trial_,Start,1739194406861,undefined,1524,crappy,abstract-negative,concrete,abstract,A,NULL
1739194853,0f17dcd1b8abc33b98deae0549816148,PennController,10,0,test_conc,NULL,PennController,21,_Header_,Start,1739194406861,undefined,1524,crappy,abstract-negative,concrete,abstract,A,NULL
1739194853,0f17dcd1b8abc33b98deae0549816148,PennController,10,0,test_conc,NULL,PennController,21,_Header_,End,1739194407114,undefined,1524,crappy,abstract-negative,concrete,abstract,A,NULL
1739194853,0f17dcd1b8abc33b98deae0549816148,PennController,10,0,test_conc,NULL,Selector,unnamed-Selector,Selection,concrete,1739194409140,undefined,1524,crappy,abstract-negative,concrete,abstract,A,concrete;abstract
1739194853,0f17dcd1b8abc33b98deae0549816148,PennController,10,0,test_conc,NULL,PennController,21,_Trial_,End,1739194409141,undefined,1524,crappy,abstract-negative,concrete,abstract,A,NULL
1739194853,0f17dcd1b8abc33b98deae0549816148,PennController,16,0,test_conc,NULL,PennController,27,_Trial_,Start,1739194409142,undefined,770,human,concrete-positive,concrete,abstract,A,NULL
1739194853,0f17dcd1b8abc33b98deae0549816148,PennController,16,0,test_conc,NULL,PennController,27,_Header_,Start,1739194409142,undefined,770,human,concrete-positive,concrete,abstract,A,NULL
1739194853,0f17dcd1b8abc33b98deae0549816148,PennController,16,0,test_conc,NULL,PennController,27,_Header_,End,1739194409392,undefined,770,human,concrete-positive,concrete,abstract,A,NULL
1739194853,0f17dcd1b8abc33b98deae0549816148,PennController,16,0,test_conc,NULL,Selector,unnamed-Selector,Selection,concrete,1739194410665,undefined,770,human,concrete-positive,concrete,abstract,A,concrete;abstract
1739194853,0f17dcd1b8abc33b98deae0549816148,PennController,16,0,test_conc,NULL,PennController,27,_Trial_,End,1739194410666,undefined,770,human,concrete-positive,concrete,abstract,A,NULL
1739194853,0f17dcd1b8abc33b98deae0549816148,PennController,34,0,test_conc,NULL,PennController,45,_Trial_,Start,1739194410667,undefined,678,toothless,concrete-negative,concrete,abstract,A,NULL
1739194853,0f17dcd1b8abc33b98deae0549816148,PennController,34,0,test_conc,NULL,PennController,45,_Header_,Start,1739194410667,undefined,678,toothless,concrete-negative,concrete,abstract,A,NULL
1739194853,0f17dcd1b8abc33b98deae0549816148,PennController,34,0,test_conc,NULL,PennController,45,_Header_,End,1739194410918,undefined,678,toothless,concrete-negative,concrete,abstract,A,NULL
1739194853,0f17dcd1b8abc33b98deae0549816148,PennController,34,0,test_conc,NULL,Selector,unnamed-Selector,Selection,concrete,1739194412098,undefined,678,toothless,concrete-negative,concrete,abstract,A,concrete;abstract
1739194853,0f17dcd1b8abc33b98deae0549816148,PennController,34,0,test_conc,NULL,PennController,45,_Trial_,End,1739194412098,undefined,678,toothless,concrete-negative,concrete,abstract,A,NULL
1739194853,0f17dcd1b8abc33b98deae0549816148,PennController,11,0,test_conc,NULL,PennController,22,_Trial_,Start,1739194412099,undefined,1021,stupid,abstract-negative,concrete,abstract,A,NULL
1739194853,0f17dcd1b8abc33b98deae0549816148,PennController,11,0,test_conc,NULL,PennController,22,_Header_,Start,1739194412099,undefined,1021,stupid,abstract-negative,concrete,abstract,A,NULL
1739194853,0f17dcd1b8abc33b98deae0549816148,PennController,11,0,test_conc,NULL,PennController,22,_Header_,End,1739194412353,undefined,1021,stupid,abstract-negative,concrete,abstract,A,NULL
1739194853,0f17dcd1b8abc33b98deae0549816148,PennController,11,0,test_conc,NULL,Selector,unnamed-Selector,Selection,concrete,1739194413878,undefined,1021,stupid,abstract-negative,concrete,abstract,A,concrete;abstract
1739194853,0f17dcd1b8abc33b98deae0549816148,PennController,11,0,test_conc,NULL,PennController,22,_Trial_,End,1739194413878,undefined,1021,stupid,abstract-negative,concrete,abstract,A,NULL
1739194853,0f17dcd1b8abc33b98deae0549816148,PennController,36,0,test_conc,NULL,PennController,47,_Trial_,Start,1739194413879,undefined,916,bloodshot,concrete-negative,concrete,abstract,A,NULL
1739194853,0f17dcd1b8abc33b98deae0549816148,PennController,36,0,test_conc,NULL,PennController,47,_Header_,Start,1739194413879,undefined,916,bloodshot,concrete-negative,concrete,abstract,A,NULL
1739194853,0f17dcd1b8abc33b98deae0549816148,PennController,36,0,test_conc,NULL,PennController,47,_Header_,End,1739194414131,undefined,916,bloodshot,concrete-negative,concrete,abstract,A,NULL
1739194853,0f17dcd1b8abc33b98deae0549816148,PennController,36,0,test_conc,NULL,Selector,unnamed-Selector,Selection,concrete,1739194415550,undefined,916,bloodshot,concrete-negative,concrete,abstract,A,concrete;abstract
1739194853,0f17dcd1b8abc33b98deae0549816148,PennController,36,0,test_conc,NULL,PennController,47,_Trial_,End,1739194415551,undefined,916,bloodshot,concrete-negative,concrete,abstract,A,NULL
1739194853,0f17dcd1b8abc33b98deae0549816148,PennController,21,0,test_conc,NULL,PennController,32,_Trial_,Start,1739194415552,undefined,918,starry,concrete-positive,concrete,abstract,A,NULL
1739194853,0f17dcd1b8abc33b98deae0549816148,PennController,21,0,test_conc,NULL,PennController,32,_Header_,Start,1739194415552,undefined,918,starry,concrete-positive,concrete,abstract,A,NULL
1739194853,0f17dcd1b8abc33b98deae0549816148,PennController,21,0,test_conc,NULL,PennController,32,_Header_,End,1739194415805,undefined,918,starry,concrete-positive,concrete,abstract,A,NULL
1739194853,0f17dcd1b8abc33b98deae0549816148,PennController,21,0,test_conc,NULL,Selector,unnamed-Selector,Selection,concrete,1739194417227,undefined,918,starry,concrete-positive,concrete,abstract,A,concrete;abstract
1739194853,0f17dcd1b8abc33b98deae0549816148,PennController,21,0,test_conc,NULL,PennController,32,_Trial_,End,1739194417228,undefined,918,starry,concrete-positive,concrete,abstract,A,NULL
1739194853,0f17dcd1b8abc33b98deae0549816148,PennController,27,0,test_conc,NULL,PennController,38,_Trial_,Start,1739194417228,undefined,1116,splendid,abstract-positive,concrete,abstract,A,NULL
1739194853,0f17dcd1b8abc33b98deae0549816148,PennController,27,0,test_conc,NULL,PennController,38,_Header_,Start,1739194417228,undefined,1116,splendid,abstract-positive,concrete,abstract,A,NULL
1739194853,0f17dcd1b8abc33b98deae0549816148,PennController,27,0,test_conc,NULL,PennController,38,_Header_,End,1739194417478,undefined,1116,splendid,abstract-positive,concrete,abstract,A,NULL
1739194853,0f17dcd1b8abc33b98deae0549816148,PennController,27,0,test_conc,NULL,Selector,unnamed-Selector,Selection,concrete,1739194419095,undefined,1116,splendid,abstract-positive,concrete,abstract,A,concrete;abstract
1739194853,0f17dcd1b8abc33b98deae0549816148,PennController,27,0,test_conc,NULL,PennController,38,_Trial_,End,1739194419096,undefined,1116,splendid,abstract-positive,concrete,abstract,A,NULL
1739194853,0f17dcd1b8abc33b98deae0549816148,PennController,39,0,test_conc,NULL,PennController,50,_Trial_,Start,1739194419097,undefined,858,hairy,concrete-negative,concrete,abstract,A,NULL
1739194853,0f17dcd1b8abc33b98deae0549816148,PennController,39,0,test_conc,NULL,PennController,50,_Header_,Start,1739194419097,undefined,858,hairy,concrete-negative,concrete,abstract,A,NULL
1739194853,0f17dcd1b8abc33b98deae0549816148,PennController,39,0,test_conc,NULL,PennController,50,_Header_,End,1739194419350,undefined,858,hairy,concrete-negative,concrete,abstract,A,NULL
1739194853,0f17dcd1b8abc33b98deae0549816148,PennController,39,0,test_conc,NULL,Selector,unnamed-Selector,Selection,concrete,1739194420711,undefined,858,hairy,concrete-negative,concrete,abstract,A,concrete;abstract
1739194853,0f17dcd1b8abc33b98deae0549816148,PennController,39,0,test_conc,NULL,PennController,50,_Trial_,End,1739194420712,undefined,858,hairy,concrete-negative,concrete,abstract,A,NULL
1739194853,0f17dcd1b8abc33b98deae0549816148,PennController,7,0,test_conc,NULL,PennController,18,_Trial_,Start,1739194420712,undefined,878,soulless,abstract-negative,concrete,abstract,A,NULL
1739194853,0f17dcd1b8abc33b98deae0549816148,PennController,7,0,test_conc,NULL,PennController,18,_Header_,Start,1739194420712,undefined,878,soulless,abstract-negative,concrete,abstract,A,NULL
1739194853,0f17dcd1b8abc33b98deae0549816148,PennController,7,0,test_conc,NULL,PennController,18,_Header_,End,1739194420965,undefined,878,soulless,abstract-negative,concrete,abstract,A,NULL
1739194853,0f17dcd1b8abc33b98deae0549816148,PennController,7,0,test_conc,NULL,Selector,unnamed-Selector,Selection,concrete,1739194422346,undefined,878,soulless,abstract-negative,concrete,abstract,A,concrete;abstract
1739194853,0f17dcd1b8abc33b98deae0549816148,PennController,7,0,test_conc,NULL,PennController,18,_Trial_,End,1739194422347,undefined,878,soulless,abstract-negative,concrete,abstract,A,NULL
1739194853,0f17dcd1b8abc33b98deae0549816148,PennController,29,0,test_conc,NULL,PennController,40,_Trial_,Start,1739194422347,undefined,687,sensible,abstract-positive,concrete,abstract,A,NULL
1739194853,0f17dcd1b8abc33b98deae0549816148,PennController,29,0,test_conc,NULL,PennController,40,_Header_,Start,1739194422347,undefined,687,sensible,abstract-positive,concrete,abstract,A,NULL
1739194853,0f17dcd1b8abc33b98deae0549816148,PennController,29,0,test_conc,NULL,PennController,40,_Header_,End,1739194422600,undefined,687,sensible,abstract-positive,concrete,abstract,A,NULL
1739194853,0f17dcd1b8abc33b98deae0549816148,PennController,29,0,test_conc,NULL,Selector,unnamed-Selector,Selection,abstract,1739194423788,undefined,687,sensible,abstract-positive,concrete,abstract,A,concrete;abstract
1739194853,0f17dcd1b8abc33b98deae0549816148,PennController,29,0,test_conc,NULL,PennController,40,_Trial_,End,1739194423789,undefined,687,sensible,abstract-positive,concrete,abstract,A,NULL
1739194853,0f17dcd1b8abc33b98deae0549816148,PennController,24,0,test_conc,NULL,PennController,35,_Trial_,Start,1739194423789,undefined,1326,honest,abstract-positive,concrete,abstract,A,NULL
1739194853,0f17dcd1b8abc33b98deae0549816148,PennController,24,0,test_conc,NULL,PennController,35,_Header_,Start,1739194423789,undefined,1326,honest,abstract-positive,concrete,abstract,A,NULL
1739194853,0f17dcd1b8abc33b98deae0549816148,PennController,24,0,test_conc,NULL,PennController,35,_Header_,End,1739194424041,undefined,1326,honest,abstract-positive,concrete,abstract,A,NULL
1739194853,0f17dcd1b8abc33b98deae0549816148,PennController,24,0,test_conc,NULL,Selector,unnamed-Selector,Selection,concrete,1739194425869,undefined,1326,honest,abstract-positive,concrete,abstract,A,concrete;abstract
1739194853,0f17dcd1b8abc33b98deae0549816148,PennController,24,0,test_conc,NULL,PennController,35,_Trial_,End,1739194425870,undefined,1326,honest,abstract-positive,concrete,abstract,A,NULL
1739194853,0f17dcd1b8abc33b98deae0549816148,PennController,14,0,test_conc,NULL,PennController,25,_Trial_,Start,1739194425870,undefined,653,sunny,concrete-positive,concrete,abstract,A,NULL
1739194853,0f17dcd1b8abc33b98deae0549816148,PennController,14,0,test_conc,NULL,PennController,25,_Header_,Start,1739194425870,undefined,653,sunny,concrete-positive,concrete,abstract,A,NULL
1739194853,0f17dcd1b8abc33b98deae0549816148,PennController,14,0,test_conc,NULL,PennController,25,_Header_,End,1739194426120,undefined,653,sunny,concrete-positive,concrete,abstract,A,NULL
1739194853,0f17dcd1b8abc33b98deae0549816148,PennController,14,0,test_conc,NULL,Selector,unnamed-Selector,Selection,concrete,1739194427276,undefined,653,sunny,concrete-positive,concrete,abstract,A,concrete;abstract
1739194853,0f17dcd1b8abc33b98deae0549816148,PennController,14,0,test_conc,NULL,PennController,25,_Trial_,End,1739194427277,undefined,653,sunny,concrete-positive,concrete,abstract,A,NULL
1739194853,0f17dcd1b8abc33b98deae0549816148,PennController,13,0,test_conc,NULL,PennController,24,_Trial_,Start,1739194427277,undefined,968,disloyal,abstract-negative,concrete,abstract,A,NULL
1739194853,0f17dcd1b8abc33b98deae0549816148,PennController,13,0,test_conc,NULL,PennController,24,_Header_,Start,1739194427277,undefined,968,disloyal,abstract-negative,concrete,abstract,A,NULL
1739194853,0f17dcd1b8abc33b98deae0549816148,PennController,13,0,test_conc,NULL,PennController,24,_Header_,End,1739194427529,undefined,968,disloyal,abstract-negative,concrete,abstract,A,NULL
1739194853,0f17dcd1b8abc33b98deae0549816148,PennController,13,0,test_conc,NULL,Selector,unnamed-Selector,Selection,concrete,1739194429002,undefined,968,disloyal,abstract-negative,concrete,abstract,A,concrete;abstract
1739194853,0f17dcd1b8abc33b98deae0549816148,PennController,13,0,test_conc,NULL,PennController,24,_Trial_,End,1739194429003,undefined,968,disloyal,abstract-negative,concrete,abstract,A,NULL
1739194853,0f17dcd1b8abc33b98deae0549816148,PennController,8,0,test_conc,NULL,PennController,19,_Trial_,Start,1739194429003,undefined,1009,heartless,abstract-negative,concrete,abstract,A,NULL
1739194853,0f17dcd1b8abc33b98deae0549816148,PennController,8,0,test_conc,NULL,PennController,19,_Header_,Start,1739194429003,undefined,1009,heartless,abstract-negative,concrete,abstract,A,NULL
1739194853,0f17dcd1b8abc33b98deae0549816148,PennController,8,0,test_conc,NULL,PennController,19,_Header_,End,1739194429254,undefined,1009,heartless,abstract-negative,concrete,abstract,A,NULL
1739194853,0f17dcd1b8abc33b98deae0549816148,PennController,8,0,test_conc,NULL,Selector,unnamed-Selector,Selection,concrete,1739194430768,undefined,1009,heartless,abstract-negative,concrete,abstract,A,concrete;abstract
1739194853,0f17dcd1b8abc33b98deae0549816148,PennController,8,0,test_conc,NULL,PennController,19,_Trial_,End,1739194430768,undefined,1009,heartless,abstract-negative,concrete,abstract,A,NULL
1739194853,0f17dcd1b8abc33b98deae0549816148,PennController,18,0,test_conc,NULL,PennController,29,_Trial_,Start,1739194430769,undefined,702,newborn,concrete-positive,concrete,abstract,A,NULL
1739194853,0f17dcd1b8abc33b98deae0549816148,PennController,18,0,test_conc,NULL,PennController,29,_Header_,Start,1739194430769,undefined,702,newborn,concrete-positive,concrete,abstract,A,NULL
1739194853,0f17dcd1b8abc33b98deae0549816148,PennController,18,0,test_conc,NULL,PennController,29,_Header_,End,1739194431020,undefined,702,newborn,concrete-positive,concrete,abstract,A,NULL
1739194853,0f17dcd1b8abc33b98deae0549816148,PennController,18,0,test_conc,NULL,Selector,unnamed-Selector,Selection,concrete,1739194432225,undefined,702,newborn,concrete-positive,concrete,abstract,A,concrete;abstract
1739194853,0f17dcd1b8abc33b98deae0549816148,PennController,18,0,test_conc,NULL,PennController,29,_Trial_,End,1739194432225,undefined,702,newborn,concrete-positive,concrete,abstract,A,NULL
1739194853,0f17dcd1b8abc33b98deae0549816148,PennController,6,0,test_conc,NULL,PennController,17,_Trial_,Start,1739194432226,undefined,932,evil,abstract-negative,concrete,abstract,A,NULL
1739194853,0f17dcd1b8abc33b98deae0549816148,PennController,6,0,test_conc,NULL,PennController,17,_Header_,Start,1739194432226,undefined,932,evil,abstract-negative,concrete,abstract,A,NULL
1739194853,0f17dcd1b8abc33b98deae0549816148,PennController,6,0,test_conc,NULL,PennController,17,_Header_,End,1739194432478,undefined,932,evil,abstract-negative,concrete,abstract,A,NULL
1739194853,0f17dcd1b8abc33b98deae0549816148,PennController,6,0,test_conc,NULL,Selector,unnamed-Selector,Selection,abstract,1739194433914,undefined,932,evil,abstract-negative,concrete,abstract,A,concrete;abstract
1739194853,0f17dcd1b8abc33b98deae0549816148,PennController,6,0,test_conc,NULL,PennController,17,_Trial_,End,1739194433915,undefined,932,evil,abstract-negative,concrete,abstract,A,NULL
1739194853,0f17dcd1b8abc33b98deae0549816148,PennController,30,0,test_conc,NULL,PennController,41,_Trial_,Start,1739194433915,undefined,1098,mindful,abstract-positive,concrete,abstract,A,NULL
1739194853,0f17dcd1b8abc33b98deae0549816148,PennController,30,0,test_conc,NULL,PennController,41,_Header_,Start,1739194433915,undefined,1098,mindful,abstract-positive,concrete,abstract,A,NULL
1739194853,0f17dcd1b8abc33b98deae0549816148,PennController,30,0,test_conc,NULL,PennController,41,_Header_,End,1739194434166,undefined,1098,mindful,abstract-positive,concrete,abstract,A,NULL
1739194853,0f17dcd1b8abc33b98deae0549816148,PennController,30,0,test_conc,NULL,Selector,unnamed-Selector,Selection,abstract,1739194435769,undefined,1098,mindful,abstract-positive,concrete,abstract,A,concrete;abstract
1739194853,0f17dcd1b8abc33b98deae0549816148,PennController,30,0,test_conc,NULL,PennController,41,_Trial_,End,1739194435769,undefined,1098,mindful,abstract-positive,concrete,abstract,A,NULL
1739194853,0f17dcd1b8abc33b98deae0549816148,PennController,17,0,test_conc,NULL,PennController,28,_Trial_,Start,1739194435770,undefined,746,female,concrete-positive,concrete,abstract,A,NULL
1739194853,0f17dcd1b8abc33b98deae0549816148,PennController,17,0,test_conc,NULL,PennController,28,_Header_,Start,1739194435770,undefined,746,female,concrete-positive,concrete,abstract,A,NULL
1739194853,0f17dcd1b8abc33b98deae0549816148,PennController,17,0,test_conc,NULL,PennController,28,_Header_,End,1739194436023,undefined,746,female,concrete-positive,concrete,abstract,A,NULL
1739194853,0f17dcd1b8abc33b98deae0549816148,PennController,17,0,test_conc,NULL,Selector,unnamed-Selector,Selection,concrete,1739194437273,undefined,746,female,concrete-positive,concrete,abstract,A,concrete;abstract
1739194853,0f17dcd1b8abc33b98deae0549816148,PennController,17,0,test_conc,NULL,PennController,28,_Trial_,End,1739194437274,undefined,746,female,concrete-positive,concrete,abstract,A,NULL
1739194853,0f17dcd1b8abc33b98deae0549816148,PennController,15,0,test_conc,NULL,PennController,26,_Trial_,Start,1739194437274,undefined,803,lilac,concrete-positive,concrete,abstract,A,NULL
1739194853,0f17dcd1b8abc33b98deae0549816148,PennController,15,0,test_conc,NULL,PennController,26,_Header_,Start,1739194437274,undefined,803,lilac,concrete-positive,concrete,abstract,A,NULL
1739194853,0f17dcd1b8abc33b98deae0549816148,PennController,15,0,test_conc,NULL,PennController,26,_Header_,End,1739194437525,undefined,803,lilac,concrete-positive,concrete,abstract,A,NULL
1739194853,0f17dcd1b8abc33b98deae0549816148,PennController,15,0,test_conc,NULL,Selector,unnamed-Selector,Selection,concrete,1739194438830,undefined,803,lilac,concrete-positive,concrete,abstract,A,concrete;abstract
1739194853,0f17dcd1b8abc33b98deae0549816148,PennController,15,0,test_conc,NULL,PennController,26,_Trial_,End,1739194438831,undefined,803,lilac,concrete-positive,concrete,abstract,A,NULL
1739194853,0f17dcd1b8abc33b98deae0549816148,PennController,19,0,test_conc,NULL,PennController,30,_Trial_,Start,1739194438831,undefined,1571,blooming,concrete-positive,concrete,abstract,A,NULL
1739194853,0f17dcd1b8abc33b98deae0549816148,PennController,19,0,test_conc,NULL,PennController,30,_Header_,Start,1739194438831,undefined,1571,blooming,concrete-positive,concrete,abstract,A,NULL
1739194853,0f17dcd1b8abc33b98deae0549816148,PennController,19,0,test_conc,NULL,PennController,30,_Header_,End,1739194439081,undefined,1571,blooming,concrete-positive,concrete,abstract,A,NULL
1739194853,0f17dcd1b8abc33b98deae0549816148,PennController,19,0,test_conc,NULL,Selector,unnamed-Selector,Selection,abstract,1739194441154,undefined,1571,blooming,concrete-positive,concrete,abstract,A,concrete;abstract
1739194853,0f17dcd1b8abc33b98deae0549816148,PennController,19,0,test_conc,NULL,PennController,30,_Trial_,End,1739194441154,undefined,1571,blooming,concrete-positive,concrete,abstract,A,NULL
1739194853,0f17dcd1b8abc33b98deae0549816148,PennController,20,0,test_conc,NULL,PennController,31,_Trial_,Start,1739194441155,undefined,691,orange,concrete-positive,concrete,abstract,A,NULL
1739194853,0f17dcd1b8abc33b98deae0549816148,PennController,20,0,test_conc,NULL,PennController,31,_Header_,Start,1739194441155,undefined,691,orange,concrete-positive,concrete,abstract,A,NULL
1739194853,0f17dcd1b8abc33b98deae0549816148,PennController,20,0,test_conc,NULL,PennController,31,_Header_,End,1739194441406,undefined,691,orange,concrete-positive,concrete,abstract,A,NULL
1739194853,0f17dcd1b8abc33b98deae0549816148,PennController,20,0,test_conc,NULL,Selector,unnamed-Selector,Selection,concrete,1739194442600,undefined,691,orange,concrete-positive,concrete,abstract,A,concrete;abstract
1739194853,0f17dcd1b8abc33b98deae0549816148,PennController,20,0,test_conc,NULL,PennController,31,_Trial_,End,1739194442601,undefined,691,orange,concrete-positive,concrete,abstract,A,NULL
1739194853,0f17dcd1b8abc33b98deae0549816148,PennController,35,0,test_conc,NULL,PennController,46,_Trial_,Start,1739194442602,undefined,762,headless,concrete-negative,concrete,abstract,A,NULL
1739194853,0f17dcd1b8abc33b98deae0549816148,PennController,35,0,test_conc,NULL,PennController,46,_Header_,Start,1739194442602,undefined,762,headless,concrete-negative,concrete,abstract,A,NULL
1739194853,0f17dcd1b8abc33b98deae0549816148,PennController,35,0,test_conc,NULL,PennController,46,_Header_,End,1739194442852,undefined,762,headless,concrete-negative,concrete,abstract,A,NULL
1739194853,0f17dcd1b8abc33b98deae0549816148,PennController,35,0,test_conc,NULL,Selector,unnamed-Selector,Selection,concrete,1739194444116,undefined,762,headless,concrete-negative,concrete,abstract,A,concrete;abstract
1739194853,0f17dcd1b8abc33b98deae0549816148,PennController,35,0,test_conc,NULL,PennController,46,_Trial_,End,1739194444117,undefined,762,headless,concrete-negative,concrete,abstract,A,NULL
1739194853,0f17dcd1b8abc33b98deae0549816148,PennController,9,0,test_conc,NULL,PennController,20,_Trial_,Start,1739194444117,undefined,1243,sexist,abstract-negative,concrete,abstract,A,NULL
1739194853,0f17dcd1b8abc33b98deae0549816148,PennController,9,0,test_conc,NULL,PennController,20,_Header_,Start,1739194444117,undefined,1243,sexist,abstract-negative,concrete,abstract,A,NULL
1739194853,0f17dcd1b8abc33b98deae0549816148,PennController,9,0,test_conc,NULL,PennController,20,_Header_,End,1739194444371,undefined,1243,sexist,abstract-negative,concrete,abstract,A,NULL
1739194853,0f17dcd1b8abc33b98deae0549816148,PennController,9,0,test_conc,NULL,Selector,unnamed-Selector,Selection,concrete,1739194446118,undefined,1243,sexist,abstract-negative,concrete,abstract,A,concrete;abstract
1739194853,0f17dcd1b8abc33b98deae0549816148,PennController,9,0,test_conc,NULL,PennController,20,_Trial_,End,1739194446118,undefined,1243,sexist,abstract-negative,concrete,abstract,A,NULL
1739194853,0f17dcd1b8abc33b98deae0549816148,PennController,26,0,test_conc,NULL,PennController,37,_Trial_,Start,1739194446119,undefined,819,thankful,abstract-positive,concrete,abstract,A,NULL
1739194853,0f17dcd1b8abc33b98deae0549816148,PennController,26,0,test_conc,NULL,PennController,37,_Header_,Start,1739194446119,undefined,819,thankful,abstract-positive,concrete,abstract,A,NULL
1739194853,0f17dcd1b8abc33b98deae0549816148,PennController,26,0,test_conc,NULL,PennController,37,_Header_,End,1739194446370,undefined,819,thankful,abstract-positive,concrete,abstract,A,NULL
1739194853,0f17dcd1b8abc33b98deae0549816148,PennController,26,0,test_conc,NULL,Selector,unnamed-Selector,Selection,abstract,1739194447694,undefined,819,thankful,abstract-positive,concrete,abstract,A,concrete;abstract
1739194853,0f17dcd1b8abc33b98deae0549816148,PennController,26,0,test_conc,NULL,PennController,37,_Trial_,End,1739194447695,undefined,819,thankful,abstract-positive,concrete,abstract,A,NULL
1739194853,0f17dcd1b8abc33b98deae0549816148,PennController,5,0,test_conc,NULL,PennController,16,_Trial_,Start,1739194447695,undefined,1944,awful,abstract-negative,concrete,abstract,A,NULL
1739194853,0f17dcd1b8abc33b98deae0549816148,PennController,5,0,test_conc,NULL,PennController,16,_Header_,Start,1739194447695,undefined,1944,awful,abstract-negative,concrete,abstract,A,NULL
1739194853,0f17dcd1b8abc33b98deae0549816148,PennController,5,0,test_conc,NULL,PennController,16,_Header_,End,1739194447945,undefined,1944,awful,abstract-negative,concrete,abstract,A,NULL
1739194853,0f17dcd1b8abc33b98deae0549816148,PennController,5,0,test_conc,NULL,Selector,unnamed-Selector,Selection,concrete,1739194450393,undefined,1944,awful,abstract-negative,concrete,abstract,A,concrete;abstract
1739194853,0f17dcd1b8abc33b98deae0549816148,PennController,5,0,test_conc,NULL,PennController,16,_Trial_,End,1739194450393,undefined,1944,awful,abstract-negative,concrete,abstract,A,NULL
1739194853,0f17dcd1b8abc33b98deae0549816148,PennController,42,0,test_conc,NULL,PennController,53,_Trial_,Start,1739194450394,undefined,665,freezing,concrete-negative,concrete,abstract,A,NULL
1739194853,0f17dcd1b8abc33b98deae0549816148,PennController,42,0,test_conc,NULL,PennController,53,_Header_,Start,1739194450394,undefined,665,freezing,concrete-negative,concrete,abstract,A,NULL
1739194853,0f17dcd1b8abc33b98deae0549816148,PennController,42,0,test_conc,NULL,PennController,53,_Header_,End,1739194450645,undefined,665,freezing,concrete-negative,concrete,abstract,A,NULL
1739194853,0f17dcd1b8abc33b98deae0549816148,PennController,42,0,test_conc,NULL,Selector,unnamed-Selector,Selection,concrete,1739194451814,undefined,665,freezing,concrete-negative,concrete,abstract,A,concrete;abstract
1739194853,0f17dcd1b8abc33b98deae0549816148,PennController,42,0,test_conc,NULL,PennController,53,_Trial_,End,1739194451815,undefined,665,freezing,concrete-negative,concrete,abstract,A,NULL
1739194853,0f17dcd1b8abc33b98deae0549816148,PennController,33,0,test_conc,NULL,PennController,44,_Trial_,Start,1739194451815,undefined,653,divine,abstract-positive,concrete,abstract,A,NULL
1739194853,0f17dcd1b8abc33b98deae0549816148,PennController,33,0,test_conc,NULL,PennController,44,_Header_,Start,1739194451815,undefined,653,divine,abstract-positive,concrete,abstract,A,NULL
1739194853,0f17dcd1b8abc33b98deae0549816148,PennController,33,0,test_conc,NULL,PennController,44,_Header_,End,1739194452069,undefined,653,divine,abstract-positive,concrete,abstract,A,NULL
1739194853,0f17dcd1b8abc33b98deae0549816148,PennController,33,0,test_conc,NULL,Selector,unnamed-Selector,Selection,concrete,1739194453227,undefined,653,divine,abstract-positive,concrete,abstract,A,concrete;abstract
1739194853,0f17dcd1b8abc33b98deae0549816148,PennController,33,0,test_conc,NULL,PennController,44,_Trial_,End,1739194453228,undefined,653,divine,abstract-positive,concrete,abstract,A,NULL
1739194853,0f17dcd1b8abc33b98deae0549816148,PennController,40,0,test_conc,NULL,PennController,51,_Trial_,Start,1739194453228,undefined,679,dirty,concrete-negative,concrete,abstract,A,NULL
1739194853,0f17dcd1b8abc33b98deae0549816148,PennController,40,0,test_conc,NULL,PennController,51,_Header_,Start,1739194453228,undefined,679,dirty,concrete-negative,concrete,abstract,A,NULL
1739194853,0f17dcd1b8abc33b98deae0549816148,PennController,40,0,test_conc,NULL,PennController,51,_Header_,End,1739194453480,undefined,679,dirty,concrete-negative,concrete,abstract,A,NULL
1739194853,0f17dcd1b8abc33b98deae0549816148,PennController,40,0,test_conc,NULL,Selector,unnamed-Selector,Selection,concrete,1739194454659,undefined,679,dirty,concrete-negative,concrete,abstract,A,concrete;abstract
1739194853,0f17dcd1b8abc33b98deae0549816148,PennController,40,0,test_conc,NULL,PennController,51,_Trial_,End,1739194454660,undefined,679,dirty,concrete-negative,concrete,abstract,A,NULL
1739194853,0f17dcd1b8abc33b98deae0549816148,PennController,25,0,test_conc,NULL,PennController,36,_Trial_,Start,1739194454660,undefined,478,lovable,abstract-positive,concrete,abstract,A,NULL
1739194853,0f17dcd1b8abc33b98deae0549816148,PennController,25,0,test_conc,NULL,PennController,36,_Header_,Start,1739194454660,undefined,478,lovable,abstract-positive,concrete,abstract,A,NULL
1739194853,0f17dcd1b8abc33b98deae0549816148,PennController,25,0,test_conc,NULL,PennController,36,_Header_,End,1739194454914,undefined,478,lovable,abstract-positive,concrete,abstract,A,NULL
1739194853,0f17dcd1b8abc33b98deae0549816148,PennController,25,0,test_conc,NULL,Selector,unnamed-Selector,Selection,abstract,1739194455893,undefined,478,lovable,abstract-positive,concrete,abstract,A,concrete;abstract
1739194853,0f17dcd1b8abc33b98deae0549816148,PennController,25,0,test_conc,NULL,PennController,36,_Trial_,End,1739194455893,undefined,478,lovable,abstract-positive,concrete,abstract,A,NULL
1739194853,0f17dcd1b8abc33b98deae0549816148,PennController,15,0,test_conc,NULL,PennController,26,_Trial_,Start,1739194455894,undefined,547,lilac,concrete-positive,concrete,abstract,A,NULL
1739194853,0f17dcd1b8abc33b98deae0549816148,PennController,15,0,test_conc,NULL,PennController,26,_Header_,Start,1739194455894,undefined,547,lilac,concrete-positive,concrete,abstract,A,NULL
1739194853,0f17dcd1b8abc33b98deae0549816148,PennController,15,0,test_conc,NULL,PennController,26,_Header_,End,1739194456146,undefined,547,lilac,concrete-positive,concrete,abstract,A,NULL
1739194853,0f17dcd1b8abc33b98deae0549816148,PennController,15,0,test_conc,NULL,Selector,unnamed-Selector,Selection,concrete,1739194457194,undefined,547,lilac,concrete-positive,concrete,abstract,A,concrete;abstract
1739194853,0f17dcd1b8abc33b98deae0549816148,PennController,15,0,test_conc,NULL,PennController,26,_Trial_,End,1739194457195,undefined,547,lilac,concrete-positive,concrete,abstract,A,NULL
1739194853,0f17dcd1b8abc33b98deae0549816148,PennController,18,0,test_conc,NULL,PennController,29,_Trial_,Start,1739194457195,undefined,642,newborn,concrete-positive,concrete,abstract,A,NULL
1739194853,0f17dcd1b8abc33b98deae0549816148,PennController,18,0,test_conc,NULL,PennController,29,_Header_,Start,1739194457195,undefined,642,newborn,concrete-positive,concrete,abstract,A,NULL
1739194853,0f17dcd1b8abc33b98deae0549816148,PennController,18,0,test_conc,NULL,PennController,29,_Header_,End,1739194457447,undefined,642,newborn,concrete-positive,concrete,abstract,A,NULL
1739194853,0f17dcd1b8abc33b98deae0549816148,PennController,18,0,test_conc,NULL,Selector,unnamed-Selector,Selection,concrete,1739194458592,undefined,642,newborn,concrete-positive,concrete,abstract,A,concrete;abstract
1739194853,0f17dcd1b8abc33b98deae0549816148,PennController,18,0,test_conc,NULL,PennController,29,_Trial_,End,1739194458593,undefined,642,newborn,concrete-positive,concrete,abstract,A,NULL
1739194853,0f17dcd1b8abc33b98deae0549816148,PennController,41,0,test_conc,NULL,PennController,52,_Trial_,Start,1739194458593,undefined,692,wrinkled,concrete-negative,concrete,abstract,A,NULL
1739194853,0f17dcd1b8abc33b98deae0549816148,PennController,41,0,test_conc,NULL,PennController,52,_Header_,Start,1739194458593,undefined,692,wrinkled,concrete-negative,concrete,abstract,A,NULL
1739194853,0f17dcd1b8abc33b98deae0549816148,PennController,41,0,test_conc,NULL,PennController,52,_Header_,End,1739194458845,undefined,692,wrinkled,concrete-negative,concrete,abstract,A,NULL
1739194853,0f17dcd1b8abc33b98deae0549816148,PennController,41,0,test_conc,NULL,Selector,unnamed-Selector,Selection,concrete,1739194460039,undefined,692,wrinkled,concrete-negative,concrete,abstract,A,concrete;abstract
1739194853,0f17dcd1b8abc33b98deae0549816148,PennController,41,0,test_conc,NULL,PennController,52,_Trial_,End,1739194460040,undefined,692,wrinkled,concrete-negative,concrete,abstract,A,NULL
1739194853,0f17dcd1b8abc33b98deae0549816148,PennController,8,0,test_conc,NULL,PennController,19,_Trial_,Start,1739194460040,undefined,667,heartless,abstract-negative,concrete,abstract,A,NULL
1739194853,0f17dcd1b8abc33b98deae0549816148,PennController,8,0,test_conc,NULL,PennController,19,_Header_,Start,1739194460040,undefined,667,heartless,abstract-negative,concrete,abstract,A,NULL
1739194853,0f17dcd1b8abc33b98deae0549816148,PennController,8,0,test_conc,NULL,PennController,19,_Header_,End,1739194460295,undefined,667,heartless,abstract-negative,concrete,abstract,A,NULL
1739194853,0f17dcd1b8abc33b98deae0549816148,PennController,8,0,test_conc,NULL,Selector,unnamed-Selector,Selection,abstract,1739194461463,undefined,667,heartless,abstract-negative,concrete,abstract,A,concrete;abstract
1739194853,0f17dcd1b8abc33b98deae0549816148,PennController,8,0,test_conc,NULL,PennController,19,_Trial_,End,1739194461464,undefined,667,heartless,abstract-negative,concrete,abstract,A,NULL
1739194853,0f17dcd1b8abc33b98deae0549816148,PennController,40,0,test_conc,NULL,PennController,51,_Trial_,Start,1739194461464,undefined,631,dirty,concrete-negative,concrete,abstract,A,NULL
1739194853,0f17dcd1b8abc33b98deae0549816148,PennController,40,0,test_conc,NULL,PennController,51,_Header_,Start,1739194461464,undefined,631,dirty,concrete-negative,concrete,abstract,A,NULL
1739194853,0f17dcd1b8abc33b98deae0549816148,PennController,40,0,test_conc,NULL,PennController,51,_Header_,End,1739194461714,undefined,631,dirty,concrete-negative,concrete,abstract,A,NULL
1739194853,0f17dcd1b8abc33b98deae0549816148,PennController,40,0,test_conc,NULL,Selector,unnamed-Selector,Selection,concrete,1739194462850,undefined,631,dirty,concrete-negative,concrete,abstract,A,concrete;abstract
1739194853,0f17dcd1b8abc33b98deae0549816148,PennController,40,0,test_conc,NULL,PennController,51,_Trial_,End,1739194462851,undefined,631,dirty,concrete-negative,concrete,abstract,A,NULL
1739194853,0f17dcd1b8abc33b98deae0549816148,PennController,4,0,test_conc,NULL,PennController,15,_Trial_,Start,1739194462851,undefined,1108,worthless,abstract-negative,concrete,abstract,A,NULL
1739194853,0f17dcd1b8abc33b98deae0549816148,PennController,4,0,test_conc,NULL,PennController,15,_Header_,Start,1739194462851,undefined,1108,worthless,abstract-negative,concrete,abstract,A,NULL
1739194853,0f17dcd1b8abc33b98deae0549816148,PennController,4,0,test_conc,NULL,PennController,15,_Header_,End,1739194463104,undefined,1108,worthless,abstract-negative,concrete,abstract,A,NULL
1739194853,0f17dcd1b8abc33b98deae0549816148,PennController,4,0,test_conc,NULL,Selector,unnamed-Selector,Selection,concrete,1739194464714,undefined,1108,worthless,abstract-negative,concrete,abstract,A,concrete;abstract
1739194853,0f17dcd1b8abc33b98deae0549816148,PennController,4,0,test_conc,NULL,PennController,15,_Trial_,End,1739194464714,undefined,1108,worthless,abstract-negative,concrete,abstract,A,NULL
1739194853,0f17dcd1b8abc33b98deae0549816148,PennController,16,0,test_conc,NULL,PennController,27,_Trial_,Start,1739194464715,undefined,689,human,concrete-positive,concrete,abstract,A,NULL
1739194853,0f17dcd1b8abc33b98deae0549816148,PennController,16,0,test_conc,NULL,PennController,27,_Header_,Start,1739194464715,undefined,689,human,concrete-positive,concrete,abstract,A,NULL
1739194853,0f17dcd1b8abc33b98deae0549816148,PennController,16,0,test_conc,NULL,PennController,27,_Header_,End,1739194464968,undefined,689,human,concrete-positive,concrete,abstract,A,NULL
1739194853,0f17dcd1b8abc33b98deae0549816148,PennController,16,0,test_conc,NULL,Selector,unnamed-Selector,Selection,concrete,1739194466158,undefined,689,human,concrete-positive,concrete,abstract,A,concrete;abstract
1739194853,0f17dcd1b8abc33b98deae0549816148,PennController,16,0,test_conc,NULL,PennController,27,_Trial_,End,1739194466159,undefined,689,human,concrete-positive,concrete,abstract,A,NULL
1739194853,0f17dcd1b8abc33b98deae0549816148,PennController,28,0,test_conc,NULL,PennController,39,_Trial_,Start,1739194466160,undefined,1067,possible,abstract-positive,concrete,abstract,A,NULL
1739194853,0f17dcd1b8abc33b98deae0549816148,PennController,28,0,test_conc,NULL,PennController,39,_Header_,Start,1739194466160,undefined,1067,possible,abstract-positive,concrete,abstract,A,NULL
1739194853,0f17dcd1b8abc33b98deae0549816148,PennController,28,0,test_conc,NULL,PennController,39,_Header_,End,1739194466414,undefined,1067,possible,abstract-positive,concrete,abstract,A,NULL
1739194853,0f17dcd1b8abc33b98deae0549816148,PennController,28,0,test_conc,NULL,Selector,unnamed-Selector,Selection,abstract,1739194467982,undefined,1067,possible,abstract-positive,concrete,abstract,A,concrete;abstract
1739194853,0f17dcd1b8abc33b98deae0549816148,PennController,28,0,test_conc,NULL,PennController,39,_Trial_,End,1739194467983,undefined,1067,possible,abstract-positive,concrete,abstract,A,NULL
1739194853,0f17dcd1b8abc33b98deae0549816148,PennController,5,0,test_conc,NULL,PennController,16,_Trial_,Start,1739194467984,undefined,810,awful,abstract-negative,concrete,abstract,A,NULL
1739194853,0f17dcd1b8abc33b98deae0549816148,PennController,5,0,test_conc,NULL,PennController,16,_Header_,Start,1739194467984,undefined,810,awful,abstract-negative,concrete,abstract,A,NULL
1739194853,0f17dcd1b8abc33b98deae0549816148,PennController,5,0,test_conc,NULL,PennController,16,_Header_,End,1739194468235,undefined,810,awful,abstract-negative,concrete,abstract,A,NULL
1739194853,0f17dcd1b8abc33b98deae0549816148,PennController,5,0,test_conc,NULL,Selector,unnamed-Selector,Selection,abstract,1739194469549,undefined,810,awful,abstract-negative,concrete,abstract,A,concrete;abstract
1739194853,0f17dcd1b8abc33b98deae0549816148,PennController,5,0,test_conc,NULL,PennController,16,_Trial_,End,1739194469550,undefined,810,awful,abstract-negative,concrete,abstract,A,NULL
1739194853,0f17dcd1b8abc33b98deae0549816148,PennController,39,0,test_conc,NULL,PennController,50,_Trial_,Start,1739194469550,undefined,509,hairy,concrete-negative,concrete,abstract,A,NULL
1739194853,0f17dcd1b8abc33b98deae0549816148,PennController,39,0,test_conc,NULL,PennController,50,_Header_,Start,1739194469550,undefined,509,hairy,concrete-negative,concrete,abstract,A,NULL
1739194853,0f17dcd1b8abc33b98deae0549816148,PennController,39,0,test_conc,NULL,PennController,50,_Header_,End,1739194469802,undefined,509,hairy,concrete-negative,concrete,abstract,A,NULL
1739194853,0f17dcd1b8abc33b98deae0549816148,PennController,39,0,test_conc,NULL,Selector,unnamed-Selector,Selection,concrete,1739194470816,undefined,509,hairy,concrete-negative,concrete,abstract,A,concrete;abstract
1739194853,0f17dcd1b8abc33b98deae0549816148,PennController,39,0,test_conc,NULL,PennController,50,_Trial_,End,1739194470816,undefined,509,hairy,concrete-negative,concrete,abstract,A,NULL
1739194853,0f17dcd1b8abc33b98deae0549816148,PennController,23,0,test_conc,NULL,PennController,34,_Trial_,Start,1739194470817,undefined,818,handmade,concrete-positive,concrete,abstract,A,NULL
1739194853,0f17dcd1b8abc33b98deae0549816148,PennController,23,0,test_conc,NULL,PennController,34,_Header_,Start,1739194470817,undefined,818,handmade,concrete-positive,concrete,abstract,A,NULL
1739194853,0f17dcd1b8abc33b98deae0549816148,PennController,23,0,test_conc,NULL,PennController,34,_Header_,End,1739194471071,undefined,818,handmade,concrete-positive,concrete,abstract,A,NULL
1739194853,0f17dcd1b8abc33b98deae0549816148,PennController,23,0,test_conc,NULL,Selector,unnamed-Selector,Selection,concrete,1739194472392,undefined,818,handmade,concrete-positive,concrete,abstract,A,concrete;abstract
1739194853,0f17dcd1b8abc33b98deae0549816148,PennController,23,0,test_conc,NULL,PennController,34,_Trial_,End,1739194472392,undefined,818,handmade,concrete-positive,concrete,abstract,A,NULL
1739194853,0f17dcd1b8abc33b98deae0549816148,PennController,25,0,test_conc,NULL,PennController,36,_Trial_,Start,1739194472393,undefined,1095,lovable,abstract-positive,concrete,abstract,A,NULL
1739194853,0f17dcd1b8abc33b98deae0549816148,PennController,25,0,test_conc,NULL,PennController,36,_Header_,Start,1739194472393,undefined,1095,lovable,abstract-positive,concrete,abstract,A,NULL
1739194853,0f17dcd1b8abc33b98deae0549816148,PennController,25,0,test_conc,NULL,PennController,36,_Header_,End,1739194472643,undefined,1095,lovable,abstract-positive,concrete,abstract,A,NULL
1739194853,0f17dcd1b8abc33b98deae0549816148,PennController,25,0,test_conc,NULL,Selector,unnamed-Selector,Selection,concrete,1739194474241,undefined,1095,lovable,abstract-positive,concrete,abstract,A,concrete;abstract
1739194853,0f17dcd1b8abc33b98deae0549816148,PennController,25,0,test_conc,NULL,PennController,36,_Trial_,End,1739194474242,undefined,1095,lovable,abstract-positive,concrete,abstract,A,NULL
1739194853,0f17dcd1b8abc33b98deae0549816148,PennController,37,0,test_conc,NULL,PennController,48,_Trial_,Start,1739194474243,undefined,730,rusted,concrete-negative,concrete,abstract,A,NULL
1739194853,0f17dcd1b8abc33b98deae0549816148,PennController,37,0,test_conc,NULL,PennController,48,_Header_,Start,1739194474243,undefined,730,rusted,concrete-negative,concrete,abstract,A,NULL
1739194853,0f17dcd1b8abc33b98deae0549816148,PennController,37,0,test_conc,NULL,PennController,48,_Header_,End,1739194474494,undefined,730,rusted,concrete-negative,concrete,abstract,A,NULL
1739194853,0f17dcd1b8abc33b98deae0549816148,PennController,37,0,test_conc,NULL,Selector,unnamed-Selector,Selection,concrete,1739194475729,undefined,730,rusted,concrete-negative,concrete,abstract,A,concrete;abstract
1739194853,0f17dcd1b8abc33b98deae0549816148,PennController,37,0,test_conc,NULL,PennController,48,_Trial_,End,1739194475730,undefined,730,rusted,concrete-negative,concrete,abstract,A,NULL
1739194853,0f17dcd1b8abc33b98deae0549816148,PennController,26,0,test_conc,NULL,PennController,37,_Trial_,Start,1739194475730,undefined,872,thankful,abstract-positive,concrete,abstract,A,NULL
1739194853,0f17dcd1b8abc33b98deae0549816148,PennController,26,0,test_conc,NULL,PennController,37,_Header_,Start,1739194475730,undefined,872,thankful,abstract-positive,concrete,abstract,A,NULL
1739194853,0f17dcd1b8abc33b98deae0549816148,PennController,26,0,test_conc,NULL,PennController,37,_Header_,End,1739194475982,undefined,872,thankful,abstract-positive,concrete,abstract,A,NULL
1739194853,0f17dcd1b8abc33b98deae0549816148,PennController,26,0,test_conc,NULL,Selector,unnamed-Selector,Selection,concrete,1739194477356,undefined,872,thankful,abstract-positive,concrete,abstract,A,concrete;abstract
1739194853,0f17dcd1b8abc33b98deae0549816148,PennController,26,0,test_conc,NULL,PennController,37,_Trial_,End,1739194477357,undefined,872,thankful,abstract-positive,concrete,abstract,A,NULL
1739194853,0f17dcd1b8abc33b98deae0549816148,PennController,34,0,test_conc,NULL,PennController,45,_Trial_,Start,1739194477357,undefined,577,toothless,concrete-negative,concrete,abstract,A,NULL
1739194853,0f17dcd1b8abc33b98deae0549816148,PennController,34,0,test_conc,NULL,PennController,45,_Header_,Start,1739194477357,undefined,577,toothless,concrete-negative,concrete,abstract,A,NULL
1739194853,0f17dcd1b8abc33b98deae0549816148,PennController,34,0,test_conc,NULL,PennController,45,_Header_,End,1739194477607,undefined,577,toothless,concrete-negative,concrete,abstract,A,NULL
1739194853,0f17dcd1b8abc33b98deae0549816148,PennController,34,0,test_conc,NULL,Selector,unnamed-Selector,Selection,concrete,1739194478690,undefined,577,toothless,concrete-negative,concrete,abstract,A,concrete;abstract
1739194853,0f17dcd1b8abc33b98deae0549816148,PennController,34,0,test_conc,NULL,PennController,45,_Trial_,End,1739194478690,undefined,577,toothless,concrete-negative,concrete,abstract,A,NULL
1739194853,0f17dcd1b8abc33b98deae0549816148,PennController,33,0,test_conc,NULL,PennController,44,_Trial_,Start,1739194478691,undefined,1176,divine,abstract-positive,concrete,abstract,A,NULL
1739194853,0f17dcd1b8abc33b98deae0549816148,PennController,33,0,test_conc,NULL,PennController,44,_Header_,Start,1739194478691,undefined,1176,divine,abstract-positive,concrete,abstract,A,NULL
1739194853,0f17dcd1b8abc33b98deae0549816148,PennController,33,0,test_conc,NULL,PennController,44,_Header_,End,1739194478944,undefined,1176,divine,abstract-positive,concrete,abstract,A,NULL
1739194853,0f17dcd1b8abc33b98deae0549816148,PennController,33,0,test_conc,NULL,Selector,unnamed-Selector,Selection,abstract,1739194480621,undefined,1176,divine,abstract-positive,concrete,abstract,A,concrete;abstract
1739194853,0f17dcd1b8abc33b98deae0549816148,PennController,33,0,test_conc,NULL,PennController,44,_Trial_,End,1739194480622,undefined,1176,divine,abstract-positive,concrete,abstract,A,NULL
1739194853,0f17dcd1b8abc33b98deae0549816148,PennController,10,0,test_conc,NULL,PennController,21,_Trial_,Start,1739194480622,undefined,1537,crappy,abstract-negative,concrete,abstract,A,NULL
1739194853,0f17dcd1b8abc33b98deae0549816148,PennController,10,0,test_conc,NULL,PennController,21,_Header_,Start,1739194480622,undefined,1537,crappy,abstract-negative,concrete,abstract,A,NULL
1739194853,0f17dcd1b8abc33b98deae0549816148,PennController,10,0,test_conc,NULL,PennController,21,_Header_,End,1739194480874,undefined,1537,crappy,abstract-negative,concrete,abstract,A,NULL
1739194853,0f17dcd1b8abc33b98deae0549816148,PennController,10,0,test_conc,NULL,Selector,unnamed-Selector,Selection,concrete,1739194482914,undefined,1537,crappy,abstract-negative,concrete,abstract,A,concrete;abstract
1739194853,0f17dcd1b8abc33b98deae0549816148,PennController,10,0,test_conc,NULL,PennController,21,_Trial_,End,1739194482915,undefined,1537,crappy,abstract-negative,concrete,abstract,A,NULL
1739194853,0f17dcd1b8abc33b98deae0549816148,PennController,6,0,test_conc,NULL,PennController,17,_Trial_,Start,1739194482915,undefined,848,evil,abstract-negative,concrete,abstract,A,NULL
1739194853,0f17dcd1b8abc33b98deae0549816148,PennController,6,0,test_conc,NULL,PennController,17,_Header_,Start,1739194482915,undefined,848,evil,abstract-negative,concrete,abstract,A,NULL
1739194853,0f17dcd1b8abc33b98deae0549816148,PennController,6,0,test_conc,NULL,PennController,17,_Header_,End,1739194483165,undefined,848,evil,abstract-negative,concrete,abstract,A,NULL
1739194853,0f17dcd1b8abc33b98deae0549816148,PennController,6,0,test_conc,NULL,Selector,unnamed-Selector,Selection,abstract,1739194484517,undefined,848,evil,abstract-negative,concrete,abstract,A,concrete;abstract
1739194853,0f17dcd1b8abc33b98deae0549816148,PennController,6,0,test_conc,NULL,PennController,17,_Trial_,End,1739194484517,undefined,848,evil,abstract-negative,concrete,abstract,A,NULL
1739194853,0f17dcd1b8abc33b98deae0549816148,PennController,21,0,test_conc,NULL,PennController,32,_Trial_,Start,1739194484518,undefined,864,starry,concrete-positive,concrete,abstract,A,NULL
1739194853,0f17dcd1b8abc33b98deae0549816148,PennController,21,0,test_conc,NULL,PennController,32,_Header_,Start,1739194484518,undefined,864,starry,concrete-positive,concrete,abstract,A,NULL
1739194853,0f17dcd1b8abc33b98deae0549816148,PennController,21,0,test_conc,NULL,PennController,32,_Header_,End,1739194484771,undefined,864,starry,concrete-positive,concrete,abstract,A,NULL
1739194853,0f17dcd1b8abc33b98deae0549816148,PennController,21,0,test_conc,NULL,Selector,unnamed-Selector,Selection,concrete,1739194486139,undefined,864,starry,concrete-positive,concrete,abstract,A,concrete;abstract
1739194853,0f17dcd1b8abc33b98deae0549816148,PennController,21,0,test_conc,NULL,PennController,32,_Trial_,End,1739194486140,undefined,864,starry,concrete-positive,concrete,abstract,A,NULL
1739194853,0f17dcd1b8abc33b98deae0549816148,PennController,11,0,test_conc,NULL,PennController,22,_Trial_,Start,1739194486140,undefined,1344,stupid,abstract-negative,concrete,abstract,A,NULL
1739194853,0f17dcd1b8abc33b98deae0549816148,PennController,11,0,test_conc,NULL,PennController,22,_Header_,Start,1739194486140,undefined,1344,stupid,abstract-negative,concrete,abstract,A,NULL
1739194853,0f17dcd1b8abc33b98deae0549816148,PennController,11,0,test_conc,NULL,PennController,22,_Header_,End,1739194486393,undefined,1344,stupid,abstract-negative,concrete,abstract,A,NULL
1739194853,0f17dcd1b8abc33b98deae0549816148,PennController,11,0,test_conc,NULL,Selector,unnamed-Selector,Selection,concrete,1739194488239,undefined,1344,stupid,abstract-negative,concrete,abstract,A,concrete;abstract
1739194853,0f17dcd1b8abc33b98deae0549816148,PennController,11,0,test_conc,NULL,PennController,22,_Trial_,End,1739194488240,undefined,1344,stupid,abstract-negative,concrete,abstract,A,NULL
1739194853,0f17dcd1b8abc33b98deae0549816148,PennController,27,0,test_conc,NULL,PennController,38,_Trial_,Start,1739194488241,undefined,1049,splendid,abstract-positive,concrete,abstract,A,NULL
1739194853,0f17dcd1b8abc33b98deae0549816148,PennController,27,0,test_conc,NULL,PennController,38,_Header_,Start,1739194488241,undefined,1049,splendid,abstract-positive,concrete,abstract,A,NULL
1739194853,0f17dcd1b8abc33b98deae0549816148,PennController,27,0,test_conc,NULL,PennController,38,_Header_,End,1739194488493,undefined,1049,splendid,abstract-positive,concrete,abstract,A,NULL
1739194853,0f17dcd1b8abc33b98deae0549816148,PennController,27,0,test_conc,NULL,Selector,unnamed-Selector,Selection,abstract,1739194490044,undefined,1049,splendid,abstract-positive,concrete,abstract,A,concrete;abstract
1739194853,0f17dcd1b8abc33b98deae0549816148,PennController,27,0,test_conc,NULL,PennController,38,_Trial_,End,1739194490044,undefined,1049,splendid,abstract-positive,concrete,abstract,A,NULL
1739194853,0f17dcd1b8abc33b98deae0549816148,PennController,36,0,test_conc,NULL,PennController,47,_Trial_,Start,1739194490045,undefined,526,bloodshot,concrete-negative,concrete,abstract,A,NULL
1739194853,0f17dcd1b8abc33b98deae0549816148,PennController,36,0,test_conc,NULL,PennController,47,_Header_,Start,1739194490045,undefined,526,bloodshot,concrete-negative,concrete,abstract,A,NULL
1739194853,0f17dcd1b8abc33b98deae0549816148,PennController,36,0,test_conc,NULL,PennController,47,_Header_,End,1739194490298,undefined,526,bloodshot,concrete-negative,concrete,abstract,A,NULL
1739194853,0f17dcd1b8abc33b98deae0549816148,PennController,36,0,test_conc,NULL,Selector,unnamed-Selector,Selection,concrete,1739194491327,undefined,526,bloodshot,concrete-negative,concrete,abstract,A,concrete;abstract
1739194853,0f17dcd1b8abc33b98deae0549816148,PennController,36,0,test_conc,NULL,PennController,47,_Trial_,End,1739194491327,undefined,526,bloodshot,concrete-negative,concrete,abstract,A,NULL
1739194853,0f17dcd1b8abc33b98deae0549816148,PennController,19,0,test_conc,NULL,PennController,30,_Trial_,Start,1739194491328,undefined,631,blooming,concrete-positive,concrete,abstract,A,NULL
1739194853,0f17dcd1b8abc33b98deae0549816148,PennController,19,0,test_conc,NULL,PennController,30,_Header_,Start,1739194491328,undefined,631,blooming,concrete-positive,concrete,abstract,A,NULL
1739194853,0f17dcd1b8abc33b98deae0549816148,PennController,19,0,test_conc,NULL,PennController,30,_Header_,End,1739194491579,undefined,631,blooming,concrete-positive,concrete,abstract,A,NULL
1739194853,0f17dcd1b8abc33b98deae0549816148,PennController,19,0,test_conc,NULL,Selector,unnamed-Selector,Selection,concrete,1739194492715,undefined,631,blooming,concrete-positive,concrete,abstract,A,concrete;abstract
1739194853,0f17dcd1b8abc33b98deae0549816148,PennController,19,0,test_conc,NULL,PennController,30,_Trial_,End,1739194492715,undefined,631,blooming,concrete-positive,concrete,abstract,A,NULL
1739194853,0f17dcd1b8abc33b98deae0549816148,PennController,12,0,test_conc,NULL,PennController,23,_Trial_,Start,1739194492716,undefined,677,sinful,abstract-negative,concrete,abstract,A,NULL
1739194853,0f17dcd1b8abc33b98deae0549816148,PennController,12,0,test_conc,NULL,PennController,23,_Header_,Start,1739194492716,undefined,677,sinful,abstract-negative,concrete,abstract,A,NULL
1739194853,0f17dcd1b8abc33b98deae0549816148,PennController,12,0,test_conc,NULL,PennController,23,_Header_,End,1739194492970,undefined,677,sinful,abstract-negative,concrete,abstract,A,NULL
1739194853,0f17dcd1b8abc33b98deae0549816148,PennController,12,0,test_conc,NULL,Selector,unnamed-Selector,Selection,abstract,1739194494148,undefined,677,sinful,abstract-negative,concrete,abstract,A,concrete;abstract
1739194853,0f17dcd1b8abc33b98deae0549816148,PennController,12,0,test_conc,NULL,PennController,23,_Trial_,End,1739194494149,undefined,677,sinful,abstract-negative,concrete,abstract,A,NULL
1739194853,0f17dcd1b8abc33b98deae0549816148,PennController,32,0,test_conc,NULL,PennController,43,_Trial_,Start,1739194494150,undefined,672,helpful,abstract-positive,concrete,abstract,A,NULL
1739194853,0f17dcd1b8abc33b98deae0549816148,PennController,32,0,test_conc,NULL,PennController,43,_Header_,Start,1739194494150,undefined,672,helpful,abstract-positive,concrete,abstract,A,NULL
1739194853,0f17dcd1b8abc33b98deae0549816148,PennController,32,0,test_conc,NULL,PennController,43,_Header_,End,1739194494403,undefined,672,helpful,abstract-positive,concrete,abstract,A,NULL
1739194853,0f17dcd1b8abc33b98deae0549816148,PennController,32,0,test_conc,NULL,Selector,unnamed-Selector,Selection,abstract,1739194495577,undefined,672,helpful,abstract-positive,concrete,abstract,A,concrete;abstract
1739194853,0f17dcd1b8abc33b98deae0549816148,PennController,32,0,test_conc,NULL,PennController,43,_Trial_,End,1739194495577,undefined,672,helpful,abstract-positive,concrete,abstract,A,NULL
1739194853,0f17dcd1b8abc33b98deae0549816148,PennController,43,0,test_conc,NULL,PennController,54,_Trial_,Start,1739194495578,undefined,658,bloody,concrete-negative,concrete,abstract,A,NULL
1739194853,0f17dcd1b8abc33b98deae0549816148,PennController,43,0,test_conc,NULL,PennController,54,_Header_,Start,1739194495578,undefined,658,bloody,concrete-negative,concrete,abstract,A,NULL
1739194853,0f17dcd1b8abc33b98deae0549816148,PennController,43,0,test_conc,NULL,PennController,54,_Header_,End,1739194495828,undefined,658,bloody,concrete-negative,concrete,abstract,A,NULL
1739194853,0f17dcd1b8abc33b98deae0549816148,PennController,43,0,test_conc,NULL,Selector,unnamed-Selector,Selection,concrete,1739194496989,undefined,658,bloody,concrete-negative,concrete,abstract,A,concrete;abstract
1739194853,0f17dcd1b8abc33b98deae0549816148,PennController,43,0,test_conc,NULL,PennController,54,_Trial_,End,1739194496990,undefined,658,bloody,concrete-negative,concrete,abstract,A,NULL
1739194853,0f17dcd1b8abc33b98deae0549816148,PennController,17,0,test_conc,NULL,PennController,28,_Trial_,Start,1739194496990,undefined,555,female,concrete-positive,concrete,abstract,A,NULL
1739194853,0f17dcd1b8abc33b98deae0549816148,PennController,17,0,test_conc,NULL,PennController,28,_Header_,Start,1739194496990,undefined,555,female,concrete-positive,concrete,abstract,A,NULL
1739194853,0f17dcd1b8abc33b98deae0549816148,PennController,17,0,test_conc,NULL,PennController,28,_Header_,End,1739194497242,undefined,555,female,concrete-positive,concrete,abstract,A,NULL
1739194853,0f17dcd1b8abc33b98deae0549816148,PennController,17,0,test_conc,NULL,Selector,unnamed-Selector,Selection,concrete,1739194498299,undefined,555,female,concrete-positive,concrete,abstract,A,concrete;abstract
1739194853,0f17dcd1b8abc33b98deae0549816148,PennController,17,0,test_conc,NULL,PennController,28,_Trial_,End,1739194498300,undefined,555,female,concrete-positive,concrete,abstract,A,NULL
1739194853,0f17dcd1b8abc33b98deae0549816148,PennController,9,0,test_conc,NULL,PennController,20,_Trial_,Start,1739194498300,undefined,1100,sexist,abstract-negative,concrete,abstract,A,NULL
1739194853,0f17dcd1b8abc33b98deae0549816148,PennController,9,0,test_conc,NULL,PennController,20,_Header_,Start,1739194498300,undefined,1100,sexist,abstract-negative,concrete,abstract,A,NULL
1739194853,0f17dcd1b8abc33b98deae0549816148,PennController,9,0,test_conc,NULL,PennController,20,_Header_,End,1739194498550,undefined,1100,sexist,abstract-negative,concrete,abstract,A,NULL
1739194853,0f17dcd1b8abc33b98deae0549816148,PennController,9,0,test_conc,NULL,Selector,unnamed-Selector,Selection,concrete,1739194500154,undefined,1100,sexist,abstract-negative,concrete,abstract,A,concrete;abstract
1739194853,0f17dcd1b8abc33b98deae0549816148,PennController,9,0,test_conc,NULL,PennController,20,_Trial_,End,1739194500155,undefined,1100,sexist,abstract-negative,concrete,abstract,A,NULL
1739194853,0f17dcd1b8abc33b98deae0549816148,PennController,7,0,test_conc,NULL,PennController,18,_Trial_,Start,1739194500156,undefined,536,soulless,abstract-negative,concrete,abstract,A,NULL
1739194853,0f17dcd1b8abc33b98deae0549816148,PennController,7,0,test_conc,NULL,PennController,18,_Header_,Start,1739194500156,undefined,536,soulless,abstract-negative,concrete,abstract,A,NULL
1739194853,0f17dcd1b8abc33b98deae0549816148,PennController,7,0,test_conc,NULL,PennController,18,_Header_,End,1739194500408,undefined,536,soulless,abstract-negative,concrete,abstract,A,NULL
1739194853,0f17dcd1b8abc33b98deae0549816148,PennController,7,0,test_conc,NULL,Selector,unnamed-Selector,Selection,abstract,1739194501449,undefined,536,soulless,abstract-negative,concrete,abstract,A,concrete;abstract
1739194853,0f17dcd1b8abc33b98deae0549816148,PennController,7,0,test_conc,NULL,PennController,18,_Trial_,End,1739194501450,undefined,536,soulless,abstract-negative,concrete,abstract,A,NULL
1739194853,0f17dcd1b8abc33b98deae0549816148,PennController,24,0,test_conc,NULL,PennController,35,_Trial_,Start,1739194501451,undefined,1414,honest,abstract-positive,concrete,abstract,A,NULL
1739194853,0f17dcd1b8abc33b98deae0549816148,PennController,24,0,test_conc,NULL,PennController,35,_Header_,Start,1739194501451,undefined,1414,honest,abstract-positive,concrete,abstract,A,NULL
1739194853,0f17dcd1b8abc33b98deae0549816148,PennController,24,0,test_conc,NULL,PennController,35,_Header_,End,1739194501704,undefined,1414,honest,abstract-positive,concrete,abstract,A,NULL
1739194853,0f17dcd1b8abc33b98deae0549816148,PennController,24,0,test_conc,NULL,Selector,unnamed-Selector,Selection,abstract,1739194503623,undefined,1414,honest,abstract-positive,concrete,abstract,A,concrete;abstract
1739194853,0f17dcd1b8abc33b98deae0549816148,PennController,24,0,test_conc,NULL,PennController,35,_Trial_,End,1739194503624,undefined,1414,honest,abstract-positive,concrete,abstract,A,NULL
1739194853,0f17dcd1b8abc33b98deae0549816148,PennController,30,0,test_conc,NULL,PennController,41,_Trial_,Start,1739194503625,undefined,686,mindful,abstract-positive,concrete,abstract,A,NULL
1739194853,0f17dcd1b8abc33b98deae0549816148,PennController,30,0,test_conc,NULL,PennController,41,_Header_,Start,1739194503625,undefined,686,mindful,abstract-positive,concrete,abstract,A,NULL
1739194853,0f17dcd1b8abc33b98deae0549816148,PennController,30,0,test_conc,NULL,PennController,41,_Header_,End,1739194503879,undefined,686,mindful,abstract-positive,concrete,abstract,A,NULL
1739194853,0f17dcd1b8abc33b98deae0549816148,PennController,30,0,test_conc,NULL,Selector,unnamed-Selector,Selection,abstract,1739194505066,undefined,686,mindful,abstract-positive,concrete,abstract,A,concrete;abstract
1739194853,0f17dcd1b8abc33b98deae0549816148,PennController,30,0,test_conc,NULL,PennController,41,_Trial_,End,1739194505066,undefined,686,mindful,abstract-positive,concrete,abstract,A,NULL
1739194853,0f17dcd1b8abc33b98deae0549816148,PennController,31,0,test_conc,NULL,PennController,42,_Trial_,Start,1739194505067,undefined,941,pleasant,abstract-positive,concrete,abstract,A,NULL
1739194853,0f17dcd1b8abc33b98deae0549816148,PennController,31,0,test_conc,NULL,PennController,42,_Header_,Start,1739194505067,undefined,941,pleasant,abstract-positive,concrete,abstract,A,NULL
1739194853,0f17dcd1b8abc33b98deae0549816148,PennController,31,0,test_conc,NULL,PennController,42,_Header_,End,1739194505319,undefined,941,pleasant,abstract-positive,concrete,abstract,A,NULL
1739194853,0f17dcd1b8abc33b98deae0549816148,PennController,31,0,test_conc,NULL,Selector,unnamed-Selector,Selection,abstract,1739194506763,undefined,941,pleasant,abstract-positive,concrete,abstract,A,concrete;abstract
1739194853,0f17dcd1b8abc33b98deae0549816148,PennController,31,0,test_conc,NULL,PennController,42,_Trial_,End,1739194506763,undefined,941,pleasant,abstract-positive,concrete,abstract,A,NULL
1739194853,0f17dcd1b8abc33b98deae0549816148,PennController,29,0,test_conc,NULL,PennController,40,_Trial_,Start,1739194506764,undefined,704,sensible,abstract-positive,concrete,abstract,A,NULL
1739194853,0f17dcd1b8abc33b98deae0549816148,PennController,29,0,test_conc,NULL,PennController,40,_Header_,Start,1739194506764,undefined,704,sensible,abstract-positive,concrete,abstract,A,NULL
1739194853,0f17dcd1b8abc33b98deae0549816148,PennController,29,0,test_conc,NULL,PennController,40,_Header_,End,1739194507018,undefined,704,sensible,abstract-positive,concrete,abstract,A,NULL
1739194853,0f17dcd1b8abc33b98deae0549816148,PennController,29,0,test_conc,NULL,Selector,unnamed-Selector,Selection,abstract,1739194508225,undefined,704,sensible,abstract-positive,concrete,abstract,A,concrete;abstract
1739194853,0f17dcd1b8abc33b98deae0549816148,PennController,29,0,test_conc,NULL,PennController,40,_Trial_,End,1739194508225,undefined,704,sensible,abstract-positive,concrete,abstract,A,NULL
1739194853,0f17dcd1b8abc33b98deae0549816148,PennController,20,0,test_conc,NULL,PennController,31,_Trial_,Start,1739194508226,undefined,467,orange,concrete-positive,concrete,abstract,A,NULL
1739194853,0f17dcd1b8abc33b98deae0549816148,PennController,20,0,test_conc,NULL,PennController,31,_Header_,Start,1739194508226,undefined,467,orange,concrete-positive,concrete,abstract,A,NULL
1739194853,0f17dcd1b8abc33b98deae0549816148,PennController,20,0,test_conc,NULL,PennController,31,_Header_,End,1739194508481,undefined,467,orange,concrete-positive,concrete,abstract,A,NULL
1739194853,0f17dcd1b8abc33b98deae0549816148,PennController,20,0,test_conc,NULL,Selector,unnamed-Selector,Selection,concrete,1739194509453,undefined,467,orange,concrete-positive,concrete,abstract,A,concrete;abstract
1739194853,0f17dcd1b8abc33b98deae0549816148,PennController,20,0,test_conc,NULL,PennController,31,_Trial_,End,1739194509453,undefined,467,orange,concrete-positive,concrete,abstract,A,NULL
1739194853,0f17dcd1b8abc33b98deae0549816148,PennController,14,0,test_conc,NULL,PennController,25,_Trial_,Start,1739194509454,undefined,730,sunny,concrete-positive,concrete,abstract,A,NULL
1739194853,0f17dcd1b8abc33b98deae0549816148,PennController,14,0,test_conc,NULL,PennController,25,_Header_,Start,1739194509454,undefined,730,sunny,concrete-positive,concrete,abstract,A,NULL
1739194853,0f17dcd1b8abc33b98deae0549816148,PennController,14,0,test_conc,NULL,PennController,25,_Header_,End,1739194509704,undefined,730,sunny,concrete-positive,concrete,abstract,A,NULL
1739194853,0f17dcd1b8abc33b98deae0549816148,PennController,14,0,test_conc,NULL,Selector,unnamed-Selector,Selection,concrete,1739194510936,undefined,730,sunny,concrete-positive,concrete,abstract,A,concrete;abstract
1739194853,0f17dcd1b8abc33b98deae0549816148,PennController,14,0,test_conc,NULL,PennController,25,_Trial_,End,1739194510937,undefined,730,sunny,concrete-positive,concrete,abstract,A,NULL
1739194853,0f17dcd1b8abc33b98deae0549816148,PennController,35,0,test_conc,NULL,PennController,46,_Trial_,Start,1739194510937,undefined,843,headless,concrete-negative,concrete,abstract,A,NULL
1739194853,0f17dcd1b8abc33b98deae0549816148,PennController,35,0,test_conc,NULL,PennController,46,_Header_,Start,1739194510937,undefined,843,headless,concrete-negative,concrete,abstract,A,NULL
1739194853,0f17dcd1b8abc33b98deae0549816148,PennController,35,0,test_conc,NULL,PennController,46,_Header_,End,1739194511191,undefined,843,headless,concrete-negative,concrete,abstract,A,NULL
1739194853,0f17dcd1b8abc33b98deae0549816148,PennController,35,0,test_conc,NULL,Selector,unnamed-Selector,Selection,concrete,1739194512538,undefined,843,headless,concrete-negative,concrete,abstract,A,concrete;abstract
1739194853,0f17dcd1b8abc33b98deae0549816148,PennController,35,0,test_conc,NULL,PennController,46,_Trial_,End,1739194512539,undefined,843,headless,concrete-negative,concrete,abstract,A,NULL
1739194853,0f17dcd1b8abc33b98deae0549816148,PennController,13,0,test_conc,NULL,PennController,24,_Trial_,Start,1739194512539,undefined,1479,disloyal,abstract-negative,concrete,abstract,A,NULL
1739194853,0f17dcd1b8abc33b98deae0549816148,PennController,13,0,test_conc,NULL,PennController,24,_Header_,Start,1739194512539,undefined,1479,disloyal,abstract-negative,concrete,abstract,A,NULL
