#
# Results on Mon, 10 Feb 2025 15:44:47 GMT
# USER AGENT: Mozilla/5.0 (Windows NT 10.0; Win64; x64) AppleWebKit/537.36 (KHTML, like Gecko) Chrome/132.0.0.0 Safari/537.36
# Design number was non-random = 0
#
# Columns below this comment are as follows:
# 1. Results reception time.
# 2. MD5 hash of participant's IP address.
# 3. Controller name.
# 4. Order number of item.
# 5. Inner element number.
# 6. Label.
# 7. Latin Square Group.
# 8. PennElementType.
# 9. PennElementName.
# 10. Parameter.
# 11. Value.
# 12. EventTime.
# 13. Comments.
1739202287,0de26b6ebb60cfe5cc7442b8de02633c,PennController,1,0,welcome,NULL,PennController,0,_Trial_,Start,1739201737755,NULL
1739202287,0de26b6ebb60cfe5cc7442b8de02633c,PennController,1,0,welcome,NULL,PennController,0,_Header_,Start,1739201737755,NULL
1739202287,0de26b6ebb60cfe5cc7442b8de02633c,PennController,1,0,welcome,NULL,PennController,0,_Header_,End,1739201738008,NULL
1739202287,0de26b6ebb60cfe5cc7442b8de02633c,PennController,1,0,welcome,NULL,PennController,0,_Trial_,End,1739201740136,NULL
# 13. ID.
# 14. Comments.
1739202287,0de26b6ebb60cfe5cc7442b8de02633c,PennController,124,0,consent,NULL,PennController,2,_Trial_,Start,1739201740137,5ba802ee60f3d5000169e5da,NULL
1739202287,0de26b6ebb60cfe5cc7442b8de02633c,PennController,124,0,consent,NULL,PennController,2,_Header_,Start,1739201740137,5ba802ee60f3d5000169e5da,NULL
1739202287,0de26b6ebb60cfe5cc7442b8de02633c,PennController,124,0,consent,NULL,PennController,2,_Header_,End,1739201740388,5ba802ee60f3d5000169e5da,NULL
1739202287,0de26b6ebb60cfe5cc7442b8de02633c,PennController,124,0,consent,NULL,TextInput,ID,Final,5ba802ee60f3d5000169e5da,1739201745675,5ba802ee60f3d5000169e5da,NULL
1739202287,0de26b6ebb60cfe5cc7442b8de02633c,PennController,124,0,consent,NULL,TextInput,ID,First,,1739201743603,5ba802ee60f3d5000169e5da,Shift
1739202287,0de26b6ebb60cfe5cc7442b8de02633c,PennController,124,0,consent,NULL,PennController,2,_Trial_,End,1739201745683,5ba802ee60f3d5000169e5da,NULL
# 13. Comments.
1739202287,0de26b6ebb60cfe5cc7442b8de02633c,PennController,126,0,instructions1_conc,NULL,PennController,4,_Trial_,Start,1739201745684,NULL
1739202287,0de26b6ebb60cfe5cc7442b8de02633c,PennController,126,0,instructions1_conc,NULL,PennController,4,_Header_,Start,1739201745684,NULL
1739202287,0de26b6ebb60cfe5cc7442b8de02633c,PennController,126,0,instructions1_conc,NULL,PennController,4,_Header_,End,1739201745935,NULL
1739202287,0de26b6ebb60cfe5cc7442b8de02633c,PennController,126,0,instructions1_conc,NULL,PennController,4,_Trial_,End,1739201752077,NULL
1739202287,0de26b6ebb60cfe5cc7442b8de02633c,PennController,127,0,instructions2_conc,NULL,PennController,5,_Trial_,Start,1739201752077,NULL
1739202287,0de26b6ebb60cfe5cc7442b8de02633c,PennController,127,0,instructions2_conc,NULL,PennController,5,_Header_,Start,1739201752077,NULL
1739202287,0de26b6ebb60cfe5cc7442b8de02633c,PennController,127,0,instructions2_conc,NULL,PennController,5,_Header_,End,1739201752328,NULL
1739202287,0de26b6ebb60cfe5cc7442b8de02633c,PennController,127,0,instructions2_conc,NULL,PennController,5,_Trial_,End,1739201754107,NULL
1739202287,0de26b6ebb60cfe5cc7442b8de02633c,PennController,134,0,instructions3_hands,NULL,PennController,12,_Trial_,Start,1739201754108,NULL
1739202287,0de26b6ebb60cfe5cc7442b8de02633c,PennController,134,0,instructions3_hands,NULL,PennController,12,_Header_,Start,1739201754108,NULL
1739202287,0de26b6ebb60cfe5cc7442b8de02633c,PennController,134,0,instructions3_hands,NULL,PennController,12,_Header_,End,1739201754358,NULL
1739202287,0de26b6ebb60cfe5cc7442b8de02633c,PennController,134,0,instructions3_hands,NULL,PennController,12,_Trial_,End,1739201757107,NULL
1739202287,0de26b6ebb60cfe5cc7442b8de02633c,PennController,129,0,practice_intro_conc,NULL,PennController,7,_Trial_,Start,1739201757107,NULL
1739202287,0de26b6ebb60cfe5cc7442b8de02633c,PennController,129,0,practice_intro_conc,NULL,PennController,7,_Header_,Start,1739201757107,NULL
1739202287,0de26b6ebb60cfe5cc7442b8de02633c,PennController,129,0,practice_intro_conc,NULL,PennController,7,_Header_,End,1739201757359,NULL
1739202287,0de26b6ebb60cfe5cc7442b8de02633c,PennController,129,0,practice_intro_conc,NULL,PennController,7,_Trial_,End,1739201759754,NULL
# 13. ID.
# 14. ReactionTime.
# 15. Word.
# 16. selectedKey.
# 17. selectedValue.
# 18. Key_value_F.
# 19. Key_value_J.
# 20. Group.
# 21. Comments.
1739202287,0de26b6ebb60cfe5cc7442b8de02633c,PennController,85,0,calibrator_conc_feedback,NULL,PennController,96,_Trial_,Start,1739201759754,undefined,1093,grasshopper,undefined,concrete,abstract,concrete,B,NULL
1739202287,0de26b6ebb60cfe5cc7442b8de02633c,PennController,85,0,calibrator_conc_feedback,NULL,PennController,96,_Header_,Start,1739201759754,undefined,1093,grasshopper,undefined,concrete,abstract,concrete,B,NULL
1739202287,0de26b6ebb60cfe5cc7442b8de02633c,PennController,85,0,calibrator_conc_feedback,NULL,PennController,96,_Header_,End,1739201760009,undefined,1093,grasshopper,undefined,concrete,abstract,concrete,B,NULL
1739202287,0de26b6ebb60cfe5cc7442b8de02633c,PennController,85,0,calibrator_conc_feedback,NULL,Selector,Selection,Selection,concrete,1739201761605,undefined,1093,grasshopper,undefined,concrete,abstract,concrete,B,abstract;concrete
1739202287,0de26b6ebb60cfe5cc7442b8de02633c,PennController,85,0,calibrator_conc_feedback,NULL,PennController,96,_Trial_,End,1739201763608,undefined,1093,grasshopper,undefined,concrete,abstract,concrete,B,NULL
1739202287,0de26b6ebb60cfe5cc7442b8de02633c,PennController,86,0,calibrator_conc_feedback,NULL,PennController,97,_Trial_,Start,1739201763608,undefined,560,kick,undefined,concrete,abstract,concrete,B,NULL
1739202287,0de26b6ebb60cfe5cc7442b8de02633c,PennController,86,0,calibrator_conc_feedback,NULL,PennController,97,_Header_,Start,1739201763608,undefined,560,kick,undefined,concrete,abstract,concrete,B,NULL
1739202287,0de26b6ebb60cfe5cc7442b8de02633c,PennController,86,0,calibrator_conc_feedback,NULL,PennController,97,_Header_,End,1739201763861,undefined,560,kick,undefined,concrete,abstract,concrete,B,NULL
1739202287,0de26b6ebb60cfe5cc7442b8de02633c,PennController,86,0,calibrator_conc_feedback,NULL,Selector,Selection,Selection,concrete,1739201764924,undefined,560,kick,undefined,concrete,abstract,concrete,B,abstract;concrete
1739202287,0de26b6ebb60cfe5cc7442b8de02633c,PennController,86,0,calibrator_conc_feedback,NULL,PennController,97,_Trial_,End,1739201766930,undefined,560,kick,undefined,concrete,abstract,concrete,B,NULL
1739202287,0de26b6ebb60cfe5cc7442b8de02633c,PennController,91,0,calibrator_conc_feedback,NULL,PennController,102,_Trial_,Start,1739201766930,undefined,545,theory,undefined,concrete,abstract,concrete,B,NULL
1739202287,0de26b6ebb60cfe5cc7442b8de02633c,PennController,91,0,calibrator_conc_feedback,NULL,PennController,102,_Header_,Start,1739201766930,undefined,545,theory,undefined,concrete,abstract,concrete,B,NULL
1739202287,0de26b6ebb60cfe5cc7442b8de02633c,PennController,91,0,calibrator_conc_feedback,NULL,PennController,102,_Header_,End,1739201767183,undefined,545,theory,undefined,concrete,abstract,concrete,B,NULL
1739202287,0de26b6ebb60cfe5cc7442b8de02633c,PennController,91,0,calibrator_conc_feedback,NULL,Selector,Selection,Selection,abstract,1739201768233,undefined,545,theory,undefined,concrete,abstract,concrete,B,abstract;concrete
1739202287,0de26b6ebb60cfe5cc7442b8de02633c,PennController,91,0,calibrator_conc_feedback,NULL,PennController,102,_Trial_,End,1739201770237,undefined,545,theory,undefined,concrete,abstract,concrete,B,NULL
1739202287,0de26b6ebb60cfe5cc7442b8de02633c,PennController,88,0,calibrator_conc_feedback,NULL,PennController,99,_Trial_,Start,1739201770238,undefined,574,polite,undefined,concrete,abstract,concrete,B,NULL
1739202287,0de26b6ebb60cfe5cc7442b8de02633c,PennController,88,0,calibrator_conc_feedback,NULL,PennController,99,_Header_,Start,1739201770238,undefined,574,polite,undefined,concrete,abstract,concrete,B,NULL
1739202287,0de26b6ebb60cfe5cc7442b8de02633c,PennController,88,0,calibrator_conc_feedback,NULL,PennController,99,_Header_,End,1739201770491,undefined,574,polite,undefined,concrete,abstract,concrete,B,NULL
1739202287,0de26b6ebb60cfe5cc7442b8de02633c,PennController,88,0,calibrator_conc_feedback,NULL,Selector,Selection,Selection,abstract,1739201771569,undefined,574,polite,undefined,concrete,abstract,concrete,B,abstract;concrete
1739202287,0de26b6ebb60cfe5cc7442b8de02633c,PennController,88,0,calibrator_conc_feedback,NULL,PennController,99,_Trial_,End,1739201773574,undefined,574,polite,undefined,concrete,abstract,concrete,B,NULL
1739202287,0de26b6ebb60cfe5cc7442b8de02633c,PennController,92,0,calibrator_conc_feedback,NULL,PennController,103,_Trial_,Start,1739201773575,undefined,632,whistle,undefined,concrete,abstract,concrete,B,NULL
1739202287,0de26b6ebb60cfe5cc7442b8de02633c,PennController,92,0,calibrator_conc_feedback,NULL,PennController,103,_Header_,Start,1739201773575,undefined,632,whistle,undefined,concrete,abstract,concrete,B,NULL
1739202287,0de26b6ebb60cfe5cc7442b8de02633c,PennController,92,0,calibrator_conc_feedback,NULL,PennController,103,_Header_,End,1739201773826,undefined,632,whistle,undefined,concrete,abstract,concrete,B,NULL
1739202287,0de26b6ebb60cfe5cc7442b8de02633c,PennController,92,0,calibrator_conc_feedback,NULL,Selector,Selection,Selection,concrete,1739201774960,undefined,632,whistle,undefined,concrete,abstract,concrete,B,abstract;concrete
1739202287,0de26b6ebb60cfe5cc7442b8de02633c,PennController,92,0,calibrator_conc_feedback,NULL,PennController,103,_Trial_,End,1739201776963,undefined,632,whistle,undefined,concrete,abstract,concrete,B,NULL
1739202287,0de26b6ebb60cfe5cc7442b8de02633c,PennController,87,0,calibrator_conc_feedback,NULL,PennController,98,_Trial_,Start,1739201776964,undefined,696,marriage,undefined,concrete,abstract,concrete,B,NULL
1739202287,0de26b6ebb60cfe5cc7442b8de02633c,PennController,87,0,calibrator_conc_feedback,NULL,PennController,98,_Header_,Start,1739201776964,undefined,696,marriage,undefined,concrete,abstract,concrete,B,NULL
1739202287,0de26b6ebb60cfe5cc7442b8de02633c,PennController,87,0,calibrator_conc_feedback,NULL,PennController,98,_Header_,End,1739201777214,undefined,696,marriage,undefined,concrete,abstract,concrete,B,NULL
1739202287,0de26b6ebb60cfe5cc7442b8de02633c,PennController,87,0,calibrator_conc_feedback,NULL,Selector,Selection,Selection,concrete,1739201778412,undefined,696,marriage,undefined,concrete,abstract,concrete,B,abstract;concrete
1739202287,0de26b6ebb60cfe5cc7442b8de02633c,PennController,87,0,calibrator_conc_feedback,NULL,PennController,98,_Trial_,End,1739201780415,undefined,696,marriage,undefined,concrete,abstract,concrete,B,NULL
1739202287,0de26b6ebb60cfe5cc7442b8de02633c,PennController,90,0,calibrator_conc_feedback,NULL,PennController,101,_Trial_,Start,1739201780416,undefined,1331,sugar,undefined,concrete,abstract,concrete,B,NULL
1739202287,0de26b6ebb60cfe5cc7442b8de02633c,PennController,90,0,calibrator_conc_feedback,NULL,PennController,101,_Header_,Start,1739201780416,undefined,1331,sugar,undefined,concrete,abstract,concrete,B,NULL
1739202287,0de26b6ebb60cfe5cc7442b8de02633c,PennController,90,0,calibrator_conc_feedback,NULL,PennController,101,_Header_,End,1739201780667,undefined,1331,sugar,undefined,concrete,abstract,concrete,B,NULL
1739202287,0de26b6ebb60cfe5cc7442b8de02633c,PennController,90,0,calibrator_conc_feedback,NULL,Selector,Selection,Selection,concrete,1739201782499,undefined,1331,sugar,undefined,concrete,abstract,concrete,B,abstract;concrete
1739202287,0de26b6ebb60cfe5cc7442b8de02633c,PennController,90,0,calibrator_conc_feedback,NULL,PennController,101,_Trial_,End,1739201784502,undefined,1331,sugar,undefined,concrete,abstract,concrete,B,NULL
1739202287,0de26b6ebb60cfe5cc7442b8de02633c,PennController,84,0,calibrator_conc_feedback,NULL,PennController,95,_Trial_,Start,1739201784503,undefined,599,gas,undefined,concrete,abstract,concrete,B,NULL
1739202287,0de26b6ebb60cfe5cc7442b8de02633c,PennController,84,0,calibrator_conc_feedback,NULL,PennController,95,_Header_,Start,1739201784503,undefined,599,gas,undefined,concrete,abstract,concrete,B,NULL
1739202287,0de26b6ebb60cfe5cc7442b8de02633c,PennController,84,0,calibrator_conc_feedback,NULL,PennController,95,_Header_,End,1739201784754,undefined,599,gas,undefined,concrete,abstract,concrete,B,NULL
1739202287,0de26b6ebb60cfe5cc7442b8de02633c,PennController,84,0,calibrator_conc_feedback,NULL,Selector,Selection,Selection,concrete,1739201785859,undefined,599,gas,undefined,concrete,abstract,concrete,B,abstract;concrete
1739202287,0de26b6ebb60cfe5cc7442b8de02633c,PennController,84,0,calibrator_conc_feedback,NULL,PennController,95,_Trial_,End,1739201787861,undefined,599,gas,undefined,concrete,abstract,concrete,B,NULL
1739202287,0de26b6ebb60cfe5cc7442b8de02633c,PennController,89,0,calibrator_conc_feedback,NULL,PennController,100,_Trial_,Start,1739201787862,undefined,937,shirt,undefined,concrete,abstract,concrete,B,NULL
1739202287,0de26b6ebb60cfe5cc7442b8de02633c,PennController,89,0,calibrator_conc_feedback,NULL,PennController,100,_Header_,Start,1739201787862,undefined,937,shirt,undefined,concrete,abstract,concrete,B,NULL
1739202287,0de26b6ebb60cfe5cc7442b8de02633c,PennController,89,0,calibrator_conc_feedback,NULL,PennController,100,_Header_,End,1739201788113,undefined,937,shirt,undefined,concrete,abstract,concrete,B,NULL
1739202287,0de26b6ebb60cfe5cc7442b8de02633c,PennController,89,0,calibrator_conc_feedback,NULL,Selector,Selection,Selection,concrete,1739201789552,undefined,937,shirt,undefined,concrete,abstract,concrete,B,abstract;concrete
1739202287,0de26b6ebb60cfe5cc7442b8de02633c,PennController,89,0,calibrator_conc_feedback,NULL,PennController,100,_Trial_,End,1739201791554,undefined,937,shirt,undefined,concrete,abstract,concrete,B,NULL
1739202287,0de26b6ebb60cfe5cc7442b8de02633c,PennController,93,0,calibrator_conc_feedback,NULL,PennController,104,_Trial_,Start,1739201791555,undefined,588,insecure,undefined,concrete,abstract,concrete,B,NULL
1739202287,0de26b6ebb60cfe5cc7442b8de02633c,PennController,93,0,calibrator_conc_feedback,NULL,PennController,104,_Header_,Start,1739201791555,undefined,588,insecure,undefined,concrete,abstract,concrete,B,NULL
1739202287,0de26b6ebb60cfe5cc7442b8de02633c,PennController,93,0,calibrator_conc_feedback,NULL,PennController,104,_Header_,End,1739201791808,undefined,588,insecure,undefined,concrete,abstract,concrete,B,NULL
1739202287,0de26b6ebb60cfe5cc7442b8de02633c,PennController,93,0,calibrator_conc_feedback,NULL,Selector,Selection,Selection,abstract,1739201792898,undefined,588,insecure,undefined,concrete,abstract,concrete,B,abstract;concrete
1739202287,0de26b6ebb60cfe5cc7442b8de02633c,PennController,93,0,calibrator_conc_feedback,NULL,PennController,104,_Trial_,End,1739201794902,undefined,588,insecure,undefined,concrete,abstract,concrete,B,NULL
# 16. Key_value_F.
# 17. Key_value_J.
# 18. Group.
# 19. Comments.
1739202287,0de26b6ebb60cfe5cc7442b8de02633c,PennController,101,0,calibrator_conc_no_feedback,NULL,PennController,112,_Trial_,Start,1739201794902,undefined,576,theory,abstract,concrete,B,NULL
1739202287,0de26b6ebb60cfe5cc7442b8de02633c,PennController,101,0,calibrator_conc_no_feedback,NULL,PennController,112,_Header_,Start,1739201794902,undefined,576,theory,abstract,concrete,B,NULL
1739202287,0de26b6ebb60cfe5cc7442b8de02633c,PennController,101,0,calibrator_conc_no_feedback,NULL,PennController,112,_Header_,End,1739201795155,undefined,576,theory,abstract,concrete,B,NULL
1739202287,0de26b6ebb60cfe5cc7442b8de02633c,PennController,101,0,calibrator_conc_no_feedback,NULL,Selector,unnamed-Selector,Selection,abstract,1739201796234,undefined,576,theory,abstract,concrete,B,abstract;concrete
1739202287,0de26b6ebb60cfe5cc7442b8de02633c,PennController,101,0,calibrator_conc_no_feedback,NULL,PennController,112,_Trial_,End,1739201796235,undefined,576,theory,abstract,concrete,B,NULL
1739202287,0de26b6ebb60cfe5cc7442b8de02633c,PennController,103,0,calibrator_conc_no_feedback,NULL,PennController,114,_Trial_,Start,1739201796235,undefined,764,insecure,abstract,concrete,B,NULL
1739202287,0de26b6ebb60cfe5cc7442b8de02633c,PennController,103,0,calibrator_conc_no_feedback,NULL,PennController,114,_Header_,Start,1739201796235,undefined,764,insecure,abstract,concrete,B,NULL
1739202287,0de26b6ebb60cfe5cc7442b8de02633c,PennController,103,0,calibrator_conc_no_feedback,NULL,PennController,114,_Header_,End,1739201796488,undefined,764,insecure,abstract,concrete,B,NULL
1739202287,0de26b6ebb60cfe5cc7442b8de02633c,PennController,103,0,calibrator_conc_no_feedback,NULL,Selector,unnamed-Selector,Selection,abstract,1739201797756,undefined,764,insecure,abstract,concrete,B,abstract;concrete
1739202287,0de26b6ebb60cfe5cc7442b8de02633c,PennController,103,0,calibrator_conc_no_feedback,NULL,PennController,114,_Trial_,End,1739201797757,undefined,764,insecure,abstract,concrete,B,NULL
1739202287,0de26b6ebb60cfe5cc7442b8de02633c,PennController,95,0,calibrator_conc_no_feedback,NULL,PennController,106,_Trial_,Start,1739201797758,undefined,576,grasshopper,abstract,concrete,B,NULL
1739202287,0de26b6ebb60cfe5cc7442b8de02633c,PennController,95,0,calibrator_conc_no_feedback,NULL,PennController,106,_Header_,Start,1739201797758,undefined,576,grasshopper,abstract,concrete,B,NULL
1739202287,0de26b6ebb60cfe5cc7442b8de02633c,PennController,95,0,calibrator_conc_no_feedback,NULL,PennController,106,_Header_,End,1739201798010,undefined,576,grasshopper,abstract,concrete,B,NULL
1739202287,0de26b6ebb60cfe5cc7442b8de02633c,PennController,95,0,calibrator_conc_no_feedback,NULL,Selector,unnamed-Selector,Selection,concrete,1739201799088,undefined,576,grasshopper,abstract,concrete,B,abstract;concrete
1739202287,0de26b6ebb60cfe5cc7442b8de02633c,PennController,95,0,calibrator_conc_no_feedback,NULL,PennController,106,_Trial_,End,1739201799089,undefined,576,grasshopper,abstract,concrete,B,NULL
1739202287,0de26b6ebb60cfe5cc7442b8de02633c,PennController,94,0,calibrator_conc_no_feedback,NULL,PennController,105,_Trial_,Start,1739201799090,undefined,536,gas,abstract,concrete,B,NULL
1739202287,0de26b6ebb60cfe5cc7442b8de02633c,PennController,94,0,calibrator_conc_no_feedback,NULL,PennController,105,_Header_,Start,1739201799090,undefined,536,gas,abstract,concrete,B,NULL
1739202287,0de26b6ebb60cfe5cc7442b8de02633c,PennController,94,0,calibrator_conc_no_feedback,NULL,PennController,105,_Header_,End,1739201799342,undefined,536,gas,abstract,concrete,B,NULL
1739202287,0de26b6ebb60cfe5cc7442b8de02633c,PennController,94,0,calibrator_conc_no_feedback,NULL,Selector,unnamed-Selector,Selection,concrete,1739201800384,undefined,536,gas,abstract,concrete,B,abstract;concrete
1739202287,0de26b6ebb60cfe5cc7442b8de02633c,PennController,94,0,calibrator_conc_no_feedback,NULL,PennController,105,_Trial_,End,1739201800385,undefined,536,gas,abstract,concrete,B,NULL
1739202287,0de26b6ebb60cfe5cc7442b8de02633c,PennController,100,0,calibrator_conc_no_feedback,NULL,PennController,111,_Trial_,Start,1739201800386,undefined,525,sugar,abstract,concrete,B,NULL
1739202287,0de26b6ebb60cfe5cc7442b8de02633c,PennController,100,0,calibrator_conc_no_feedback,NULL,PennController,111,_Header_,Start,1739201800386,undefined,525,sugar,abstract,concrete,B,NULL
1739202287,0de26b6ebb60cfe5cc7442b8de02633c,PennController,100,0,calibrator_conc_no_feedback,NULL,PennController,111,_Header_,End,1739201800637,undefined,525,sugar,abstract,concrete,B,NULL
1739202287,0de26b6ebb60cfe5cc7442b8de02633c,PennController,100,0,calibrator_conc_no_feedback,NULL,Selector,unnamed-Selector,Selection,concrete,1739201801666,undefined,525,sugar,abstract,concrete,B,abstract;concrete
1739202287,0de26b6ebb60cfe5cc7442b8de02633c,PennController,100,0,calibrator_conc_no_feedback,NULL,PennController,111,_Trial_,End,1739201801667,undefined,525,sugar,abstract,concrete,B,NULL
1739202287,0de26b6ebb60cfe5cc7442b8de02633c,PennController,102,0,calibrator_conc_no_feedback,NULL,PennController,113,_Trial_,Start,1739201801668,undefined,633,whistle,abstract,concrete,B,NULL
1739202287,0de26b6ebb60cfe5cc7442b8de02633c,PennController,102,0,calibrator_conc_no_feedback,NULL,PennController,113,_Header_,Start,1739201801668,undefined,633,whistle,abstract,concrete,B,NULL
1739202287,0de26b6ebb60cfe5cc7442b8de02633c,PennController,102,0,calibrator_conc_no_feedback,NULL,PennController,113,_Header_,End,1739201801922,undefined,633,whistle,abstract,concrete,B,NULL
1739202287,0de26b6ebb60cfe5cc7442b8de02633c,PennController,102,0,calibrator_conc_no_feedback,NULL,Selector,unnamed-Selector,Selection,concrete,1739201803057,undefined,633,whistle,abstract,concrete,B,abstract;concrete
1739202287,0de26b6ebb60cfe5cc7442b8de02633c,PennController,102,0,calibrator_conc_no_feedback,NULL,PennController,113,_Trial_,End,1739201803058,undefined,633,whistle,abstract,concrete,B,NULL
1739202287,0de26b6ebb60cfe5cc7442b8de02633c,PennController,99,0,calibrator_conc_no_feedback,NULL,PennController,110,_Trial_,Start,1739201803059,undefined,578,shirt,abstract,concrete,B,NULL
1739202287,0de26b6ebb60cfe5cc7442b8de02633c,PennController,99,0,calibrator_conc_no_feedback,NULL,PennController,110,_Header_,Start,1739201803059,undefined,578,shirt,abstract,concrete,B,NULL
1739202287,0de26b6ebb60cfe5cc7442b8de02633c,PennController,99,0,calibrator_conc_no_feedback,NULL,PennController,110,_Header_,End,1739201803313,undefined,578,shirt,abstract,concrete,B,NULL
1739202287,0de26b6ebb60cfe5cc7442b8de02633c,PennController,99,0,calibrator_conc_no_feedback,NULL,Selector,unnamed-Selector,Selection,concrete,1739201804396,undefined,578,shirt,abstract,concrete,B,abstract;concrete
1739202287,0de26b6ebb60cfe5cc7442b8de02633c,PennController,99,0,calibrator_conc_no_feedback,NULL,PennController,110,_Trial_,End,1739201804397,undefined,578,shirt,abstract,concrete,B,NULL
1739202287,0de26b6ebb60cfe5cc7442b8de02633c,PennController,98,0,calibrator_conc_no_feedback,NULL,PennController,109,_Trial_,Start,1739201804398,undefined,676,polite,abstract,concrete,B,NULL
1739202287,0de26b6ebb60cfe5cc7442b8de02633c,PennController,98,0,calibrator_conc_no_feedback,NULL,PennController,109,_Header_,Start,1739201804398,undefined,676,polite,abstract,concrete,B,NULL
1739202287,0de26b6ebb60cfe5cc7442b8de02633c,PennController,98,0,calibrator_conc_no_feedback,NULL,PennController,109,_Header_,End,1739201804648,undefined,676,polite,abstract,concrete,B,NULL
1739202287,0de26b6ebb60cfe5cc7442b8de02633c,PennController,98,0,calibrator_conc_no_feedback,NULL,Selector,unnamed-Selector,Selection,abstract,1739201805830,undefined,676,polite,abstract,concrete,B,abstract;concrete
1739202287,0de26b6ebb60cfe5cc7442b8de02633c,PennController,98,0,calibrator_conc_no_feedback,NULL,PennController,109,_Trial_,End,1739201805831,undefined,676,polite,abstract,concrete,B,NULL
1739202287,0de26b6ebb60cfe5cc7442b8de02633c,PennController,97,0,calibrator_conc_no_feedback,NULL,PennController,108,_Trial_,Start,1739201805832,undefined,514,marriage,abstract,concrete,B,NULL
1739202287,0de26b6ebb60cfe5cc7442b8de02633c,PennController,97,0,calibrator_conc_no_feedback,NULL,PennController,108,_Header_,Start,1739201805832,undefined,514,marriage,abstract,concrete,B,NULL
1739202287,0de26b6ebb60cfe5cc7442b8de02633c,PennController,97,0,calibrator_conc_no_feedback,NULL,PennController,108,_Header_,End,1739201806085,undefined,514,marriage,abstract,concrete,B,NULL
1739202287,0de26b6ebb60cfe5cc7442b8de02633c,PennController,97,0,calibrator_conc_no_feedback,NULL,Selector,unnamed-Selector,Selection,abstract,1739201807102,undefined,514,marriage,abstract,concrete,B,abstract;concrete
1739202287,0de26b6ebb60cfe5cc7442b8de02633c,PennController,97,0,calibrator_conc_no_feedback,NULL,PennController,108,_Trial_,End,1739201807103,undefined,514,marriage,abstract,concrete,B,NULL
1739202287,0de26b6ebb60cfe5cc7442b8de02633c,PennController,96,0,calibrator_conc_no_feedback,NULL,PennController,107,_Trial_,Start,1739201807104,undefined,590,kick,abstract,concrete,B,NULL
1739202287,0de26b6ebb60cfe5cc7442b8de02633c,PennController,96,0,calibrator_conc_no_feedback,NULL,PennController,107,_Header_,Start,1739201807104,undefined,590,kick,abstract,concrete,B,NULL
1739202287,0de26b6ebb60cfe5cc7442b8de02633c,PennController,96,0,calibrator_conc_no_feedback,NULL,PennController,107,_Header_,End,1739201807354,undefined,590,kick,abstract,concrete,B,NULL
1739202287,0de26b6ebb60cfe5cc7442b8de02633c,PennController,96,0,calibrator_conc_no_feedback,NULL,Selector,unnamed-Selector,Selection,concrete,1739201808447,undefined,590,kick,abstract,concrete,B,abstract;concrete
1739202287,0de26b6ebb60cfe5cc7442b8de02633c,PennController,96,0,calibrator_conc_no_feedback,NULL,PennController,107,_Trial_,End,1739201808448,undefined,590,kick,abstract,concrete,B,NULL
# 13. Comments.
1739202287,0de26b6ebb60cfe5cc7442b8de02633c,PennController,130,0,endinstructions_conc,NULL,PennController,8,_Trial_,Start,1739201808448,NULL
1739202287,0de26b6ebb60cfe5cc7442b8de02633c,PennController,130,0,endinstructions_conc,NULL,PennController,8,_Header_,Start,1739201808448,NULL
1739202287,0de26b6ebb60cfe5cc7442b8de02633c,PennController,130,0,endinstructions_conc,NULL,PennController,8,_Header_,End,1739201808701,NULL
1739202287,0de26b6ebb60cfe5cc7442b8de02633c,PennController,130,0,endinstructions_conc,NULL,PennController,8,_Trial_,End,1739201817170,NULL
# 13. ID.
# 14. ReactionTime.
# 15. Word.
# 16. ConcValCombo.
# 17. Key_value_F.
# 18. Key_value_J.
# 19. Group.
# 20. Comments.
1739202287,0de26b6ebb60cfe5cc7442b8de02633c,PennController,39,0,test_conc,NULL,PennController,50,_Trial_,Start,1739201817170,undefined,698,hairy,concrete-negative,abstract,concrete,B,NULL
1739202287,0de26b6ebb60cfe5cc7442b8de02633c,PennController,39,0,test_conc,NULL,PennController,50,_Header_,Start,1739201817170,undefined,698,hairy,concrete-negative,abstract,concrete,B,NULL
1739202287,0de26b6ebb60cfe5cc7442b8de02633c,PennController,39,0,test_conc,NULL,PennController,50,_Header_,End,1739201817424,undefined,698,hairy,concrete-negative,abstract,concrete,B,NULL
1739202287,0de26b6ebb60cfe5cc7442b8de02633c,PennController,39,0,test_conc,NULL,Selector,unnamed-Selector,Selection,abstract,1739201818625,undefined,698,hairy,concrete-negative,abstract,concrete,B,abstract;concrete
1739202287,0de26b6ebb60cfe5cc7442b8de02633c,PennController,39,0,test_conc,NULL,PennController,50,_Trial_,End,1739201818625,undefined,698,hairy,concrete-negative,abstract,concrete,B,NULL
1739202287,0de26b6ebb60cfe5cc7442b8de02633c,PennController,5,0,test_conc,NULL,PennController,16,_Trial_,Start,1739201818626,undefined,702,awful,abstract-negative,abstract,concrete,B,NULL
1739202287,0de26b6ebb60cfe5cc7442b8de02633c,PennController,5,0,test_conc,NULL,PennController,16,_Header_,Start,1739201818626,undefined,702,awful,abstract-negative,abstract,concrete,B,NULL
1739202287,0de26b6ebb60cfe5cc7442b8de02633c,PennController,5,0,test_conc,NULL,PennController,16,_Header_,End,1739201818876,undefined,702,awful,abstract-negative,abstract,concrete,B,NULL
1739202287,0de26b6ebb60cfe5cc7442b8de02633c,PennController,5,0,test_conc,NULL,Selector,unnamed-Selector,Selection,abstract,1739201820080,undefined,702,awful,abstract-negative,abstract,concrete,B,abstract;concrete
1739202287,0de26b6ebb60cfe5cc7442b8de02633c,PennController,5,0,test_conc,NULL,PennController,16,_Trial_,End,1739201820082,undefined,702,awful,abstract-negative,abstract,concrete,B,NULL
1739202287,0de26b6ebb60cfe5cc7442b8de02633c,PennController,19,0,test_conc,NULL,PennController,30,_Trial_,Start,1739201820083,undefined,659,blooming,concrete-positive,abstract,concrete,B,NULL
1739202287,0de26b6ebb60cfe5cc7442b8de02633c,PennController,19,0,test_conc,NULL,PennController,30,_Header_,Start,1739201820083,undefined,659,blooming,concrete-positive,abstract,concrete,B,NULL
1739202287,0de26b6ebb60cfe5cc7442b8de02633c,PennController,19,0,test_conc,NULL,PennController,30,_Header_,End,1739201820335,undefined,659,blooming,concrete-positive,abstract,concrete,B,NULL
1739202287,0de26b6ebb60cfe5cc7442b8de02633c,PennController,19,0,test_conc,NULL,Selector,unnamed-Selector,Selection,concrete,1739201821499,undefined,659,blooming,concrete-positive,abstract,concrete,B,abstract;concrete
1739202287,0de26b6ebb60cfe5cc7442b8de02633c,PennController,19,0,test_conc,NULL,PennController,30,_Trial_,End,1739201821500,undefined,659,blooming,concrete-positive,abstract,concrete,B,NULL
1739202287,0de26b6ebb60cfe5cc7442b8de02633c,PennController,38,0,test_conc,NULL,PennController,49,_Trial_,Start,1739201821500,undefined,893,thorny,concrete-negative,abstract,concrete,B,NULL
1739202287,0de26b6ebb60cfe5cc7442b8de02633c,PennController,38,0,test_conc,NULL,PennController,49,_Header_,Start,1739201821500,undefined,893,thorny,concrete-negative,abstract,concrete,B,NULL
1739202287,0de26b6ebb60cfe5cc7442b8de02633c,PennController,38,0,test_conc,NULL,PennController,49,_Header_,End,1739201821750,undefined,893,thorny,concrete-negative,abstract,concrete,B,NULL
1739202287,0de26b6ebb60cfe5cc7442b8de02633c,PennController,38,0,test_conc,NULL,Selector,unnamed-Selector,Selection,concrete,1739201823148,undefined,893,thorny,concrete-negative,abstract,concrete,B,abstract;concrete
1739202287,0de26b6ebb60cfe5cc7442b8de02633c,PennController,38,0,test_conc,NULL,PennController,49,_Trial_,End,1739201823149,undefined,893,thorny,concrete-negative,abstract,concrete,B,NULL
1739202287,0de26b6ebb60cfe5cc7442b8de02633c,PennController,15,0,test_conc,NULL,PennController,26,_Trial_,Start,1739201823150,undefined,682,lilac,concrete-positive,abstract,concrete,B,NULL
1739202287,0de26b6ebb60cfe5cc7442b8de02633c,PennController,15,0,test_conc,NULL,PennController,26,_Header_,Start,1739201823150,undefined,682,lilac,concrete-positive,abstract,concrete,B,NULL
1739202287,0de26b6ebb60cfe5cc7442b8de02633c,PennController,15,0,test_conc,NULL,PennController,26,_Header_,End,1739201823402,undefined,682,lilac,concrete-positive,abstract,concrete,B,NULL
1739202287,0de26b6ebb60cfe5cc7442b8de02633c,PennController,15,0,test_conc,NULL,Selector,unnamed-Selector,Selection,abstract,1739201824587,undefined,682,lilac,concrete-positive,abstract,concrete,B,abstract;concrete
1739202287,0de26b6ebb60cfe5cc7442b8de02633c,PennController,15,0,test_conc,NULL,PennController,26,_Trial_,End,1739201824588,undefined,682,lilac,concrete-positive,abstract,concrete,B,NULL
1739202287,0de26b6ebb60cfe5cc7442b8de02633c,PennController,24,0,test_conc,NULL,PennController,35,_Trial_,Start,1739201824589,undefined,731,honest,abstract-positive,abstract,concrete,B,NULL
1739202287,0de26b6ebb60cfe5cc7442b8de02633c,PennController,24,0,test_conc,NULL,PennController,35,_Header_,Start,1739201824589,undefined,731,honest,abstract-positive,abstract,concrete,B,NULL
1739202287,0de26b6ebb60cfe5cc7442b8de02633c,PennController,24,0,test_conc,NULL,PennController,35,_Header_,End,1739201824842,undefined,731,honest,abstract-positive,abstract,concrete,B,NULL
1739202287,0de26b6ebb60cfe5cc7442b8de02633c,PennController,24,0,test_conc,NULL,Selector,unnamed-Selector,Selection,abstract,1739201826076,undefined,731,honest,abstract-positive,abstract,concrete,B,abstract;concrete
1739202287,0de26b6ebb60cfe5cc7442b8de02633c,PennController,24,0,test_conc,NULL,PennController,35,_Trial_,End,1739201826076,undefined,731,honest,abstract-positive,abstract,concrete,B,NULL
1739202287,0de26b6ebb60cfe5cc7442b8de02633c,PennController,16,0,test_conc,NULL,PennController,27,_Trial_,Start,1739201826077,undefined,727,human,concrete-positive,abstract,concrete,B,NULL
1739202287,0de26b6ebb60cfe5cc7442b8de02633c,PennController,16,0,test_conc,NULL,PennController,27,_Header_,Start,1739201826077,undefined,727,human,concrete-positive,abstract,concrete,B,NULL
1739202287,0de26b6ebb60cfe5cc7442b8de02633c,PennController,16,0,test_conc,NULL,PennController,27,_Header_,End,1739201826328,undefined,727,human,concrete-positive,abstract,concrete,B,NULL
1739202287,0de26b6ebb60cfe5cc7442b8de02633c,PennController,16,0,test_conc,NULL,Selector,unnamed-Selector,Selection,concrete,1739201827559,undefined,727,human,concrete-positive,abstract,concrete,B,abstract;concrete
1739202287,0de26b6ebb60cfe5cc7442b8de02633c,PennController,16,0,test_conc,NULL,PennController,27,_Trial_,End,1739201827560,undefined,727,human,concrete-positive,abstract,concrete,B,NULL
1739202287,0de26b6ebb60cfe5cc7442b8de02633c,PennController,25,0,test_conc,NULL,PennController,36,_Trial_,Start,1739201827560,undefined,694,lovable,abstract-positive,abstract,concrete,B,NULL
1739202287,0de26b6ebb60cfe5cc7442b8de02633c,PennController,25,0,test_conc,NULL,PennController,36,_Header_,Start,1739201827560,undefined,694,lovable,abstract-positive,abstract,concrete,B,NULL
1739202287,0de26b6ebb60cfe5cc7442b8de02633c,PennController,25,0,test_conc,NULL,PennController,36,_Header_,End,1739201827814,undefined,694,lovable,abstract-positive,abstract,concrete,B,NULL
1739202287,0de26b6ebb60cfe5cc7442b8de02633c,PennController,25,0,test_conc,NULL,Selector,unnamed-Selector,Selection,abstract,1739201829014,undefined,694,lovable,abstract-positive,abstract,concrete,B,abstract;concrete
1739202287,0de26b6ebb60cfe5cc7442b8de02633c,PennController,25,0,test_conc,NULL,PennController,36,_Trial_,End,1739201829014,undefined,694,lovable,abstract-positive,abstract,concrete,B,NULL
1739202287,0de26b6ebb60cfe5cc7442b8de02633c,PennController,12,0,test_conc,NULL,PennController,23,_Trial_,Start,1739201829015,undefined,656,sinful,abstract-negative,abstract,concrete,B,NULL
1739202287,0de26b6ebb60cfe5cc7442b8de02633c,PennController,12,0,test_conc,NULL,PennController,23,_Header_,Start,1739201829015,undefined,656,sinful,abstract-negative,abstract,concrete,B,NULL
1739202287,0de26b6ebb60cfe5cc7442b8de02633c,PennController,12,0,test_conc,NULL,PennController,23,_Header_,End,1739201829266,undefined,656,sinful,abstract-negative,abstract,concrete,B,NULL
1739202287,0de26b6ebb60cfe5cc7442b8de02633c,PennController,12,0,test_conc,NULL,Selector,unnamed-Selector,Selection,abstract,1739201830426,undefined,656,sinful,abstract-negative,abstract,concrete,B,abstract;concrete
1739202287,0de26b6ebb60cfe5cc7442b8de02633c,PennController,12,0,test_conc,NULL,PennController,23,_Trial_,End,1739201830427,undefined,656,sinful,abstract-negative,abstract,concrete,B,NULL
1739202287,0de26b6ebb60cfe5cc7442b8de02633c,PennController,29,0,test_conc,NULL,PennController,40,_Trial_,Start,1739201830427,undefined,728,sensible,abstract-positive,abstract,concrete,B,NULL
1739202287,0de26b6ebb60cfe5cc7442b8de02633c,PennController,29,0,test_conc,NULL,PennController,40,_Header_,Start,1739201830427,undefined,728,sensible,abstract-positive,abstract,concrete,B,NULL
1739202287,0de26b6ebb60cfe5cc7442b8de02633c,PennController,29,0,test_conc,NULL,PennController,40,_Header_,End,1739201830678,undefined,728,sensible,abstract-positive,abstract,concrete,B,NULL
1739202287,0de26b6ebb60cfe5cc7442b8de02633c,PennController,29,0,test_conc,NULL,Selector,unnamed-Selector,Selection,abstract,1739201831911,undefined,728,sensible,abstract-positive,abstract,concrete,B,abstract;concrete
1739202287,0de26b6ebb60cfe5cc7442b8de02633c,PennController,29,0,test_conc,NULL,PennController,40,_Trial_,End,1739201831912,undefined,728,sensible,abstract-positive,abstract,concrete,B,NULL
1739202287,0de26b6ebb60cfe5cc7442b8de02633c,PennController,33,0,test_conc,NULL,PennController,44,_Trial_,Start,1739201831913,undefined,853,divine,abstract-positive,abstract,concrete,B,NULL
1739202287,0de26b6ebb60cfe5cc7442b8de02633c,PennController,33,0,test_conc,NULL,PennController,44,_Header_,Start,1739201831913,undefined,853,divine,abstract-positive,abstract,concrete,B,NULL
1739202287,0de26b6ebb60cfe5cc7442b8de02633c,PennController,33,0,test_conc,NULL,PennController,44,_Header_,End,1739201832167,undefined,853,divine,abstract-positive,abstract,concrete,B,NULL
1739202287,0de26b6ebb60cfe5cc7442b8de02633c,PennController,33,0,test_conc,NULL,Selector,unnamed-Selector,Selection,abstract,1739201833524,undefined,853,divine,abstract-positive,abstract,concrete,B,abstract;concrete
1739202287,0de26b6ebb60cfe5cc7442b8de02633c,PennController,33,0,test_conc,NULL,PennController,44,_Trial_,End,1739201833524,undefined,853,divine,abstract-positive,abstract,concrete,B,NULL
1739202287,0de26b6ebb60cfe5cc7442b8de02633c,PennController,27,0,test_conc,NULL,PennController,38,_Trial_,Start,1739201833525,undefined,859,splendid,abstract-positive,abstract,concrete,B,NULL
1739202287,0de26b6ebb60cfe5cc7442b8de02633c,PennController,27,0,test_conc,NULL,PennController,38,_Header_,Start,1739201833525,undefined,859,splendid,abstract-positive,abstract,concrete,B,NULL
1739202287,0de26b6ebb60cfe5cc7442b8de02633c,PennController,27,0,test_conc,NULL,PennController,38,_Header_,End,1739201833777,undefined,859,splendid,abstract-positive,abstract,concrete,B,NULL
1739202287,0de26b6ebb60cfe5cc7442b8de02633c,PennController,27,0,test_conc,NULL,Selector,unnamed-Selector,Selection,abstract,1739201835139,undefined,859,splendid,abstract-positive,abstract,concrete,B,abstract;concrete
1739202287,0de26b6ebb60cfe5cc7442b8de02633c,PennController,27,0,test_conc,NULL,PennController,38,_Trial_,End,1739201835140,undefined,859,splendid,abstract-positive,abstract,concrete,B,NULL
1739202287,0de26b6ebb60cfe5cc7442b8de02633c,PennController,8,0,test_conc,NULL,PennController,19,_Trial_,Start,1739201835141,undefined,827,heartless,abstract-negative,abstract,concrete,B,NULL
1739202287,0de26b6ebb60cfe5cc7442b8de02633c,PennController,8,0,test_conc,NULL,PennController,19,_Header_,Start,1739201835141,undefined,827,heartless,abstract-negative,abstract,concrete,B,NULL
1739202287,0de26b6ebb60cfe5cc7442b8de02633c,PennController,8,0,test_conc,NULL,PennController,19,_Header_,End,1739201835391,undefined,827,heartless,abstract-negative,abstract,concrete,B,NULL
1739202287,0de26b6ebb60cfe5cc7442b8de02633c,PennController,8,0,test_conc,NULL,Selector,unnamed-Selector,Selection,abstract,1739201836722,undefined,827,heartless,abstract-negative,abstract,concrete,B,abstract;concrete
1739202287,0de26b6ebb60cfe5cc7442b8de02633c,PennController,8,0,test_conc,NULL,PennController,19,_Trial_,End,1739201836722,undefined,827,heartless,abstract-negative,abstract,concrete,B,NULL
1739202287,0de26b6ebb60cfe5cc7442b8de02633c,PennController,37,0,test_conc,NULL,PennController,48,_Trial_,Start,1739201836723,undefined,669,rusted,concrete-negative,abstract,concrete,B,NULL
1739202287,0de26b6ebb60cfe5cc7442b8de02633c,PennController,37,0,test_conc,NULL,PennController,48,_Header_,Start,1739201836723,undefined,669,rusted,concrete-negative,abstract,concrete,B,NULL
1739202287,0de26b6ebb60cfe5cc7442b8de02633c,PennController,37,0,test_conc,NULL,PennController,48,_Header_,End,1739201836973,undefined,669,rusted,concrete-negative,abstract,concrete,B,NULL
1739202287,0de26b6ebb60cfe5cc7442b8de02633c,PennController,37,0,test_conc,NULL,Selector,unnamed-Selector,Selection,concrete,1739201838143,undefined,669,rusted,concrete-negative,abstract,concrete,B,abstract;concrete
1739202287,0de26b6ebb60cfe5cc7442b8de02633c,PennController,37,0,test_conc,NULL,PennController,48,_Trial_,End,1739201838144,undefined,669,rusted,concrete-negative,abstract,concrete,B,NULL
1739202287,0de26b6ebb60cfe5cc7442b8de02633c,PennController,43,0,test_conc,NULL,PennController,54,_Trial_,Start,1739201838145,undefined,605,bloody,concrete-negative,abstract,concrete,B,NULL
1739202287,0de26b6ebb60cfe5cc7442b8de02633c,PennController,43,0,test_conc,NULL,PennController,54,_Header_,Start,1739201838145,undefined,605,bloody,concrete-negative,abstract,concrete,B,NULL
1739202287,0de26b6ebb60cfe5cc7442b8de02633c,PennController,43,0,test_conc,NULL,PennController,54,_Header_,End,1739201838399,undefined,605,bloody,concrete-negative,abstract,concrete,B,NULL
1739202287,0de26b6ebb60cfe5cc7442b8de02633c,PennController,43,0,test_conc,NULL,Selector,unnamed-Selector,Selection,concrete,1739201839506,undefined,605,bloody,concrete-negative,abstract,concrete,B,abstract;concrete
1739202287,0de26b6ebb60cfe5cc7442b8de02633c,PennController,43,0,test_conc,NULL,PennController,54,_Trial_,End,1739201839506,undefined,605,bloody,concrete-negative,abstract,concrete,B,NULL
1739202287,0de26b6ebb60cfe5cc7442b8de02633c,PennController,17,0,test_conc,NULL,PennController,28,_Trial_,Start,1739201839507,undefined,583,female,concrete-positive,abstract,concrete,B,NULL
1739202287,0de26b6ebb60cfe5cc7442b8de02633c,PennController,17,0,test_conc,NULL,PennController,28,_Header_,Start,1739201839507,undefined,583,female,concrete-positive,abstract,concrete,B,NULL
1739202287,0de26b6ebb60cfe5cc7442b8de02633c,PennController,17,0,test_conc,NULL,PennController,28,_Header_,End,1739201839757,undefined,583,female,concrete-positive,abstract,concrete,B,NULL
1739202287,0de26b6ebb60cfe5cc7442b8de02633c,PennController,17,0,test_conc,NULL,Selector,unnamed-Selector,Selection,concrete,1739201840844,undefined,583,female,concrete-positive,abstract,concrete,B,abstract;concrete
1739202287,0de26b6ebb60cfe5cc7442b8de02633c,PennController,17,0,test_conc,NULL,PennController,28,_Trial_,End,1739201840845,undefined,583,female,concrete-positive,abstract,concrete,B,NULL
1739202287,0de26b6ebb60cfe5cc7442b8de02633c,PennController,32,0,test_conc,NULL,PennController,43,_Trial_,Start,1739201840845,undefined,647,helpful,abstract-positive,abstract,concrete,B,NULL
1739202287,0de26b6ebb60cfe5cc7442b8de02633c,PennController,32,0,test_conc,NULL,PennController,43,_Header_,Start,1739201840845,undefined,647,helpful,abstract-positive,abstract,concrete,B,NULL
1739202287,0de26b6ebb60cfe5cc7442b8de02633c,PennController,32,0,test_conc,NULL,PennController,43,_Header_,End,1739201841097,undefined,647,helpful,abstract-positive,abstract,concrete,B,NULL
1739202287,0de26b6ebb60cfe5cc7442b8de02633c,PennController,32,0,test_conc,NULL,Selector,unnamed-Selector,Selection,abstract,1739201842247,undefined,647,helpful,abstract-positive,abstract,concrete,B,abstract;concrete
1739202287,0de26b6ebb60cfe5cc7442b8de02633c,PennController,32,0,test_conc,NULL,PennController,43,_Trial_,End,1739201842248,undefined,647,helpful,abstract-positive,abstract,concrete,B,NULL
1739202287,0de26b6ebb60cfe5cc7442b8de02633c,PennController,28,0,test_conc,NULL,PennController,39,_Trial_,Start,1739201842248,undefined,823,possible,abstract-positive,abstract,concrete,B,NULL
1739202287,0de26b6ebb60cfe5cc7442b8de02633c,PennController,28,0,test_conc,NULL,PennController,39,_Header_,Start,1739201842248,undefined,823,possible,abstract-positive,abstract,concrete,B,NULL
1739202287,0de26b6ebb60cfe5cc7442b8de02633c,PennController,28,0,test_conc,NULL,PennController,39,_Header_,End,1739201842499,undefined,823,possible,abstract-positive,abstract,concrete,B,NULL
1739202287,0de26b6ebb60cfe5cc7442b8de02633c,PennController,28,0,test_conc,NULL,Selector,unnamed-Selector,Selection,abstract,1739201843826,undefined,823,possible,abstract-positive,abstract,concrete,B,abstract;concrete
1739202287,0de26b6ebb60cfe5cc7442b8de02633c,PennController,28,0,test_conc,NULL,PennController,39,_Trial_,End,1739201843827,undefined,823,possible,abstract-positive,abstract,concrete,B,NULL
1739202287,0de26b6ebb60cfe5cc7442b8de02633c,PennController,31,0,test_conc,NULL,PennController,42,_Trial_,Start,1739201843828,undefined,623,pleasant,abstract-positive,abstract,concrete,B,NULL
1739202287,0de26b6ebb60cfe5cc7442b8de02633c,PennController,31,0,test_conc,NULL,PennController,42,_Header_,Start,1739201843828,undefined,623,pleasant,abstract-positive,abstract,concrete,B,NULL
1739202287,0de26b6ebb60cfe5cc7442b8de02633c,PennController,31,0,test_conc,NULL,PennController,42,_Header_,End,1739201844080,undefined,623,pleasant,abstract-positive,abstract,concrete,B,NULL
1739202287,0de26b6ebb60cfe5cc7442b8de02633c,PennController,31,0,test_conc,NULL,Selector,unnamed-Selector,Selection,abstract,1739201845208,undefined,623,pleasant,abstract-positive,abstract,concrete,B,abstract;concrete
1739202287,0de26b6ebb60cfe5cc7442b8de02633c,PennController,31,0,test_conc,NULL,PennController,42,_Trial_,End,1739201845208,undefined,623,pleasant,abstract-positive,abstract,concrete,B,NULL
1739202287,0de26b6ebb60cfe5cc7442b8de02633c,PennController,7,0,test_conc,NULL,PennController,18,_Trial_,Start,1739201845209,undefined,623,soulless,abstract-negative,abstract,concrete,B,NULL
1739202287,0de26b6ebb60cfe5cc7442b8de02633c,PennController,7,0,test_conc,NULL,PennController,18,_Header_,Start,1739201845209,undefined,623,soulless,abstract-negative,abstract,concrete,B,NULL
1739202287,0de26b6ebb60cfe5cc7442b8de02633c,PennController,7,0,test_conc,NULL,PennController,18,_Header_,End,1739201845460,undefined,623,soulless,abstract-negative,abstract,concrete,B,NULL
1739202287,0de26b6ebb60cfe5cc7442b8de02633c,PennController,7,0,test_conc,NULL,Selector,unnamed-Selector,Selection,abstract,1739201846585,undefined,623,soulless,abstract-negative,abstract,concrete,B,abstract;concrete
1739202287,0de26b6ebb60cfe5cc7442b8de02633c,PennController,7,0,test_conc,NULL,PennController,18,_Trial_,End,1739201846586,undefined,623,soulless,abstract-negative,abstract,concrete,B,NULL
1739202287,0de26b6ebb60cfe5cc7442b8de02633c,PennController,6,0,test_conc,NULL,PennController,17,_Trial_,Start,1739201846587,undefined,595,evil,abstract-negative,abstract,concrete,B,NULL
1739202287,0de26b6ebb60cfe5cc7442b8de02633c,PennController,6,0,test_conc,NULL,PennController,17,_Header_,Start,1739201846587,undefined,595,evil,abstract-negative,abstract,concrete,B,NULL
1739202287,0de26b6ebb60cfe5cc7442b8de02633c,PennController,6,0,test_conc,NULL,PennController,17,_Header_,End,1739201846838,undefined,595,evil,abstract-negative,abstract,concrete,B,NULL
1739202287,0de26b6ebb60cfe5cc7442b8de02633c,PennController,6,0,test_conc,NULL,Selector,unnamed-Selector,Selection,abstract,1739201847935,undefined,595,evil,abstract-negative,abstract,concrete,B,abstract;concrete
1739202287,0de26b6ebb60cfe5cc7442b8de02633c,PennController,6,0,test_conc,NULL,PennController,17,_Trial_,End,1739201847936,undefined,595,evil,abstract-negative,abstract,concrete,B,NULL
1739202287,0de26b6ebb60cfe5cc7442b8de02633c,PennController,10,0,test_conc,NULL,PennController,21,_Trial_,Start,1739201847937,undefined,703,crappy,abstract-negative,abstract,concrete,B,NULL
1739202287,0de26b6ebb60cfe5cc7442b8de02633c,PennController,10,0,test_conc,NULL,PennController,21,_Header_,Start,1739201847937,undefined,703,crappy,abstract-negative,abstract,concrete,B,NULL
1739202287,0de26b6ebb60cfe5cc7442b8de02633c,PennController,10,0,test_conc,NULL,PennController,21,_Header_,End,1739201848187,undefined,703,crappy,abstract-negative,abstract,concrete,B,NULL
1739202287,0de26b6ebb60cfe5cc7442b8de02633c,PennController,10,0,test_conc,NULL,Selector,unnamed-Selector,Selection,abstract,1739201849392,undefined,703,crappy,abstract-negative,abstract,concrete,B,abstract;concrete
1739202287,0de26b6ebb60cfe5cc7442b8de02633c,PennController,10,0,test_conc,NULL,PennController,21,_Trial_,End,1739201849393,undefined,703,crappy,abstract-negative,abstract,concrete,B,NULL
1739202287,0de26b6ebb60cfe5cc7442b8de02633c,PennController,13,0,test_conc,NULL,PennController,24,_Trial_,Start,1739201849393,undefined,571,disloyal,abstract-negative,abstract,concrete,B,NULL
1739202287,0de26b6ebb60cfe5cc7442b8de02633c,PennController,13,0,test_conc,NULL,PennController,24,_Header_,Start,1739201849393,undefined,571,disloyal,abstract-negative,abstract,concrete,B,NULL
1739202287,0de26b6ebb60cfe5cc7442b8de02633c,PennController,13,0,test_conc,NULL,PennController,24,_Header_,End,1739201849643,undefined,571,disloyal,abstract-negative,abstract,concrete,B,NULL
1739202287,0de26b6ebb60cfe5cc7442b8de02633c,PennController,13,0,test_conc,NULL,Selector,unnamed-Selector,Selection,abstract,1739201850718,undefined,571,disloyal,abstract-negative,abstract,concrete,B,abstract;concrete
1739202287,0de26b6ebb60cfe5cc7442b8de02633c,PennController,13,0,test_conc,NULL,PennController,24,_Trial_,End,1739201850719,undefined,571,disloyal,abstract-negative,abstract,concrete,B,NULL
1739202287,0de26b6ebb60cfe5cc7442b8de02633c,PennController,20,0,test_conc,NULL,PennController,31,_Trial_,Start,1739201850720,undefined,704,orange,concrete-positive,abstract,concrete,B,NULL
1739202287,0de26b6ebb60cfe5cc7442b8de02633c,PennController,20,0,test_conc,NULL,PennController,31,_Header_,Start,1739201850720,undefined,704,orange,concrete-positive,abstract,concrete,B,NULL
1739202287,0de26b6ebb60cfe5cc7442b8de02633c,PennController,20,0,test_conc,NULL,PennController,31,_Header_,End,1739201850974,undefined,704,orange,concrete-positive,abstract,concrete,B,NULL
1739202287,0de26b6ebb60cfe5cc7442b8de02633c,PennController,20,0,test_conc,NULL,Selector,unnamed-Selector,Selection,concrete,1739201852182,undefined,704,orange,concrete-positive,abstract,concrete,B,abstract;concrete
1739202287,0de26b6ebb60cfe5cc7442b8de02633c,PennController,20,0,test_conc,NULL,PennController,31,_Trial_,End,1739201852183,undefined,704,orange,concrete-positive,abstract,concrete,B,NULL
1739202287,0de26b6ebb60cfe5cc7442b8de02633c,PennController,9,0,test_conc,NULL,PennController,20,_Trial_,Start,1739201852184,undefined,557,sexist,abstract-negative,abstract,concrete,B,NULL
1739202287,0de26b6ebb60cfe5cc7442b8de02633c,PennController,9,0,test_conc,NULL,PennController,20,_Header_,Start,1739201852184,undefined,557,sexist,abstract-negative,abstract,concrete,B,NULL
1739202287,0de26b6ebb60cfe5cc7442b8de02633c,PennController,9,0,test_conc,NULL,PennController,20,_Header_,End,1739201852434,undefined,557,sexist,abstract-negative,abstract,concrete,B,NULL
1739202287,0de26b6ebb60cfe5cc7442b8de02633c,PennController,9,0,test_conc,NULL,Selector,unnamed-Selector,Selection,concrete,1739201853497,undefined,557,sexist,abstract-negative,abstract,concrete,B,abstract;concrete
1739202287,0de26b6ebb60cfe5cc7442b8de02633c,PennController,9,0,test_conc,NULL,PennController,20,_Trial_,End,1739201853497,undefined,557,sexist,abstract-negative,abstract,concrete,B,NULL
1739202287,0de26b6ebb60cfe5cc7442b8de02633c,PennController,21,0,test_conc,NULL,PennController,32,_Trial_,Start,1739201853498,undefined,598,starry,concrete-positive,abstract,concrete,B,NULL
1739202287,0de26b6ebb60cfe5cc7442b8de02633c,PennController,21,0,test_conc,NULL,PennController,32,_Header_,Start,1739201853498,undefined,598,starry,concrete-positive,abstract,concrete,B,NULL
1739202287,0de26b6ebb60cfe5cc7442b8de02633c,PennController,21,0,test_conc,NULL,PennController,32,_Header_,End,1739201853750,undefined,598,starry,concrete-positive,abstract,concrete,B,NULL
1739202287,0de26b6ebb60cfe5cc7442b8de02633c,PennController,21,0,test_conc,NULL,Selector,unnamed-Selector,Selection,concrete,1739201854852,undefined,598,starry,concrete-positive,abstract,concrete,B,abstract;concrete
1739202287,0de26b6ebb60cfe5cc7442b8de02633c,PennController,21,0,test_conc,NULL,PennController,32,_Trial_,End,1739201854853,undefined,598,starry,concrete-positive,abstract,concrete,B,NULL
1739202287,0de26b6ebb60cfe5cc7442b8de02633c,PennController,42,0,test_conc,NULL,PennController,53,_Trial_,Start,1739201854854,undefined,616,freezing,concrete-negative,abstract,concrete,B,NULL
1739202287,0de26b6ebb60cfe5cc7442b8de02633c,PennController,42,0,test_conc,NULL,PennController,53,_Header_,Start,1739201854854,undefined,616,freezing,concrete-negative,abstract,concrete,B,NULL
1739202287,0de26b6ebb60cfe5cc7442b8de02633c,PennController,42,0,test_conc,NULL,PennController,53,_Header_,End,1739201855106,undefined,616,freezing,concrete-negative,abstract,concrete,B,NULL
1739202287,0de26b6ebb60cfe5cc7442b8de02633c,PennController,42,0,test_conc,NULL,Selector,unnamed-Selector,Selection,concrete,1739201856226,undefined,616,freezing,concrete-negative,abstract,concrete,B,abstract;concrete
1739202287,0de26b6ebb60cfe5cc7442b8de02633c,PennController,42,0,test_conc,NULL,PennController,53,_Trial_,End,1739201856227,undefined,616,freezing,concrete-negative,abstract,concrete,B,NULL
1739202287,0de26b6ebb60cfe5cc7442b8de02633c,PennController,14,0,test_conc,NULL,PennController,25,_Trial_,Start,1739201856228,undefined,573,sunny,concrete-positive,abstract,concrete,B,NULL
1739202287,0de26b6ebb60cfe5cc7442b8de02633c,PennController,14,0,test_conc,NULL,PennController,25,_Header_,Start,1739201856228,undefined,573,sunny,concrete-positive,abstract,concrete,B,NULL
1739202287,0de26b6ebb60cfe5cc7442b8de02633c,PennController,14,0,test_conc,NULL,PennController,25,_Header_,End,1739201856478,undefined,573,sunny,concrete-positive,abstract,concrete,B,NULL
1739202287,0de26b6ebb60cfe5cc7442b8de02633c,PennController,14,0,test_conc,NULL,Selector,unnamed-Selector,Selection,abstract,1739201857555,undefined,573,sunny,concrete-positive,abstract,concrete,B,abstract;concrete
1739202287,0de26b6ebb60cfe5cc7442b8de02633c,PennController,14,0,test_conc,NULL,PennController,25,_Trial_,End,1739201857556,undefined,573,sunny,concrete-positive,abstract,concrete,B,NULL
1739202287,0de26b6ebb60cfe5cc7442b8de02633c,PennController,18,0,test_conc,NULL,PennController,29,_Trial_,Start,1739201857557,undefined,999,newborn,concrete-positive,abstract,concrete,B,NULL
1739202287,0de26b6ebb60cfe5cc7442b8de02633c,PennController,18,0,test_conc,NULL,PennController,29,_Header_,Start,1739201857557,undefined,999,newborn,concrete-positive,abstract,concrete,B,NULL
1739202287,0de26b6ebb60cfe5cc7442b8de02633c,PennController,18,0,test_conc,NULL,PennController,29,_Header_,End,1739201857811,undefined,999,newborn,concrete-positive,abstract,concrete,B,NULL
1739202287,0de26b6ebb60cfe5cc7442b8de02633c,PennController,18,0,test_conc,NULL,Selector,unnamed-Selector,Selection,concrete,1739201859311,undefined,999,newborn,concrete-positive,abstract,concrete,B,abstract;concrete
1739202287,0de26b6ebb60cfe5cc7442b8de02633c,PennController,18,0,test_conc,NULL,PennController,29,_Trial_,End,1739201859311,undefined,999,newborn,concrete-positive,abstract,concrete,B,NULL
1739202287,0de26b6ebb60cfe5cc7442b8de02633c,PennController,22,0,test_conc,NULL,PennController,33,_Trial_,Start,1739201859312,undefined,816,pregnant,concrete-positive,abstract,concrete,B,NULL
1739202287,0de26b6ebb60cfe5cc7442b8de02633c,PennController,22,0,test_conc,NULL,PennController,33,_Header_,Start,1739201859312,undefined,816,pregnant,concrete-positive,abstract,concrete,B,NULL
1739202287,0de26b6ebb60cfe5cc7442b8de02633c,PennController,22,0,test_conc,NULL,PennController,33,_Header_,End,1739201859563,undefined,816,pregnant,concrete-positive,abstract,concrete,B,NULL
1739202287,0de26b6ebb60cfe5cc7442b8de02633c,PennController,22,0,test_conc,NULL,Selector,unnamed-Selector,Selection,abstract,1739201860882,undefined,816,pregnant,concrete-positive,abstract,concrete,B,abstract;concrete
1739202287,0de26b6ebb60cfe5cc7442b8de02633c,PennController,22,0,test_conc,NULL,PennController,33,_Trial_,End,1739201860883,undefined,816,pregnant,concrete-positive,abstract,concrete,B,NULL
1739202287,0de26b6ebb60cfe5cc7442b8de02633c,PennController,26,0,test_conc,NULL,PennController,37,_Trial_,Start,1739201860883,undefined,1018,thankful,abstract-positive,abstract,concrete,B,NULL
1739202287,0de26b6ebb60cfe5cc7442b8de02633c,PennController,26,0,test_conc,NULL,PennController,37,_Header_,Start,1739201860883,undefined,1018,thankful,abstract-positive,abstract,concrete,B,NULL
1739202287,0de26b6ebb60cfe5cc7442b8de02633c,PennController,26,0,test_conc,NULL,PennController,37,_Header_,End,1739201861135,undefined,1018,thankful,abstract-positive,abstract,concrete,B,NULL
1739202287,0de26b6ebb60cfe5cc7442b8de02633c,PennController,26,0,test_conc,NULL,Selector,unnamed-Selector,Selection,abstract,1739201862655,undefined,1018,thankful,abstract-positive,abstract,concrete,B,abstract;concrete
1739202287,0de26b6ebb60cfe5cc7442b8de02633c,PennController,26,0,test_conc,NULL,PennController,37,_Trial_,End,1739201862656,undefined,1018,thankful,abstract-positive,abstract,concrete,B,NULL
1739202287,0de26b6ebb60cfe5cc7442b8de02633c,PennController,11,0,test_conc,NULL,PennController,22,_Trial_,Start,1739201862657,undefined,782,stupid,abstract-negative,abstract,concrete,B,NULL
1739202287,0de26b6ebb60cfe5cc7442b8de02633c,PennController,11,0,test_conc,NULL,PennController,22,_Header_,Start,1739201862657,undefined,782,stupid,abstract-negative,abstract,concrete,B,NULL
1739202287,0de26b6ebb60cfe5cc7442b8de02633c,PennController,11,0,test_conc,NULL,PennController,22,_Header_,End,1739201862911,undefined,782,stupid,abstract-negative,abstract,concrete,B,NULL
1739202287,0de26b6ebb60cfe5cc7442b8de02633c,PennController,11,0,test_conc,NULL,Selector,unnamed-Selector,Selection,abstract,1739201864198,undefined,782,stupid,abstract-negative,abstract,concrete,B,abstract;concrete
1739202287,0de26b6ebb60cfe5cc7442b8de02633c,PennController,11,0,test_conc,NULL,PennController,22,_Trial_,End,1739201864198,undefined,782,stupid,abstract-negative,abstract,concrete,B,NULL
1739202287,0de26b6ebb60cfe5cc7442b8de02633c,PennController,30,0,test_conc,NULL,PennController,41,_Trial_,Start,1739201864199,undefined,936,mindful,abstract-positive,abstract,concrete,B,NULL
1739202287,0de26b6ebb60cfe5cc7442b8de02633c,PennController,30,0,test_conc,NULL,PennController,41,_Header_,Start,1739201864199,undefined,936,mindful,abstract-positive,abstract,concrete,B,NULL
1739202287,0de26b6ebb60cfe5cc7442b8de02633c,PennController,30,0,test_conc,NULL,PennController,41,_Header_,End,1739201864450,undefined,936,mindful,abstract-positive,abstract,concrete,B,NULL
1739202287,0de26b6ebb60cfe5cc7442b8de02633c,PennController,30,0,test_conc,NULL,Selector,unnamed-Selector,Selection,abstract,1739201865887,undefined,936,mindful,abstract-positive,abstract,concrete,B,abstract;concrete
1739202287,0de26b6ebb60cfe5cc7442b8de02633c,PennController,30,0,test_conc,NULL,PennController,41,_Trial_,End,1739201865888,undefined,936,mindful,abstract-positive,abstract,concrete,B,NULL
1739202287,0de26b6ebb60cfe5cc7442b8de02633c,PennController,35,0,test_conc,NULL,PennController,46,_Trial_,Start,1739201865889,undefined,657,headless,concrete-negative,abstract,concrete,B,NULL
1739202287,0de26b6ebb60cfe5cc7442b8de02633c,PennController,35,0,test_conc,NULL,PennController,46,_Header_,Start,1739201865889,undefined,657,headless,concrete-negative,abstract,concrete,B,NULL
1739202287,0de26b6ebb60cfe5cc7442b8de02633c,PennController,35,0,test_conc,NULL,PennController,46,_Header_,End,1739201866139,undefined,657,headless,concrete-negative,abstract,concrete,B,NULL
1739202287,0de26b6ebb60cfe5cc7442b8de02633c,PennController,35,0,test_conc,NULL,Selector,unnamed-Selector,Selection,abstract,1739201867299,undefined,657,headless,concrete-negative,abstract,concrete,B,abstract;concrete
1739202287,0de26b6ebb60cfe5cc7442b8de02633c,PennController,35,0,test_conc,NULL,PennController,46,_Trial_,End,1739201867300,undefined,657,headless,concrete-negative,abstract,concrete,B,NULL
1739202287,0de26b6ebb60cfe5cc7442b8de02633c,PennController,40,0,test_conc,NULL,PennController,51,_Trial_,Start,1739201867300,undefined,1067,dirty,concrete-negative,abstract,concrete,B,NULL
1739202287,0de26b6ebb60cfe5cc7442b8de02633c,PennController,40,0,test_conc,NULL,PennController,51,_Header_,Start,1739201867300,undefined,1067,dirty,concrete-negative,abstract,concrete,B,NULL
1739202287,0de26b6ebb60cfe5cc7442b8de02633c,PennController,40,0,test_conc,NULL,PennController,51,_Header_,End,1739201867552,undefined,1067,dirty,concrete-negative,abstract,concrete,B,NULL
1739202287,0de26b6ebb60cfe5cc7442b8de02633c,PennController,40,0,test_conc,NULL,Selector,unnamed-Selector,Selection,concrete,1739201869123,undefined,1067,dirty,concrete-negative,abstract,concrete,B,abstract;concrete
1739202287,0de26b6ebb60cfe5cc7442b8de02633c,PennController,40,0,test_conc,NULL,PennController,51,_Trial_,End,1739201869123,undefined,1067,dirty,concrete-negative,abstract,concrete,B,NULL
1739202287,0de26b6ebb60cfe5cc7442b8de02633c,PennController,23,0,test_conc,NULL,PennController,34,_Trial_,Start,1739201869124,undefined,717,handmade,concrete-positive,abstract,concrete,B,NULL
1739202287,0de26b6ebb60cfe5cc7442b8de02633c,PennController,23,0,test_conc,NULL,PennController,34,_Header_,Start,1739201869124,undefined,717,handmade,concrete-positive,abstract,concrete,B,NULL
1739202287,0de26b6ebb60cfe5cc7442b8de02633c,PennController,23,0,test_conc,NULL,PennController,34,_Header_,End,1739201869375,undefined,717,handmade,concrete-positive,abstract,concrete,B,NULL
1739202287,0de26b6ebb60cfe5cc7442b8de02633c,PennController,23,0,test_conc,NULL,Selector,unnamed-Selector,Selection,concrete,1739201870592,undefined,717,handmade,concrete-positive,abstract,concrete,B,abstract;concrete
1739202287,0de26b6ebb60cfe5cc7442b8de02633c,PennController,23,0,test_conc,NULL,PennController,34,_Trial_,End,1739201870593,undefined,717,handmade,concrete-positive,abstract,concrete,B,NULL
1739202287,0de26b6ebb60cfe5cc7442b8de02633c,PennController,34,0,test_conc,NULL,PennController,45,_Trial_,Start,1739201870594,undefined,792,toothless,concrete-negative,abstract,concrete,B,NULL
1739202287,0de26b6ebb60cfe5cc7442b8de02633c,PennController,34,0,test_conc,NULL,PennController,45,_Header_,Start,1739201870594,undefined,792,toothless,concrete-negative,abstract,concrete,B,NULL
1739202287,0de26b6ebb60cfe5cc7442b8de02633c,PennController,34,0,test_conc,NULL,PennController,45,_Header_,End,1739201870846,undefined,792,toothless,concrete-negative,abstract,concrete,B,NULL
1739202287,0de26b6ebb60cfe5cc7442b8de02633c,PennController,34,0,test_conc,NULL,Selector,unnamed-Selector,Selection,concrete,1739201872140,undefined,792,toothless,concrete-negative,abstract,concrete,B,abstract;concrete
1739202287,0de26b6ebb60cfe5cc7442b8de02633c,PennController,34,0,test_conc,NULL,PennController,45,_Trial_,End,1739201872141,undefined,792,toothless,concrete-negative,abstract,concrete,B,NULL
1739202287,0de26b6ebb60cfe5cc7442b8de02633c,PennController,36,0,test_conc,NULL,PennController,47,_Trial_,Start,1739201872141,undefined,972,bloodshot,concrete-negative,abstract,concrete,B,NULL
1739202287,0de26b6ebb60cfe5cc7442b8de02633c,PennController,36,0,test_conc,NULL,PennController,47,_Header_,Start,1739201872141,undefined,972,bloodshot,concrete-negative,abstract,concrete,B,NULL
1739202287,0de26b6ebb60cfe5cc7442b8de02633c,PennController,36,0,test_conc,NULL,PennController,47,_Header_,End,1739201872391,undefined,972,bloodshot,concrete-negative,abstract,concrete,B,NULL
1739202287,0de26b6ebb60cfe5cc7442b8de02633c,PennController,36,0,test_conc,NULL,Selector,unnamed-Selector,Selection,concrete,1739201873865,undefined,972,bloodshot,concrete-negative,abstract,concrete,B,abstract;concrete
1739202287,0de26b6ebb60cfe5cc7442b8de02633c,PennController,36,0,test_conc,NULL,PennController,47,_Trial_,End,1739201873866,undefined,972,bloodshot,concrete-negative,abstract,concrete,B,NULL
1739202287,0de26b6ebb60cfe5cc7442b8de02633c,PennController,41,0,test_conc,NULL,PennController,52,_Trial_,Start,1739201873867,undefined,631,wrinkled,concrete-negative,abstract,concrete,B,NULL
1739202287,0de26b6ebb60cfe5cc7442b8de02633c,PennController,41,0,test_conc,NULL,PennController,52,_Header_,Start,1739201873867,undefined,631,wrinkled,concrete-negative,abstract,concrete,B,NULL
1739202287,0de26b6ebb60cfe5cc7442b8de02633c,PennController,41,0,test_conc,NULL,PennController,52,_Header_,End,1739201874118,undefined,631,wrinkled,concrete-negative,abstract,concrete,B,NULL
1739202287,0de26b6ebb60cfe5cc7442b8de02633c,PennController,41,0,test_conc,NULL,Selector,unnamed-Selector,Selection,concrete,1739201875250,undefined,631,wrinkled,concrete-negative,abstract,concrete,B,abstract;concrete
1739202287,0de26b6ebb60cfe5cc7442b8de02633c,PennController,41,0,test_conc,NULL,PennController,52,_Trial_,End,1739201875250,undefined,631,wrinkled,concrete-negative,abstract,concrete,B,NULL
1739202287,0de26b6ebb60cfe5cc7442b8de02633c,PennController,4,0,test_conc,NULL,PennController,15,_Trial_,Start,1739201875251,undefined,860,worthless,abstract-negative,abstract,concrete,B,NULL
1739202287,0de26b6ebb60cfe5cc7442b8de02633c,PennController,4,0,test_conc,NULL,PennController,15,_Header_,Start,1739201875251,undefined,860,worthless,abstract-negative,abstract,concrete,B,NULL
1739202287,0de26b6ebb60cfe5cc7442b8de02633c,PennController,4,0,test_conc,NULL,PennController,15,_Header_,End,1739201875503,undefined,860,worthless,abstract-negative,abstract,concrete,B,NULL
1739202287,0de26b6ebb60cfe5cc7442b8de02633c,PennController,4,0,test_conc,NULL,Selector,unnamed-Selector,Selection,abstract,1739201876864,undefined,860,worthless,abstract-negative,abstract,concrete,B,abstract;concrete
1739202287,0de26b6ebb60cfe5cc7442b8de02633c,PennController,4,0,test_conc,NULL,PennController,15,_Trial_,End,1739201876865,undefined,860,worthless,abstract-negative,abstract,concrete,B,NULL
1739202287,0de26b6ebb60cfe5cc7442b8de02633c,PennController,13,0,test_conc,NULL,PennController,24,_Trial_,Start,1739201876865,undefined,643,disloyal,abstract-negative,abstract,concrete,B,NULL
1739202287,0de26b6ebb60cfe5cc7442b8de02633c,PennController,13,0,test_conc,NULL,PennController,24,_Header_,Start,1739201876865,undefined,643,disloyal,abstract-negative,abstract,concrete,B,NULL
1739202287,0de26b6ebb60cfe5cc7442b8de02633c,PennController,13,0,test_conc,NULL,PennController,24,_Header_,End,1739201877118,undefined,643,disloyal,abstract-negative,abstract,concrete,B,NULL
1739202287,0de26b6ebb60cfe5cc7442b8de02633c,PennController,13,0,test_conc,NULL,Selector,unnamed-Selector,Selection,abstract,1739201878260,undefined,643,disloyal,abstract-negative,abstract,concrete,B,abstract;concrete
1739202287,0de26b6ebb60cfe5cc7442b8de02633c,PennController,13,0,test_conc,NULL,PennController,24,_Trial_,End,1739201878261,undefined,643,disloyal,abstract-negative,abstract,concrete,B,NULL
1739202287,0de26b6ebb60cfe5cc7442b8de02633c,PennController,12,0,test_conc,NULL,PennController,23,_Trial_,Start,1739201878262,undefined,729,sinful,abstract-negative,abstract,concrete,B,NULL
1739202287,0de26b6ebb60cfe5cc7442b8de02633c,PennController,12,0,test_conc,NULL,PennController,23,_Header_,Start,1739201878262,undefined,729,sinful,abstract-negative,abstract,concrete,B,NULL
1739202287,0de26b6ebb60cfe5cc7442b8de02633c,PennController,12,0,test_conc,NULL,PennController,23,_Header_,End,1739201878512,undefined,729,sinful,abstract-negative,abstract,concrete,B,NULL
1739202287,0de26b6ebb60cfe5cc7442b8de02633c,PennController,12,0,test_conc,NULL,Selector,unnamed-Selector,Selection,abstract,1739201879746,undefined,729,sinful,abstract-negative,abstract,concrete,B,abstract;concrete
1739202287,0de26b6ebb60cfe5cc7442b8de02633c,PennController,12,0,test_conc,NULL,PennController,23,_Trial_,End,1739201879747,undefined,729,sinful,abstract-negative,abstract,concrete,B,NULL
1739202287,0de26b6ebb60cfe5cc7442b8de02633c,PennController,27,0,test_conc,NULL,PennController,38,_Trial_,Start,1739201879747,undefined,764,splendid,abstract-positive,abstract,concrete,B,NULL
1739202287,0de26b6ebb60cfe5cc7442b8de02633c,PennController,27,0,test_conc,NULL,PennController,38,_Header_,Start,1739201879747,undefined,764,splendid,abstract-positive,abstract,concrete,B,NULL
1739202287,0de26b6ebb60cfe5cc7442b8de02633c,PennController,27,0,test_conc,NULL,PennController,38,_Header_,End,1739201879999,undefined,764,splendid,abstract-positive,abstract,concrete,B,NULL
1739202287,0de26b6ebb60cfe5cc7442b8de02633c,PennController,27,0,test_conc,NULL,Selector,unnamed-Selector,Selection,abstract,1739201881266,undefined,764,splendid,abstract-positive,abstract,concrete,B,abstract;concrete
1739202287,0de26b6ebb60cfe5cc7442b8de02633c,PennController,27,0,test_conc,NULL,PennController,38,_Trial_,End,1739201881266,undefined,764,splendid,abstract-positive,abstract,concrete,B,NULL
1739202287,0de26b6ebb60cfe5cc7442b8de02633c,PennController,19,0,test_conc,NULL,PennController,30,_Trial_,Start,1739201881267,undefined,796,blooming,concrete-positive,abstract,concrete,B,NULL
1739202287,0de26b6ebb60cfe5cc7442b8de02633c,PennController,19,0,test_conc,NULL,PennController,30,_Header_,Start,1739201881267,undefined,796,blooming,concrete-positive,abstract,concrete,B,NULL
1739202287,0de26b6ebb60cfe5cc7442b8de02633c,PennController,19,0,test_conc,NULL,PennController,30,_Header_,End,1739201881519,undefined,796,blooming,concrete-positive,abstract,concrete,B,NULL
1739202287,0de26b6ebb60cfe5cc7442b8de02633c,PennController,19,0,test_conc,NULL,Selector,unnamed-Selector,Selection,concrete,1739201882818,undefined,796,blooming,concrete-positive,abstract,concrete,B,abstract;concrete
1739202287,0de26b6ebb60cfe5cc7442b8de02633c,PennController,19,0,test_conc,NULL,PennController,30,_Trial_,End,1739201882818,undefined,796,blooming,concrete-positive,abstract,concrete,B,NULL
1739202287,0de26b6ebb60cfe5cc7442b8de02633c,PennController,20,0,test_conc,NULL,PennController,31,_Trial_,Start,1739201882819,undefined,613,orange,concrete-positive,abstract,concrete,B,NULL
1739202287,0de26b6ebb60cfe5cc7442b8de02633c,PennController,20,0,test_conc,NULL,PennController,31,_Header_,Start,1739201882819,undefined,613,orange,concrete-positive,abstract,concrete,B,NULL
1739202287,0de26b6ebb60cfe5cc7442b8de02633c,PennController,20,0,test_conc,NULL,PennController,31,_Header_,End,1739201883070,undefined,613,orange,concrete-positive,abstract,concrete,B,NULL
1739202287,0de26b6ebb60cfe5cc7442b8de02633c,PennController,20,0,test_conc,NULL,Selector,unnamed-Selector,Selection,concrete,1739201884187,undefined,613,orange,concrete-positive,abstract,concrete,B,abstract;concrete
1739202287,0de26b6ebb60cfe5cc7442b8de02633c,PennController,20,0,test_conc,NULL,PennController,31,_Trial_,End,1739201884188,undefined,613,orange,concrete-positive,abstract,concrete,B,NULL
1739202287,0de26b6ebb60cfe5cc7442b8de02633c,PennController,21,0,test_conc,NULL,PennController,32,_Trial_,Start,1739201884188,undefined,722,starry,concrete-positive,abstract,concrete,B,NULL
1739202287,0de26b6ebb60cfe5cc7442b8de02633c,PennController,21,0,test_conc,NULL,PennController,32,_Header_,Start,1739201884188,undefined,722,starry,concrete-positive,abstract,concrete,B,NULL
1739202287,0de26b6ebb60cfe5cc7442b8de02633c,PennController,21,0,test_conc,NULL,PennController,32,_Header_,End,1739201884441,undefined,722,starry,concrete-positive,abstract,concrete,B,NULL
1739202287,0de26b6ebb60cfe5cc7442b8de02633c,PennController,21,0,test_conc,NULL,Selector,unnamed-Selector,Selection,concrete,1739201885665,undefined,722,starry,concrete-positive,abstract,concrete,B,abstract;concrete
1739202287,0de26b6ebb60cfe5cc7442b8de02633c,PennController,21,0,test_conc,NULL,PennController,32,_Trial_,End,1739201885666,undefined,722,starry,concrete-positive,abstract,concrete,B,NULL
1739202287,0de26b6ebb60cfe5cc7442b8de02633c,PennController,37,0,test_conc,NULL,PennController,48,_Trial_,Start,1739201885667,undefined,637,rusted,concrete-negative,abstract,concrete,B,NULL
1739202287,0de26b6ebb60cfe5cc7442b8de02633c,PennController,37,0,test_conc,NULL,PennController,48,_Header_,Start,1739201885667,undefined,637,rusted,concrete-negative,abstract,concrete,B,NULL
1739202287,0de26b6ebb60cfe5cc7442b8de02633c,PennController,37,0,test_conc,NULL,PennController,48,_Header_,End,1739201885918,undefined,637,rusted,concrete-negative,abstract,concrete,B,NULL
1739202287,0de26b6ebb60cfe5cc7442b8de02633c,PennController,37,0,test_conc,NULL,Selector,unnamed-Selector,Selection,concrete,1739201887057,undefined,637,rusted,concrete-negative,abstract,concrete,B,abstract;concrete
1739202287,0de26b6ebb60cfe5cc7442b8de02633c,PennController,37,0,test_conc,NULL,PennController,48,_Trial_,End,1739201887058,undefined,637,rusted,concrete-negative,abstract,concrete,B,NULL
1739202287,0de26b6ebb60cfe5cc7442b8de02633c,PennController,25,0,test_conc,NULL,PennController,36,_Trial_,Start,1739201887059,undefined,581,lovable,abstract-positive,abstract,concrete,B,NULL
1739202287,0de26b6ebb60cfe5cc7442b8de02633c,PennController,25,0,test_conc,NULL,PennController,36,_Header_,Start,1739201887059,undefined,581,lovable,abstract-positive,abstract,concrete,B,NULL
1739202287,0de26b6ebb60cfe5cc7442b8de02633c,PennController,25,0,test_conc,NULL,PennController,36,_Header_,End,1739201887309,undefined,581,lovable,abstract-positive,abstract,concrete,B,NULL
1739202287,0de26b6ebb60cfe5cc7442b8de02633c,PennController,25,0,test_conc,NULL,Selector,unnamed-Selector,Selection,abstract,1739201888392,undefined,581,lovable,abstract-positive,abstract,concrete,B,abstract;concrete
1739202287,0de26b6ebb60cfe5cc7442b8de02633c,PennController,25,0,test_conc,NULL,PennController,36,_Trial_,End,1739201888393,undefined,581,lovable,abstract-positive,abstract,concrete,B,NULL
1739202287,0de26b6ebb60cfe5cc7442b8de02633c,PennController,42,0,test_conc,NULL,PennController,53,_Trial_,Start,1739201888393,undefined,697,freezing,concrete-negative,abstract,concrete,B,NULL
1739202287,0de26b6ebb60cfe5cc7442b8de02633c,PennController,42,0,test_conc,NULL,PennController,53,_Header_,Start,1739201888393,undefined,697,freezing,concrete-negative,abstract,concrete,B,NULL
1739202287,0de26b6ebb60cfe5cc7442b8de02633c,PennController,42,0,test_conc,NULL,PennController,53,_Header_,End,1739201888645,undefined,697,freezing,concrete-negative,abstract,concrete,B,NULL
1739202287,0de26b6ebb60cfe5cc7442b8de02633c,PennController,42,0,test_conc,NULL,Selector,unnamed-Selector,Selection,concrete,1739201889847,undefined,697,freezing,concrete-negative,abstract,concrete,B,abstract;concrete
1739202287,0de26b6ebb60cfe5cc7442b8de02633c,PennController,42,0,test_conc,NULL,PennController,53,_Trial_,End,1739201889848,undefined,697,freezing,concrete-negative,abstract,concrete,B,NULL
1739202287,0de26b6ebb60cfe5cc7442b8de02633c,PennController,26,0,test_conc,NULL,PennController,37,_Trial_,Start,1739201889848,undefined,629,thankful,abstract-positive,abstract,concrete,B,NULL
1739202287,0de26b6ebb60cfe5cc7442b8de02633c,PennController,26,0,test_conc,NULL,PennController,37,_Header_,Start,1739201889848,undefined,629,thankful,abstract-positive,abstract,concrete,B,NULL
1739202287,0de26b6ebb60cfe5cc7442b8de02633c,PennController,26,0,test_conc,NULL,PennController,37,_Header_,End,1739201890103,undefined,629,thankful,abstract-positive,abstract,concrete,B,NULL
1739202287,0de26b6ebb60cfe5cc7442b8de02633c,PennController,26,0,test_conc,NULL,Selector,unnamed-Selector,Selection,abstract,1739201891233,undefined,629,thankful,abstract-positive,abstract,concrete,B,abstract;concrete
1739202287,0de26b6ebb60cfe5cc7442b8de02633c,PennController,26,0,test_conc,NULL,PennController,37,_Trial_,End,1739201891234,undefined,629,thankful,abstract-positive,abstract,concrete,B,NULL
1739202287,0de26b6ebb60cfe5cc7442b8de02633c,PennController,23,0,test_conc,NULL,PennController,34,_Trial_,Start,1739201891235,undefined,644,handmade,concrete-positive,abstract,concrete,B,NULL
1739202287,0de26b6ebb60cfe5cc7442b8de02633c,PennController,23,0,test_conc,NULL,PennController,34,_Header_,Start,1739201891235,undefined,644,handmade,concrete-positive,abstract,concrete,B,NULL
1739202287,0de26b6ebb60cfe5cc7442b8de02633c,PennController,23,0,test_conc,NULL,PennController,34,_Header_,End,1739201891485,undefined,644,handmade,concrete-positive,abstract,concrete,B,NULL
1739202287,0de26b6ebb60cfe5cc7442b8de02633c,PennController,23,0,test_conc,NULL,Selector,unnamed-Selector,Selection,concrete,1739201892633,undefined,644,handmade,concrete-positive,abstract,concrete,B,abstract;concrete
1739202287,0de26b6ebb60cfe5cc7442b8de02633c,PennController,23,0,test_conc,NULL,PennController,34,_Trial_,End,1739201892634,undefined,644,handmade,concrete-positive,abstract,concrete,B,NULL
1739202287,0de26b6ebb60cfe5cc7442b8de02633c,PennController,14,0,test_conc,NULL,PennController,25,_Trial_,Start,1739201892634,undefined,957,sunny,concrete-positive,abstract,concrete,B,NULL
1739202287,0de26b6ebb60cfe5cc7442b8de02633c,PennController,14,0,test_conc,NULL,PennController,25,_Header_,Start,1739201892634,undefined,957,sunny,concrete-positive,abstract,concrete,B,NULL
1739202287,0de26b6ebb60cfe5cc7442b8de02633c,PennController,14,0,test_conc,NULL,PennController,25,_Header_,End,1739201892885,undefined,957,sunny,concrete-positive,abstract,concrete,B,NULL
1739202287,0de26b6ebb60cfe5cc7442b8de02633c,PennController,14,0,test_conc,NULL,Selector,unnamed-Selector,Selection,concrete,1739201894345,undefined,957,sunny,concrete-positive,abstract,concrete,B,abstract;concrete
1739202287,0de26b6ebb60cfe5cc7442b8de02633c,PennController,14,0,test_conc,NULL,PennController,25,_Trial_,End,1739201894346,undefined,957,sunny,concrete-positive,abstract,concrete,B,NULL
1739202287,0de26b6ebb60cfe5cc7442b8de02633c,PennController,10,0,test_conc,NULL,PennController,21,_Trial_,Start,1739201894346,undefined,667,crappy,abstract-negative,abstract,concrete,B,NULL
1739202287,0de26b6ebb60cfe5cc7442b8de02633c,PennController,10,0,test_conc,NULL,PennController,21,_Header_,Start,1739201894346,undefined,667,crappy,abstract-negative,abstract,concrete,B,NULL
1739202287,0de26b6ebb60cfe5cc7442b8de02633c,PennController,10,0,test_conc,NULL,PennController,21,_Header_,End,1739201894596,undefined,667,crappy,abstract-negative,abstract,concrete,B,NULL
1739202287,0de26b6ebb60cfe5cc7442b8de02633c,PennController,10,0,test_conc,NULL,Selector,unnamed-Selector,Selection,abstract,1739201895767,undefined,667,crappy,abstract-negative,abstract,concrete,B,abstract;concrete
1739202287,0de26b6ebb60cfe5cc7442b8de02633c,PennController,10,0,test_conc,NULL,PennController,21,_Trial_,End,1739201895768,undefined,667,crappy,abstract-negative,abstract,concrete,B,NULL
1739202287,0de26b6ebb60cfe5cc7442b8de02633c,PennController,31,0,test_conc,NULL,PennController,42,_Trial_,Start,1739201895769,undefined,789,pleasant,abstract-positive,abstract,concrete,B,NULL
1739202287,0de26b6ebb60cfe5cc7442b8de02633c,PennController,31,0,test_conc,NULL,PennController,42,_Header_,Start,1739201895769,undefined,789,pleasant,abstract-positive,abstract,concrete,B,NULL
1739202287,0de26b6ebb60cfe5cc7442b8de02633c,PennController,31,0,test_conc,NULL,PennController,42,_Header_,End,1739201896020,undefined,789,pleasant,abstract-positive,abstract,concrete,B,NULL
1739202287,0de26b6ebb60cfe5cc7442b8de02633c,PennController,31,0,test_conc,NULL,Selector,unnamed-Selector,Selection,abstract,1739201897314,undefined,789,pleasant,abstract-positive,abstract,concrete,B,abstract;concrete
1739202287,0de26b6ebb60cfe5cc7442b8de02633c,PennController,31,0,test_conc,NULL,PennController,42,_Trial_,End,1739201897315,undefined,789,pleasant,abstract-positive,abstract,concrete,B,NULL
1739202287,0de26b6ebb60cfe5cc7442b8de02633c,PennController,36,0,test_conc,NULL,PennController,47,_Trial_,Start,1739201897315,undefined,652,bloodshot,concrete-negative,abstract,concrete,B,NULL
1739202287,0de26b6ebb60cfe5cc7442b8de02633c,PennController,36,0,test_conc,NULL,PennController,47,_Header_,Start,1739201897315,undefined,652,bloodshot,concrete-negative,abstract,concrete,B,NULL
1739202287,0de26b6ebb60cfe5cc7442b8de02633c,PennController,36,0,test_conc,NULL,PennController,47,_Header_,End,1739201897570,undefined,652,bloodshot,concrete-negative,abstract,concrete,B,NULL
1739202287,0de26b6ebb60cfe5cc7442b8de02633c,PennController,36,0,test_conc,NULL,Selector,unnamed-Selector,Selection,concrete,1739201898724,undefined,652,bloodshot,concrete-negative,abstract,concrete,B,abstract;concrete
1739202287,0de26b6ebb60cfe5cc7442b8de02633c,PennController,36,0,test_conc,NULL,PennController,47,_Trial_,End,1739201898725,undefined,652,bloodshot,concrete-negative,abstract,concrete,B,NULL
1739202287,0de26b6ebb60cfe5cc7442b8de02633c,PennController,9,0,test_conc,NULL,PennController,20,_Trial_,Start,1739201898726,undefined,599,sexist,abstract-negative,abstract,concrete,B,NULL
1739202287,0de26b6ebb60cfe5cc7442b8de02633c,PennController,9,0,test_conc,NULL,PennController,20,_Header_,Start,1739201898726,undefined,599,sexist,abstract-negative,abstract,concrete,B,NULL
1739202287,0de26b6ebb60cfe5cc7442b8de02633c,PennController,9,0,test_conc,NULL,PennController,20,_Header_,End,1739201898978,undefined,599,sexist,abstract-negative,abstract,concrete,B,NULL
1739202287,0de26b6ebb60cfe5cc7442b8de02633c,PennController,9,0,test_conc,NULL,Selector,unnamed-Selector,Selection,abstract,1739201900081,undefined,599,sexist,abstract-negative,abstract,concrete,B,abstract;concrete
1739202287,0de26b6ebb60cfe5cc7442b8de02633c,PennController,9,0,test_conc,NULL,PennController,20,_Trial_,End,1739201900082,undefined,599,sexist,abstract-negative,abstract,concrete,B,NULL
1739202287,0de26b6ebb60cfe5cc7442b8de02633c,PennController,11,0,test_conc,NULL,PennController,22,_Trial_,Start,1739201900083,undefined,705,stupid,abstract-negative,abstract,concrete,B,NULL
1739202287,0de26b6ebb60cfe5cc7442b8de02633c,PennController,11,0,test_conc,NULL,PennController,22,_Header_,Start,1739201900083,undefined,705,stupid,abstract-negative,abstract,concrete,B,NULL
1739202287,0de26b6ebb60cfe5cc7442b8de02633c,PennController,11,0,test_conc,NULL,PennController,22,_Header_,End,1739201900333,undefined,705,stupid,abstract-negative,abstract,concrete,B,NULL
1739202287,0de26b6ebb60cfe5cc7442b8de02633c,PennController,11,0,test_conc,NULL,Selector,unnamed-Selector,Selection,abstract,1739201901539,undefined,705,stupid,abstract-negative,abstract,concrete,B,abstract;concrete
1739202287,0de26b6ebb60cfe5cc7442b8de02633c,PennController,11,0,test_conc,NULL,PennController,22,_Trial_,End,1739201901540,undefined,705,stupid,abstract-negative,abstract,concrete,B,NULL
1739202287,0de26b6ebb60cfe5cc7442b8de02633c,PennController,32,0,test_conc,NULL,PennController,43,_Trial_,Start,1739201901541,undefined,794,helpful,abstract-positive,abstract,concrete,B,NULL
1739202287,0de26b6ebb60cfe5cc7442b8de02633c,PennController,32,0,test_conc,NULL,PennController,43,_Header_,Start,1739201901541,undefined,794,helpful,abstract-positive,abstract,concrete,B,NULL
1739202287,0de26b6ebb60cfe5cc7442b8de02633c,PennController,32,0,test_conc,NULL,PennController,43,_Header_,End,1739201901793,undefined,794,helpful,abstract-positive,abstract,concrete,B,NULL
1739202287,0de26b6ebb60cfe5cc7442b8de02633c,PennController,32,0,test_conc,NULL,Selector,unnamed-Selector,Selection,concrete,1739201903090,undefined,794,helpful,abstract-positive,abstract,concrete,B,abstract;concrete
1739202287,0de26b6ebb60cfe5cc7442b8de02633c,PennController,32,0,test_conc,NULL,PennController,43,_Trial_,End,1739201903091,undefined,794,helpful,abstract-positive,abstract,concrete,B,NULL
1739202287,0de26b6ebb60cfe5cc7442b8de02633c,PennController,16,0,test_conc,NULL,PennController,27,_Trial_,Start,1739201903091,undefined,559,human,concrete-positive,abstract,concrete,B,NULL
1739202287,0de26b6ebb60cfe5cc7442b8de02633c,PennController,16,0,test_conc,NULL,PennController,27,_Header_,Start,1739201903091,undefined,559,human,concrete-positive,abstract,concrete,B,NULL
1739202287,0de26b6ebb60cfe5cc7442b8de02633c,PennController,16,0,test_conc,NULL,PennController,27,_Header_,End,1739201903343,undefined,559,human,concrete-positive,abstract,concrete,B,NULL
1739202287,0de26b6ebb60cfe5cc7442b8de02633c,PennController,16,0,test_conc,NULL,Selector,unnamed-Selector,Selection,concrete,1739201904405,undefined,559,human,concrete-positive,abstract,concrete,B,abstract;concrete
1739202287,0de26b6ebb60cfe5cc7442b8de02633c,PennController,16,0,test_conc,NULL,PennController,27,_Trial_,End,1739201904405,undefined,559,human,concrete-positive,abstract,concrete,B,NULL
1739202287,0de26b6ebb60cfe5cc7442b8de02633c,PennController,6,0,test_conc,NULL,PennController,17,_Trial_,Start,1739201904406,undefined,600,evil,abstract-negative,abstract,concrete,B,NULL
1739202287,0de26b6ebb60cfe5cc7442b8de02633c,PennController,6,0,test_conc,NULL,PennController,17,_Header_,Start,1739201904406,undefined,600,evil,abstract-negative,abstract,concrete,B,NULL
1739202287,0de26b6ebb60cfe5cc7442b8de02633c,PennController,6,0,test_conc,NULL,PennController,17,_Header_,End,1739201904658,undefined,600,evil,abstract-negative,abstract,concrete,B,NULL
1739202287,0de26b6ebb60cfe5cc7442b8de02633c,PennController,6,0,test_conc,NULL,Selector,unnamed-Selector,Selection,abstract,1739201905762,undefined,600,evil,abstract-negative,abstract,concrete,B,abstract;concrete
1739202287,0de26b6ebb60cfe5cc7442b8de02633c,PennController,6,0,test_conc,NULL,PennController,17,_Trial_,End,1739201905763,undefined,600,evil,abstract-negative,abstract,concrete,B,NULL
1739202287,0de26b6ebb60cfe5cc7442b8de02633c,PennController,5,0,test_conc,NULL,PennController,16,_Trial_,Start,1739201905764,undefined,579,awful,abstract-negative,abstract,concrete,B,NULL
1739202287,0de26b6ebb60cfe5cc7442b8de02633c,PennController,5,0,test_conc,NULL,PennController,16,_Header_,Start,1739201905764,undefined,579,awful,abstract-negative,abstract,concrete,B,NULL
1739202287,0de26b6ebb60cfe5cc7442b8de02633c,PennController,5,0,test_conc,NULL,PennController,16,_Header_,End,1739201906015,undefined,579,awful,abstract-negative,abstract,concrete,B,NULL
1739202287,0de26b6ebb60cfe5cc7442b8de02633c,PennController,5,0,test_conc,NULL,Selector,unnamed-Selector,Selection,abstract,1739201907097,undefined,579,awful,abstract-negative,abstract,concrete,B,abstract;concrete
1739202287,0de26b6ebb60cfe5cc7442b8de02633c,PennController,5,0,test_conc,NULL,PennController,16,_Trial_,End,1739201907098,undefined,579,awful,abstract-negative,abstract,concrete,B,NULL
1739202287,0de26b6ebb60cfe5cc7442b8de02633c,PennController,15,0,test_conc,NULL,PennController,26,_Trial_,Start,1739201907099,undefined,628,lilac,concrete-positive,abstract,concrete,B,NULL
1739202287,0de26b6ebb60cfe5cc7442b8de02633c,PennController,15,0,test_conc,NULL,PennController,26,_Header_,Start,1739201907099,undefined,628,lilac,concrete-positive,abstract,concrete,B,NULL
1739202287,0de26b6ebb60cfe5cc7442b8de02633c,PennController,15,0,test_conc,NULL,PennController,26,_Header_,End,1739201907349,undefined,628,lilac,concrete-positive,abstract,concrete,B,NULL
1739202287,0de26b6ebb60cfe5cc7442b8de02633c,PennController,15,0,test_conc,NULL,Selector,unnamed-Selector,Selection,concrete,1739201908480,undefined,628,lilac,concrete-positive,abstract,concrete,B,abstract;concrete
1739202287,0de26b6ebb60cfe5cc7442b8de02633c,PennController,15,0,test_conc,NULL,PennController,26,_Trial_,End,1739201908481,undefined,628,lilac,concrete-positive,abstract,concrete,B,NULL
1739202287,0de26b6ebb60cfe5cc7442b8de02633c,PennController,39,0,test_conc,NULL,PennController,50,_Trial_,Start,1739201908481,undefined,745,hairy,concrete-negative,abstract,concrete,B,NULL
1739202287,0de26b6ebb60cfe5cc7442b8de02633c,PennController,39,0,test_conc,NULL,PennController,50,_Header_,Start,1739201908481,undefined,745,hairy,concrete-negative,abstract,concrete,B,NULL
1739202287,0de26b6ebb60cfe5cc7442b8de02633c,PennController,39,0,test_conc,NULL,PennController,50,_Header_,End,1739201908732,undefined,745,hairy,concrete-negative,abstract,concrete,B,NULL
1739202287,0de26b6ebb60cfe5cc7442b8de02633c,PennController,39,0,test_conc,NULL,Selector,unnamed-Selector,Selection,concrete,1739201909982,undefined,745,hairy,concrete-negative,abstract,concrete,B,abstract;concrete
1739202287,0de26b6ebb60cfe5cc7442b8de02633c,PennController,39,0,test_conc,NULL,PennController,50,_Trial_,End,1739201909983,undefined,745,hairy,concrete-negative,abstract,concrete,B,NULL
1739202287,0de26b6ebb60cfe5cc7442b8de02633c,PennController,4,0,test_conc,NULL,PennController,15,_Trial_,Start,1739201909984,undefined,801,worthless,abstract-negative,abstract,concrete,B,NULL
1739202287,0de26b6ebb60cfe5cc7442b8de02633c,PennController,4,0,test_conc,NULL,PennController,15,_Header_,Start,1739201909984,undefined,801,worthless,abstract-negative,abstract,concrete,B,NULL
1739202287,0de26b6ebb60cfe5cc7442b8de02633c,PennController,4,0,test_conc,NULL,PennController,15,_Header_,End,1739201910234,undefined,801,worthless,abstract-negative,abstract,concrete,B,NULL
1739202287,0de26b6ebb60cfe5cc7442b8de02633c,PennController,4,0,test_conc,NULL,Selector,unnamed-Selector,Selection,abstract,1739201911537,undefined,801,worthless,abstract-negative,abstract,concrete,B,abstract;concrete
1739202287,0de26b6ebb60cfe5cc7442b8de02633c,PennController,4,0,test_conc,NULL,PennController,15,_Trial_,End,1739201911538,undefined,801,worthless,abstract-negative,abstract,concrete,B,NULL
1739202287,0de26b6ebb60cfe5cc7442b8de02633c,PennController,33,0,test_conc,NULL,PennController,44,_Trial_,Start,1739201911538,undefined,662,divine,abstract-positive,abstract,concrete,B,NULL
1739202287,0de26b6ebb60cfe5cc7442b8de02633c,PennController,33,0,test_conc,NULL,PennController,44,_Header_,Start,1739201911538,undefined,662,divine,abstract-positive,abstract,concrete,B,NULL
1739202287,0de26b6ebb60cfe5cc7442b8de02633c,PennController,33,0,test_conc,NULL,PennController,44,_Header_,End,1739201911790,undefined,662,divine,abstract-positive,abstract,concrete,B,NULL
1739202287,0de26b6ebb60cfe5cc7442b8de02633c,PennController,33,0,test_conc,NULL,Selector,unnamed-Selector,Selection,abstract,1739201912957,undefined,662,divine,abstract-positive,abstract,concrete,B,abstract;concrete
1739202287,0de26b6ebb60cfe5cc7442b8de02633c,PennController,33,0,test_conc,NULL,PennController,44,_Trial_,End,1739201912957,undefined,662,divine,abstract-positive,abstract,concrete,B,NULL
1739202287,0de26b6ebb60cfe5cc7442b8de02633c,PennController,22,0,test_conc,NULL,PennController,33,_Trial_,Start,1739201912958,undefined,787,pregnant,concrete-positive,abstract,concrete,B,NULL
1739202287,0de26b6ebb60cfe5cc7442b8de02633c,PennController,22,0,test_conc,NULL,PennController,33,_Header_,Start,1739201912958,undefined,787,pregnant,concrete-positive,abstract,concrete,B,NULL
1739202287,0de26b6ebb60cfe5cc7442b8de02633c,PennController,22,0,test_conc,NULL,PennController,33,_Header_,End,1739201913210,undefined,787,pregnant,concrete-positive,abstract,concrete,B,NULL
1739202287,0de26b6ebb60cfe5cc7442b8de02633c,PennController,22,0,test_conc,NULL,Selector,unnamed-Selector,Selection,concrete,1739201914502,undefined,787,pregnant,concrete-positive,abstract,concrete,B,abstract;concrete
1739202287,0de26b6ebb60cfe5cc7442b8de02633c,PennController,22,0,test_conc,NULL,PennController,33,_Trial_,End,1739201914502,undefined,787,pregnant,concrete-positive,abstract,concrete,B,NULL
1739202287,0de26b6ebb60cfe5cc7442b8de02633c,PennController,7,0,test_conc,NULL,PennController,18,_Trial_,Start,1739201914503,undefined,715,soulless,abstract-negative,abstract,concrete,B,NULL
1739202287,0de26b6ebb60cfe5cc7442b8de02633c,PennController,7,0,test_conc,NULL,PennController,18,_Header_,Start,1739201914503,undefined,715,soulless,abstract-negative,abstract,concrete,B,NULL
1739202287,0de26b6ebb60cfe5cc7442b8de02633c,PennController,7,0,test_conc,NULL,PennController,18,_Header_,End,1739201914755,undefined,715,soulless,abstract-negative,abstract,concrete,B,NULL
1739202287,0de26b6ebb60cfe5cc7442b8de02633c,PennController,7,0,test_conc,NULL,Selector,unnamed-Selector,Selection,abstract,1739201915971,undefined,715,soulless,abstract-negative,abstract,concrete,B,abstract;concrete
1739202287,0de26b6ebb60cfe5cc7442b8de02633c,PennController,7,0,test_conc,NULL,PennController,18,_Trial_,End,1739201915972,undefined,715,soulless,abstract-negative,abstract,concrete,B,NULL
1739202287,0de26b6ebb60cfe5cc7442b8de02633c,PennController,17,0,test_conc,NULL,PennController,28,_Trial_,Start,1739201915972,undefined,644,female,concrete-positive,abstract,concrete,B,NULL
1739202287,0de26b6ebb60cfe5cc7442b8de02633c,PennController,17,0,test_conc,NULL,PennController,28,_Header_,Start,1739201915972,undefined,644,female,concrete-positive,abstract,concrete,B,NULL
1739202287,0de26b6ebb60cfe5cc7442b8de02633c,PennController,17,0,test_conc,NULL,PennController,28,_Header_,End,1739201916223,undefined,644,female,concrete-positive,abstract,concrete,B,NULL
1739202287,0de26b6ebb60cfe5cc7442b8de02633c,PennController,17,0,test_conc,NULL,Selector,unnamed-Selector,Selection,concrete,1739201917369,undefined,644,female,concrete-positive,abstract,concrete,B,abstract;concrete
1739202287,0de26b6ebb60cfe5cc7442b8de02633c,PennController,17,0,test_conc,NULL,PennController,28,_Trial_,End,1739201917370,undefined,644,female,concrete-positive,abstract,concrete,B,NULL
1739202287,0de26b6ebb60cfe5cc7442b8de02633c,PennController,34,0,test_conc,NULL,PennController,45,_Trial_,Start,1739201917371,undefined,561,toothless,concrete-negative,abstract,concrete,B,NULL
1739202287,0de26b6ebb60cfe5cc7442b8de02633c,PennController,34,0,test_conc,NULL,PennController,45,_Header_,Start,1739201917371,undefined,561,toothless,concrete-negative,abstract,concrete,B,NULL
1739202287,0de26b6ebb60cfe5cc7442b8de02633c,PennController,34,0,test_conc,NULL,PennController,45,_Header_,End,1739201917621,undefined,561,toothless,concrete-negative,abstract,concrete,B,NULL
1739202287,0de26b6ebb60cfe5cc7442b8de02633c,PennController,34,0,test_conc,NULL,Selector,unnamed-Selector,Selection,concrete,1739201918686,undefined,561,toothless,concrete-negative,abstract,concrete,B,abstract;concrete
1739202287,0de26b6ebb60cfe5cc7442b8de02633c,PennController,34,0,test_conc,NULL,PennController,45,_Trial_,End,1739201918687,undefined,561,toothless,concrete-negative,abstract,concrete,B,NULL
1739202287,0de26b6ebb60cfe5cc7442b8de02633c,PennController,43,0,test_conc,NULL,PennController,54,_Trial_,Start,1739201918687,undefined,560,bloody,concrete-negative,abstract,concrete,B,NULL
1739202287,0de26b6ebb60cfe5cc7442b8de02633c,PennController,43,0,test_conc,NULL,PennController,54,_Header_,Start,1739201918687,undefined,560,bloody,concrete-negative,abstract,concrete,B,NULL
1739202287,0de26b6ebb60cfe5cc7442b8de02633c,PennController,43,0,test_conc,NULL,PennController,54,_Header_,End,1739201918937,undefined,560,bloody,concrete-negative,abstract,concrete,B,NULL
1739202287,0de26b6ebb60cfe5cc7442b8de02633c,PennController,43,0,test_conc,NULL,Selector,unnamed-Selector,Selection,concrete,1739201920000,undefined,560,bloody,concrete-negative,abstract,concrete,B,abstract;concrete
1739202287,0de26b6ebb60cfe5cc7442b8de02633c,PennController,43,0,test_conc,NULL,PennController,54,_Trial_,End,1739201920000,undefined,560,bloody,concrete-negative,abstract,concrete,B,NULL
1739202287,0de26b6ebb60cfe5cc7442b8de02633c,PennController,35,0,test_conc,NULL,PennController,46,_Trial_,Start,1739201920001,undefined,670,headless,concrete-negative,abstract,concrete,B,NULL
1739202287,0de26b6ebb60cfe5cc7442b8de02633c,PennController,35,0,test_conc,NULL,PennController,46,_Header_,Start,1739201920001,undefined,670,headless,concrete-negative,abstract,concrete,B,NULL
1739202287,0de26b6ebb60cfe5cc7442b8de02633c,PennController,35,0,test_conc,NULL,PennController,46,_Header_,End,1739201920253,undefined,670,headless,concrete-negative,abstract,concrete,B,NULL
1739202287,0de26b6ebb60cfe5cc7442b8de02633c,PennController,35,0,test_conc,NULL,Selector,unnamed-Selector,Selection,abstract,1739201921426,undefined,670,headless,concrete-negative,abstract,concrete,B,abstract;concrete
1739202287,0de26b6ebb60cfe5cc7442b8de02633c,PennController,35,0,test_conc,NULL,PennController,46,_Trial_,End,1739201921427,undefined,670,headless,concrete-negative,abstract,concrete,B,NULL
1739202287,0de26b6ebb60cfe5cc7442b8de02633c,PennController,24,0,test_conc,NULL,PennController,35,_Trial_,Start,1739201921427,undefined,736,honest,abstract-positive,abstract,concrete,B,NULL
1739202287,0de26b6ebb60cfe5cc7442b8de02633c,PennController,24,0,test_conc,NULL,PennController,35,_Header_,Start,1739201921427,undefined,736,honest,abstract-positive,abstract,concrete,B,NULL
1739202287,0de26b6ebb60cfe5cc7442b8de02633c,PennController,24,0,test_conc,NULL,PennController,35,_Header_,End,1739201921679,undefined,736,honest,abstract-positive,abstract,concrete,B,NULL
1739202287,0de26b6ebb60cfe5cc7442b8de02633c,PennController,24,0,test_conc,NULL,Selector,unnamed-Selector,Selection,abstract,1739201922917,undefined,736,honest,abstract-positive,abstract,concrete,B,abstract;concrete
1739202287,0de26b6ebb60cfe5cc7442b8de02633c,PennController,24,0,test_conc,NULL,PennController,35,_Trial_,End,1739201922918,undefined,736,honest,abstract-positive,abstract,concrete,B,NULL
1739202287,0de26b6ebb60cfe5cc7442b8de02633c,PennController,28,0,test_conc,NULL,PennController,39,_Trial_,Start,1739201922918,undefined,653,possible,abstract-positive,abstract,concrete,B,NULL
1739202287,0de26b6ebb60cfe5cc7442b8de02633c,PennController,28,0,test_conc,NULL,PennController,39,_Header_,Start,1739201922918,undefined,653,possible,abstract-positive,abstract,concrete,B,NULL
1739202287,0de26b6ebb60cfe5cc7442b8de02633c,PennController,28,0,test_conc,NULL,PennController,39,_Header_,End,1739201923171,undefined,653,possible,abstract-positive,abstract,concrete,B,NULL
1739202287,0de26b6ebb60cfe5cc7442b8de02633c,PennController,28,0,test_conc,NULL,Selector,unnamed-Selector,Selection,abstract,1739201924325,undefined,653,possible,abstract-positive,abstract,concrete,B,abstract;concrete
1739202287,0de26b6ebb60cfe5cc7442b8de02633c,PennController,28,0,test_conc,NULL,PennController,39,_Trial_,End,1739201924326,undefined,653,possible,abstract-positive,abstract,concrete,B,NULL
1739202287,0de26b6ebb60cfe5cc7442b8de02633c,PennController,29,0,test_conc,NULL,PennController,40,_Trial_,Start,1739201924327,undefined,658,sensible,abstract-positive,abstract,concrete,B,NULL
1739202287,0de26b6ebb60cfe5cc7442b8de02633c,PennController,29,0,test_conc,NULL,PennController,40,_Header_,Start,1739201924327,undefined,658,sensible,abstract-positive,abstract,concrete,B,NULL
1739202287,0de26b6ebb60cfe5cc7442b8de02633c,PennController,29,0,test_conc,NULL,PennController,40,_Header_,End,1739201924577,undefined,658,sensible,abstract-positive,abstract,concrete,B,NULL
1739202287,0de26b6ebb60cfe5cc7442b8de02633c,PennController,29,0,test_conc,NULL,Selector,unnamed-Selector,Selection,abstract,1739201925737,undefined,658,sensible,abstract-positive,abstract,concrete,B,abstract;concrete
1739202287,0de26b6ebb60cfe5cc7442b8de02633c,PennController,29,0,test_conc,NULL,PennController,40,_Trial_,End,1739201925738,undefined,658,sensible,abstract-positive,abstract,concrete,B,NULL
1739202287,0de26b6ebb60cfe5cc7442b8de02633c,PennController,40,0,test_conc,NULL,PennController,51,_Trial_,Start,1739201925739,undefined,553,dirty,concrete-negative,abstract,concrete,B,NULL
1739202287,0de26b6ebb60cfe5cc7442b8de02633c,PennController,40,0,test_conc,NULL,PennController,51,_Header_,Start,1739201925739,undefined,553,dirty,concrete-negative,abstract,concrete,B,NULL
1739202287,0de26b6ebb60cfe5cc7442b8de02633c,PennController,40,0,test_conc,NULL,PennController,51,_Header_,End,1739201925993,undefined,553,dirty,concrete-negative,abstract,concrete,B,NULL
1739202287,0de26b6ebb60cfe5cc7442b8de02633c,PennController,40,0,test_conc,NULL,Selector,unnamed-Selector,Selection,concrete,1739201927048,undefined,553,dirty,concrete-negative,abstract,concrete,B,abstract;concrete
1739202287,0de26b6ebb60cfe5cc7442b8de02633c,PennController,40,0,test_conc,NULL,PennController,51,_Trial_,End,1739201927048,undefined,553,dirty,concrete-negative,abstract,concrete,B,NULL
1739202287,0de26b6ebb60cfe5cc7442b8de02633c,PennController,41,0,test_conc,NULL,PennController,52,_Trial_,Start,1739201927049,undefined,592,wrinkled,concrete-negative,abstract,concrete,B,NULL
1739202287,0de26b6ebb60cfe5cc7442b8de02633c,PennController,41,0,test_conc,NULL,PennController,52,_Header_,Start,1739201927049,undefined,592,wrinkled,concrete-negative,abstract,concrete,B,NULL
1739202287,0de26b6ebb60cfe5cc7442b8de02633c,PennController,41,0,test_conc,NULL,PennController,52,_Header_,End,1739201927299,undefined,592,wrinkled,concrete-negative,abstract,concrete,B,NULL
1739202287,0de26b6ebb60cfe5cc7442b8de02633c,PennController,41,0,test_conc,NULL,Selector,unnamed-Selector,Selection,concrete,1739201928396,undefined,592,wrinkled,concrete-negative,abstract,concrete,B,abstract;concrete
1739202287,0de26b6ebb60cfe5cc7442b8de02633c,PennController,41,0,test_conc,NULL,PennController,52,_Trial_,End,1739201928396,undefined,592,wrinkled,concrete-negative,abstract,concrete,B,NULL
1739202287,0de26b6ebb60cfe5cc7442b8de02633c,PennController,38,0,test_conc,NULL,PennController,49,_Trial_,Start,1739201928397,undefined,653,thorny,concrete-negative,abstract,concrete,B,NULL
1739202287,0de26b6ebb60cfe5cc7442b8de02633c,PennController,38,0,test_conc,NULL,PennController,49,_Header_,Start,1739201928397,undefined,653,thorny,concrete-negative,abstract,concrete,B,NULL
1739202287,0de26b6ebb60cfe5cc7442b8de02633c,PennController,38,0,test_conc,NULL,PennController,49,_Header_,End,1739201928647,undefined,653,thorny,concrete-negative,abstract,concrete,B,NULL
