#
# Results on Mon, 10 Feb 2025 19:00:42 GMT
# USER AGENT: Mozilla/5.0 (Windows NT 10.0; Win64; x64) AppleWebKit/537.36 (KHTML, like Gecko) Chrome/132.0.0.0 Safari/537.36
# Design number was non-random = 0
#
# Columns below this comment are as follows:
# 1. Results reception time.
# 2. MD5 hash of participant's IP address.
# 3. Controller name.
# 4. Order number of item.
# 5. Inner element number.
# 6. Label.
# 7. Latin Square Group.
# 8. PennElementType.
# 9. PennElementName.
# 10. Parameter.
# 11. Value.
# 12. EventTime.
# 13. Comments.
1739214042,14bdf8984473127b7d634eb89d894ed7,PennController,1,0,welcome,NULL,PennController,0,_Trial_,Start,1739213421991,NULL
1739214042,14bdf8984473127b7d634eb89d894ed7,PennController,1,0,welcome,NULL,PennController,0,_Header_,Start,1739213421991,NULL
1739214042,14bdf8984473127b7d634eb89d894ed7,PennController,1,0,welcome,NULL,PennController,0,_Header_,End,1739213422245,NULL
1739214042,14bdf8984473127b7d634eb89d894ed7,PennController,1,0,welcome,NULL,PennController,0,_Trial_,End,1739213423942,NULL
# 13. ID.
# 14. Comments.
1739214042,14bdf8984473127b7d634eb89d894ed7,PennController,124,0,consent,NULL,PennController,2,_Trial_,Start,1739213423944,65c2510fa94c23aa2cc4de8b,NULL
1739214042,14bdf8984473127b7d634eb89d894ed7,PennController,124,0,consent,NULL,PennController,2,_Header_,Start,1739213423944,65c2510fa94c23aa2cc4de8b,NULL
1739214042,14bdf8984473127b7d634eb89d894ed7,PennController,124,0,consent,NULL,PennController,2,_Header_,End,1739213424197,65c2510fa94c23aa2cc4de8b,NULL
1739214042,14bdf8984473127b7d634eb89d894ed7,PennController,124,0,consent,NULL,TextInput,ID,Final,65c2510fa94c23aa2cc4de8b,1739213430975,65c2510fa94c23aa2cc4de8b,NULL
1739214042,14bdf8984473127b7d634eb89d894ed7,PennController,124,0,consent,NULL,PennController,2,_Trial_,End,1739213430975,65c2510fa94c23aa2cc4de8b,NULL
# 13. Comments.
1739214042,14bdf8984473127b7d634eb89d894ed7,PennController,126,0,instructions1_val,NULL,PennController,4,_Trial_,Start,1739213430976,NULL
1739214042,14bdf8984473127b7d634eb89d894ed7,PennController,126,0,instructions1_val,NULL,PennController,4,_Header_,Start,1739213430976,NULL
1739214042,14bdf8984473127b7d634eb89d894ed7,PennController,126,0,instructions1_val,NULL,PennController,4,_Header_,End,1739213431228,NULL
1739214042,14bdf8984473127b7d634eb89d894ed7,PennController,126,0,instructions1_val,NULL,PennController,4,_Trial_,End,1739213455654,NULL
1739214042,14bdf8984473127b7d634eb89d894ed7,PennController,127,0,instructions2_val,NULL,PennController,5,_Trial_,Start,1739213455655,NULL
1739214042,14bdf8984473127b7d634eb89d894ed7,PennController,127,0,instructions2_val,NULL,PennController,5,_Header_,Start,1739213455655,NULL
1739214042,14bdf8984473127b7d634eb89d894ed7,PennController,127,0,instructions2_val,NULL,PennController,5,_Header_,End,1739213455910,NULL
1739214042,14bdf8984473127b7d634eb89d894ed7,PennController,127,0,instructions2_val,NULL,PennController,5,_Trial_,End,1739213459949,NULL
1739214042,14bdf8984473127b7d634eb89d894ed7,PennController,128,0,instructions3_hands,NULL,PennController,6,_Trial_,Start,1739213459950,NULL
1739214042,14bdf8984473127b7d634eb89d894ed7,PennController,128,0,instructions3_hands,NULL,PennController,6,_Header_,Start,1739213459950,NULL
1739214042,14bdf8984473127b7d634eb89d894ed7,PennController,128,0,instructions3_hands,NULL,PennController,6,_Header_,End,1739213460203,NULL
1739214042,14bdf8984473127b7d634eb89d894ed7,PennController,128,0,instructions3_hands,NULL,PennController,6,_Trial_,End,1739213468598,NULL
1739214042,14bdf8984473127b7d634eb89d894ed7,PennController,129,0,practice_intro_val,NULL,PennController,7,_Trial_,Start,1739213468599,NULL
1739214042,14bdf8984473127b7d634eb89d894ed7,PennController,129,0,practice_intro_val,NULL,PennController,7,_Header_,Start,1739213468599,NULL
1739214042,14bdf8984473127b7d634eb89d894ed7,PennController,129,0,practice_intro_val,NULL,PennController,7,_Header_,End,1739213468849,NULL
1739214042,14bdf8984473127b7d634eb89d894ed7,PennController,129,0,practice_intro_val,NULL,PennController,7,_Trial_,End,1739213470710,NULL
# 13. ID.
# 14. ReactionTime.
# 15. Word.
# 16. selectedKey.
# 17. selectedValue.
# 18. Key_value_F.
# 19. Key_value_J.
# 20. Group.
# 21. Comments.
1739214042,14bdf8984473127b7d634eb89d894ed7,PennController,108,0,calibrator_val_feedback,NULL,PennController,119,_Trial_,Start,1739213470712,undefined,1403,industry,undefined,positive,negative,positive,B,NULL
1739214042,14bdf8984473127b7d634eb89d894ed7,PennController,108,0,calibrator_val_feedback,NULL,PennController,119,_Header_,Start,1739213470712,undefined,1403,industry,undefined,positive,negative,positive,B,NULL
1739214042,14bdf8984473127b7d634eb89d894ed7,PennController,108,0,calibrator_val_feedback,NULL,PennController,119,_Header_,End,1739213470964,undefined,1403,industry,undefined,positive,negative,positive,B,NULL
1739214042,14bdf8984473127b7d634eb89d894ed7,PennController,108,0,calibrator_val_feedback,NULL,Selector,Selection,Selection,positive,1739213472869,undefined,1403,industry,undefined,positive,negative,positive,B,negative;positive
1739214042,14bdf8984473127b7d634eb89d894ed7,PennController,108,0,calibrator_val_feedback,NULL,PennController,119,_Trial_,End,1739213474872,undefined,1403,industry,undefined,positive,negative,positive,B,NULL
1739214042,14bdf8984473127b7d634eb89d894ed7,PennController,105,0,calibrator_val_feedback,NULL,PennController,116,_Trial_,Start,1739213474873,undefined,1337,grin,undefined,positive,negative,positive,B,NULL
1739214042,14bdf8984473127b7d634eb89d894ed7,PennController,105,0,calibrator_val_feedback,NULL,PennController,116,_Header_,Start,1739213474873,undefined,1337,grin,undefined,positive,negative,positive,B,NULL
1739214042,14bdf8984473127b7d634eb89d894ed7,PennController,105,0,calibrator_val_feedback,NULL,PennController,116,_Header_,End,1739213475126,undefined,1337,grin,undefined,positive,negative,positive,B,NULL
1739214042,14bdf8984473127b7d634eb89d894ed7,PennController,105,0,calibrator_val_feedback,NULL,Selector,Selection,Selection,positive,1739213476964,undefined,1337,grin,undefined,positive,negative,positive,B,negative;positive
1739214042,14bdf8984473127b7d634eb89d894ed7,PennController,105,0,calibrator_val_feedback,NULL,PennController,116,_Trial_,End,1739213478969,undefined,1337,grin,undefined,positive,negative,positive,B,NULL
1739214042,14bdf8984473127b7d634eb89d894ed7,PennController,109,0,calibrator_val_feedback,NULL,PennController,120,_Trial_,Start,1739213478971,undefined,3111,insecure,undefined,positive,negative,positive,B,NULL
1739214042,14bdf8984473127b7d634eb89d894ed7,PennController,109,0,calibrator_val_feedback,NULL,PennController,120,_Header_,Start,1739213478971,undefined,3111,insecure,undefined,positive,negative,positive,B,NULL
1739214042,14bdf8984473127b7d634eb89d894ed7,PennController,109,0,calibrator_val_feedback,NULL,PennController,120,_Header_,End,1739213479224,undefined,3111,insecure,undefined,positive,negative,positive,B,NULL
1739214042,14bdf8984473127b7d634eb89d894ed7,PennController,109,0,calibrator_val_feedback,NULL,Selector,Selection,Selection,negative,1739213482837,undefined,3111,insecure,undefined,positive,negative,positive,B,negative;positive
1739214042,14bdf8984473127b7d634eb89d894ed7,PennController,109,0,calibrator_val_feedback,NULL,PennController,120,_Trial_,End,1739213484844,undefined,3111,insecure,undefined,positive,negative,positive,B,NULL
1739214042,14bdf8984473127b7d634eb89d894ed7,PennController,113,0,calibrator_val_feedback,NULL,PennController,124,_Trial_,Start,1739213484845,undefined,983,kitten,undefined,positive,negative,positive,B,NULL
1739214042,14bdf8984473127b7d634eb89d894ed7,PennController,113,0,calibrator_val_feedback,NULL,PennController,124,_Header_,Start,1739213484845,undefined,983,kitten,undefined,positive,negative,positive,B,NULL
1739214042,14bdf8984473127b7d634eb89d894ed7,PennController,113,0,calibrator_val_feedback,NULL,PennController,124,_Header_,End,1739213485095,undefined,983,kitten,undefined,positive,negative,positive,B,NULL
1739214042,14bdf8984473127b7d634eb89d894ed7,PennController,113,0,calibrator_val_feedback,NULL,Selector,Selection,Selection,positive,1739213486580,undefined,983,kitten,undefined,positive,negative,positive,B,negative;positive
1739214042,14bdf8984473127b7d634eb89d894ed7,PennController,113,0,calibrator_val_feedback,NULL,PennController,124,_Trial_,End,1739213488588,undefined,983,kitten,undefined,positive,negative,positive,B,NULL
1739214042,14bdf8984473127b7d634eb89d894ed7,PennController,104,0,calibrator_val_feedback,NULL,PennController,115,_Trial_,Start,1739213488589,undefined,973,free,undefined,positive,negative,positive,B,NULL
1739214042,14bdf8984473127b7d634eb89d894ed7,PennController,104,0,calibrator_val_feedback,NULL,PennController,115,_Header_,Start,1739213488589,undefined,973,free,undefined,positive,negative,positive,B,NULL
1739214042,14bdf8984473127b7d634eb89d894ed7,PennController,104,0,calibrator_val_feedback,NULL,PennController,115,_Header_,End,1739213488839,undefined,973,free,undefined,positive,negative,positive,B,NULL
1739214042,14bdf8984473127b7d634eb89d894ed7,PennController,104,0,calibrator_val_feedback,NULL,Selector,Selection,Selection,positive,1739213490316,undefined,973,free,undefined,positive,negative,positive,B,negative;positive
1739214042,14bdf8984473127b7d634eb89d894ed7,PennController,104,0,calibrator_val_feedback,NULL,PennController,115,_Trial_,End,1739213492320,undefined,973,free,undefined,positive,negative,positive,B,NULL
1739214042,14bdf8984473127b7d634eb89d894ed7,PennController,112,0,calibrator_val_feedback,NULL,PennController,123,_Trial_,Start,1739213492322,undefined,2257,joke,undefined,positive,negative,positive,B,NULL
1739214042,14bdf8984473127b7d634eb89d894ed7,PennController,112,0,calibrator_val_feedback,NULL,PennController,123,_Header_,Start,1739213492322,undefined,2257,joke,undefined,positive,negative,positive,B,NULL
1739214042,14bdf8984473127b7d634eb89d894ed7,PennController,112,0,calibrator_val_feedback,NULL,PennController,123,_Header_,End,1739213492574,undefined,2257,joke,undefined,positive,negative,positive,B,NULL
1739214042,14bdf8984473127b7d634eb89d894ed7,PennController,112,0,calibrator_val_feedback,NULL,Selector,Selection,Selection,positive,1739213495332,undefined,2257,joke,undefined,positive,negative,positive,B,negative;positive
1739214042,14bdf8984473127b7d634eb89d894ed7,PennController,112,0,calibrator_val_feedback,NULL,PennController,123,_Trial_,End,1739213497337,undefined,2257,joke,undefined,positive,negative,positive,B,NULL
1739214042,14bdf8984473127b7d634eb89d894ed7,PennController,107,0,calibrator_val_feedback,NULL,PennController,118,_Trial_,Start,1739213497339,undefined,1043,icebox,undefined,positive,negative,positive,B,NULL
1739214042,14bdf8984473127b7d634eb89d894ed7,PennController,107,0,calibrator_val_feedback,NULL,PennController,118,_Header_,Start,1739213497339,undefined,1043,icebox,undefined,positive,negative,positive,B,NULL
1739214042,14bdf8984473127b7d634eb89d894ed7,PennController,107,0,calibrator_val_feedback,NULL,PennController,118,_Header_,End,1739213497592,undefined,1043,icebox,undefined,positive,negative,positive,B,NULL
1739214042,14bdf8984473127b7d634eb89d894ed7,PennController,107,0,calibrator_val_feedback,NULL,Selector,Selection,Selection,positive,1739213499139,undefined,1043,icebox,undefined,positive,negative,positive,B,negative;positive
1739214042,14bdf8984473127b7d634eb89d894ed7,PennController,107,0,calibrator_val_feedback,NULL,PennController,118,_Trial_,End,1739213501143,undefined,1043,icebox,undefined,positive,negative,positive,B,NULL
1739214042,14bdf8984473127b7d634eb89d894ed7,PennController,111,0,calibrator_val_feedback,NULL,PennController,122,_Trial_,Start,1739213501145,undefined,902,jail,undefined,positive,negative,positive,B,NULL
1739214042,14bdf8984473127b7d634eb89d894ed7,PennController,111,0,calibrator_val_feedback,NULL,PennController,122,_Header_,Start,1739213501145,undefined,902,jail,undefined,positive,negative,positive,B,NULL
1739214042,14bdf8984473127b7d634eb89d894ed7,PennController,111,0,calibrator_val_feedback,NULL,PennController,122,_Header_,End,1739213501398,undefined,902,jail,undefined,positive,negative,positive,B,NULL
1739214042,14bdf8984473127b7d634eb89d894ed7,PennController,111,0,calibrator_val_feedback,NULL,Selector,Selection,Selection,negative,1739213502804,undefined,902,jail,undefined,positive,negative,positive,B,negative;positive
1739214042,14bdf8984473127b7d634eb89d894ed7,PennController,111,0,calibrator_val_feedback,NULL,PennController,122,_Trial_,End,1739213504808,undefined,902,jail,undefined,positive,negative,positive,B,NULL
1739214042,14bdf8984473127b7d634eb89d894ed7,PennController,110,0,calibrator_val_feedback,NULL,PennController,121,_Trial_,Start,1739213504810,undefined,1658,invader,undefined,positive,negative,positive,B,NULL
1739214042,14bdf8984473127b7d634eb89d894ed7,PennController,110,0,calibrator_val_feedback,NULL,PennController,121,_Header_,Start,1739213504810,undefined,1658,invader,undefined,positive,negative,positive,B,NULL
1739214042,14bdf8984473127b7d634eb89d894ed7,PennController,110,0,calibrator_val_feedback,NULL,PennController,121,_Header_,End,1739213505064,undefined,1658,invader,undefined,positive,negative,positive,B,NULL
1739214042,14bdf8984473127b7d634eb89d894ed7,PennController,110,0,calibrator_val_feedback,NULL,Selector,Selection,Selection,negative,1739213507228,undefined,1658,invader,undefined,positive,negative,positive,B,negative;positive
1739214042,14bdf8984473127b7d634eb89d894ed7,PennController,110,0,calibrator_val_feedback,NULL,PennController,121,_Trial_,End,1739213509232,undefined,1658,invader,undefined,positive,negative,positive,B,NULL
1739214042,14bdf8984473127b7d634eb89d894ed7,PennController,106,0,calibrator_val_feedback,NULL,PennController,117,_Trial_,Start,1739213509234,undefined,841,hat,undefined,positive,negative,positive,B,NULL
1739214042,14bdf8984473127b7d634eb89d894ed7,PennController,106,0,calibrator_val_feedback,NULL,PennController,117,_Header_,Start,1739213509234,undefined,841,hat,undefined,positive,negative,positive,B,NULL
1739214042,14bdf8984473127b7d634eb89d894ed7,PennController,106,0,calibrator_val_feedback,NULL,PennController,117,_Header_,End,1739213509486,undefined,841,hat,undefined,positive,negative,positive,B,NULL
1739214042,14bdf8984473127b7d634eb89d894ed7,PennController,106,0,calibrator_val_feedback,NULL,Selector,Selection,Selection,positive,1739213510828,undefined,841,hat,undefined,positive,negative,positive,B,negative;positive
1739214042,14bdf8984473127b7d634eb89d894ed7,PennController,106,0,calibrator_val_feedback,NULL,PennController,117,_Trial_,End,1739213512832,undefined,841,hat,undefined,positive,negative,positive,B,NULL
# 16. Key_value_F.
# 17. Key_value_J.
# 18. Group.
# 19. Comments.
1739214042,14bdf8984473127b7d634eb89d894ed7,PennController,117,0,calibrator_val_no_feedback,NULL,PennController,128,_Trial_,Start,1739213512834,undefined,955,icebox,negative,positive,B,NULL
1739214042,14bdf8984473127b7d634eb89d894ed7,PennController,117,0,calibrator_val_no_feedback,NULL,PennController,128,_Header_,Start,1739213512834,undefined,955,icebox,negative,positive,B,NULL
1739214042,14bdf8984473127b7d634eb89d894ed7,PennController,117,0,calibrator_val_no_feedback,NULL,PennController,128,_Header_,End,1739213513087,undefined,955,icebox,negative,positive,B,NULL
1739214042,14bdf8984473127b7d634eb89d894ed7,PennController,117,0,calibrator_val_no_feedback,NULL,Selector,unnamed-Selector,Selection,positive,1739213514548,undefined,955,icebox,negative,positive,B,negative;positive
1739214042,14bdf8984473127b7d634eb89d894ed7,PennController,117,0,calibrator_val_no_feedback,NULL,PennController,128,_Trial_,End,1739213514549,undefined,955,icebox,negative,positive,B,NULL
1739214042,14bdf8984473127b7d634eb89d894ed7,PennController,118,0,calibrator_val_no_feedback,NULL,PennController,129,_Trial_,Start,1739213514550,undefined,1073,industry,negative,positive,B,NULL
1739214042,14bdf8984473127b7d634eb89d894ed7,PennController,118,0,calibrator_val_no_feedback,NULL,PennController,129,_Header_,Start,1739213514550,undefined,1073,industry,negative,positive,B,NULL
1739214042,14bdf8984473127b7d634eb89d894ed7,PennController,118,0,calibrator_val_no_feedback,NULL,PennController,129,_Header_,End,1739213514802,undefined,1073,industry,negative,positive,B,NULL
1739214042,14bdf8984473127b7d634eb89d894ed7,PennController,118,0,calibrator_val_no_feedback,NULL,Selector,unnamed-Selector,Selection,positive,1739213516380,undefined,1073,industry,negative,positive,B,negative;positive
1739214042,14bdf8984473127b7d634eb89d894ed7,PennController,118,0,calibrator_val_no_feedback,NULL,PennController,129,_Trial_,End,1739213516381,undefined,1073,industry,negative,positive,B,NULL
1739214042,14bdf8984473127b7d634eb89d894ed7,PennController,119,0,calibrator_val_no_feedback,NULL,PennController,130,_Trial_,Start,1739213516383,undefined,979,insecure,negative,positive,B,NULL
1739214042,14bdf8984473127b7d634eb89d894ed7,PennController,119,0,calibrator_val_no_feedback,NULL,PennController,130,_Header_,Start,1739213516383,undefined,979,insecure,negative,positive,B,NULL
1739214042,14bdf8984473127b7d634eb89d894ed7,PennController,119,0,calibrator_val_no_feedback,NULL,PennController,130,_Header_,End,1739213516636,undefined,979,insecure,negative,positive,B,NULL
1739214042,14bdf8984473127b7d634eb89d894ed7,PennController,119,0,calibrator_val_no_feedback,NULL,Selector,unnamed-Selector,Selection,negative,1739213518116,undefined,979,insecure,negative,positive,B,negative;positive
1739214042,14bdf8984473127b7d634eb89d894ed7,PennController,119,0,calibrator_val_no_feedback,NULL,PennController,130,_Trial_,End,1739213518118,undefined,979,insecure,negative,positive,B,NULL
1739214042,14bdf8984473127b7d634eb89d894ed7,PennController,116,0,calibrator_val_no_feedback,NULL,PennController,127,_Trial_,Start,1739213518119,undefined,750,hat,negative,positive,B,NULL
1739214042,14bdf8984473127b7d634eb89d894ed7,PennController,116,0,calibrator_val_no_feedback,NULL,PennController,127,_Header_,Start,1739213518119,undefined,750,hat,negative,positive,B,NULL
1739214042,14bdf8984473127b7d634eb89d894ed7,PennController,116,0,calibrator_val_no_feedback,NULL,PennController,127,_Header_,End,1739213518371,undefined,750,hat,negative,positive,B,NULL
1739214042,14bdf8984473127b7d634eb89d894ed7,PennController,116,0,calibrator_val_no_feedback,NULL,Selector,unnamed-Selector,Selection,positive,1739213519628,undefined,750,hat,negative,positive,B,negative;positive
1739214042,14bdf8984473127b7d634eb89d894ed7,PennController,116,0,calibrator_val_no_feedback,NULL,PennController,127,_Trial_,End,1739213519630,undefined,750,hat,negative,positive,B,NULL
1739214042,14bdf8984473127b7d634eb89d894ed7,PennController,114,0,calibrator_val_no_feedback,NULL,PennController,125,_Trial_,Start,1739213519631,undefined,807,free,negative,positive,B,NULL
1739214042,14bdf8984473127b7d634eb89d894ed7,PennController,114,0,calibrator_val_no_feedback,NULL,PennController,125,_Header_,Start,1739213519631,undefined,807,free,negative,positive,B,NULL
1739214042,14bdf8984473127b7d634eb89d894ed7,PennController,114,0,calibrator_val_no_feedback,NULL,PennController,125,_Header_,End,1739213519882,undefined,807,free,negative,positive,B,NULL
1739214042,14bdf8984473127b7d634eb89d894ed7,PennController,114,0,calibrator_val_no_feedback,NULL,Selector,unnamed-Selector,Selection,positive,1739213521196,undefined,807,free,negative,positive,B,negative;positive
1739214042,14bdf8984473127b7d634eb89d894ed7,PennController,114,0,calibrator_val_no_feedback,NULL,PennController,125,_Trial_,End,1739213521198,undefined,807,free,negative,positive,B,NULL
1739214042,14bdf8984473127b7d634eb89d894ed7,PennController,121,0,calibrator_val_no_feedback,NULL,PennController,132,_Trial_,Start,1739213521199,undefined,755,jail,negative,positive,B,NULL
1739214042,14bdf8984473127b7d634eb89d894ed7,PennController,121,0,calibrator_val_no_feedback,NULL,PennController,132,_Header_,Start,1739213521199,undefined,755,jail,negative,positive,B,NULL
1739214042,14bdf8984473127b7d634eb89d894ed7,PennController,121,0,calibrator_val_no_feedback,NULL,PennController,132,_Header_,End,1739213521451,undefined,755,jail,negative,positive,B,NULL
1739214042,14bdf8984473127b7d634eb89d894ed7,PennController,121,0,calibrator_val_no_feedback,NULL,Selector,unnamed-Selector,Selection,negative,1739213522708,undefined,755,jail,negative,positive,B,negative;positive
1739214042,14bdf8984473127b7d634eb89d894ed7,PennController,121,0,calibrator_val_no_feedback,NULL,PennController,132,_Trial_,End,1739213522710,undefined,755,jail,negative,positive,B,NULL
1739214042,14bdf8984473127b7d634eb89d894ed7,PennController,122,0,calibrator_val_no_feedback,NULL,PennController,133,_Trial_,Start,1739213522711,undefined,938,joke,negative,positive,B,NULL
1739214042,14bdf8984473127b7d634eb89d894ed7,PennController,122,0,calibrator_val_no_feedback,NULL,PennController,133,_Header_,Start,1739213522711,undefined,938,joke,negative,positive,B,NULL
1739214042,14bdf8984473127b7d634eb89d894ed7,PennController,122,0,calibrator_val_no_feedback,NULL,PennController,133,_Header_,End,1739213522964,undefined,938,joke,negative,positive,B,NULL
1739214042,14bdf8984473127b7d634eb89d894ed7,PennController,122,0,calibrator_val_no_feedback,NULL,Selector,unnamed-Selector,Selection,positive,1739213524405,undefined,938,joke,negative,positive,B,negative;positive
1739214042,14bdf8984473127b7d634eb89d894ed7,PennController,122,0,calibrator_val_no_feedback,NULL,PennController,133,_Trial_,End,1739213524406,undefined,938,joke,negative,positive,B,NULL
1739214042,14bdf8984473127b7d634eb89d894ed7,PennController,123,0,calibrator_val_no_feedback,NULL,PennController,134,_Trial_,Start,1739213524408,undefined,756,kitten,negative,positive,B,NULL
1739214042,14bdf8984473127b7d634eb89d894ed7,PennController,123,0,calibrator_val_no_feedback,NULL,PennController,134,_Header_,Start,1739213524408,undefined,756,kitten,negative,positive,B,NULL
1739214042,14bdf8984473127b7d634eb89d894ed7,PennController,123,0,calibrator_val_no_feedback,NULL,PennController,134,_Header_,End,1739213524658,undefined,756,kitten,negative,positive,B,NULL
1739214042,14bdf8984473127b7d634eb89d894ed7,PennController,123,0,calibrator_val_no_feedback,NULL,Selector,unnamed-Selector,Selection,positive,1739213525916,undefined,756,kitten,negative,positive,B,negative;positive
1739214042,14bdf8984473127b7d634eb89d894ed7,PennController,123,0,calibrator_val_no_feedback,NULL,PennController,134,_Trial_,End,1739213525918,undefined,756,kitten,negative,positive,B,NULL
1739214042,14bdf8984473127b7d634eb89d894ed7,PennController,120,0,calibrator_val_no_feedback,NULL,PennController,131,_Trial_,Start,1739213525919,undefined,688,invader,negative,positive,B,NULL
1739214042,14bdf8984473127b7d634eb89d894ed7,PennController,120,0,calibrator_val_no_feedback,NULL,PennController,131,_Header_,Start,1739213525919,undefined,688,invader,negative,positive,B,NULL
1739214042,14bdf8984473127b7d634eb89d894ed7,PennController,120,0,calibrator_val_no_feedback,NULL,PennController,131,_Header_,End,1739213526172,undefined,688,invader,negative,positive,B,NULL
1739214042,14bdf8984473127b7d634eb89d894ed7,PennController,120,0,calibrator_val_no_feedback,NULL,Selector,unnamed-Selector,Selection,negative,1739213527364,undefined,688,invader,negative,positive,B,negative;positive
1739214042,14bdf8984473127b7d634eb89d894ed7,PennController,120,0,calibrator_val_no_feedback,NULL,PennController,131,_Trial_,End,1739213527365,undefined,688,invader,negative,positive,B,NULL
1739214042,14bdf8984473127b7d634eb89d894ed7,PennController,115,0,calibrator_val_no_feedback,NULL,PennController,126,_Trial_,Start,1739213527366,undefined,905,grin,negative,positive,B,NULL
1739214042,14bdf8984473127b7d634eb89d894ed7,PennController,115,0,calibrator_val_no_feedback,NULL,PennController,126,_Header_,Start,1739213527366,undefined,905,grin,negative,positive,B,NULL
1739214042,14bdf8984473127b7d634eb89d894ed7,PennController,115,0,calibrator_val_no_feedback,NULL,PennController,126,_Header_,End,1739213527617,undefined,905,grin,negative,positive,B,NULL
1739214042,14bdf8984473127b7d634eb89d894ed7,PennController,115,0,calibrator_val_no_feedback,NULL,Selector,unnamed-Selector,Selection,positive,1739213529028,undefined,905,grin,negative,positive,B,negative;positive
1739214042,14bdf8984473127b7d634eb89d894ed7,PennController,115,0,calibrator_val_no_feedback,NULL,PennController,126,_Trial_,End,1739213529029,undefined,905,grin,negative,positive,B,NULL
# 13. Comments.
1739214042,14bdf8984473127b7d634eb89d894ed7,PennController,130,0,endinstructions_val,NULL,PennController,8,_Trial_,Start,1739213529030,NULL
1739214042,14bdf8984473127b7d634eb89d894ed7,PennController,130,0,endinstructions_val,NULL,PennController,8,_Header_,Start,1739213529030,NULL
1739214042,14bdf8984473127b7d634eb89d894ed7,PennController,130,0,endinstructions_val,NULL,PennController,8,_Header_,End,1739213529286,NULL
1739214042,14bdf8984473127b7d634eb89d894ed7,PennController,130,0,endinstructions_val,NULL,PennController,8,_Trial_,End,1739213539358,NULL
# 13. ID.
# 14. ReactionTime.
# 15. Word.
# 16. ConcValCombo.
# 17. Key_value_F.
# 18. Key_value_J.
# 19. Group.
# 20. Comments.
1739214042,14bdf8984473127b7d634eb89d894ed7,PennController,81,0,test_val,NULL,PennController,92,_Trial_,Start,1739213539360,undefined,1198,wrinkled,concrete-negative,negative,positive,B,NULL
1739214042,14bdf8984473127b7d634eb89d894ed7,PennController,81,0,test_val,NULL,PennController,92,_Header_,Start,1739213539360,undefined,1198,wrinkled,concrete-negative,negative,positive,B,NULL
1739214042,14bdf8984473127b7d634eb89d894ed7,PennController,81,0,test_val,NULL,PennController,92,_Header_,End,1739213539614,undefined,1198,wrinkled,concrete-negative,negative,positive,B,NULL
1739214042,14bdf8984473127b7d634eb89d894ed7,PennController,81,0,test_val,NULL,Selector,unnamed-Selector,Selection,negative,1739213541316,undefined,1198,wrinkled,concrete-negative,negative,positive,B,negative;positive
1739214042,14bdf8984473127b7d634eb89d894ed7,PennController,81,0,test_val,NULL,PennController,92,_Trial_,End,1739213541318,undefined,1198,wrinkled,concrete-negative,negative,positive,B,NULL
1739214042,14bdf8984473127b7d634eb89d894ed7,PennController,69,0,test_val,NULL,PennController,80,_Trial_,Start,1739213541319,undefined,1012,sensible,abstract-positive,negative,positive,B,NULL
1739214042,14bdf8984473127b7d634eb89d894ed7,PennController,69,0,test_val,NULL,PennController,80,_Header_,Start,1739213541319,undefined,1012,sensible,abstract-positive,negative,positive,B,NULL
1739214042,14bdf8984473127b7d634eb89d894ed7,PennController,69,0,test_val,NULL,PennController,80,_Header_,End,1739213541569,undefined,1012,sensible,abstract-positive,negative,positive,B,NULL
1739214042,14bdf8984473127b7d634eb89d894ed7,PennController,69,0,test_val,NULL,Selector,unnamed-Selector,Selection,positive,1739213543084,undefined,1012,sensible,abstract-positive,negative,positive,B,negative;positive
1739214042,14bdf8984473127b7d634eb89d894ed7,PennController,69,0,test_val,NULL,PennController,80,_Trial_,End,1739213543086,undefined,1012,sensible,abstract-positive,negative,positive,B,NULL
1739214042,14bdf8984473127b7d634eb89d894ed7,PennController,45,0,test_val,NULL,PennController,56,_Trial_,Start,1739213543087,undefined,840,awful,abstract-negative,negative,positive,B,NULL
1739214042,14bdf8984473127b7d634eb89d894ed7,PennController,45,0,test_val,NULL,PennController,56,_Header_,Start,1739213543087,undefined,840,awful,abstract-negative,negative,positive,B,NULL
1739214042,14bdf8984473127b7d634eb89d894ed7,PennController,45,0,test_val,NULL,PennController,56,_Header_,End,1739213543340,undefined,840,awful,abstract-negative,negative,positive,B,NULL
1739214042,14bdf8984473127b7d634eb89d894ed7,PennController,45,0,test_val,NULL,Selector,unnamed-Selector,Selection,negative,1739213544684,undefined,840,awful,abstract-negative,negative,positive,B,negative;positive
1739214042,14bdf8984473127b7d634eb89d894ed7,PennController,45,0,test_val,NULL,PennController,56,_Trial_,End,1739213544685,undefined,840,awful,abstract-negative,negative,positive,B,NULL
1739214042,14bdf8984473127b7d634eb89d894ed7,PennController,51,0,test_val,NULL,PennController,62,_Trial_,Start,1739213544686,undefined,1236,stupid,abstract-negative,negative,positive,B,NULL
1739214042,14bdf8984473127b7d634eb89d894ed7,PennController,51,0,test_val,NULL,PennController,62,_Header_,Start,1739213544686,undefined,1236,stupid,abstract-negative,negative,positive,B,NULL
1739214042,14bdf8984473127b7d634eb89d894ed7,PennController,51,0,test_val,NULL,PennController,62,_Header_,End,1739213544938,undefined,1236,stupid,abstract-negative,negative,positive,B,NULL
1739214042,14bdf8984473127b7d634eb89d894ed7,PennController,51,0,test_val,NULL,Selector,unnamed-Selector,Selection,negative,1739213546677,undefined,1236,stupid,abstract-negative,negative,positive,B,negative;positive
1739214042,14bdf8984473127b7d634eb89d894ed7,PennController,51,0,test_val,NULL,PennController,62,_Trial_,End,1739213546679,undefined,1236,stupid,abstract-negative,negative,positive,B,NULL
1739214042,14bdf8984473127b7d634eb89d894ed7,PennController,46,0,test_val,NULL,PennController,57,_Trial_,Start,1739213546680,undefined,677,evil,abstract-negative,negative,positive,B,NULL
1739214042,14bdf8984473127b7d634eb89d894ed7,PennController,46,0,test_val,NULL,PennController,57,_Header_,Start,1739213546681,undefined,677,evil,abstract-negative,negative,positive,B,NULL
1739214042,14bdf8984473127b7d634eb89d894ed7,PennController,46,0,test_val,NULL,PennController,57,_Header_,End,1739213546933,undefined,677,evil,abstract-negative,negative,positive,B,NULL
1739214042,14bdf8984473127b7d634eb89d894ed7,PennController,46,0,test_val,NULL,Selector,unnamed-Selector,Selection,negative,1739213548116,undefined,677,evil,abstract-negative,negative,positive,B,negative;positive
1739214042,14bdf8984473127b7d634eb89d894ed7,PennController,46,0,test_val,NULL,PennController,57,_Trial_,End,1739213548117,undefined,677,evil,abstract-negative,negative,positive,B,NULL
1739214042,14bdf8984473127b7d634eb89d894ed7,PennController,55,0,test_val,NULL,PennController,66,_Trial_,Start,1739213548118,undefined,654,lilac,concrete-positive,negative,positive,B,NULL
1739214042,14bdf8984473127b7d634eb89d894ed7,PennController,55,0,test_val,NULL,PennController,66,_Header_,Start,1739213548118,undefined,654,lilac,concrete-positive,negative,positive,B,NULL
1739214042,14bdf8984473127b7d634eb89d894ed7,PennController,55,0,test_val,NULL,PennController,66,_Header_,End,1739213548368,undefined,654,lilac,concrete-positive,negative,positive,B,NULL
1739214042,14bdf8984473127b7d634eb89d894ed7,PennController,55,0,test_val,NULL,Selector,unnamed-Selector,Selection,positive,1739213549525,undefined,654,lilac,concrete-positive,negative,positive,B,negative;positive
1739214042,14bdf8984473127b7d634eb89d894ed7,PennController,55,0,test_val,NULL,PennController,66,_Trial_,End,1739213549526,undefined,654,lilac,concrete-positive,negative,positive,B,NULL
1739214042,14bdf8984473127b7d634eb89d894ed7,PennController,61,0,test_val,NULL,PennController,72,_Trial_,Start,1739213549527,undefined,1047,starry,concrete-positive,negative,positive,B,NULL
1739214042,14bdf8984473127b7d634eb89d894ed7,PennController,61,0,test_val,NULL,PennController,72,_Header_,Start,1739213549527,undefined,1047,starry,concrete-positive,negative,positive,B,NULL
1739214042,14bdf8984473127b7d634eb89d894ed7,PennController,61,0,test_val,NULL,PennController,72,_Header_,End,1739213549780,undefined,1047,starry,concrete-positive,negative,positive,B,NULL
1739214042,14bdf8984473127b7d634eb89d894ed7,PennController,61,0,test_val,NULL,Selector,unnamed-Selector,Selection,positive,1739213551332,undefined,1047,starry,concrete-positive,negative,positive,B,negative;positive
1739214042,14bdf8984473127b7d634eb89d894ed7,PennController,61,0,test_val,NULL,PennController,72,_Trial_,End,1739213551333,undefined,1047,starry,concrete-positive,negative,positive,B,NULL
1739214042,14bdf8984473127b7d634eb89d894ed7,PennController,54,0,test_val,NULL,PennController,65,_Trial_,Start,1739213551333,undefined,515,sunny,concrete-positive,negative,positive,B,NULL
1739214042,14bdf8984473127b7d634eb89d894ed7,PennController,54,0,test_val,NULL,PennController,65,_Header_,Start,1739213551334,undefined,515,sunny,concrete-positive,negative,positive,B,NULL
1739214042,14bdf8984473127b7d634eb89d894ed7,PennController,54,0,test_val,NULL,PennController,65,_Header_,End,1739213551587,undefined,515,sunny,concrete-positive,negative,positive,B,NULL
1739214042,14bdf8984473127b7d634eb89d894ed7,PennController,54,0,test_val,NULL,Selector,unnamed-Selector,Selection,positive,1739213552605,undefined,515,sunny,concrete-positive,negative,positive,B,negative;positive
1739214042,14bdf8984473127b7d634eb89d894ed7,PennController,54,0,test_val,NULL,PennController,65,_Trial_,End,1739213552606,undefined,515,sunny,concrete-positive,negative,positive,B,NULL
1739214042,14bdf8984473127b7d634eb89d894ed7,PennController,65,0,test_val,NULL,PennController,76,_Trial_,Start,1739213552607,undefined,530,lovable,abstract-positive,negative,positive,B,NULL
1739214042,14bdf8984473127b7d634eb89d894ed7,PennController,65,0,test_val,NULL,PennController,76,_Header_,Start,1739213552607,undefined,530,lovable,abstract-positive,negative,positive,B,NULL
1739214042,14bdf8984473127b7d634eb89d894ed7,PennController,65,0,test_val,NULL,PennController,76,_Header_,End,1739213552859,undefined,530,lovable,abstract-positive,negative,positive,B,NULL
1739214042,14bdf8984473127b7d634eb89d894ed7,PennController,65,0,test_val,NULL,Selector,unnamed-Selector,Selection,positive,1739213553892,undefined,530,lovable,abstract-positive,negative,positive,B,negative;positive
1739214042,14bdf8984473127b7d634eb89d894ed7,PennController,65,0,test_val,NULL,PennController,76,_Trial_,End,1739213553893,undefined,530,lovable,abstract-positive,negative,positive,B,NULL
1739214042,14bdf8984473127b7d634eb89d894ed7,PennController,83,0,test_val,NULL,PennController,94,_Trial_,Start,1739213553895,undefined,635,bloody,concrete-negative,negative,positive,B,NULL
1739214042,14bdf8984473127b7d634eb89d894ed7,PennController,83,0,test_val,NULL,PennController,94,_Header_,Start,1739213553895,undefined,635,bloody,concrete-negative,negative,positive,B,NULL
1739214042,14bdf8984473127b7d634eb89d894ed7,PennController,83,0,test_val,NULL,PennController,94,_Header_,End,1739213554148,undefined,635,bloody,concrete-negative,negative,positive,B,NULL
1739214042,14bdf8984473127b7d634eb89d894ed7,PennController,83,0,test_val,NULL,Selector,unnamed-Selector,Selection,negative,1739213555285,undefined,635,bloody,concrete-negative,negative,positive,B,negative;positive
1739214042,14bdf8984473127b7d634eb89d894ed7,PennController,83,0,test_val,NULL,PennController,94,_Trial_,End,1739213555287,undefined,635,bloody,concrete-negative,negative,positive,B,NULL
1739214042,14bdf8984473127b7d634eb89d894ed7,PennController,66,0,test_val,NULL,PennController,77,_Trial_,Start,1739213555288,undefined,580,thankful,abstract-positive,negative,positive,B,NULL
1739214042,14bdf8984473127b7d634eb89d894ed7,PennController,66,0,test_val,NULL,PennController,77,_Header_,Start,1739213555288,undefined,580,thankful,abstract-positive,negative,positive,B,NULL
1739214042,14bdf8984473127b7d634eb89d894ed7,PennController,66,0,test_val,NULL,PennController,77,_Header_,End,1739213555538,undefined,580,thankful,abstract-positive,negative,positive,B,NULL
1739214042,14bdf8984473127b7d634eb89d894ed7,PennController,66,0,test_val,NULL,Selector,unnamed-Selector,Selection,positive,1739213556621,undefined,580,thankful,abstract-positive,negative,positive,B,negative;positive
1739214042,14bdf8984473127b7d634eb89d894ed7,PennController,66,0,test_val,NULL,PennController,77,_Trial_,End,1739213556623,undefined,580,thankful,abstract-positive,negative,positive,B,NULL
1739214042,14bdf8984473127b7d634eb89d894ed7,PennController,78,0,test_val,NULL,PennController,89,_Trial_,Start,1739213556625,undefined,1202,thorny,concrete-negative,negative,positive,B,NULL
1739214042,14bdf8984473127b7d634eb89d894ed7,PennController,78,0,test_val,NULL,PennController,89,_Header_,Start,1739213556625,undefined,1202,thorny,concrete-negative,negative,positive,B,NULL
1739214042,14bdf8984473127b7d634eb89d894ed7,PennController,78,0,test_val,NULL,PennController,89,_Header_,End,1739213556880,undefined,1202,thorny,concrete-negative,negative,positive,B,NULL
1739214042,14bdf8984473127b7d634eb89d894ed7,PennController,78,0,test_val,NULL,Selector,unnamed-Selector,Selection,negative,1739213558587,undefined,1202,thorny,concrete-negative,negative,positive,B,negative;positive
1739214042,14bdf8984473127b7d634eb89d894ed7,PennController,78,0,test_val,NULL,PennController,89,_Trial_,End,1739213558588,undefined,1202,thorny,concrete-negative,negative,positive,B,NULL
1739214042,14bdf8984473127b7d634eb89d894ed7,PennController,59,0,test_val,NULL,PennController,70,_Trial_,Start,1739213558589,undefined,649,blooming,concrete-positive,negative,positive,B,NULL
1739214042,14bdf8984473127b7d634eb89d894ed7,PennController,59,0,test_val,NULL,PennController,70,_Header_,Start,1739213558589,undefined,649,blooming,concrete-positive,negative,positive,B,NULL
1739214042,14bdf8984473127b7d634eb89d894ed7,PennController,59,0,test_val,NULL,PennController,70,_Header_,End,1739213558841,undefined,649,blooming,concrete-positive,negative,positive,B,NULL
1739214042,14bdf8984473127b7d634eb89d894ed7,PennController,59,0,test_val,NULL,Selector,unnamed-Selector,Selection,positive,1739213559996,undefined,649,blooming,concrete-positive,negative,positive,B,negative;positive
1739214042,14bdf8984473127b7d634eb89d894ed7,PennController,59,0,test_val,NULL,PennController,70,_Trial_,End,1739213559998,undefined,649,blooming,concrete-positive,negative,positive,B,NULL
1739214042,14bdf8984473127b7d634eb89d894ed7,PennController,47,0,test_val,NULL,PennController,58,_Trial_,Start,1739213559999,undefined,787,soulless,abstract-negative,negative,positive,B,NULL
1739214042,14bdf8984473127b7d634eb89d894ed7,PennController,47,0,test_val,NULL,PennController,58,_Header_,Start,1739213559999,undefined,787,soulless,abstract-negative,negative,positive,B,NULL
1739214042,14bdf8984473127b7d634eb89d894ed7,PennController,47,0,test_val,NULL,PennController,58,_Header_,End,1739213560251,undefined,787,soulless,abstract-negative,negative,positive,B,NULL
1739214042,14bdf8984473127b7d634eb89d894ed7,PennController,47,0,test_val,NULL,Selector,unnamed-Selector,Selection,negative,1739213561540,undefined,787,soulless,abstract-negative,negative,positive,B,negative;positive
1739214042,14bdf8984473127b7d634eb89d894ed7,PennController,47,0,test_val,NULL,PennController,58,_Trial_,End,1739213561542,undefined,787,soulless,abstract-negative,negative,positive,B,NULL
1739214042,14bdf8984473127b7d634eb89d894ed7,PennController,57,0,test_val,NULL,PennController,68,_Trial_,Start,1739213561543,undefined,610,female,concrete-positive,negative,positive,B,NULL
1739214042,14bdf8984473127b7d634eb89d894ed7,PennController,57,0,test_val,NULL,PennController,68,_Header_,Start,1739213561543,undefined,610,female,concrete-positive,negative,positive,B,NULL
1739214042,14bdf8984473127b7d634eb89d894ed7,PennController,57,0,test_val,NULL,PennController,68,_Header_,End,1739213561796,undefined,610,female,concrete-positive,negative,positive,B,NULL
1739214042,14bdf8984473127b7d634eb89d894ed7,PennController,57,0,test_val,NULL,Selector,unnamed-Selector,Selection,positive,1739213562909,undefined,610,female,concrete-positive,negative,positive,B,negative;positive
1739214042,14bdf8984473127b7d634eb89d894ed7,PennController,57,0,test_val,NULL,PennController,68,_Trial_,End,1739213562911,undefined,610,female,concrete-positive,negative,positive,B,NULL
1739214042,14bdf8984473127b7d634eb89d894ed7,PennController,52,0,test_val,NULL,PennController,63,_Trial_,Start,1739213562912,undefined,767,sinful,abstract-negative,negative,positive,B,NULL
1739214042,14bdf8984473127b7d634eb89d894ed7,PennController,52,0,test_val,NULL,PennController,63,_Header_,Start,1739213562912,undefined,767,sinful,abstract-negative,negative,positive,B,NULL
1739214042,14bdf8984473127b7d634eb89d894ed7,PennController,52,0,test_val,NULL,PennController,63,_Header_,End,1739213563166,undefined,767,sinful,abstract-negative,negative,positive,B,NULL
1739214042,14bdf8984473127b7d634eb89d894ed7,PennController,52,0,test_val,NULL,Selector,unnamed-Selector,Selection,negative,1739213564435,undefined,767,sinful,abstract-negative,negative,positive,B,negative;positive
1739214042,14bdf8984473127b7d634eb89d894ed7,PennController,52,0,test_val,NULL,PennController,63,_Trial_,End,1739213564436,undefined,767,sinful,abstract-negative,negative,positive,B,NULL
1739214042,14bdf8984473127b7d634eb89d894ed7,PennController,79,0,test_val,NULL,PennController,90,_Trial_,Start,1739213564437,undefined,1307,hairy,concrete-negative,negative,positive,B,NULL
1739214042,14bdf8984473127b7d634eb89d894ed7,PennController,79,0,test_val,NULL,PennController,90,_Header_,Start,1739213564437,undefined,1307,hairy,concrete-negative,negative,positive,B,NULL
1739214042,14bdf8984473127b7d634eb89d894ed7,PennController,79,0,test_val,NULL,PennController,90,_Header_,End,1739213564688,undefined,1307,hairy,concrete-negative,negative,positive,B,NULL
1739214042,14bdf8984473127b7d634eb89d894ed7,PennController,79,0,test_val,NULL,Selector,unnamed-Selector,Selection,negative,1739213566500,undefined,1307,hairy,concrete-negative,negative,positive,B,negative;positive
1739214042,14bdf8984473127b7d634eb89d894ed7,PennController,79,0,test_val,NULL,PennController,90,_Trial_,End,1739213566501,undefined,1307,hairy,concrete-negative,negative,positive,B,NULL
1739214042,14bdf8984473127b7d634eb89d894ed7,PennController,73,0,test_val,NULL,PennController,84,_Trial_,Start,1739213566502,undefined,907,divine,abstract-positive,negative,positive,B,NULL
1739214042,14bdf8984473127b7d634eb89d894ed7,PennController,73,0,test_val,NULL,PennController,84,_Header_,Start,1739213566502,undefined,907,divine,abstract-positive,negative,positive,B,NULL
1739214042,14bdf8984473127b7d634eb89d894ed7,PennController,73,0,test_val,NULL,PennController,84,_Header_,End,1739213566752,undefined,907,divine,abstract-positive,negative,positive,B,NULL
1739214042,14bdf8984473127b7d634eb89d894ed7,PennController,73,0,test_val,NULL,Selector,unnamed-Selector,Selection,positive,1739213568164,undefined,907,divine,abstract-positive,negative,positive,B,negative;positive
1739214042,14bdf8984473127b7d634eb89d894ed7,PennController,73,0,test_val,NULL,PennController,84,_Trial_,End,1739213568166,undefined,907,divine,abstract-positive,negative,positive,B,NULL
1739214042,14bdf8984473127b7d634eb89d894ed7,PennController,71,0,test_val,NULL,PennController,82,_Trial_,Start,1739213568167,undefined,533,pleasant,abstract-positive,negative,positive,B,NULL
1739214042,14bdf8984473127b7d634eb89d894ed7,PennController,71,0,test_val,NULL,PennController,82,_Header_,Start,1739213568167,undefined,533,pleasant,abstract-positive,negative,positive,B,NULL
1739214042,14bdf8984473127b7d634eb89d894ed7,PennController,71,0,test_val,NULL,PennController,82,_Header_,End,1739213568417,undefined,533,pleasant,abstract-positive,negative,positive,B,NULL
1739214042,14bdf8984473127b7d634eb89d894ed7,PennController,71,0,test_val,NULL,Selector,unnamed-Selector,Selection,positive,1739213569453,undefined,533,pleasant,abstract-positive,negative,positive,B,negative;positive
1739214042,14bdf8984473127b7d634eb89d894ed7,PennController,71,0,test_val,NULL,PennController,82,_Trial_,End,1739213569454,undefined,533,pleasant,abstract-positive,negative,positive,B,NULL
1739214042,14bdf8984473127b7d634eb89d894ed7,PennController,67,0,test_val,NULL,PennController,78,_Trial_,Start,1739213569455,undefined,596,splendid,abstract-positive,negative,positive,B,NULL
1739214042,14bdf8984473127b7d634eb89d894ed7,PennController,67,0,test_val,NULL,PennController,78,_Header_,Start,1739213569455,undefined,596,splendid,abstract-positive,negative,positive,B,NULL
1739214042,14bdf8984473127b7d634eb89d894ed7,PennController,67,0,test_val,NULL,PennController,78,_Header_,End,1739213569707,undefined,596,splendid,abstract-positive,negative,positive,B,NULL
1739214042,14bdf8984473127b7d634eb89d894ed7,PennController,67,0,test_val,NULL,Selector,unnamed-Selector,Selection,positive,1739213570804,undefined,596,splendid,abstract-positive,negative,positive,B,negative;positive
1739214042,14bdf8984473127b7d634eb89d894ed7,PennController,67,0,test_val,NULL,PennController,78,_Trial_,End,1739213570806,undefined,596,splendid,abstract-positive,negative,positive,B,NULL
1739214042,14bdf8984473127b7d634eb89d894ed7,PennController,76,0,test_val,NULL,PennController,87,_Trial_,Start,1739213570807,undefined,636,bloodshot,concrete-negative,negative,positive,B,NULL
1739214042,14bdf8984473127b7d634eb89d894ed7,PennController,76,0,test_val,NULL,PennController,87,_Header_,Start,1739213570807,undefined,636,bloodshot,concrete-negative,negative,positive,B,NULL
1739214042,14bdf8984473127b7d634eb89d894ed7,PennController,76,0,test_val,NULL,PennController,87,_Header_,End,1739213571058,undefined,636,bloodshot,concrete-negative,negative,positive,B,NULL
1739214042,14bdf8984473127b7d634eb89d894ed7,PennController,76,0,test_val,NULL,Selector,unnamed-Selector,Selection,negative,1739213572196,undefined,636,bloodshot,concrete-negative,negative,positive,B,negative;positive
1739214042,14bdf8984473127b7d634eb89d894ed7,PennController,76,0,test_val,NULL,PennController,87,_Trial_,End,1739213572198,undefined,636,bloodshot,concrete-negative,negative,positive,B,NULL
1739214042,14bdf8984473127b7d634eb89d894ed7,PennController,58,0,test_val,NULL,PennController,69,_Trial_,Start,1739213572199,undefined,609,newborn,concrete-positive,negative,positive,B,NULL
1739214042,14bdf8984473127b7d634eb89d894ed7,PennController,58,0,test_val,NULL,PennController,69,_Header_,Start,1739213572199,undefined,609,newborn,concrete-positive,negative,positive,B,NULL
1739214042,14bdf8984473127b7d634eb89d894ed7,PennController,58,0,test_val,NULL,PennController,69,_Header_,End,1739213572451,undefined,609,newborn,concrete-positive,negative,positive,B,NULL
1739214042,14bdf8984473127b7d634eb89d894ed7,PennController,58,0,test_val,NULL,Selector,unnamed-Selector,Selection,positive,1739213573564,undefined,609,newborn,concrete-positive,negative,positive,B,negative;positive
1739214042,14bdf8984473127b7d634eb89d894ed7,PennController,58,0,test_val,NULL,PennController,69,_Trial_,End,1739213573565,undefined,609,newborn,concrete-positive,negative,positive,B,NULL
1739214042,14bdf8984473127b7d634eb89d894ed7,PennController,72,0,test_val,NULL,PennController,83,_Trial_,Start,1739213573566,undefined,729,helpful,abstract-positive,negative,positive,B,NULL
1739214042,14bdf8984473127b7d634eb89d894ed7,PennController,72,0,test_val,NULL,PennController,83,_Header_,Start,1739213573566,undefined,729,helpful,abstract-positive,negative,positive,B,NULL
1739214042,14bdf8984473127b7d634eb89d894ed7,PennController,72,0,test_val,NULL,PennController,83,_Header_,End,1739213573820,undefined,729,helpful,abstract-positive,negative,positive,B,NULL
1739214042,14bdf8984473127b7d634eb89d894ed7,PennController,72,0,test_val,NULL,Selector,unnamed-Selector,Selection,positive,1739213575052,undefined,729,helpful,abstract-positive,negative,positive,B,negative;positive
1739214042,14bdf8984473127b7d634eb89d894ed7,PennController,72,0,test_val,NULL,PennController,83,_Trial_,End,1739213575054,undefined,729,helpful,abstract-positive,negative,positive,B,NULL
1739214042,14bdf8984473127b7d634eb89d894ed7,PennController,49,0,test_val,NULL,PennController,60,_Trial_,Start,1739213575055,undefined,960,sexist,abstract-negative,negative,positive,B,NULL
1739214042,14bdf8984473127b7d634eb89d894ed7,PennController,49,0,test_val,NULL,PennController,60,_Header_,Start,1739213575055,undefined,960,sexist,abstract-negative,negative,positive,B,NULL
1739214042,14bdf8984473127b7d634eb89d894ed7,PennController,49,0,test_val,NULL,PennController,60,_Header_,End,1739213575307,undefined,960,sexist,abstract-negative,negative,positive,B,NULL
1739214042,14bdf8984473127b7d634eb89d894ed7,PennController,49,0,test_val,NULL,Selector,unnamed-Selector,Selection,negative,1739213576772,undefined,960,sexist,abstract-negative,negative,positive,B,negative;positive
1739214042,14bdf8984473127b7d634eb89d894ed7,PennController,49,0,test_val,NULL,PennController,60,_Trial_,End,1739213576774,undefined,960,sexist,abstract-negative,negative,positive,B,NULL
1739214042,14bdf8984473127b7d634eb89d894ed7,PennController,56,0,test_val,NULL,PennController,67,_Trial_,Start,1739213576775,undefined,579,human,concrete-positive,negative,positive,B,NULL
1739214042,14bdf8984473127b7d634eb89d894ed7,PennController,56,0,test_val,NULL,PennController,67,_Header_,Start,1739213576775,undefined,579,human,concrete-positive,negative,positive,B,NULL
1739214042,14bdf8984473127b7d634eb89d894ed7,PennController,56,0,test_val,NULL,PennController,67,_Header_,End,1739213577027,undefined,579,human,concrete-positive,negative,positive,B,NULL
1739214042,14bdf8984473127b7d634eb89d894ed7,PennController,56,0,test_val,NULL,Selector,unnamed-Selector,Selection,positive,1739213578108,undefined,579,human,concrete-positive,negative,positive,B,negative;positive
1739214042,14bdf8984473127b7d634eb89d894ed7,PennController,56,0,test_val,NULL,PennController,67,_Trial_,End,1739213578110,undefined,579,human,concrete-positive,negative,positive,B,NULL
1739214042,14bdf8984473127b7d634eb89d894ed7,PennController,44,0,test_val,NULL,PennController,55,_Trial_,Start,1739213578111,undefined,724,worthless,abstract-negative,negative,positive,B,NULL
1739214042,14bdf8984473127b7d634eb89d894ed7,PennController,44,0,test_val,NULL,PennController,55,_Header_,Start,1739213578111,undefined,724,worthless,abstract-negative,negative,positive,B,NULL
1739214042,14bdf8984473127b7d634eb89d894ed7,PennController,44,0,test_val,NULL,PennController,55,_Header_,End,1739213578362,undefined,724,worthless,abstract-negative,negative,positive,B,NULL
1739214042,14bdf8984473127b7d634eb89d894ed7,PennController,44,0,test_val,NULL,Selector,unnamed-Selector,Selection,negative,1739213579588,undefined,724,worthless,abstract-negative,negative,positive,B,negative;positive
1739214042,14bdf8984473127b7d634eb89d894ed7,PennController,44,0,test_val,NULL,PennController,55,_Trial_,End,1739213579589,undefined,724,worthless,abstract-negative,negative,positive,B,NULL
1739214042,14bdf8984473127b7d634eb89d894ed7,PennController,70,0,test_val,NULL,PennController,81,_Trial_,Start,1739213579590,undefined,775,mindful,abstract-positive,negative,positive,B,NULL
1739214042,14bdf8984473127b7d634eb89d894ed7,PennController,70,0,test_val,NULL,PennController,81,_Header_,Start,1739213579590,undefined,775,mindful,abstract-positive,negative,positive,B,NULL
1739214042,14bdf8984473127b7d634eb89d894ed7,PennController,70,0,test_val,NULL,PennController,81,_Header_,End,1739213579840,undefined,775,mindful,abstract-positive,negative,positive,B,NULL
1739214042,14bdf8984473127b7d634eb89d894ed7,PennController,70,0,test_val,NULL,Selector,unnamed-Selector,Selection,positive,1739213581116,undefined,775,mindful,abstract-positive,negative,positive,B,negative;positive
1739214042,14bdf8984473127b7d634eb89d894ed7,PennController,70,0,test_val,NULL,PennController,81,_Trial_,End,1739213581118,undefined,775,mindful,abstract-positive,negative,positive,B,NULL
1739214042,14bdf8984473127b7d634eb89d894ed7,PennController,68,0,test_val,NULL,PennController,79,_Trial_,Start,1739213581119,undefined,540,possible,abstract-positive,negative,positive,B,NULL
1739214042,14bdf8984473127b7d634eb89d894ed7,PennController,68,0,test_val,NULL,PennController,79,_Header_,Start,1739213581119,undefined,540,possible,abstract-positive,negative,positive,B,NULL
1739214042,14bdf8984473127b7d634eb89d894ed7,PennController,68,0,test_val,NULL,PennController,79,_Header_,End,1739213581371,undefined,540,possible,abstract-positive,negative,positive,B,NULL
1739214042,14bdf8984473127b7d634eb89d894ed7,PennController,68,0,test_val,NULL,Selector,unnamed-Selector,Selection,positive,1739213582412,undefined,540,possible,abstract-positive,negative,positive,B,negative;positive
1739214042,14bdf8984473127b7d634eb89d894ed7,PennController,68,0,test_val,NULL,PennController,79,_Trial_,End,1739213582413,undefined,540,possible,abstract-positive,negative,positive,B,NULL
1739214042,14bdf8984473127b7d634eb89d894ed7,PennController,62,0,test_val,NULL,PennController,73,_Trial_,Start,1739213582415,undefined,515,pregnant,concrete-positive,negative,positive,B,NULL
1739214042,14bdf8984473127b7d634eb89d894ed7,PennController,62,0,test_val,NULL,PennController,73,_Header_,Start,1739213582415,undefined,515,pregnant,concrete-positive,negative,positive,B,NULL
1739214042,14bdf8984473127b7d634eb89d894ed7,PennController,62,0,test_val,NULL,PennController,73,_Header_,End,1739213582665,undefined,515,pregnant,concrete-positive,negative,positive,B,NULL
1739214042,14bdf8984473127b7d634eb89d894ed7,PennController,62,0,test_val,NULL,Selector,unnamed-Selector,Selection,positive,1739213583684,undefined,515,pregnant,concrete-positive,negative,positive,B,negative;positive
1739214042,14bdf8984473127b7d634eb89d894ed7,PennController,62,0,test_val,NULL,PennController,73,_Trial_,End,1739213583685,undefined,515,pregnant,concrete-positive,negative,positive,B,NULL
1739214042,14bdf8984473127b7d634eb89d894ed7,PennController,64,0,test_val,NULL,PennController,75,_Trial_,Start,1739213583686,undefined,557,honest,abstract-positive,negative,positive,B,NULL
1739214042,14bdf8984473127b7d634eb89d894ed7,PennController,64,0,test_val,NULL,PennController,75,_Header_,Start,1739213583686,undefined,557,honest,abstract-positive,negative,positive,B,NULL
1739214042,14bdf8984473127b7d634eb89d894ed7,PennController,64,0,test_val,NULL,PennController,75,_Header_,End,1739213583936,undefined,557,honest,abstract-positive,negative,positive,B,NULL
1739214042,14bdf8984473127b7d634eb89d894ed7,PennController,64,0,test_val,NULL,Selector,unnamed-Selector,Selection,positive,1739213584996,undefined,557,honest,abstract-positive,negative,positive,B,negative;positive
1739214042,14bdf8984473127b7d634eb89d894ed7,PennController,64,0,test_val,NULL,PennController,75,_Trial_,End,1739213584999,undefined,557,honest,abstract-positive,negative,positive,B,NULL
1739214042,14bdf8984473127b7d634eb89d894ed7,PennController,82,0,test_val,NULL,PennController,93,_Trial_,Start,1739213585000,undefined,744,freezing,concrete-negative,negative,positive,B,NULL
1739214042,14bdf8984473127b7d634eb89d894ed7,PennController,82,0,test_val,NULL,PennController,93,_Header_,Start,1739213585000,undefined,744,freezing,concrete-negative,negative,positive,B,NULL
1739214042,14bdf8984473127b7d634eb89d894ed7,PennController,82,0,test_val,NULL,PennController,93,_Header_,End,1739213585251,undefined,744,freezing,concrete-negative,negative,positive,B,NULL
1739214042,14bdf8984473127b7d634eb89d894ed7,PennController,82,0,test_val,NULL,Selector,unnamed-Selector,Selection,negative,1739213586500,undefined,744,freezing,concrete-negative,negative,positive,B,negative;positive
1739214042,14bdf8984473127b7d634eb89d894ed7,PennController,82,0,test_val,NULL,PennController,93,_Trial_,End,1739213586501,undefined,744,freezing,concrete-negative,negative,positive,B,NULL
1739214042,14bdf8984473127b7d634eb89d894ed7,PennController,75,0,test_val,NULL,PennController,86,_Trial_,Start,1739213586502,undefined,836,headless,concrete-negative,negative,positive,B,NULL
1739214042,14bdf8984473127b7d634eb89d894ed7,PennController,75,0,test_val,NULL,PennController,86,_Header_,Start,1739213586502,undefined,836,headless,concrete-negative,negative,positive,B,NULL
1739214042,14bdf8984473127b7d634eb89d894ed7,PennController,75,0,test_val,NULL,PennController,86,_Header_,End,1739213586753,undefined,836,headless,concrete-negative,negative,positive,B,NULL
1739214042,14bdf8984473127b7d634eb89d894ed7,PennController,75,0,test_val,NULL,Selector,unnamed-Selector,Selection,negative,1739213588092,undefined,836,headless,concrete-negative,negative,positive,B,negative;positive
1739214042,14bdf8984473127b7d634eb89d894ed7,PennController,75,0,test_val,NULL,PennController,86,_Trial_,End,1739213588094,undefined,836,headless,concrete-negative,negative,positive,B,NULL
1739214042,14bdf8984473127b7d634eb89d894ed7,PennController,53,0,test_val,NULL,PennController,64,_Trial_,Start,1739213588095,undefined,836,disloyal,abstract-negative,negative,positive,B,NULL
1739214042,14bdf8984473127b7d634eb89d894ed7,PennController,53,0,test_val,NULL,PennController,64,_Header_,Start,1739213588095,undefined,836,disloyal,abstract-negative,negative,positive,B,NULL
1739214042,14bdf8984473127b7d634eb89d894ed7,PennController,53,0,test_val,NULL,PennController,64,_Header_,End,1739213588346,undefined,836,disloyal,abstract-negative,negative,positive,B,NULL
1739214042,14bdf8984473127b7d634eb89d894ed7,PennController,53,0,test_val,NULL,Selector,unnamed-Selector,Selection,negative,1739213589684,undefined,836,disloyal,abstract-negative,negative,positive,B,negative;positive
1739214042,14bdf8984473127b7d634eb89d894ed7,PennController,53,0,test_val,NULL,PennController,64,_Trial_,End,1739213589685,undefined,836,disloyal,abstract-negative,negative,positive,B,NULL
1739214042,14bdf8984473127b7d634eb89d894ed7,PennController,60,0,test_val,NULL,PennController,71,_Trial_,Start,1739213589686,undefined,525,orange,concrete-positive,negative,positive,B,NULL
1739214042,14bdf8984473127b7d634eb89d894ed7,PennController,60,0,test_val,NULL,PennController,71,_Header_,Start,1739213589686,undefined,525,orange,concrete-positive,negative,positive,B,NULL
1739214042,14bdf8984473127b7d634eb89d894ed7,PennController,60,0,test_val,NULL,PennController,71,_Header_,End,1739213589937,undefined,525,orange,concrete-positive,negative,positive,B,NULL
1739214042,14bdf8984473127b7d634eb89d894ed7,PennController,60,0,test_val,NULL,Selector,unnamed-Selector,Selection,positive,1739213590964,undefined,525,orange,concrete-positive,negative,positive,B,negative;positive
1739214042,14bdf8984473127b7d634eb89d894ed7,PennController,60,0,test_val,NULL,PennController,71,_Trial_,End,1739213590965,undefined,525,orange,concrete-positive,negative,positive,B,NULL
1739214042,14bdf8984473127b7d634eb89d894ed7,PennController,63,0,test_val,NULL,PennController,74,_Trial_,Start,1739213590966,undefined,645,handmade,concrete-positive,negative,positive,B,NULL
1739214042,14bdf8984473127b7d634eb89d894ed7,PennController,63,0,test_val,NULL,PennController,74,_Header_,Start,1739213590966,undefined,645,handmade,concrete-positive,negative,positive,B,NULL
1739214042,14bdf8984473127b7d634eb89d894ed7,PennController,63,0,test_val,NULL,PennController,74,_Header_,End,1739213591216,undefined,645,handmade,concrete-positive,negative,positive,B,NULL
1739214042,14bdf8984473127b7d634eb89d894ed7,PennController,63,0,test_val,NULL,Selector,unnamed-Selector,Selection,positive,1739213592364,undefined,645,handmade,concrete-positive,negative,positive,B,negative;positive
1739214042,14bdf8984473127b7d634eb89d894ed7,PennController,63,0,test_val,NULL,PennController,74,_Trial_,End,1739213592366,undefined,645,handmade,concrete-positive,negative,positive,B,NULL
1739214042,14bdf8984473127b7d634eb89d894ed7,PennController,48,0,test_val,NULL,PennController,59,_Trial_,Start,1739213592367,undefined,772,heartless,abstract-negative,negative,positive,B,NULL
1739214042,14bdf8984473127b7d634eb89d894ed7,PennController,48,0,test_val,NULL,PennController,59,_Header_,Start,1739213592367,undefined,772,heartless,abstract-negative,negative,positive,B,NULL
1739214042,14bdf8984473127b7d634eb89d894ed7,PennController,48,0,test_val,NULL,PennController,59,_Header_,End,1739213592617,undefined,772,heartless,abstract-negative,negative,positive,B,NULL
1739214042,14bdf8984473127b7d634eb89d894ed7,PennController,48,0,test_val,NULL,Selector,unnamed-Selector,Selection,negative,1739213593893,undefined,772,heartless,abstract-negative,negative,positive,B,negative;positive
1739214042,14bdf8984473127b7d634eb89d894ed7,PennController,48,0,test_val,NULL,PennController,59,_Trial_,End,1739213593894,undefined,772,heartless,abstract-negative,negative,positive,B,NULL
1739214042,14bdf8984473127b7d634eb89d894ed7,PennController,50,0,test_val,NULL,PennController,61,_Trial_,Start,1739213593895,undefined,818,crappy,abstract-negative,negative,positive,B,NULL
1739214042,14bdf8984473127b7d634eb89d894ed7,PennController,50,0,test_val,NULL,PennController,61,_Header_,Start,1739213593895,undefined,818,crappy,abstract-negative,negative,positive,B,NULL
1739214042,14bdf8984473127b7d634eb89d894ed7,PennController,50,0,test_val,NULL,PennController,61,_Header_,End,1739213594145,undefined,818,crappy,abstract-negative,negative,positive,B,NULL
1739214042,14bdf8984473127b7d634eb89d894ed7,PennController,50,0,test_val,NULL,Selector,unnamed-Selector,Selection,negative,1739213595468,undefined,818,crappy,abstract-negative,negative,positive,B,negative;positive
1739214042,14bdf8984473127b7d634eb89d894ed7,PennController,50,0,test_val,NULL,PennController,61,_Trial_,End,1739213595470,undefined,818,crappy,abstract-negative,negative,positive,B,NULL
1739214042,14bdf8984473127b7d634eb89d894ed7,PennController,77,0,test_val,NULL,PennController,88,_Trial_,Start,1739213595471,undefined,1108,rusted,concrete-negative,negative,positive,B,NULL
1739214042,14bdf8984473127b7d634eb89d894ed7,PennController,77,0,test_val,NULL,PennController,88,_Header_,Start,1739213595471,undefined,1108,rusted,concrete-negative,negative,positive,B,NULL
1739214042,14bdf8984473127b7d634eb89d894ed7,PennController,77,0,test_val,NULL,PennController,88,_Header_,End,1739213595721,undefined,1108,rusted,concrete-negative,negative,positive,B,NULL
1739214042,14bdf8984473127b7d634eb89d894ed7,PennController,77,0,test_val,NULL,Selector,unnamed-Selector,Selection,negative,1739213597332,undefined,1108,rusted,concrete-negative,negative,positive,B,negative;positive
1739214042,14bdf8984473127b7d634eb89d894ed7,PennController,77,0,test_val,NULL,PennController,88,_Trial_,End,1739213597333,undefined,1108,rusted,concrete-negative,negative,positive,B,NULL
1739214042,14bdf8984473127b7d634eb89d894ed7,PennController,74,0,test_val,NULL,PennController,85,_Trial_,Start,1739213597334,undefined,842,toothless,concrete-negative,negative,positive,B,NULL
1739214042,14bdf8984473127b7d634eb89d894ed7,PennController,74,0,test_val,NULL,PennController,85,_Header_,Start,1739213597334,undefined,842,toothless,concrete-negative,negative,positive,B,NULL
1739214042,14bdf8984473127b7d634eb89d894ed7,PennController,74,0,test_val,NULL,PennController,85,_Header_,End,1739213597587,undefined,842,toothless,concrete-negative,negative,positive,B,NULL
1739214042,14bdf8984473127b7d634eb89d894ed7,PennController,74,0,test_val,NULL,Selector,unnamed-Selector,Selection,negative,1739213598932,undefined,842,toothless,concrete-negative,negative,positive,B,negative;positive
1739214042,14bdf8984473127b7d634eb89d894ed7,PennController,74,0,test_val,NULL,PennController,85,_Trial_,End,1739213598933,undefined,842,toothless,concrete-negative,negative,positive,B,NULL
1739214042,14bdf8984473127b7d634eb89d894ed7,PennController,80,0,test_val,NULL,PennController,91,_Trial_,Start,1739213598935,undefined,680,dirty,concrete-negative,negative,positive,B,NULL
1739214042,14bdf8984473127b7d634eb89d894ed7,PennController,80,0,test_val,NULL,PennController,91,_Header_,Start,1739213598935,undefined,680,dirty,concrete-negative,negative,positive,B,NULL
1739214042,14bdf8984473127b7d634eb89d894ed7,PennController,80,0,test_val,NULL,PennController,91,_Header_,End,1739213599188,undefined,680,dirty,concrete-negative,negative,positive,B,NULL
1739214042,14bdf8984473127b7d634eb89d894ed7,PennController,80,0,test_val,NULL,Selector,unnamed-Selector,Selection,negative,1739213600372,undefined,680,dirty,concrete-negative,negative,positive,B,negative;positive
1739214042,14bdf8984473127b7d634eb89d894ed7,PennController,80,0,test_val,NULL,PennController,91,_Trial_,End,1739213600374,undefined,680,dirty,concrete-negative,negative,positive,B,NULL
1739214042,14bdf8984473127b7d634eb89d894ed7,PennController,79,0,test_val,NULL,PennController,90,_Trial_,Start,1739213600375,undefined,723,hairy,concrete-negative,negative,positive,B,NULL
1739214042,14bdf8984473127b7d634eb89d894ed7,PennController,79,0,test_val,NULL,PennController,90,_Header_,Start,1739213600375,undefined,723,hairy,concrete-negative,negative,positive,B,NULL
1739214042,14bdf8984473127b7d634eb89d894ed7,PennController,79,0,test_val,NULL,PennController,90,_Header_,End,1739213600626,undefined,723,hairy,concrete-negative,negative,positive,B,NULL
1739214042,14bdf8984473127b7d634eb89d894ed7,PennController,79,0,test_val,NULL,Selector,unnamed-Selector,Selection,negative,1739213601852,undefined,723,hairy,concrete-negative,negative,positive,B,negative;positive
1739214042,14bdf8984473127b7d634eb89d894ed7,PennController,79,0,test_val,NULL,PennController,90,_Trial_,End,1739213601853,undefined,723,hairy,concrete-negative,negative,positive,B,NULL
1739214042,14bdf8984473127b7d634eb89d894ed7,PennController,66,0,test_val,NULL,PennController,77,_Trial_,Start,1739213601854,undefined,630,thankful,abstract-positive,negative,positive,B,NULL
1739214042,14bdf8984473127b7d634eb89d894ed7,PennController,66,0,test_val,NULL,PennController,77,_Header_,Start,1739213601854,undefined,630,thankful,abstract-positive,negative,positive,B,NULL
1739214042,14bdf8984473127b7d634eb89d894ed7,PennController,66,0,test_val,NULL,PennController,77,_Header_,End,1739213602105,undefined,630,thankful,abstract-positive,negative,positive,B,NULL
1739214042,14bdf8984473127b7d634eb89d894ed7,PennController,66,0,test_val,NULL,Selector,unnamed-Selector,Selection,positive,1739213603237,undefined,630,thankful,abstract-positive,negative,positive,B,negative;positive
1739214042,14bdf8984473127b7d634eb89d894ed7,PennController,66,0,test_val,NULL,PennController,77,_Trial_,End,1739213603238,undefined,630,thankful,abstract-positive,negative,positive,B,NULL
1739214042,14bdf8984473127b7d634eb89d894ed7,PennController,54,0,test_val,NULL,PennController,65,_Trial_,Start,1739213603239,undefined,489,sunny,concrete-positive,negative,positive,B,NULL
1739214042,14bdf8984473127b7d634eb89d894ed7,PennController,54,0,test_val,NULL,PennController,65,_Header_,Start,1739213603239,undefined,489,sunny,concrete-positive,negative,positive,B,NULL
1739214042,14bdf8984473127b7d634eb89d894ed7,PennController,54,0,test_val,NULL,PennController,65,_Header_,End,1739213603491,undefined,489,sunny,concrete-positive,negative,positive,B,NULL
1739214042,14bdf8984473127b7d634eb89d894ed7,PennController,54,0,test_val,NULL,Selector,unnamed-Selector,Selection,positive,1739213604484,undefined,489,sunny,concrete-positive,negative,positive,B,negative;positive
1739214042,14bdf8984473127b7d634eb89d894ed7,PennController,54,0,test_val,NULL,PennController,65,_Trial_,End,1739213604485,undefined,489,sunny,concrete-positive,negative,positive,B,NULL
1739214042,14bdf8984473127b7d634eb89d894ed7,PennController,60,0,test_val,NULL,PennController,71,_Trial_,Start,1739213604486,undefined,469,orange,concrete-positive,negative,positive,B,NULL
1739214042,14bdf8984473127b7d634eb89d894ed7,PennController,60,0,test_val,NULL,PennController,71,_Header_,Start,1739213604486,undefined,469,orange,concrete-positive,negative,positive,B,NULL
1739214042,14bdf8984473127b7d634eb89d894ed7,PennController,60,0,test_val,NULL,PennController,71,_Header_,End,1739213604737,undefined,469,orange,concrete-positive,negative,positive,B,NULL
1739214042,14bdf8984473127b7d634eb89d894ed7,PennController,60,0,test_val,NULL,Selector,unnamed-Selector,Selection,positive,1739213605709,undefined,469,orange,concrete-positive,negative,positive,B,negative;positive
1739214042,14bdf8984473127b7d634eb89d894ed7,PennController,60,0,test_val,NULL,PennController,71,_Trial_,End,1739213605710,undefined,469,orange,concrete-positive,negative,positive,B,NULL
1739214042,14bdf8984473127b7d634eb89d894ed7,PennController,63,0,test_val,NULL,PennController,74,_Trial_,Start,1739213605712,undefined,565,handmade,concrete-positive,negative,positive,B,NULL
1739214042,14bdf8984473127b7d634eb89d894ed7,PennController,63,0,test_val,NULL,PennController,74,_Header_,Start,1739213605712,undefined,565,handmade,concrete-positive,negative,positive,B,NULL
1739214042,14bdf8984473127b7d634eb89d894ed7,PennController,63,0,test_val,NULL,PennController,74,_Header_,End,1739213605962,undefined,565,handmade,concrete-positive,negative,positive,B,NULL
1739214042,14bdf8984473127b7d634eb89d894ed7,PennController,63,0,test_val,NULL,Selector,unnamed-Selector,Selection,positive,1739213607028,undefined,565,handmade,concrete-positive,negative,positive,B,negative;positive
1739214042,14bdf8984473127b7d634eb89d894ed7,PennController,63,0,test_val,NULL,PennController,74,_Trial_,End,1739213607029,undefined,565,handmade,concrete-positive,negative,positive,B,NULL
1739214042,14bdf8984473127b7d634eb89d894ed7,PennController,49,0,test_val,NULL,PennController,60,_Trial_,Start,1739213607030,undefined,652,sexist,abstract-negative,negative,positive,B,NULL
1739214042,14bdf8984473127b7d634eb89d894ed7,PennController,49,0,test_val,NULL,PennController,60,_Header_,Start,1739213607030,undefined,652,sexist,abstract-negative,negative,positive,B,NULL
1739214042,14bdf8984473127b7d634eb89d894ed7,PennController,49,0,test_val,NULL,PennController,60,_Header_,End,1739213607281,undefined,652,sexist,abstract-negative,negative,positive,B,NULL
1739214042,14bdf8984473127b7d634eb89d894ed7,PennController,49,0,test_val,NULL,Selector,unnamed-Selector,Selection,negative,1739213608436,undefined,652,sexist,abstract-negative,negative,positive,B,negative;positive
1739214042,14bdf8984473127b7d634eb89d894ed7,PennController,49,0,test_val,NULL,PennController,60,_Trial_,End,1739213608438,undefined,652,sexist,abstract-negative,negative,positive,B,NULL
1739214042,14bdf8984473127b7d634eb89d894ed7,PennController,72,0,test_val,NULL,PennController,83,_Trial_,Start,1739213608438,undefined,626,helpful,abstract-positive,negative,positive,B,NULL
1739214042,14bdf8984473127b7d634eb89d894ed7,PennController,72,0,test_val,NULL,PennController,83,_Header_,Start,1739213608438,undefined,626,helpful,abstract-positive,negative,positive,B,NULL
1739214042,14bdf8984473127b7d634eb89d894ed7,PennController,72,0,test_val,NULL,PennController,83,_Header_,End,1739213608689,undefined,626,helpful,abstract-positive,negative,positive,B,NULL
1739214042,14bdf8984473127b7d634eb89d894ed7,PennController,72,0,test_val,NULL,Selector,unnamed-Selector,Selection,positive,1739213609820,undefined,626,helpful,abstract-positive,negative,positive,B,negative;positive
1739214042,14bdf8984473127b7d634eb89d894ed7,PennController,72,0,test_val,NULL,PennController,83,_Trial_,End,1739213609822,undefined,626,helpful,abstract-positive,negative,positive,B,NULL
1739214042,14bdf8984473127b7d634eb89d894ed7,PennController,56,0,test_val,NULL,PennController,67,_Trial_,Start,1739213609824,undefined,581,human,concrete-positive,negative,positive,B,NULL
1739214042,14bdf8984473127b7d634eb89d894ed7,PennController,56,0,test_val,NULL,PennController,67,_Header_,Start,1739213609824,undefined,581,human,concrete-positive,negative,positive,B,NULL
1739214042,14bdf8984473127b7d634eb89d894ed7,PennController,56,0,test_val,NULL,PennController,67,_Header_,End,1739213610077,undefined,581,human,concrete-positive,negative,positive,B,NULL
1739214042,14bdf8984473127b7d634eb89d894ed7,PennController,56,0,test_val,NULL,Selector,unnamed-Selector,Selection,positive,1739213611164,undefined,581,human,concrete-positive,negative,positive,B,negative;positive
1739214042,14bdf8984473127b7d634eb89d894ed7,PennController,56,0,test_val,NULL,PennController,67,_Trial_,End,1739213611165,undefined,581,human,concrete-positive,negative,positive,B,NULL
1739214042,14bdf8984473127b7d634eb89d894ed7,PennController,80,0,test_val,NULL,PennController,91,_Trial_,Start,1739213611166,undefined,600,dirty,concrete-negative,negative,positive,B,NULL
1739214042,14bdf8984473127b7d634eb89d894ed7,PennController,80,0,test_val,NULL,PennController,91,_Header_,Start,1739213611166,undefined,600,dirty,concrete-negative,negative,positive,B,NULL
1739214042,14bdf8984473127b7d634eb89d894ed7,PennController,80,0,test_val,NULL,PennController,91,_Header_,End,1739213611418,undefined,600,dirty,concrete-negative,negative,positive,B,NULL
1739214042,14bdf8984473127b7d634eb89d894ed7,PennController,80,0,test_val,NULL,Selector,unnamed-Selector,Selection,negative,1739213612525,undefined,600,dirty,concrete-negative,negative,positive,B,negative;positive
1739214042,14bdf8984473127b7d634eb89d894ed7,PennController,80,0,test_val,NULL,PennController,91,_Trial_,End,1739213612526,undefined,600,dirty,concrete-negative,negative,positive,B,NULL
1739214042,14bdf8984473127b7d634eb89d894ed7,PennController,62,0,test_val,NULL,PennController,73,_Trial_,Start,1739213612527,undefined,638,pregnant,concrete-positive,negative,positive,B,NULL
1739214042,14bdf8984473127b7d634eb89d894ed7,PennController,62,0,test_val,NULL,PennController,73,_Header_,Start,1739213612527,undefined,638,pregnant,concrete-positive,negative,positive,B,NULL
1739214042,14bdf8984473127b7d634eb89d894ed7,PennController,62,0,test_val,NULL,PennController,73,_Header_,End,1739213612777,undefined,638,pregnant,concrete-positive,negative,positive,B,NULL
1739214042,14bdf8984473127b7d634eb89d894ed7,PennController,62,0,test_val,NULL,Selector,unnamed-Selector,Selection,positive,1739213613917,undefined,638,pregnant,concrete-positive,negative,positive,B,negative;positive
1739214042,14bdf8984473127b7d634eb89d894ed7,PennController,62,0,test_val,NULL,PennController,73,_Trial_,End,1739213613918,undefined,638,pregnant,concrete-positive,negative,positive,B,NULL
1739214042,14bdf8984473127b7d634eb89d894ed7,PennController,46,0,test_val,NULL,PennController,57,_Trial_,Start,1739213613920,undefined,703,evil,abstract-negative,negative,positive,B,NULL
1739214042,14bdf8984473127b7d634eb89d894ed7,PennController,46,0,test_val,NULL,PennController,57,_Header_,Start,1739213613920,undefined,703,evil,abstract-negative,negative,positive,B,NULL
1739214042,14bdf8984473127b7d634eb89d894ed7,PennController,46,0,test_val,NULL,PennController,57,_Header_,End,1739213614173,undefined,703,evil,abstract-negative,negative,positive,B,NULL
1739214042,14bdf8984473127b7d634eb89d894ed7,PennController,46,0,test_val,NULL,Selector,unnamed-Selector,Selection,negative,1739213615380,undefined,703,evil,abstract-negative,negative,positive,B,negative;positive
1739214042,14bdf8984473127b7d634eb89d894ed7,PennController,46,0,test_val,NULL,PennController,57,_Trial_,End,1739213615381,undefined,703,evil,abstract-negative,negative,positive,B,NULL
1739214042,14bdf8984473127b7d634eb89d894ed7,PennController,76,0,test_val,NULL,PennController,87,_Trial_,Start,1739213615382,undefined,594,bloodshot,concrete-negative,negative,positive,B,NULL
1739214042,14bdf8984473127b7d634eb89d894ed7,PennController,76,0,test_val,NULL,PennController,87,_Header_,Start,1739213615382,undefined,594,bloodshot,concrete-negative,negative,positive,B,NULL
1739214042,14bdf8984473127b7d634eb89d894ed7,PennController,76,0,test_val,NULL,PennController,87,_Header_,End,1739213615635,undefined,594,bloodshot,concrete-negative,negative,positive,B,NULL
1739214042,14bdf8984473127b7d634eb89d894ed7,PennController,76,0,test_val,NULL,Selector,unnamed-Selector,Selection,negative,1739213616732,undefined,594,bloodshot,concrete-negative,negative,positive,B,negative;positive
1739214042,14bdf8984473127b7d634eb89d894ed7,PennController,76,0,test_val,NULL,PennController,87,_Trial_,End,1739213616733,undefined,594,bloodshot,concrete-negative,negative,positive,B,NULL
1739214042,14bdf8984473127b7d634eb89d894ed7,PennController,77,0,test_val,NULL,PennController,88,_Trial_,Start,1739213616734,undefined,771,rusted,concrete-negative,negative,positive,B,NULL
1739214042,14bdf8984473127b7d634eb89d894ed7,PennController,77,0,test_val,NULL,PennController,88,_Header_,Start,1739213616734,undefined,771,rusted,concrete-negative,negative,positive,B,NULL
1739214042,14bdf8984473127b7d634eb89d894ed7,PennController,77,0,test_val,NULL,PennController,88,_Header_,End,1739213616986,undefined,771,rusted,concrete-negative,negative,positive,B,NULL
1739214042,14bdf8984473127b7d634eb89d894ed7,PennController,77,0,test_val,NULL,Selector,unnamed-Selector,Selection,negative,1739213618260,undefined,771,rusted,concrete-negative,negative,positive,B,negative;positive
1739214042,14bdf8984473127b7d634eb89d894ed7,PennController,77,0,test_val,NULL,PennController,88,_Trial_,End,1739213618262,undefined,771,rusted,concrete-negative,negative,positive,B,NULL
1739214042,14bdf8984473127b7d634eb89d894ed7,PennController,78,0,test_val,NULL,PennController,89,_Trial_,Start,1739213618263,undefined,729,thorny,concrete-negative,negative,positive,B,NULL
1739214042,14bdf8984473127b7d634eb89d894ed7,PennController,78,0,test_val,NULL,PennController,89,_Header_,Start,1739213618263,undefined,729,thorny,concrete-negative,negative,positive,B,NULL
1739214042,14bdf8984473127b7d634eb89d894ed7,PennController,78,0,test_val,NULL,PennController,89,_Header_,End,1739213618514,undefined,729,thorny,concrete-negative,negative,positive,B,NULL
1739214042,14bdf8984473127b7d634eb89d894ed7,PennController,78,0,test_val,NULL,Selector,unnamed-Selector,Selection,negative,1739213619748,undefined,729,thorny,concrete-negative,negative,positive,B,negative;positive
1739214042,14bdf8984473127b7d634eb89d894ed7,PennController,78,0,test_val,NULL,PennController,89,_Trial_,End,1739213619749,undefined,729,thorny,concrete-negative,negative,positive,B,NULL
1739214042,14bdf8984473127b7d634eb89d894ed7,PennController,47,0,test_val,NULL,PennController,58,_Trial_,Start,1739213619751,undefined,584,soulless,abstract-negative,negative,positive,B,NULL
1739214042,14bdf8984473127b7d634eb89d894ed7,PennController,47,0,test_val,NULL,PennController,58,_Header_,Start,1739213619751,undefined,584,soulless,abstract-negative,negative,positive,B,NULL
1739214042,14bdf8984473127b7d634eb89d894ed7,PennController,47,0,test_val,NULL,PennController,58,_Header_,End,1739213620005,undefined,584,soulless,abstract-negative,negative,positive,B,NULL
1739214042,14bdf8984473127b7d634eb89d894ed7,PennController,47,0,test_val,NULL,Selector,unnamed-Selector,Selection,negative,1739213621092,undefined,584,soulless,abstract-negative,negative,positive,B,negative;positive
1739214042,14bdf8984473127b7d634eb89d894ed7,PennController,47,0,test_val,NULL,PennController,58,_Trial_,End,1739213621094,undefined,584,soulless,abstract-negative,negative,positive,B,NULL
1739214042,14bdf8984473127b7d634eb89d894ed7,PennController,44,0,test_val,NULL,PennController,55,_Trial_,Start,1739213621095,undefined,690,worthless,abstract-negative,negative,positive,B,NULL
1739214042,14bdf8984473127b7d634eb89d894ed7,PennController,44,0,test_val,NULL,PennController,55,_Header_,Start,1739213621095,undefined,690,worthless,abstract-negative,negative,positive,B,NULL
1739214042,14bdf8984473127b7d634eb89d894ed7,PennController,44,0,test_val,NULL,PennController,55,_Header_,End,1739213621348,undefined,690,worthless,abstract-negative,negative,positive,B,NULL
1739214042,14bdf8984473127b7d634eb89d894ed7,PennController,44,0,test_val,NULL,Selector,unnamed-Selector,Selection,negative,1739213622540,undefined,690,worthless,abstract-negative,negative,positive,B,negative;positive
1739214042,14bdf8984473127b7d634eb89d894ed7,PennController,44,0,test_val,NULL,PennController,55,_Trial_,End,1739213622542,undefined,690,worthless,abstract-negative,negative,positive,B,NULL
1739214042,14bdf8984473127b7d634eb89d894ed7,PennController,45,0,test_val,NULL,PennController,56,_Trial_,Start,1739213622543,undefined,680,awful,abstract-negative,negative,positive,B,NULL
1739214042,14bdf8984473127b7d634eb89d894ed7,PennController,45,0,test_val,NULL,PennController,56,_Header_,Start,1739213622543,undefined,680,awful,abstract-negative,negative,positive,B,NULL
1739214042,14bdf8984473127b7d634eb89d894ed7,PennController,45,0,test_val,NULL,PennController,56,_Header_,End,1739213622796,undefined,680,awful,abstract-negative,negative,positive,B,NULL
1739214042,14bdf8984473127b7d634eb89d894ed7,PennController,45,0,test_val,NULL,Selector,unnamed-Selector,Selection,negative,1739213623980,undefined,680,awful,abstract-negative,negative,positive,B,negative;positive
1739214042,14bdf8984473127b7d634eb89d894ed7,PennController,45,0,test_val,NULL,PennController,56,_Trial_,End,1739213623981,undefined,680,awful,abstract-negative,negative,positive,B,NULL
1739214042,14bdf8984473127b7d634eb89d894ed7,PennController,64,0,test_val,NULL,PennController,75,_Trial_,Start,1739213623982,undefined,658,honest,abstract-positive,negative,positive,B,NULL
1739214042,14bdf8984473127b7d634eb89d894ed7,PennController,64,0,test_val,NULL,PennController,75,_Header_,Start,1739213623982,undefined,658,honest,abstract-positive,negative,positive,B,NULL
1739214042,14bdf8984473127b7d634eb89d894ed7,PennController,64,0,test_val,NULL,PennController,75,_Header_,End,1739213624232,undefined,658,honest,abstract-positive,negative,positive,B,NULL
1739214042,14bdf8984473127b7d634eb89d894ed7,PennController,64,0,test_val,NULL,Selector,unnamed-Selector,Selection,positive,1739213625396,undefined,658,honest,abstract-positive,negative,positive,B,negative;positive
1739214042,14bdf8984473127b7d634eb89d894ed7,PennController,64,0,test_val,NULL,PennController,75,_Trial_,End,1739213625397,undefined,658,honest,abstract-positive,negative,positive,B,NULL
1739214042,14bdf8984473127b7d634eb89d894ed7,PennController,59,0,test_val,NULL,PennController,70,_Trial_,Start,1739213625399,undefined,627,blooming,concrete-positive,negative,positive,B,NULL
1739214042,14bdf8984473127b7d634eb89d894ed7,PennController,59,0,test_val,NULL,PennController,70,_Header_,Start,1739213625399,undefined,627,blooming,concrete-positive,negative,positive,B,NULL
1739214042,14bdf8984473127b7d634eb89d894ed7,PennController,59,0,test_val,NULL,PennController,70,_Header_,End,1739213625651,undefined,627,blooming,concrete-positive,negative,positive,B,NULL
1739214042,14bdf8984473127b7d634eb89d894ed7,PennController,59,0,test_val,NULL,Selector,unnamed-Selector,Selection,positive,1739213626780,undefined,627,blooming,concrete-positive,negative,positive,B,negative;positive
1739214042,14bdf8984473127b7d634eb89d894ed7,PennController,59,0,test_val,NULL,PennController,70,_Trial_,End,1739213626781,undefined,627,blooming,concrete-positive,negative,positive,B,NULL
1739214042,14bdf8984473127b7d634eb89d894ed7,PennController,81,0,test_val,NULL,PennController,92,_Trial_,Start,1739213626782,undefined,803,wrinkled,concrete-negative,negative,positive,B,NULL
1739214042,14bdf8984473127b7d634eb89d894ed7,PennController,81,0,test_val,NULL,PennController,92,_Header_,Start,1739213626782,undefined,803,wrinkled,concrete-negative,negative,positive,B,NULL
1739214042,14bdf8984473127b7d634eb89d894ed7,PennController,81,0,test_val,NULL,PennController,92,_Header_,End,1739213627036,undefined,803,wrinkled,concrete-negative,negative,positive,B,NULL
1739214042,14bdf8984473127b7d634eb89d894ed7,PennController,81,0,test_val,NULL,Selector,unnamed-Selector,Selection,negative,1739213628341,undefined,803,wrinkled,concrete-negative,negative,positive,B,negative;positive
1739214042,14bdf8984473127b7d634eb89d894ed7,PennController,81,0,test_val,NULL,PennController,92,_Trial_,End,1739213628342,undefined,803,wrinkled,concrete-negative,negative,positive,B,NULL
1739214042,14bdf8984473127b7d634eb89d894ed7,PennController,50,0,test_val,NULL,PennController,61,_Trial_,Start,1739213628344,undefined,664,crappy,abstract-negative,negative,positive,B,NULL
1739214042,14bdf8984473127b7d634eb89d894ed7,PennController,50,0,test_val,NULL,PennController,61,_Header_,Start,1739213628344,undefined,664,crappy,abstract-negative,negative,positive,B,NULL
1739214042,14bdf8984473127b7d634eb89d894ed7,PennController,50,0,test_val,NULL,PennController,61,_Header_,End,1739213628597,undefined,664,crappy,abstract-negative,negative,positive,B,NULL
1739214042,14bdf8984473127b7d634eb89d894ed7,PennController,50,0,test_val,NULL,Selector,unnamed-Selector,Selection,negative,1739213629765,undefined,664,crappy,abstract-negative,negative,positive,B,negative;positive
1739214042,14bdf8984473127b7d634eb89d894ed7,PennController,50,0,test_val,NULL,PennController,61,_Trial_,End,1739213629766,undefined,664,crappy,abstract-negative,negative,positive,B,NULL
1739214042,14bdf8984473127b7d634eb89d894ed7,PennController,82,0,test_val,NULL,PennController,93,_Trial_,Start,1739213629767,undefined,665,freezing,concrete-negative,negative,positive,B,NULL
1739214042,14bdf8984473127b7d634eb89d894ed7,PennController,82,0,test_val,NULL,PennController,93,_Header_,Start,1739213629767,undefined,665,freezing,concrete-negative,negative,positive,B,NULL
1739214042,14bdf8984473127b7d634eb89d894ed7,PennController,82,0,test_val,NULL,PennController,93,_Header_,End,1739213630020,undefined,665,freezing,concrete-negative,negative,positive,B,NULL
1739214042,14bdf8984473127b7d634eb89d894ed7,PennController,82,0,test_val,NULL,Selector,unnamed-Selector,Selection,negative,1739213631188,undefined,665,freezing,concrete-negative,negative,positive,B,negative;positive
1739214042,14bdf8984473127b7d634eb89d894ed7,PennController,82,0,test_val,NULL,PennController,93,_Trial_,End,1739213631190,undefined,665,freezing,concrete-negative,negative,positive,B,NULL
1739214042,14bdf8984473127b7d634eb89d894ed7,PennController,65,0,test_val,NULL,PennController,76,_Trial_,Start,1739213631191,undefined,529,lovable,abstract-positive,negative,positive,B,NULL
1739214042,14bdf8984473127b7d634eb89d894ed7,PennController,65,0,test_val,NULL,PennController,76,_Header_,Start,1739213631191,undefined,529,lovable,abstract-positive,negative,positive,B,NULL
1739214042,14bdf8984473127b7d634eb89d894ed7,PennController,65,0,test_val,NULL,PennController,76,_Header_,End,1739213631444,undefined,529,lovable,abstract-positive,negative,positive,B,NULL
1739214042,14bdf8984473127b7d634eb89d894ed7,PennController,65,0,test_val,NULL,Selector,unnamed-Selector,Selection,positive,1739213632476,undefined,529,lovable,abstract-positive,negative,positive,B,negative;positive
1739214042,14bdf8984473127b7d634eb89d894ed7,PennController,65,0,test_val,NULL,PennController,76,_Trial_,End,1739213632477,undefined,529,lovable,abstract-positive,negative,positive,B,NULL
1739214042,14bdf8984473127b7d634eb89d894ed7,PennController,75,0,test_val,NULL,PennController,86,_Trial_,Start,1739213632478,undefined,811,headless,concrete-negative,negative,positive,B,NULL
1739214042,14bdf8984473127b7d634eb89d894ed7,PennController,75,0,test_val,NULL,PennController,86,_Header_,Start,1739213632478,undefined,811,headless,concrete-negative,negative,positive,B,NULL
1739214042,14bdf8984473127b7d634eb89d894ed7,PennController,75,0,test_val,NULL,PennController,86,_Header_,End,1739213632730,undefined,811,headless,concrete-negative,negative,positive,B,NULL
1739214042,14bdf8984473127b7d634eb89d894ed7,PennController,75,0,test_val,NULL,Selector,unnamed-Selector,Selection,negative,1739213634044,undefined,811,headless,concrete-negative,negative,positive,B,negative;positive
1739214042,14bdf8984473127b7d634eb89d894ed7,PennController,75,0,test_val,NULL,PennController,86,_Trial_,End,1739213634046,undefined,811,headless,concrete-negative,negative,positive,B,NULL
1739214042,14bdf8984473127b7d634eb89d894ed7,PennController,74,0,test_val,NULL,PennController,85,_Trial_,Start,1739213634047,undefined,691,toothless,concrete-negative,negative,positive,B,NULL
1739214042,14bdf8984473127b7d634eb89d894ed7,PennController,74,0,test_val,NULL,PennController,85,_Header_,Start,1739213634047,undefined,691,toothless,concrete-negative,negative,positive,B,NULL
1739214042,14bdf8984473127b7d634eb89d894ed7,PennController,74,0,test_val,NULL,PennController,85,_Header_,End,1739213634297,undefined,691,toothless,concrete-negative,negative,positive,B,NULL
1739214042,14bdf8984473127b7d634eb89d894ed7,PennController,74,0,test_val,NULL,Selector,unnamed-Selector,Selection,negative,1739213635493,undefined,691,toothless,concrete-negative,negative,positive,B,negative;positive
1739214042,14bdf8984473127b7d634eb89d894ed7,PennController,74,0,test_val,NULL,PennController,85,_Trial_,End,1739213635495,undefined,691,toothless,concrete-negative,negative,positive,B,NULL
1739214042,14bdf8984473127b7d634eb89d894ed7,PennController,67,0,test_val,NULL,PennController,78,_Trial_,Start,1739213635496,undefined,696,splendid,abstract-positive,negative,positive,B,NULL
1739214042,14bdf8984473127b7d634eb89d894ed7,PennController,67,0,test_val,NULL,PennController,78,_Header_,Start,1739213635496,undefined,696,splendid,abstract-positive,negative,positive,B,NULL
1739214042,14bdf8984473127b7d634eb89d894ed7,PennController,67,0,test_val,NULL,PennController,78,_Header_,End,1739213635747,undefined,696,splendid,abstract-positive,negative,positive,B,NULL
1739214042,14bdf8984473127b7d634eb89d894ed7,PennController,67,0,test_val,NULL,Selector,unnamed-Selector,Selection,positive,1739213636948,undefined,696,splendid,abstract-positive,negative,positive,B,negative;positive
1739214042,14bdf8984473127b7d634eb89d894ed7,PennController,67,0,test_val,NULL,PennController,78,_Trial_,End,1739213636950,undefined,696,splendid,abstract-positive,negative,positive,B,NULL
1739214042,14bdf8984473127b7d634eb89d894ed7,PennController,68,0,test_val,NULL,PennController,79,_Trial_,Start,1739213636951,undefined,592,possible,abstract-positive,negative,positive,B,NULL
1739214042,14bdf8984473127b7d634eb89d894ed7,PennController,68,0,test_val,NULL,PennController,79,_Header_,Start,1739213636951,undefined,592,possible,abstract-positive,negative,positive,B,NULL
1739214042,14bdf8984473127b7d634eb89d894ed7,PennController,68,0,test_val,NULL,PennController,79,_Header_,End,1739213637204,undefined,592,possible,abstract-positive,negative,positive,B,NULL
1739214042,14bdf8984473127b7d634eb89d894ed7,PennController,68,0,test_val,NULL,Selector,unnamed-Selector,Selection,positive,1739213638300,undefined,592,possible,abstract-positive,negative,positive,B,negative;positive
1739214042,14bdf8984473127b7d634eb89d894ed7,PennController,68,0,test_val,NULL,PennController,79,_Trial_,End,1739213638301,undefined,592,possible,abstract-positive,negative,positive,B,NULL
1739214042,14bdf8984473127b7d634eb89d894ed7,PennController,61,0,test_val,NULL,PennController,72,_Trial_,Start,1739213638302,undefined,799,starry,concrete-positive,negative,positive,B,NULL
1739214042,14bdf8984473127b7d634eb89d894ed7,PennController,61,0,test_val,NULL,PennController,72,_Header_,Start,1739213638302,undefined,799,starry,concrete-positive,negative,positive,B,NULL
1739214042,14bdf8984473127b7d634eb89d894ed7,PennController,61,0,test_val,NULL,PennController,72,_Header_,End,1739213638556,undefined,799,starry,concrete-positive,negative,positive,B,NULL
1739214042,14bdf8984473127b7d634eb89d894ed7,PennController,61,0,test_val,NULL,Selector,unnamed-Selector,Selection,positive,1739213639860,undefined,799,starry,concrete-positive,negative,positive,B,negative;positive
1739214042,14bdf8984473127b7d634eb89d894ed7,PennController,61,0,test_val,NULL,PennController,72,_Trial_,End,1739213639862,undefined,799,starry,concrete-positive,negative,positive,B,NULL
1739214042,14bdf8984473127b7d634eb89d894ed7,PennController,55,0,test_val,NULL,PennController,66,_Trial_,Start,1739213639863,undefined,530,lilac,concrete-positive,negative,positive,B,NULL
1739214042,14bdf8984473127b7d634eb89d894ed7,PennController,55,0,test_val,NULL,PennController,66,_Header_,Start,1739213639863,undefined,530,lilac,concrete-positive,negative,positive,B,NULL
1739214042,14bdf8984473127b7d634eb89d894ed7,PennController,55,0,test_val,NULL,PennController,66,_Header_,End,1739213640116,undefined,530,lilac,concrete-positive,negative,positive,B,NULL
1739214042,14bdf8984473127b7d634eb89d894ed7,PennController,55,0,test_val,NULL,Selector,unnamed-Selector,Selection,positive,1739213641148,undefined,530,lilac,concrete-positive,negative,positive,B,negative;positive
1739214042,14bdf8984473127b7d634eb89d894ed7,PennController,55,0,test_val,NULL,PennController,66,_Trial_,End,1739213641150,undefined,530,lilac,concrete-positive,negative,positive,B,NULL
1739214042,14bdf8984473127b7d634eb89d894ed7,PennController,52,0,test_val,NULL,PennController,63,_Trial_,Start,1739213641152,undefined,727,sinful,abstract-negative,negative,positive,B,NULL
1739214042,14bdf8984473127b7d634eb89d894ed7,PennController,52,0,test_val,NULL,PennController,63,_Header_,Start,1739213641152,undefined,727,sinful,abstract-negative,negative,positive,B,NULL
1739214042,14bdf8984473127b7d634eb89d894ed7,PennController,52,0,test_val,NULL,PennController,63,_Header_,End,1739213641405,undefined,727,sinful,abstract-negative,negative,positive,B,NULL
1739214042,14bdf8984473127b7d634eb89d894ed7,PennController,52,0,test_val,NULL,Selector,unnamed-Selector,Selection,negative,1739213642636,undefined,727,sinful,abstract-negative,negative,positive,B,negative;positive
1739214042,14bdf8984473127b7d634eb89d894ed7,PennController,52,0,test_val,NULL,PennController,63,_Trial_,End,1739213642638,undefined,727,sinful,abstract-negative,negative,positive,B,NULL
1739214042,14bdf8984473127b7d634eb89d894ed7,PennController,71,0,test_val,NULL,PennController,82,_Trial_,Start,1739213642639,undefined,675,pleasant,abstract-positive,negative,positive,B,NULL
1739214042,14bdf8984473127b7d634eb89d894ed7,PennController,71,0,test_val,NULL,PennController,82,_Header_,Start,1739213642639,undefined,675,pleasant,abstract-positive,negative,positive,B,NULL
1739214042,14bdf8984473127b7d634eb89d894ed7,PennController,71,0,test_val,NULL,PennController,82,_Header_,End,1739213642889,undefined,675,pleasant,abstract-positive,negative,positive,B,NULL
1739214042,14bdf8984473127b7d634eb89d894ed7,PennController,71,0,test_val,NULL,Selector,unnamed-Selector,Selection,positive,1739213644069,undefined,675,pleasant,abstract-positive,negative,positive,B,negative;positive
1739214042,14bdf8984473127b7d634eb89d894ed7,PennController,71,0,test_val,NULL,PennController,82,_Trial_,End,1739213644070,undefined,675,pleasant,abstract-positive,negative,positive,B,NULL
1739214042,14bdf8984473127b7d634eb89d894ed7,PennController,57,0,test_val,NULL,PennController,68,_Trial_,Start,1739213644072,undefined,560,female,concrete-positive,negative,positive,B,NULL
1739214042,14bdf8984473127b7d634eb89d894ed7,PennController,57,0,test_val,NULL,PennController,68,_Header_,Start,1739213644072,undefined,560,female,concrete-positive,negative,positive,B,NULL
1739214042,14bdf8984473127b7d634eb89d894ed7,PennController,57,0,test_val,NULL,PennController,68,_Header_,End,1739213644323,undefined,560,female,concrete-positive,negative,positive,B,NULL
1739214042,14bdf8984473127b7d634eb89d894ed7,PennController,57,0,test_val,NULL,Selector,unnamed-Selector,Selection,positive,1739213645388,undefined,560,female,concrete-positive,negative,positive,B,negative;positive
1739214042,14bdf8984473127b7d634eb89d894ed7,PennController,57,0,test_val,NULL,PennController,68,_Trial_,End,1739213645389,undefined,560,female,concrete-positive,negative,positive,B,NULL
1739214042,14bdf8984473127b7d634eb89d894ed7,PennController,70,0,test_val,NULL,PennController,81,_Trial_,Start,1739213645390,undefined,552,mindful,abstract-positive,negative,positive,B,NULL
1739214042,14bdf8984473127b7d634eb89d894ed7,PennController,70,0,test_val,NULL,PennController,81,_Header_,Start,1739213645390,undefined,552,mindful,abstract-positive,negative,positive,B,NULL
1739214042,14bdf8984473127b7d634eb89d894ed7,PennController,70,0,test_val,NULL,PennController,81,_Header_,End,1739213645643,undefined,552,mindful,abstract-positive,negative,positive,B,NULL
1739214042,14bdf8984473127b7d634eb89d894ed7,PennController,70,0,test_val,NULL,Selector,unnamed-Selector,Selection,positive,1739213646700,undefined,552,mindful,abstract-positive,negative,positive,B,negative;positive
1739214042,14bdf8984473127b7d634eb89d894ed7,PennController,70,0,test_val,NULL,PennController,81,_Trial_,End,1739213646701,undefined,552,mindful,abstract-positive,negative,positive,B,NULL
1739214042,14bdf8984473127b7d634eb89d894ed7,PennController,53,0,test_val,NULL,PennController,64,_Trial_,Start,1739213646701,undefined,627,disloyal,abstract-negative,negative,positive,B,NULL
1739214042,14bdf8984473127b7d634eb89d894ed7,PennController,53,0,test_val,NULL,PennController,64,_Header_,Start,1739213646701,undefined,627,disloyal,abstract-negative,negative,positive,B,NULL
1739214042,14bdf8984473127b7d634eb89d894ed7,PennController,53,0,test_val,NULL,PennController,64,_Header_,End,1739213646955,undefined,627,disloyal,abstract-negative,negative,positive,B,NULL
1739214042,14bdf8984473127b7d634eb89d894ed7,PennController,53,0,test_val,NULL,Selector,unnamed-Selector,Selection,negative,1739213648085,undefined,627,disloyal,abstract-negative,negative,positive,B,negative;positive
1739214042,14bdf8984473127b7d634eb89d894ed7,PennController,53,0,test_val,NULL,PennController,64,_Trial_,End,1739213648086,undefined,627,disloyal,abstract-negative,negative,positive,B,NULL
1739214042,14bdf8984473127b7d634eb89d894ed7,PennController,73,0,test_val,NULL,PennController,84,_Trial_,Start,1739213648087,undefined,1166,divine,abstract-positive,negative,positive,B,NULL
1739214042,14bdf8984473127b7d634eb89d894ed7,PennController,73,0,test_val,NULL,PennController,84,_Header_,Start,1739213648087,undefined,1166,divine,abstract-positive,negative,positive,B,NULL
1739214042,14bdf8984473127b7d634eb89d894ed7,PennController,73,0,test_val,NULL,PennController,84,_Header_,End,1739213648340,undefined,1166,divine,abstract-positive,negative,positive,B,NULL
1739214042,14bdf8984473127b7d634eb89d894ed7,PennController,73,0,test_val,NULL,Selector,unnamed-Selector,Selection,positive,1739213650012,undefined,1166,divine,abstract-positive,negative,positive,B,negative;positive
1739214042,14bdf8984473127b7d634eb89d894ed7,PennController,73,0,test_val,NULL,PennController,84,_Trial_,End,1739213650013,undefined,1166,divine,abstract-positive,negative,positive,B,NULL
1739214042,14bdf8984473127b7d634eb89d894ed7,PennController,51,0,test_val,NULL,PennController,62,_Trial_,Start,1739213650015,undefined,673,stupid,abstract-negative,negative,positive,B,NULL
1739214042,14bdf8984473127b7d634eb89d894ed7,PennController,51,0,test_val,NULL,PennController,62,_Header_,Start,1739213650015,undefined,673,stupid,abstract-negative,negative,positive,B,NULL
1739214042,14bdf8984473127b7d634eb89d894ed7,PennController,51,0,test_val,NULL,PennController,62,_Header_,End,1739213650267,undefined,673,stupid,abstract-negative,negative,positive,B,NULL
1739214042,14bdf8984473127b7d634eb89d894ed7,PennController,51,0,test_val,NULL,Selector,unnamed-Selector,Selection,negative,1739213651444,undefined,673,stupid,abstract-negative,negative,positive,B,negative;positive
1739214042,14bdf8984473127b7d634eb89d894ed7,PennController,51,0,test_val,NULL,PennController,62,_Trial_,End,1739213651445,undefined,673,stupid,abstract-negative,negative,positive,B,NULL
1739214042,14bdf8984473127b7d634eb89d894ed7,PennController,69,0,test_val,NULL,PennController,80,_Trial_,Start,1739213651447,undefined,729,sensible,abstract-positive,negative,positive,B,NULL
1739214042,14bdf8984473127b7d634eb89d894ed7,PennController,69,0,test_val,NULL,PennController,80,_Header_,Start,1739213651447,undefined,729,sensible,abstract-positive,negative,positive,B,NULL
1739214042,14bdf8984473127b7d634eb89d894ed7,PennController,69,0,test_val,NULL,PennController,80,_Header_,End,1739213651701,undefined,729,sensible,abstract-positive,negative,positive,B,NULL
1739214042,14bdf8984473127b7d634eb89d894ed7,PennController,69,0,test_val,NULL,Selector,unnamed-Selector,Selection,positive,1739213652932,undefined,729,sensible,abstract-positive,negative,positive,B,negative;positive
1739214042,14bdf8984473127b7d634eb89d894ed7,PennController,69,0,test_val,NULL,PennController,80,_Trial_,End,1739213652933,undefined,729,sensible,abstract-positive,negative,positive,B,NULL
1739214042,14bdf8984473127b7d634eb89d894ed7,PennController,83,0,test_val,NULL,PennController,94,_Trial_,Start,1739213652934,undefined,566,bloody,concrete-negative,negative,positive,B,NULL
