"","ID.true","Word","Label","Task","BlockOrder","EventTime","Value","ReactionTime","Key_value_F","Key_value_J","Comments","Group","LogReactionTime","TrialNumber"
"1","5ddcbca2798297c203d13723","whistle","calibrator_conc_feedback","Concrete","CV",1739204253331,"concrete",1037,"abstract","concrete","abstract;concrete","B",6.94408720822953,1
"2","5ddcbca2798297c203d13723","kick","calibrator_conc_feedback","Concrete","CV",1739204256282,"concrete",1217,"abstract","concrete","abstract;concrete","B",7.10414409298753,2
"3","5ddcbca2798297c203d13723","gas","calibrator_conc_feedback","Concrete","CV",1739204260251,"concrete",1209,"abstract","concrete","abstract;concrete","B",7.09754885061479,3
"4","5ddcbca2798297c203d13723","insecure","calibrator_conc_feedback","Concrete","CV",1739204263891,"abstract",885,"abstract","concrete","abstract;concrete","B",6.78558764500793,4
"5","5ddcbca2798297c203d13723","polite","calibrator_conc_feedback","Concrete","CV",1739204268146,"abstract",1496,"abstract","concrete","abstract;concrete","B",7.31055015853442,5
"6","5ddcbca2798297c203d13723","grasshopper","calibrator_conc_feedback","Concrete","CV",1739204271970,"concrete",1066,"abstract","concrete","abstract;concrete","B",6.97166860472579,6
"7","5ddcbca2798297c203d13723","marriage","calibrator_conc_feedback","Concrete","CV",1739204275595,"concrete",866,"abstract","concrete","abstract;concrete","B",6.76388490856244,7
"8","5ddcbca2798297c203d13723","theory","calibrator_conc_feedback","Concrete","CV",1739204280155,"abstract",1804,"abstract","concrete","abstract;concrete","B",7.49776170062257,8
"9","5ddcbca2798297c203d13723","shirt","calibrator_conc_feedback","Concrete","CV",1739204283667,"concrete",752,"abstract","concrete","abstract;concrete","B",6.62273632394984,9
"10","5ddcbca2798297c203d13723","sugar","calibrator_conc_feedback","Concrete","CV",1739204287259,"concrete",833,"abstract","concrete","abstract;concrete","B",6.72503364216684,10
"11","5ddcbca2798297c203d13723","gas","calibrator_conc_no_feedback","Concrete","CV",1739204290922,"concrete",906,"B","abstract;concrete","","",6.80903930604298,11
"12","5ddcbca2798297c203d13723","grasshopper","calibrator_conc_no_feedback","Concrete","CV",1739204292491,"concrete",811,"B","abstract;concrete","","",6.69826805411541,12
"13","5ddcbca2798297c203d13723","marriage","calibrator_conc_no_feedback","Concrete","CV",1739204294146,"concrete",904,"B","abstract;concrete","","",6.80682936039218,13
"14","5ddcbca2798297c203d13723","kick","calibrator_conc_no_feedback","Concrete","CV",1739204295731,"concrete",826,"B","abstract;concrete","","",6.71659477352098,14
"15","5ddcbca2798297c203d13723","theory","calibrator_conc_no_feedback","Concrete","CV",1739204297171,"abstract",680,"B","abstract;concrete","","",6.52209279817015,15
"16","5ddcbca2798297c203d13723","sugar","calibrator_conc_no_feedback","Concrete","CV",1739204298699,"concrete",771,"B","abstract;concrete","","",6.64768837356333,16
"17","5ddcbca2798297c203d13723","whistle","calibrator_conc_no_feedback","Concrete","CV",1739204300386,"concrete",932,"B","abstract;concrete","","",6.83733281468559,17
"18","5ddcbca2798297c203d13723","insecure","calibrator_conc_no_feedback","Concrete","CV",1739204302315,"abstract",1174,"B","abstract;concrete","","",7.06817200038804,18
"19","5ddcbca2798297c203d13723","polite","calibrator_conc_no_feedback","Concrete","CV",1739204304027,"abstract",955,"B","abstract;concrete","","",6.86171134048073,19
"20","5ddcbca2798297c203d13723","shirt","calibrator_conc_no_feedback","Concrete","CV",1739204305483,"concrete",701,"B","abstract;concrete","","",6.55250788703459,20
"21","5ddcbca2798297c203d13723","icebox","calibrator_val_feedback","Valence","CV",1739204527994,"positive",1101,"negative","positive","negative;positive","B",7.00397413672268,21
"22","5ddcbca2798297c203d13723","insecure","calibrator_val_feedback","Valence","CV",1739204532138,"negative",1390,"negative","positive","negative;positive","B",7.23705902612474,22
"23","5ddcbca2798297c203d13723","industry","calibrator_val_feedback","Valence","CV",1739204536474,"positive",1575,"negative","positive","negative;positive","B",7.36201055125973,23
"24","5ddcbca2798297c203d13723","hat","calibrator_val_feedback","Valence","CV",1739204540139,"positive",908,"negative","positive","negative;positive","B",6.81124437860129,24
"25","5ddcbca2798297c203d13723","invader","calibrator_val_feedback","Valence","CV",1739204543804,"negative",908,"negative","positive","negative;positive","B",6.81124437860129,25
"26","5ddcbca2798297c203d13723","kitten","calibrator_val_feedback","Valence","CV",1739204547386,"positive",828,"negative","positive","negative;positive","B",6.71901315438526,26
"27","5ddcbca2798297c203d13723","joke","calibrator_val_feedback","Valence","CV",1739204551187,"positive",1042,"negative","positive","negative;positive","B",6.94889722231331,27
"28","5ddcbca2798297c203d13723","grin","calibrator_val_feedback","Valence","CV",1739204554835,"positive",887,"negative","positive","negative;positive","B",6.78784498230958,28
"29","5ddcbca2798297c203d13723","free","calibrator_val_feedback","Valence","CV",1739204558443,"positive",849,"negative","positive","negative;positive","B",6.74405918631135,29
"30","5ddcbca2798297c203d13723","jail","calibrator_val_feedback","Valence","CV",1739204562379,"negative",1178,"negative","positive","negative;positive","B",7.07157336421153,30
"31","5ddcbca2798297c203d13723","joke","calibrator_val_no_feedback","Valence","CV",1739204565980,"positive",844,"B","negative;positive","","",6.73815249459596,31
"32","5ddcbca2798297c203d13723","insecure","calibrator_val_no_feedback","Valence","CV",1739204567835,"negative",1103,"B","negative;positive","","",7.0057890192535,32
"33","5ddcbca2798297c203d13723","hat","calibrator_val_no_feedback","Valence","CV",1739204569283,"positive",692,"B","negative;positive","","",6.53958595561767,33
"34","5ddcbca2798297c203d13723","industry","calibrator_val_no_feedback","Valence","CV",1739204570851,"positive",810,"B","negative;positive","","",6.69703424766648,34
"35","5ddcbca2798297c203d13723","icebox","calibrator_val_no_feedback","Valence","CV",1739204572363,"positive",758,"B","negative;positive","","",6.63068338564237,35
"36","5ddcbca2798297c203d13723","jail","calibrator_val_no_feedback","Valence","CV",1739204574003,"negative",885,"B","negative;positive","","",6.78558764500793,36
"37","5ddcbca2798297c203d13723","free","calibrator_val_no_feedback","Valence","CV",1739204576059,"positive",1304,"B","negative;positive","","",7.1731917424866,37
"38","5ddcbca2798297c203d13723","kitten","calibrator_val_no_feedback","Valence","CV",1739204577539,"positive",724,"B","negative;positive","","",6.58479139238572,38
"39","5ddcbca2798297c203d13723","grin","calibrator_val_no_feedback","Valence","CV",1739204579218,"positive",923,"B","negative;positive","","",6.82762923450285,39
"40","5ddcbca2798297c203d13723","invader","calibrator_val_no_feedback","Valence","CV",1739204580883,"negative",910,"B","negative;positive","","",6.8134445995109,40
"41","5ba802ee60f3d5000169e5da","grasshopper","calibrator_conc_feedback","Concrete","CV",1739201761605,"concrete",1093,"abstract","concrete","abstract;concrete","B",6.99668148817654,1
"42","5ba802ee60f3d5000169e5da","kick","calibrator_conc_feedback","Concrete","CV",1739201764924,"concrete",560,"abstract","concrete","abstract;concrete","B",6.32793678372919,2
"43","5ba802ee60f3d5000169e5da","theory","calibrator_conc_feedback","Concrete","CV",1739201768233,"abstract",545,"abstract","concrete","abstract;concrete","B",6.30078579466324,3
"44","5ba802ee60f3d5000169e5da","polite","calibrator_conc_feedback","Concrete","CV",1739201771569,"abstract",574,"abstract","concrete","abstract;concrete","B",6.35262939631957,4
"45","5ba802ee60f3d5000169e5da","whistle","calibrator_conc_feedback","Concrete","CV",1739201774960,"concrete",632,"abstract","concrete","abstract;concrete","B",6.44888939414686,5
"46","5ba802ee60f3d5000169e5da","marriage","calibrator_conc_feedback","Concrete","CV",1739201778412,"concrete",696,"abstract","concrete","abstract;concrete","B",6.54534966033442,6
"47","5ba802ee60f3d5000169e5da","sugar","calibrator_conc_feedback","Concrete","CV",1739201782499,"concrete",1331,"abstract","concrete","abstract;concrete","B",7.19368581839511,7
"48","5ba802ee60f3d5000169e5da","gas","calibrator_conc_feedback","Concrete","CV",1739201785859,"concrete",599,"abstract","concrete","abstract;concrete","B",6.39526159811545,8
"49","5ba802ee60f3d5000169e5da","shirt","calibrator_conc_feedback","Concrete","CV",1739201789552,"concrete",937,"abstract","concrete","abstract;concrete","B",6.84268328223842,9
"50","5ba802ee60f3d5000169e5da","insecure","calibrator_conc_feedback","Concrete","CV",1739201792898,"abstract",588,"abstract","concrete","abstract;concrete","B",6.37672694789863,10
"51","5ba802ee60f3d5000169e5da","theory","calibrator_conc_no_feedback","Concrete","CV",1739201796234,"abstract",576,"B","abstract;concrete","","",6.35610766069589,11
"52","5ba802ee60f3d5000169e5da","insecure","calibrator_conc_no_feedback","Concrete","CV",1739201797756,"abstract",764,"B","abstract;concrete","","",6.63856778916652,12
"53","5ba802ee60f3d5000169e5da","grasshopper","calibrator_conc_no_feedback","Concrete","CV",1739201799088,"concrete",576,"B","abstract;concrete","","",6.35610766069589,13
"54","5ba802ee60f3d5000169e5da","gas","calibrator_conc_no_feedback","Concrete","CV",1739201800384,"concrete",536,"B","abstract;concrete","","",6.2841341610708,14
"55","5ba802ee60f3d5000169e5da","sugar","calibrator_conc_no_feedback","Concrete","CV",1739201801666,"concrete",525,"B","abstract;concrete","","",6.26339826259162,15
"56","5ba802ee60f3d5000169e5da","whistle","calibrator_conc_no_feedback","Concrete","CV",1739201803057,"concrete",633,"B","abstract;concrete","","",6.45047042214418,16
"57","5ba802ee60f3d5000169e5da","shirt","calibrator_conc_no_feedback","Concrete","CV",1739201804396,"concrete",578,"B","abstract;concrete","","",6.35957386867238,17
"58","5ba802ee60f3d5000169e5da","polite","calibrator_conc_no_feedback","Concrete","CV",1739201805830,"abstract",676,"B","abstract;concrete","","",6.51619307604296,18
"59","5ba802ee60f3d5000169e5da","marriage","calibrator_conc_no_feedback","Concrete","CV",1739201807102,"abstract",514,"B","abstract;concrete","","",6.24222326545517,19
"60","5ba802ee60f3d5000169e5da","kick","calibrator_conc_no_feedback","Concrete","CV",1739201808447,"concrete",590,"B","abstract;concrete","","",6.38012253689976,20
"61","5ba802ee60f3d5000169e5da","hat","calibrator_val_feedback","Valence","CV",1739202022611,"positive",1524,"negative","positive","negative;positive","B",7.32909373624659,21
"62","5ba802ee60f3d5000169e5da","industry","calibrator_val_feedback","Valence","CV",1739202025656,"negative",1134,"negative","positive","negative;positive","B",7.0335064842877,22
"63","5ba802ee60f3d5000169e5da","insecure","calibrator_val_feedback","Valence","CV",1739202029248,"negative",834,"negative","positive","negative;positive","B",6.72623340235875,23
"64","5ba802ee60f3d5000169e5da","invader","calibrator_val_feedback","Valence","CV",1739202033071,"negative",822,"negative","positive","negative;positive","B",6.71174039505618,24
"65","5ba802ee60f3d5000169e5da","icebox","calibrator_val_feedback","Valence","CV",1739202036568,"positive",976,"negative","positive","negative;positive","B",6.88346258641309,25
"66","5ba802ee60f3d5000169e5da","grin","calibrator_val_feedback","Valence","CV",1739202040170,"positive",843,"negative","positive","negative;positive","B",6.73696695800186,26
"67","5ba802ee60f3d5000169e5da","jail","calibrator_val_feedback","Valence","CV",1739202043586,"negative",660,"negative","positive","negative;positive","B",6.49223983502047,27
"68","5ba802ee60f3d5000169e5da","joke","calibrator_val_feedback","Valence","CV",1739202047260,"positive",914,"negative","positive","negative;positive","B",6.81783057145415,28
"69","5ba802ee60f3d5000169e5da","kitten","calibrator_val_feedback","Valence","CV",1739202050604,"positive",587,"negative","positive","negative;positive","B",6.3750248198281,29
"70","5ba802ee60f3d5000169e5da","free","calibrator_val_feedback","Valence","CV",1739202053942,"positive",577,"negative","positive","negative;positive","B",6.3578422665081,30
"71","5ba802ee60f3d5000169e5da","grin","calibrator_val_no_feedback","Valence","CV",1739202057392,"positive",692,"B","negative;positive","","",6.53958595561767,31
"72","5ba802ee60f3d5000169e5da","insecure","calibrator_val_no_feedback","Valence","CV",1739202059027,"negative",879,"B","negative;positive","","",6.77878489768518,32
"73","5ba802ee60f3d5000169e5da","industry","calibrator_val_no_feedback","Valence","CV",1739202060479,"negative",699,"B","negative;positive","","",6.54965074223381,33
"74","5ba802ee60f3d5000169e5da","invader","calibrator_val_no_feedback","Valence","CV",1739202061832,"negative",599,"B","negative;positive","","",6.39526159811545,34
"75","5ba802ee60f3d5000169e5da","free","calibrator_val_no_feedback","Valence","CV",1739202063186,"positive",597,"B","negative;positive","","",6.3919171133926,35
"76","5ba802ee60f3d5000169e5da","joke","calibrator_val_no_feedback","Valence","CV",1739202064471,"positive",532,"B","negative;positive","","",6.27664348934164,36
"77","5ba802ee60f3d5000169e5da","kitten","calibrator_val_no_feedback","Valence","CV",1739202065688,"positive",462,"B","negative;positive","","",6.13556489108174,37
"78","5ba802ee60f3d5000169e5da","jail","calibrator_val_no_feedback","Valence","CV",1739202066953,"negative",506,"B","negative;positive","","",6.22653666928747,38
"79","5ba802ee60f3d5000169e5da","icebox","calibrator_val_no_feedback","Valence","CV",1739202068308,"positive",600,"B","negative;positive","","",6.39692965521615,39
"80","5ba802ee60f3d5000169e5da","hat","calibrator_val_no_feedback","Valence","CV",1739202069628,"positive",563,"B","negative;positive","","",6.33327962813969,40
"81","5f0b7f45bd7f5a0e21a8b561","polite","calibrator_conc_feedback","Concrete","CV",1739194321706,"abstract",1952,"concrete","abstract","concrete;abstract","A",7.57660976697304,1
"82","5f0b7f45bd7f5a0e21a8b561","theory","calibrator_conc_feedback","Concrete","CV",1739194327135,"abstract",2836,"concrete","abstract","concrete;abstract","A",7.95014988765202,2
"83","5f0b7f45bd7f5a0e21a8b561","shirt","calibrator_conc_feedback","Concrete","CV",1739194330547,"concrete",1158,"concrete","abstract","concrete;abstract","A",7.05444965813294,3
"84","5f0b7f45bd7f5a0e21a8b561","marriage","calibrator_conc_feedback","Concrete","CV",1739194334250,"concrete",1454,"concrete","abstract","concrete;abstract","A",7.28207365809346,4
"85","5f0b7f45bd7f5a0e21a8b561","insecure","calibrator_conc_feedback","Concrete","CV",1739194339265,"abstract",2618,"concrete","abstract","concrete;abstract","A",7.87016594646984,5
"86","5f0b7f45bd7f5a0e21a8b561","kick","calibrator_conc_feedback","Concrete","CV",1739194343787,"concrete",1553,"concrete","abstract","concrete;abstract","A",7.34794382314869,6
"87","5f0b7f45bd7f5a0e21a8b561","grasshopper","calibrator_conc_feedback","Concrete","CV",1739194347231,"concrete",972,"concrete","abstract","concrete;abstract","A",6.87935580446044,7
"88","5f0b7f45bd7f5a0e21a8b561","gas","calibrator_conc_feedback","Concrete","CV",1739194351320,"concrete",1289,"concrete","abstract","concrete;abstract","A",7.16162200293919,8
"89","5f0b7f45bd7f5a0e21a8b561","whistle","calibrator_conc_feedback","Concrete","CV",1739194355017,"concrete",1037,"concrete","abstract","concrete;abstract","A",6.94408720822953,9
"90","5f0b7f45bd7f5a0e21a8b561","sugar","calibrator_conc_feedback","Concrete","CV",1739194358500,"concrete",742,"concrete","abstract","concrete;abstract","A",6.60934924316738,10
"91","5f0b7f45bd7f5a0e21a8b561","gas","calibrator_conc_no_feedback","Concrete","CV",1739194361872,"concrete",870,"A","concrete;abstract","","",6.76849321164863,11
"92","5f0b7f45bd7f5a0e21a8b561","kick","calibrator_conc_no_feedback","Concrete","CV",1739194363580,"concrete",953,"A","concrete;abstract","","",6.8596149036542,12
"93","5f0b7f45bd7f5a0e21a8b561","grasshopper","calibrator_conc_no_feedback","Concrete","CV",1739194364891,"concrete",552,"A","concrete;abstract","","",6.31354804627709,13
"94","5f0b7f45bd7f5a0e21a8b561","marriage","calibrator_conc_no_feedback","Concrete","CV",1739194366180,"concrete",529,"A","concrete;abstract","","",6.2709884318583,14
"95","5f0b7f45bd7f5a0e21a8b561","polite","calibrator_conc_no_feedback","Concrete","CV",1739194367556,"abstract",619,"A","concrete;abstract","","",6.4281052726846,15
"96","5f0b7f45bd7f5a0e21a8b561","shirt","calibrator_conc_no_feedback","Concrete","CV",1739194368948,"concrete",635,"A","concrete;abstract","","",6.45362499889269,16
"97","5f0b7f45bd7f5a0e21a8b561","insecure","calibrator_conc_no_feedback","Concrete","CV",1739194371849,"concrete",2143,"A","concrete;abstract","","",7.66996199547358,17
"98","5f0b7f45bd7f5a0e21a8b561","whistle","calibrator_conc_no_feedback","Concrete","CV",1739194373338,"concrete",731,"A","concrete;abstract","","",6.59441345974978,18
"99","5f0b7f45bd7f5a0e21a8b561","sugar","calibrator_conc_no_feedback","Concrete","CV",1739194374605,"concrete",513,"A","concrete;abstract","","",6.24027584517077,19
"100","5f0b7f45bd7f5a0e21a8b561","theory","calibrator_conc_no_feedback","Concrete","CV",1739194376030,"abstract",669,"A","concrete;abstract","","",6.50578406012823,20
"101","5f0b7f45bd7f5a0e21a8b561","icebox","calibrator_val_feedback","Valence","CV",1739194612401,"positive",1058,"positive","negative","positive;negative","A",6.96413561241824,21
"102","5f0b7f45bd7f5a0e21a8b561","invader","calibrator_val_feedback","Valence","CV",1739194615487,"negative",843,"positive","negative","positive;negative","A",6.73696695800186,22
"103","5f0b7f45bd7f5a0e21a8b561","grin","calibrator_val_feedback","Valence","CV",1739194619446,"positive",1096,"positive","negative","positive;negative","A",6.99942246750796,23
"104","5f0b7f45bd7f5a0e21a8b561","joke","calibrator_val_feedback","Valence","CV",1739194622781,"positive",646,"positive","negative","positive;negative","A",6.4707995037826,24
"105","5f0b7f45bd7f5a0e21a8b561","hat","calibrator_val_feedback","Valence","CV",1739194626153,"positive",510,"positive","negative","positive;negative","A",6.23441072571837,25
"106","5f0b7f45bd7f5a0e21a8b561","insecure","calibrator_val_feedback","Valence","CV",1739194629363,"negative",541,"positive","negative","positive;negative","A",6.29341927884648,26
"107","5f0b7f45bd7f5a0e21a8b561","jail","calibrator_val_feedback","Valence","CV",1739194632650,"negative",565,"positive","negative","positive;negative","A",6.33682573114644,27
"108","5f0b7f45bd7f5a0e21a8b561","kitten","calibrator_val_feedback","Valence","CV",1739194635908,"positive",505,"positive","negative","positive;negative","A",6.22455842927536,28
"109","5f0b7f45bd7f5a0e21a8b561","industry","calibrator_val_feedback","Valence","CV",1739194639445,"positive",785,"positive","negative","positive;negative","A",6.66568371778241,29
"110","5f0b7f45bd7f5a0e21a8b561","free","calibrator_val_feedback","Valence","CV",1739194642721,"positive",522,"positive","negative","positive;negative","A",6.25766758788264,30
"111","5f0b7f45bd7f5a0e21a8b561","jail","calibrator_val_no_feedback","Valence","CV",1739194645905,"negative",661,"A","positive;negative","","",6.49375383985169,31
"112","5f0b7f45bd7f5a0e21a8b561","insecure","calibrator_val_no_feedback","Valence","CV",1739194647361,"negative",701,"A","positive;negative","","",6.55250788703459,32
"113","5f0b7f45bd7f5a0e21a8b561","grin","calibrator_val_no_feedback","Valence","CV",1739194648706,"positive",588,"A","positive;negative","","",6.37672694789863,33
"114","5f0b7f45bd7f5a0e21a8b561","industry","calibrator_val_no_feedback","Valence","CV",1739194650049,"positive",589,"A","positive;negative","","",6.37842618365159,34
"115","5f0b7f45bd7f5a0e21a8b561","joke","calibrator_val_no_feedback","Valence","CV",1739194651389,"positive",583,"A","positive;negative","","",6.36818718635049,35
"116","5f0b7f45bd7f5a0e21a8b561","free","calibrator_val_no_feedback","Valence","CV",1739194652624,"positive",476,"A","positive;negative","","",6.16541785423142,36
"117","5f0b7f45bd7f5a0e21a8b561","kitten","calibrator_val_no_feedback","Valence","CV",1739194653914,"positive",531,"A","positive;negative","","",6.27476202124194,37
"118","5f0b7f45bd7f5a0e21a8b561","invader","calibrator_val_no_feedback","Valence","CV",1739194655118,"negative",447,"A","positive;negative","","",6.10255859461357,38
"119","5f0b7f45bd7f5a0e21a8b561","icebox","calibrator_val_no_feedback","Valence","CV",1739194656587,"positive",717,"A","positive;negative","","",6.57507584059962,39
"120","5f0b7f45bd7f5a0e21a8b561","hat","calibrator_val_no_feedback","Valence","CV",1739194657902,"positive",557,"A","positive;negative","","",6.32256523992728,40
"121","65c2510fa94c23aa2cc4de8b","industry","calibrator_val_feedback","Valence","VC",1739213472869,"positive",1403,"negative","positive","negative;positive","B",7.24636808010246,1
"122","65c2510fa94c23aa2cc4de8b","grin","calibrator_val_feedback","Valence","VC",1739213476964,"positive",1337,"negative","positive","negative;positive","B",7.19818357710194,2
"123","65c2510fa94c23aa2cc4de8b","insecure","calibrator_val_feedback","Valence","VC",1739213482837,"negative",3111,"negative","positive","negative;positive","B",8.04269949689764,3
"124","65c2510fa94c23aa2cc4de8b","kitten","calibrator_val_feedback","Valence","VC",1739213486580,"positive",983,"negative","positive","negative;positive","B",6.89060912014717,4
"125","65c2510fa94c23aa2cc4de8b","free","calibrator_val_feedback","Valence","VC",1739213490316,"positive",973,"negative","positive","negative;positive","B",6.880384082186,5
"126","65c2510fa94c23aa2cc4de8b","joke","calibrator_val_feedback","Valence","VC",1739213495332,"positive",2257,"negative","positive","negative;positive","B",7.72179177681754,6
"127","65c2510fa94c23aa2cc4de8b","icebox","calibrator_val_feedback","Valence","VC",1739213499139,"positive",1043,"negative","positive","negative;positive","B",6.94985645500077,7
"128","65c2510fa94c23aa2cc4de8b","jail","calibrator_val_feedback","Valence","VC",1739213502804,"negative",902,"negative","positive","negative;positive","B",6.80461452006262,8
"129","65c2510fa94c23aa2cc4de8b","invader","calibrator_val_feedback","Valence","VC",1739213507228,"negative",1658,"negative","positive","negative;positive","B",7.41336733569524,9
"130","65c2510fa94c23aa2cc4de8b","hat","calibrator_val_feedback","Valence","VC",1739213510828,"positive",841,"negative","positive","negative;positive","B",6.73459165997295,10
"131","65c2510fa94c23aa2cc4de8b","icebox","calibrator_val_no_feedback","Valence","VC",1739213514548,"positive",955,"B","negative;positive","","",6.86171134048073,11
"132","65c2510fa94c23aa2cc4de8b","industry","calibrator_val_no_feedback","Valence","VC",1739213516380,"positive",1073,"B","negative;positive","","",6.9782137426307,12
"133","65c2510fa94c23aa2cc4de8b","insecure","calibrator_val_no_feedback","Valence","VC",1739213518116,"negative",979,"B","negative;positive","","",6.88653164253051,13
"134","65c2510fa94c23aa2cc4de8b","hat","calibrator_val_no_feedback","Valence","VC",1739213519628,"positive",750,"B","negative;positive","","",6.62007320653036,14
"135","65c2510fa94c23aa2cc4de8b","free","calibrator_val_no_feedback","Valence","VC",1739213521196,"positive",807,"B","negative;positive","","",6.69332366826995,15
"136","65c2510fa94c23aa2cc4de8b","jail","calibrator_val_no_feedback","Valence","VC",1739213522708,"negative",755,"B","negative;positive","","",6.62671774924902,16
"137","65c2510fa94c23aa2cc4de8b","joke","calibrator_val_no_feedback","Valence","VC",1739213524405,"positive",938,"B","negative;positive","","",6.84374994900622,17
"138","65c2510fa94c23aa2cc4de8b","kitten","calibrator_val_no_feedback","Valence","VC",1739213525916,"positive",756,"B","negative;positive","","",6.62804137617953,18
"139","65c2510fa94c23aa2cc4de8b","invader","calibrator_val_no_feedback","Valence","VC",1739213527364,"negative",688,"B","negative;positive","","",6.53378883793334,19
"140","65c2510fa94c23aa2cc4de8b","grin","calibrator_val_no_feedback","Valence","VC",1739213529028,"positive",905,"B","negative;positive","","",6.80793494369993,20
"141","65c2510fa94c23aa2cc4de8b","gas","calibrator_conc_feedback","Concrete","VC",1739213765820,"concrete",1771,"abstract","concrete","abstract;concrete","B",7.47929963778283,21
"142","65c2510fa94c23aa2cc4de8b","shirt","calibrator_conc_feedback","Concrete","VC",1739213769325,"concrete",745,"abstract","concrete","abstract;concrete","B",6.61338421837956,22
"143","65c2510fa94c23aa2cc4de8b","kick","calibrator_conc_feedback","Concrete","VC",1739213772820,"concrete",732,"abstract","concrete","abstract;concrete","B",6.59578051396131,23
"144","65c2510fa94c23aa2cc4de8b","sugar","calibrator_conc_feedback","Concrete","VC",1739213776268,"concrete",686,"abstract","concrete","abstract;concrete","B",6.53087762772588,24
"145","65c2510fa94c23aa2cc4de8b","marriage","calibrator_conc_feedback","Concrete","VC",1739213780956,"abstract",1926,"abstract","concrete","abstract;concrete","B",7.56320059235807,25
"146","65c2510fa94c23aa2cc4de8b","insecure","calibrator_conc_feedback","Concrete","VC",1739213784860,"abstract",1141,"abstract","concrete","abstract;concrete","B",7.03966034986208,26
"147","65c2510fa94c23aa2cc4de8b","theory","calibrator_conc_feedback","Concrete","VC",1739213788516,"abstract",896,"abstract","concrete","abstract;concrete","B",6.79794041297493,27
"148","65c2510fa94c23aa2cc4de8b","grasshopper","calibrator_conc_feedback","Concrete","VC",1739213792084,"concrete",811,"abstract","concrete","abstract;concrete","B",6.69826805411541,28
"149","65c2510fa94c23aa2cc4de8b","whistle","calibrator_conc_feedback","Concrete","VC",1739213795557,"concrete",706,"abstract","concrete","abstract;concrete","B",6.55961523749324,29
"150","65c2510fa94c23aa2cc4de8b","polite","calibrator_conc_feedback","Concrete","VC",1739213799180,"abstract",859,"abstract","concrete","abstract;concrete","B",6.75576892198425,30
"151","65c2510fa94c23aa2cc4de8b","sugar","calibrator_conc_no_feedback","Concrete","VC",1739213802484,"concrete",544,"B","abstract;concrete","","",6.29894924685594,31
"152","65c2510fa94c23aa2cc4de8b","insecure","calibrator_conc_no_feedback","Concrete","VC",1739213803876,"abstract",631,"B","abstract;concrete","","",6.44730586254121,32
"153","65c2510fa94c23aa2cc4de8b","grasshopper","calibrator_conc_no_feedback","Concrete","VC",1739213805357,"concrete",724,"B","abstract;concrete","","",6.58479139238572,33
"154","65c2510fa94c23aa2cc4de8b","marriage","calibrator_conc_no_feedback","Concrete","VC",1739213807060,"abstract",945,"B","abstract;concrete","","",6.85118492749374,34
"155","65c2510fa94c23aa2cc4de8b","shirt","calibrator_conc_no_feedback","Concrete","VC",1739213808460,"concrete",638,"B","abstract;concrete","","",6.45833828334479,35
"156","65c2510fa94c23aa2cc4de8b","whistle","calibrator_conc_no_feedback","Concrete","VC",1739213809781,"concrete",563,"B","abstract;concrete","","",6.33327962813969,36
"157","65c2510fa94c23aa2cc4de8b","theory","calibrator_conc_no_feedback","Concrete","VC",1739213811212,"abstract",673,"B","abstract;concrete","","",6.51174532964473,37
"158","65c2510fa94c23aa2cc4de8b","kick","calibrator_conc_no_feedback","Concrete","VC",1739213812612,"concrete",641,"B","abstract;concrete","","",6.46302945692067,38
"159","65c2510fa94c23aa2cc4de8b","polite","calibrator_conc_no_feedback","Concrete","VC",1739213814100,"abstract",729,"B","abstract;concrete","","",6.59167373200866,39
"160","65c2510fa94c23aa2cc4de8b","gas","calibrator_conc_no_feedback","Concrete","VC",1739213815524,"concrete",665,"B","abstract;concrete","","",6.49978704065585,40
"161","5bf44e609a50810001a69f89","industry","calibrator_val_feedback","Valence","VC",1739216147199,"negative",1919,"negative","positive","negative;positive","B",7.5595594960077,1
"162","5bf44e609a50810001a69f89","icebox","calibrator_val_feedback","Valence","VC",1739216151920,"negative",1939,"negative","positive","negative;positive","B",7.56992765524265,2
"163","5bf44e609a50810001a69f89","free","calibrator_val_feedback","Valence","VC",1739216156736,"positive",2023,"negative","positive","negative;positive","B",7.61233683716775,3
"164","5bf44e609a50810001a69f89","jail","calibrator_val_feedback","Valence","VC",1739216161976,"negative",2467,"negative","positive","negative;positive","B",7.81075811652936,4
"165","5bf44e609a50810001a69f89","kitten","calibrator_val_feedback","Valence","VC",1739216165760,"positive",992,"negative","positive","negative;positive","B",6.89972310728487,5
"166","5bf44e609a50810001a69f89","insecure","calibrator_val_feedback","Valence","VC",1739216169600,"negative",1048,"negative","positive","negative;positive","B",6.95463886488099,6
"167","5bf44e609a50810001a69f89","invader","calibrator_val_feedback","Valence","VC",1739216175098,"negative",1291,"negative","positive","negative;positive","B",7.16317239084664,7
"168","5bf44e609a50810001a69f89","grin","calibrator_val_feedback","Valence","VC",1739216177112,"positive",667,"negative","positive","negative;positive","B",6.50279004591562,8
"169","5bf44e609a50810001a69f89","joke","calibrator_val_feedback","Valence","VC",1739216180903,"positive",993,"negative","positive","negative;positive","B",6.90073066404517,9
"170","5bf44e609a50810001a69f89","hat","calibrator_val_feedback","Valence","VC",1739216184808,"positive",1121,"negative","positive","negative;positive","B",7.02197642307216,10
"171","5bf44e609a50810001a69f89","joke","calibrator_val_no_feedback","Valence","VC",1739216188600,"positive",1001,"B","negative;positive","","",6.90875477931522,11
"172","5bf44e609a50810001a69f89","kitten","calibrator_val_no_feedback","Valence","VC",1739216190128,"positive",765,"B","negative;positive","","",6.63987583382654,12
"173","5bf44e609a50810001a69f89","hat","calibrator_val_no_feedback","Valence","VC",1739216192776,"positive",1880,"B","negative;positive","","",7.539027055824,13
"174","5bf44e609a50810001a69f89","free","calibrator_val_no_feedback","Valence","VC",1739216194112,"positive",577,"B","negative;positive","","",6.3578422665081,14
"175","5bf44e609a50810001a69f89","icebox","calibrator_val_no_feedback","Valence","VC",1739216195472,"negative",583,"B","negative;positive","","",6.36818718635049,15
"176","5bf44e609a50810001a69f89","invader","calibrator_val_no_feedback","Valence","VC",1739216196897,"negative",670,"B","negative;positive","","",6.50727771238501,16
"177","5bf44e609a50810001a69f89","industry","calibrator_val_no_feedback","Valence","VC",1739216198376,"negative",716,"B","negative;positive","","",6.57368016696065,17
"178","5bf44e609a50810001a69f89","grin","calibrator_val_no_feedback","Valence","VC",1739216199744,"positive",596,"B","negative;positive","","",6.39024066706535,18
"179","5bf44e609a50810001a69f89","insecure","calibrator_val_no_feedback","Valence","VC",1739216201152,"positive",636,"B","negative;positive","","",6.45519856334012,19
"180","5bf44e609a50810001a69f89","jail","calibrator_val_no_feedback","Valence","VC",1739216202607,"negative",687,"B","negative;positive","","",6.53233429222235,20
"181","5bf44e609a50810001a69f89","insecure","calibrator_conc_feedback","Concrete","VC",1739216451487,"abstract",1692,"abstract","concrete","abstract;concrete","B",7.43366654016617,21
"182","5bf44e609a50810001a69f89","whistle","calibrator_conc_feedback","Concrete","VC",1739216455303,"concrete",1023,"abstract","concrete","abstract;concrete","B",6.93049476595163,22
"183","5bf44e609a50810001a69f89","theory","calibrator_conc_feedback","Concrete","VC",1739216459367,"abstract",1290,"abstract","concrete","abstract;concrete","B",7.16239749735572,23
"184","5bf44e609a50810001a69f89","shirt","calibrator_conc_feedback","Concrete","VC",1739216462935,"concrete",775,"abstract","concrete","abstract;concrete","B",6.65286302935335,24
"185","5bf44e609a50810001a69f89","sugar","calibrator_conc_feedback","Concrete","VC",1739216466319,"concrete",599,"abstract","concrete","abstract;concrete","B",6.39526159811545,25
"186","5bf44e609a50810001a69f89","polite","calibrator_conc_feedback","Concrete","VC",1739216469992,"abstract",886,"abstract","concrete","abstract;concrete","B",6.78671695060508,26
"187","5bf44e609a50810001a69f89","grasshopper","calibrator_conc_feedback","Concrete","VC",1739216473567,"concrete",790,"abstract","concrete","abstract;concrete","B",6.67203294546107,27
"188","5bf44e609a50810001a69f89","gas","calibrator_conc_feedback","Concrete","VC",1739216476984,"concrete",644,"abstract","concrete","abstract;concrete","B",6.46769872610435,28
"189","5bf44e609a50810001a69f89","kick","calibrator_conc_feedback","Concrete","VC",1739216480344,"concrete",588,"abstract","concrete","abstract;concrete","B",6.37672694789863,29
"190","5bf44e609a50810001a69f89","marriage","calibrator_conc_feedback","Concrete","VC",1739216484344,"concrete",1223,"abstract","concrete","abstract;concrete","B",7.10906213568717,30
"191","5bf44e609a50810001a69f89","marriage","calibrator_conc_no_feedback","Concrete","VC",1739216487863,"abstract",732,"B","abstract;concrete","","",6.59578051396131,31
"192","5bf44e609a50810001a69f89","whistle","calibrator_conc_no_feedback","Concrete","VC",1739216489679,"concrete",1042,"B","abstract;concrete","","",6.94889722231331,32
"193","5bf44e609a50810001a69f89","kick","calibrator_conc_no_feedback","Concrete","VC",1739216491015,"concrete",567,"B","abstract;concrete","","",6.34035930372775,33
"194","5bf44e609a50810001a69f89","insecure","calibrator_conc_no_feedback","Concrete","VC",1739216492767,"abstract",990,"B","abstract;concrete","","",6.89770494312864,34
"195","5bf44e609a50810001a69f89","theory","calibrator_conc_no_feedback","Concrete","VC",1739216494104,"abstract",566,"B","abstract;concrete","","",6.33859407820318,35
"196","5bf44e609a50810001a69f89","grasshopper","calibrator_conc_no_feedback","Concrete","VC",1739216495479,"concrete",599,"B","abstract;concrete","","",6.39526159811545,36
"197","5bf44e609a50810001a69f89","gas","calibrator_conc_no_feedback","Concrete","VC",1739216496832,"concrete",578,"B","abstract;concrete","","",6.35957386867238,37
"198","5bf44e609a50810001a69f89","shirt","calibrator_conc_no_feedback","Concrete","VC",1739216498175,"concrete",563,"B","abstract;concrete","","",6.33327962813969,38
"199","5bf44e609a50810001a69f89","sugar","calibrator_conc_no_feedback","Concrete","VC",1739216499528,"concrete",584,"B","abstract;concrete","","",6.36990098282823,39
"200","5bf44e609a50810001a69f89","polite","calibrator_conc_no_feedback","Concrete","VC",1739216500991,"abstract",689,"B","abstract;concrete","","",6.53524127101366,40
"201","56d857ad4a9be1000a53af36","hat","calibrator_val_feedback","Valence","VC",1739207686192,"positive",1343,"positive","negative","positive;negative","A",7.20266119652324,1
"202","56d857ad4a9be1000a53af36","grin","calibrator_val_feedback","Valence","VC",1739207690624,"negative",1294,"positive","negative","positive;negative","A",7.16549347506085,2
"203","56d857ad4a9be1000a53af36","joke","calibrator_val_feedback","Valence","VC",1739207693104,"positive",1327,"positive","negative","positive;negative","A",7.19067603433221,3
"204","56d857ad4a9be1000a53af36","insecure","calibrator_val_feedback","Valence","VC",1739207697519,"negative",1653,"positive","negative","positive;negative","A",7.41034709782102,4
"205","56d857ad4a9be1000a53af36","industry","calibrator_val_feedback","Valence","VC",1739207700957,"positive",680,"positive","negative","positive;negative","A",6.52209279817015,5
"206","56d857ad4a9be1000a53af36","jail","calibrator_val_feedback","Valence","VC",1739207708696,"negative",4977,"positive","negative","positive;negative","A",8.51258257885855,6
"207","56d857ad4a9be1000a53af36","invader","calibrator_val_feedback","Valence","VC",1739207713410,"negative",1204,"positive","negative","positive;negative","A",7.09340462586877,7
"208","56d857ad4a9be1000a53af36","free","calibrator_val_feedback","Valence","VC",1739207716331,"positive",907,"positive","negative","positive;negative","A",6.81014245011514,8
"209","56d857ad4a9be1000a53af36","icebox","calibrator_val_feedback","Valence","VC",1739207720566,"positive",1479,"positive","negative","positive;negative","A",7.2991214627108,9
"210","56d857ad4a9be1000a53af36","kitten","calibrator_val_feedback","Valence","VC",1739207724517,"positive",1188,"positive","negative","positive;negative","A",7.08002649992259,10
"211","56d857ad4a9be1000a53af36","free","calibrator_val_no_feedback","Valence","VC",1739207727875,"positive",600,"A","positive;negative","","",6.39692965521615,11
"212","56d857ad4a9be1000a53af36","joke","calibrator_val_no_feedback","Valence","VC",1739207729259,"positive",623,"A","positive;negative","","",6.43454651878745,12
"213","56d857ad4a9be1000a53af36","insecure","calibrator_val_no_feedback","Valence","VC",1739207730574,"negative",556,"A","positive;negative","","",6.32076829425058,13
"214","56d857ad4a9be1000a53af36","invader","calibrator_val_no_feedback","Valence","VC",1739207731849,"negative",517,"A","positive;negative","","",6.24804287450843,14
"215","56d857ad4a9be1000a53af36","hat","calibrator_val_no_feedback","Valence","VC",1739207733162,"positive",553,"A","positive;negative","","",6.31535800152233,15
"216","56d857ad4a9be1000a53af36","icebox","calibrator_val_no_feedback","Valence","VC",1739207734503,"positive",586,"A","positive;negative","","",6.37331978957701,16
"217","56d857ad4a9be1000a53af36","grin","calibrator_val_no_feedback","Valence","VC",1739207735853,"negative",589,"A","positive;negative","","",6.37842618365159,17
"218","56d857ad4a9be1000a53af36","jail","calibrator_val_no_feedback","Valence","VC",1739207737188,"negative",575,"A","positive;negative","","",6.35437004079735,18
"219","56d857ad4a9be1000a53af36","kitten","calibrator_val_no_feedback","Valence","VC",1739207738414,"positive",471,"A","positive;negative","","",6.15485809401642,19
"220","56d857ad4a9be1000a53af36","industry","calibrator_val_no_feedback","Valence","VC",1739207739625,"positive",453,"A","positive;negative","","",6.11589212548303,20
"221","56d857ad4a9be1000a53af36","polite","calibrator_conc_feedback","Concrete","VC",1739207955974,"abstract",4601,"concrete","abstract","concrete;abstract","A",8.43402895015547,21
"222","56d857ad4a9be1000a53af36","insecure","calibrator_conc_feedback","Concrete","VC",1739207958383,"abstract",1610,"concrete","abstract","concrete;abstract","A",7.38398945797851,22
"223","56d857ad4a9be1000a53af36","marriage","calibrator_conc_feedback","Concrete","VC",1739207962382,"abstract",1238,"concrete","abstract","concrete;abstract","A",7.12125245324454,23
"224","56d857ad4a9be1000a53af36","kick","calibrator_conc_feedback","Concrete","VC",1739207967371,"concrete",2227,"concrete","abstract","concrete;abstract","A",7.70841066725737,24
"225","56d857ad4a9be1000a53af36","theory","calibrator_conc_feedback","Concrete","VC",1739207971412,"abstract",1283,"concrete","abstract","concrete;abstract","A",7.15695636461564,25
"226","56d857ad4a9be1000a53af36","shirt","calibrator_conc_feedback","Concrete","VC",1739207983208,"concrete",9030,"concrete","abstract","concrete;abstract","A",9.10830764641103,26
"227","56d857ad4a9be1000a53af36","sugar","calibrator_conc_feedback","Concrete","VC",1739207994063,"concrete",8094,"concrete","abstract","concrete;abstract","A",8.99887832543581,27
"228","56d857ad4a9be1000a53af36","grasshopper","calibrator_conc_feedback","Concrete","VC",1739207998254,"concrete",1431,"concrete","abstract","concrete;abstract","A",7.26612877955645,28
"229","56d857ad4a9be1000a53af36","gas","calibrator_conc_feedback","Concrete","VC",1739208001999,"concrete",988,"concrete","abstract","concrete;abstract","A",6.89568269774787,29
"230","56d857ad4a9be1000a53af36","whistle","calibrator_conc_feedback","Concrete","VC",1739208005648,"concrete",886,"concrete","abstract","concrete;abstract","A",6.78671695060508,30
"231","56d857ad4a9be1000a53af36","theory","calibrator_conc_no_feedback","Concrete","VC",1739208009309,"abstract",899,"A","concrete;abstract","","",6.80128303447162,31
"232","56d857ad4a9be1000a53af36","marriage","calibrator_conc_no_feedback","Concrete","VC",1739208011074,"abstract",1005,"A","concrete;abstract","","",6.91274282049318,32
"233","56d857ad4a9be1000a53af36","sugar","calibrator_conc_no_feedback","Concrete","VC",1739208012483,"concrete",652,"A","concrete;abstract","","",6.48004456192665,33
"234","56d857ad4a9be1000a53af36","insecure","calibrator_conc_no_feedback","Concrete","VC",1739208013937,"abstract",694,"A","concrete;abstract","","",6.5424719605068,34
"235","56d857ad4a9be1000a53af36","kick","calibrator_conc_no_feedback","Concrete","VC",1739208015327,"concrete",634,"A","concrete;abstract","","",6.45204895443723,35
"236","56d857ad4a9be1000a53af36","gas","calibrator_conc_no_feedback","Concrete","VC",1739208016712,"concrete",625,"A","concrete;abstract","","",6.4377516497364,36
"237","56d857ad4a9be1000a53af36","whistle","calibrator_conc_no_feedback","Concrete","VC",1739208018182,"concrete",712,"A","concrete;abstract","","",6.56807791141198,37
"238","56d857ad4a9be1000a53af36","polite","calibrator_conc_no_feedback","Concrete","VC",1739208019513,"abstract",575,"A","concrete;abstract","","",6.35437004079735,38
"239","56d857ad4a9be1000a53af36","grasshopper","calibrator_conc_no_feedback","Concrete","VC",1739208020845,"abstract",577,"A","concrete;abstract","","",6.3578422665081,39
"240","56d857ad4a9be1000a53af36","shirt","calibrator_conc_no_feedback","Concrete","VC",1739208022176,"concrete",574,"A","concrete;abstract","","",6.35262939631957,40
"241","5ef98087540ce971a8fb4280","invader","calibrator_val_feedback","Valence","VC",1739206646119,"negative",1290,"positive","negative","positive;negative","A",7.16239749735572,1
"242","5ef98087540ce971a8fb4280","insecure","calibrator_val_feedback","Valence","VC",1739206650036,"negative",1159,"positive","negative","positive;negative","A",7.05531284333975,2
"243","5ef98087540ce971a8fb4280","kitten","calibrator_val_feedback","Valence","VC",1739206653472,"positive",680,"positive","negative","positive;negative","A",6.52209279817015,3
"244","5ef98087540ce971a8fb4280","hat","calibrator_val_feedback","Valence","VC",1739206657372,"positive",1137,"positive","negative","positive;negative","A",7.03614849375054,4
"245","5ef98087540ce971a8fb4280","free","calibrator_val_feedback","Valence","VC",1739206660864,"positive",729,"positive","negative","positive;negative","A",6.59167373200866,5
"246","5ef98087540ce971a8fb4280","icebox","calibrator_val_feedback","Valence","VC",1739206666418,"negative",2794,"positive","negative","positive;negative","A",7.93522953981691,6
"247","5ef98087540ce971a8fb4280","industry","calibrator_val_feedback","Valence","VC",1739206670265,"negative",1086,"positive","negative","positive;negative","A",6.99025650049388,7
"248","5ef98087540ce971a8fb4280","jail","calibrator_val_feedback","Valence","VC",1739206673761,"negative",735,"positive","negative","positive;negative","A",6.59987049921284,8
"249","5ef98087540ce971a8fb4280","grin","calibrator_val_feedback","Valence","VC",1739206678191,"positive",1666,"positive","negative","positive;negative","A",7.41818082272679,9
"250","5ef98087540ce971a8fb4280","joke","calibrator_val_feedback","Valence","VC",1739206682206,"positive",1256,"positive","negative","positive;negative","A",7.13568734702814,10
"251","5ef98087540ce971a8fb4280","jail","calibrator_val_no_feedback","Valence","VC",1739206685781,"negative",811,"A","positive;negative","","",6.69826805411541,11
"252","5ef98087540ce971a8fb4280","free","calibrator_val_no_feedback","Valence","VC",1739206687131,"positive",592,"A","positive;negative","","",6.38350663488401,12
"253","5ef98087540ce971a8fb4280","insecure","calibrator_val_no_feedback","Valence","VC",1739206688427,"negative",538,"A","positive;negative","","",6.28785856016178,13
"254","5ef98087540ce971a8fb4280","joke","calibrator_val_no_feedback","Valence","VC",1739206689891,"negative",704,"A","positive;negative","","",6.55677835615804,14
"255","5ef98087540ce971a8fb4280","invader","calibrator_val_no_feedback","Valence","VC",1739206691344,"negative",696,"A","positive;negative","","",6.54534966033442,15
"256","5ef98087540ce971a8fb4280","icebox","calibrator_val_no_feedback","Valence","VC",1739206692802,"negative",701,"A","positive;negative","","",6.55250788703459,16
"257","5ef98087540ce971a8fb4280","industry","calibrator_val_no_feedback","Valence","VC",1739206694146,"negative",589,"A","positive;negative","","",6.37842618365159,17
"258","5ef98087540ce971a8fb4280","hat","calibrator_val_no_feedback","Valence","VC",1739206695571,"positive",673,"A","positive;negative","","",6.51174532964473,18
"259","5ef98087540ce971a8fb4280","kitten","calibrator_val_no_feedback","Valence","VC",1739206696832,"positive",507,"A","positive;negative","","",6.22851100359118,19
"260","5ef98087540ce971a8fb4280","grin","calibrator_val_no_feedback","Valence","VC",1739206698127,"positive",539,"A","positive;negative","","",6.289715570909,20
"261","5ef98087540ce971a8fb4280","grasshopper","calibrator_conc_feedback","Concrete","VC",1739206897441,"concrete",1723,"concrete","abstract","concrete;abstract","A",7.45182223652793,21
"262","5ef98087540ce971a8fb4280","theory","calibrator_conc_feedback","Concrete","VC",1739206900422,"abstract",1259,"concrete","abstract","concrete;abstract","A",7.13807303404435,22
"263","5ef98087540ce971a8fb4280","shirt","calibrator_conc_feedback","Concrete","VC",1739206904483,"concrete",1306,"concrete","abstract","concrete;abstract","A",7.17472430983638,23
"264","5ef98087540ce971a8fb4280","gas","calibrator_conc_feedback","Concrete","VC",1739206908755,"concrete",1510,"concrete","abstract","concrete;abstract","A",7.31986492980897,24
"265","5ef98087540ce971a8fb4280","marriage","calibrator_conc_feedback","Concrete","VC",1739206912450,"concrete",936,"concrete","abstract","concrete;abstract","A",6.84161547647759,25
"266","5ef98087540ce971a8fb4280","kick","calibrator_conc_feedback","Concrete","VC",1739206915940,"abstract",732,"concrete","abstract","concrete;abstract","A",6.59578051396131,26
"267","5ef98087540ce971a8fb4280","polite","calibrator_conc_feedback","Concrete","VC",1739206920801,"concrete",797,"concrete","abstract","concrete;abstract","A",6.68085467879022,27
"268","5ef98087540ce971a8fb4280","sugar","calibrator_conc_feedback","Concrete","VC",1739206924510,"concrete",953,"concrete","abstract","concrete;abstract","A",6.8596149036542,28
"269","5ef98087540ce971a8fb4280","insecure","calibrator_conc_feedback","Concrete","VC",1739206927964,"abstract",697,"concrete","abstract","concrete;abstract","A",6.54678541076052,29
"270","5ef98087540ce971a8fb4280","whistle","calibrator_conc_feedback","Concrete","VC",1739206931757,"concrete",1028,"concrete","abstract","concrete;abstract","A",6.93537044601511,30
"271","5ef98087540ce971a8fb4280","kick","calibrator_conc_no_feedback","Concrete","VC",1739206940197,"abstract",4483,"A","concrete;abstract","","",8.40804774415544,31
"272","5ef98087540ce971a8fb4280","whistle","calibrator_conc_no_feedback","Concrete","VC",1739206941824,"concrete",871,"A","concrete;abstract","","",6.7696419768525,32
"273","5ef98087540ce971a8fb4280","gas","calibrator_conc_no_feedback","Concrete","VC",1739206943432,"abstract",851,"A","concrete;abstract","","",6.74641212857337,33
"274","5ef98087540ce971a8fb4280","sugar","calibrator_conc_no_feedback","Concrete","VC",1739206944757,"concrete",567,"A","concrete;abstract","","",6.34035930372775,34
"275","5ef98087540ce971a8fb4280","shirt","calibrator_conc_no_feedback","Concrete","VC",1739206946369,"concrete",857,"A","concrete;abstract","","",6.75343791859778,35
"276","5ef98087540ce971a8fb4280","marriage","calibrator_conc_no_feedback","Concrete","VC",1739206947719,"concrete",592,"A","concrete;abstract","","",6.38350663488401,36
"277","5ef98087540ce971a8fb4280","theory","calibrator_conc_no_feedback","Concrete","VC",1739206949047,"abstract",570,"A","concrete;abstract","","",6.3456363608286,37
"278","5ef98087540ce971a8fb4280","grasshopper","calibrator_conc_no_feedback","Concrete","VC",1739206950609,"concrete",809,"A","concrete;abstract","","",6.69579891705849,38
"279","5ef98087540ce971a8fb4280","polite","calibrator_conc_no_feedback","Concrete","VC",1739206951862,"concrete",495,"A","concrete;abstract","","",6.20455776256869,39
"280","5ef98087540ce971a8fb4280","insecure","calibrator_conc_no_feedback","Concrete","VC",1739206953186,"abstract",566,"A","concrete;abstract","","",6.33859407820318,40
"281","6110a371c00388d587922ff1","polite","calibrator_conc_feedback","Concrete","CV",1739196130134,"abstract",1486,"concrete","abstract","concrete;abstract","A",7.3038432252777,1
"282","6110a371c00388d587922ff1","grasshopper","calibrator_conc_feedback","Concrete","CV",1739196132687,"concrete",1097,"concrete","abstract","concrete;abstract","A",7.00033446027523,2
"283","6110a371c00388d587922ff1","sugar","calibrator_conc_feedback","Concrete","CV",1739196137383,"concrete",1940,"concrete","abstract","concrete;abstract","A",7.57044325205737,3
"284","6110a371c00388d587922ff1","theory","calibrator_conc_feedback","Concrete","CV",1739196141407,"abstract",1264,"concrete","abstract","concrete;abstract","A",7.1420365747068,4
"285","6110a371c00388d587922ff1","gas","calibrator_conc_feedback","Concrete","CV",1739196145551,"abstract",1387,"concrete","abstract","concrete;abstract","A",7.23489842031483,5
"286","6110a371c00388d587922ff1","shirt","calibrator_conc_feedback","Concrete","CV",1739196149831,"concrete",1519,"concrete","abstract","concrete;abstract","A",7.32580750259577,6
"287","6110a371c00388d587922ff1","marriage","calibrator_conc_feedback","Concrete","CV",1739196153992,"concrete",1403,"concrete","abstract","concrete;abstract","A",7.24636808010246,7
"288","6110a371c00388d587922ff1","insecure","calibrator_conc_feedback","Concrete","CV",1739196158127,"abstract",1379,"concrete","abstract","concrete;abstract","A",7.2291138777933,8
"289","6110a371c00388d587922ff1","whistle","calibrator_conc_feedback","Concrete","CV",1739196162010,"abstract",1127,"concrete","abstract","concrete;abstract","A",7.02731451403978,9
"290","6110a371c00388d587922ff1","kick","calibrator_conc_feedback","Concrete","CV",1739196168263,"concrete",3499,"concrete","abstract","concrete;abstract","A",8.16023249236769,10
"291","6110a371c00388d587922ff1","polite","calibrator_conc_no_feedback","Concrete","CV",1739196174319,"abstract",3296,"A","concrete;abstract","","",8.10046489102936,11
"292","6110a371c00388d587922ff1","grasshopper","calibrator_conc_no_feedback","Concrete","CV",1739196176656,"concrete",1581,"A","concrete;abstract","","",7.36581283720947,12
"293","6110a371c00388d587922ff1","theory","calibrator_conc_no_feedback","Concrete","CV",1739196178271,"abstract",856,"A","concrete;abstract","","",6.75227037614174,13
"294","6110a371c00388d587922ff1","kick","calibrator_conc_no_feedback","Concrete","CV",1739196179790,"concrete",765,"A","concrete;abstract","","",6.63987583382654,14
"295","6110a371c00388d587922ff1","shirt","calibrator_conc_no_feedback","Concrete","CV",1739196181375,"concrete",830,"A","concrete;abstract","","",6.72142570079064,15
"296","6110a371c00388d587922ff1","marriage","calibrator_conc_no_feedback","Concrete","CV",1739196183279,"concrete",1149,"A","concrete;abstract","","",7.04664727784876,16
"297","6110a371c00388d587922ff1","whistle","calibrator_conc_no_feedback","Concrete","CV",1739196184774,"concrete",738,"A","concrete;abstract","","",6.60394382460047,17
"298","6110a371c00388d587922ff1","gas","calibrator_conc_no_feedback","Concrete","CV",1739196186446,"concrete",913,"A","concrete;abstract","","",6.81673588059497,18
"299","6110a371c00388d587922ff1","sugar","calibrator_conc_no_feedback","Concrete","CV",1739196188512,"abstract",1310,"A","concrete;abstract","","",7.1777824161952,19
"300","6110a371c00388d587922ff1","insecure","calibrator_conc_no_feedback","Concrete","CV",1739196190094,"abstract",820,"A","concrete;abstract","","",6.7093043402583,20
"301","6110a371c00388d587922ff1","joke","calibrator_val_feedback","Valence","CV",1739196396696,"positive",1060,"positive","negative","positive;negative","A",6.96602418710611,21
"302","6110a371c00388d587922ff1","hat","calibrator_val_feedback","Valence","CV",1739196400641,"positive",1187,"positive","negative","positive;negative","A",7.07918439460967,22
"303","6110a371c00388d587922ff1","icebox","calibrator_val_feedback","Valence","CV",1739196404809,"positive",1414,"positive","negative","positive;negative","A",7.25417784645652,23
"304","6110a371c00388d587922ff1","grin","calibrator_val_feedback","Valence","CV",1739196408270,"positive",707,"positive","negative","positive;negative","A",6.56103066589657,24
"305","6110a371c00388d587922ff1","jail","calibrator_val_feedback","Valence","CV",1739196411711,"negative",683,"positive","negative","positive;negative","A",6.52649485957079,25
"306","6110a371c00388d587922ff1","insecure","calibrator_val_feedback","Valence","CV",1739196415327,"negative",857,"positive","negative","positive;negative","A",6.75343791859778,26
"307","6110a371c00388d587922ff1","industry","calibrator_val_feedback","Valence","CV",1739196419543,"positive",1461,"positive","negative","positive;negative","A",7.2868764117507,27
"308","6110a371c00388d587922ff1","kitten","calibrator_val_feedback","Valence","CV",1739196425345,"positive",3044,"positive","negative","positive;negative","A",8.02092771898158,28
"309","6110a371c00388d587922ff1","invader","calibrator_val_feedback","Valence","CV",1739196428806,"negative",703,"positive","negative","positive;negative","A",6.55535689181067,29
"310","6110a371c00388d587922ff1","free","calibrator_val_feedback","Valence","CV",1739196432279,"positive",715,"positive","negative","positive;negative","A",6.57228254269401,30
"311","6110a371c00388d587922ff1","insecure","calibrator_val_no_feedback","Valence","CV",1739196435703,"negative",666,"A","positive;negative","","",6.50128967054039,31
"312","6110a371c00388d587922ff1","grin","calibrator_val_no_feedback","Valence","CV",1739196438265,"positive",1803,"A","positive;negative","","",7.49720722320332,32
"313","6110a371c00388d587922ff1","joke","calibrator_val_no_feedback","Valence","CV",1739196439887,"positive",867,"A","positive;negative","","",6.76503897678054,33
"314","6110a371c00388d587922ff1","invader","calibrator_val_no_feedback","Valence","CV",1739196441438,"negative",798,"A","positive;negative","","",6.68210859744981,34
"315","6110a371c00388d587922ff1","industry","calibrator_val_no_feedback","Valence","CV",1739196445191,"negative",2996,"A","positive;negative","","",8.00503334463711,35
"316","6110a371c00388d587922ff1","hat","calibrator_val_no_feedback","Valence","CV",1739196447015,"positive",1067,"A","positive;negative","","",6.97260625130175,36
"317","6110a371c00388d587922ff1","jail","calibrator_val_no_feedback","Valence","CV",1739196448583,"negative",815,"A","positive;negative","","",6.70318811324086,37
"318","6110a371c00388d587922ff1","free","calibrator_val_no_feedback","Valence","CV",1739196505623,"positive",56282,"A","positive;negative","","",10.9381300471996,38
"319","6110a371c00388d587922ff1","kitten","calibrator_val_no_feedback","Valence","CV",1739196506799,"positive",419,"A","positive;negative","","",6.03787091992214,39
"320","6110a371c00388d587922ff1","icebox","calibrator_val_no_feedback","Valence","CV",1739196507967,"positive",411,"A","positive;negative","","",6.01859321449623,40
"321","5654c59404212700124a1a4d","grin","calibrator_val_feedback","Valence","VC",1739207424611,"negative",1315,"positive","negative","positive;negative","A",7.18159194461187,1
"322","5654c59404212700124a1a4d","kitten","calibrator_val_feedback","Valence","VC",1739207426775,"positive",1231,"positive","negative","positive;negative","A",7.11558212618445,2
"323","5654c59404212700124a1a4d","hat","calibrator_val_feedback","Valence","VC",1739207430771,"positive",1233,"positive","negative","positive;negative","A",7.11720550316434,3
"324","5654c59404212700124a1a4d","joke","calibrator_val_feedback","Valence","VC",1739207434630,"positive",1100,"positive","negative","positive;negative","A",7.00306545878646,4
"325","5654c59404212700124a1a4d","insecure","calibrator_val_feedback","Valence","VC",1739207438119,"negative",726,"positive","negative","positive;negative","A",6.5875500148248,5
"326","5654c59404212700124a1a4d","icebox","calibrator_val_feedback","Valence","VC",1739207442478,"positive",1601,"positive","negative","positive;negative","A",7.37838371299671,6
"327","5654c59404212700124a1a4d","free","calibrator_val_feedback","Valence","VC",1739207446296,"positive",1057,"positive","negative","positive;negative","A",6.96318998587024,7
"328","5654c59404212700124a1a4d","industry","calibrator_val_feedback","Valence","VC",1739207450287,"negative",1232,"positive","negative","positive;negative","A",7.11639414409346,8
"329","5654c59404212700124a1a4d","invader","calibrator_val_feedback","Valence","VC",1739207453770,"negative",721,"positive","negative","positive;negative","A",6.58063913728495,9
"330","5654c59404212700124a1a4d","jail","calibrator_val_feedback","Valence","VC",1739207457236,"negative",704,"positive","negative","positive;negative","A",6.55677835615804,10
"331","5654c59404212700124a1a4d","hat","calibrator_val_no_feedback","Valence","VC",1739207460731,"positive",735,"A","positive;negative","","",6.59987049921284,11
"332","5654c59404212700124a1a4d","icebox","calibrator_val_no_feedback","Valence","VC",1739207462874,"positive",1385,"A","positive;negative","","",7.23345541862144,12
"333","5654c59404212700124a1a4d","insecure","calibrator_val_no_feedback","Valence","VC",1739207464268,"negative",637,"A","positive;negative","","",6.45676965557216,13
"334","5654c59404212700124a1a4d","invader","calibrator_val_no_feedback","Valence","VC",1739207465700,"negative",676,"A","positive;negative","","",6.51619307604296,14
"335","5654c59404212700124a1a4d","joke","calibrator_val_no_feedback","Valence","VC",1739207467318,"positive",860,"A","positive;negative","","",6.75693238924755,15
"336","5654c59404212700124a1a4d","grin","calibrator_val_no_feedback","Valence","VC",1739207468917,"positive",842,"A","positive;negative","","",6.73578001424233,16
"337","5654c59404212700124a1a4d","free","calibrator_val_no_feedback","Valence","VC",1739207470986,"positive",1311,"A","positive;negative","","",7.1785454837637,17
"338","5654c59404212700124a1a4d","jail","calibrator_val_no_feedback","Valence","VC",1739207472401,"negative",657,"A","positive;negative","","",6.48768401848461,18
"339","5654c59404212700124a1a4d","kitten","calibrator_val_no_feedback","Valence","VC",1739207473801,"positive",643,"A","positive;negative","","",6.46614472423762,19
"340","5654c59404212700124a1a4d","industry","calibrator_val_no_feedback","Valence","VC",1739207475332,"negative",771,"A","positive;negative","","",6.64768837356333,20
"341","5654c59404212700124a1a4d","shirt","calibrator_conc_feedback","Concrete","VC",1739207709748,"concrete",1159,"concrete","abstract","concrete;abstract","A",7.05531284333975,21
"342","5654c59404212700124a1a4d","whistle","calibrator_conc_feedback","Concrete","VC",1739207713577,"concrete",1909,"concrete","abstract","concrete;abstract","A",7.55433482372575,22
"343","5654c59404212700124a1a4d","polite","calibrator_conc_feedback","Concrete","VC",1739207716608,"abstract",1167,"concrete","abstract","concrete;abstract","A",7.06219163228656,23
"344","5654c59404212700124a1a4d","sugar","calibrator_conc_feedback","Concrete","VC",1739207720213,"concrete",840,"concrete","abstract","concrete;abstract","A",6.73340189183736,24
"345","5654c59404212700124a1a4d","kick","calibrator_conc_feedback","Concrete","VC",1739207724592,"concrete",1619,"concrete","abstract","concrete;abstract","A",7.38956395367764,25
"346","5654c59404212700124a1a4d","grasshopper","calibrator_conc_feedback","Concrete","VC",1739207728378,"concrete",1027,"concrete","abstract","concrete;abstract","A",6.93439720992856,26
"347","5654c59404212700124a1a4d","insecure","calibrator_conc_feedback","Concrete","VC",1739207731969,"abstract",833,"concrete","abstract","concrete;abstract","A",6.72503364216684,27
"348","5654c59404212700124a1a4d","theory","calibrator_conc_feedback","Concrete","VC",1739207735657,"abstract",926,"concrete","abstract","concrete;abstract","A",6.83087423464618,28
"349","5654c59404212700124a1a4d","gas","calibrator_conc_feedback","Concrete","VC",1739207739821,"concrete",1404,"concrete","abstract","concrete;abstract","A",7.24708058458576,29
"350","5654c59404212700124a1a4d","marriage","calibrator_conc_feedback","Concrete","VC",1739207743608,"abstract",1025,"concrete","abstract","concrete;abstract","A",6.93244789157251,30
"351","5654c59404212700124a1a4d","shirt","calibrator_conc_no_feedback","Concrete","VC",1739207747008,"concrete",642,"A","concrete;abstract","","",6.46458830368996,31
"352","5654c59404212700124a1a4d","polite","calibrator_conc_no_feedback","Concrete","VC",1739207748610,"abstract",844,"A","concrete;abstract","","",6.73815249459596,32
"353","5654c59404212700124a1a4d","theory","calibrator_conc_no_feedback","Concrete","VC",1739207750063,"abstract",697,"A","concrete;abstract","","",6.54678541076052,33
"354","5654c59404212700124a1a4d","sugar","calibrator_conc_no_feedback","Concrete","VC",1739207751634,"concrete",815,"A","concrete;abstract","","",6.70318811324086,34
"355","5654c59404212700124a1a4d","marriage","calibrator_conc_no_feedback","Concrete","VC",1739207753589,"abstract",1202,"A","concrete;abstract","","",7.09174211509515,35
"356","5654c59404212700124a1a4d","whistle","calibrator_conc_no_feedback","Concrete","VC",1739207755251,"concrete",904,"A","concrete;abstract","","",6.80682936039218,36
"357","5654c59404212700124a1a4d","insecure","calibrator_conc_no_feedback","Concrete","VC",1739207757246,"abstract",1234,"A","concrete;abstract","","",7.11801620446533,37
"358","5654c59404212700124a1a4d","grasshopper","calibrator_conc_no_feedback","Concrete","VC",1739207758729,"concrete",726,"A","concrete;abstract","","",6.5875500148248,38
"359","5654c59404212700124a1a4d","kick","calibrator_conc_no_feedback","Concrete","VC",1739207760392,"concrete",902,"A","concrete;abstract","","",6.80461452006262,39
"360","5654c59404212700124a1a4d","gas","calibrator_conc_no_feedback","Concrete","VC",1739207761904,"concrete",753,"A","concrete;abstract","","",6.62406522779989,40
"361","61075a765969d97b256603b7","icebox","calibrator_val_feedback","Valence","VC",1739208759062,"positive",2834,"positive","negative","positive;negative","A",7.94944442025063,1
"362","61075a765969d97b256603b7","invader","calibrator_val_feedback","Valence","VC",1739208763548,"positive",1728,"positive","negative","positive;negative","A",7.454719949364,2
"363","61075a765969d97b256603b7","grin","calibrator_val_feedback","Valence","VC",1739208767590,"negative",1290,"positive","negative","positive;negative","A",7.16239749735572,3
"364","61075a765969d97b256603b7","insecure","calibrator_val_feedback","Valence","VC",1739208772428,"negative",2078,"positive","negative","positive;negative","A",7.63916117165917,4
"365","61075a765969d97b256603b7","joke","calibrator_val_feedback","Valence","VC",1739208776613,"positive",1425,"positive","negative","positive;negative","A",7.26192709270275,5
"366","61075a765969d97b256603b7","industry","calibrator_val_feedback","Valence","VC",1739208781072,"positive",1704,"positive","negative","positive;negative","A",7.44073370738926,6
"367","61075a765969d97b256603b7","hat","calibrator_val_feedback","Valence","VC",1739208785974,"positive",2145,"positive","negative","positive;negative","A",7.67089483136212,7
"368","61075a765969d97b256603b7","free","calibrator_val_feedback","Valence","VC",1739208790184,"positive",1451,"positive","negative","positive;negative","A",7.28000825288419,8
"369","61075a765969d97b256603b7","kitten","calibrator_val_feedback","Valence","VC",1739208795747,"negative",1218,"positive","negative","positive;negative","A",7.10496544826984,9
"370","61075a765969d97b256603b7","jail","calibrator_val_feedback","Valence","VC",1739208798364,"negative",1443,"positive","negative","positive;negative","A",7.27447955877387,10
"371","61075a765969d97b256603b7","icebox","calibrator_val_no_feedback","Valence","VC",1739208802378,"positive",1259,"A","positive;negative","","",7.13807303404435,11
"372","61075a765969d97b256603b7","industry","calibrator_val_no_feedback","Valence","VC",1739208804671,"positive",1535,"A","positive;negative","","",7.3362856600213,12
"373","61075a765969d97b256603b7","free","calibrator_val_no_feedback","Valence","VC",1739208806349,"positive",924,"A","positive;negative","","",6.82871207164168,13
"374","61075a765969d97b256603b7","grin","calibrator_val_no_feedback","Valence","VC",1739208808449,"negative",1345,"A","positive;negative","","",7.20414929203594,14
"375","61075a765969d97b256603b7","insecure","calibrator_val_no_feedback","Valence","VC",1739208810490,"negative",1287,"A","positive;negative","","",7.16006920759613,15
"376","61075a765969d97b256603b7","kitten","calibrator_val_no_feedback","Valence","VC",1739208812245,"negative",1000,"A","positive;negative","","",6.90775527898214,16
"377","61075a765969d97b256603b7","jail","calibrator_val_no_feedback","Valence","VC",1739208813928,"negative",928,"A","positive;negative","","",6.8330317327862,17
"378","61075a765969d97b256603b7","hat","calibrator_val_no_feedback","Valence","VC",1739208815886,"positive",1199,"A","positive;negative","","",7.08924315502751,18
"379","61075a765969d97b256603b7","joke","calibrator_val_no_feedback","Valence","VC",1739208817613,"positive",970,"A","positive;negative","","",6.87729607149743,19
"380","61075a765969d97b256603b7","invader","calibrator_val_no_feedback","Valence","VC",1739208819562,"negative",1191,"A","positive;negative","","",7.0825485693553,20
"381","61075a765969d97b256603b7","insecure","calibrator_conc_feedback","Concrete","VC",1739209092052,"abstract",1315,"concrete","abstract","concrete;abstract","A",7.18159194461187,21
"382","61075a765969d97b256603b7","polite","calibrator_conc_feedback","Concrete","VC",1739209097641,"concrete",2827,"concrete","abstract","concrete;abstract","A",7.94697135769359,22
"383","61075a765969d97b256603b7","shirt","calibrator_conc_feedback","Concrete","VC",1739209102740,"concrete",2347,"concrete","abstract","concrete;abstract","A",7.76089319585102,23
"384","61075a765969d97b256603b7","theory","calibrator_conc_feedback","Concrete","VC",1739209106828,"concrete",1332,"concrete","abstract","concrete;abstract","A",7.19443685110033,24
"385","61075a765969d97b256603b7","whistle","calibrator_conc_feedback","Concrete","VC",1739209111060,"abstract",91,"concrete","abstract","concrete;abstract","A",4.51085950651685,25
"386","61075a765969d97b256603b7","kick","calibrator_conc_feedback","Concrete","VC",1739209115249,"abstract",2814,"concrete","abstract","concrete;abstract","A",7.94236223767433,26
"387","61075a765969d97b256603b7","marriage","calibrator_conc_feedback","Concrete","VC",1739209119061,"concrete",1059,"concrete","abstract","concrete;abstract","A",6.96508034560141,27
"388","61075a765969d97b256603b7","gas","calibrator_conc_feedback","Concrete","VC",1739209123243,"concrete",1426,"concrete","abstract","concrete;abstract","A",7.26262860097424,28
"389","61075a765969d97b256603b7","sugar","calibrator_conc_feedback","Concrete","VC",1739209127174,"concrete",1177,"concrete","abstract","concrete;abstract","A",7.07072410726028,29
"390","61075a765969d97b256603b7","grasshopper","calibrator_conc_feedback","Concrete","VC",1739209131374,"concrete",1446,"concrete","abstract","concrete;abstract","A",7.27655640271871,30
"391","61075a765969d97b256603b7","kick","calibrator_conc_no_feedback","Concrete","VC",1739209135596,"abstract",1459,"A","concrete;abstract","","",7.28550654852279,31
"392","61075a765969d97b256603b7","whistle","calibrator_conc_no_feedback","Concrete","VC",1739209137519,"concrete",1167,"A","concrete;abstract","","",7.06219163228656,32
"393","61075a765969d97b256603b7","shirt","calibrator_conc_no_feedback","Concrete","VC",1739209139329,"concrete",1055,"A","concrete;abstract","","",6.96129604591017,33
"394","61075a765969d97b256603b7","insecure","calibrator_conc_no_feedback","Concrete","VC",1739209141133,"abstract",1052,"A","concrete;abstract","","",6.95844839329766,34
"395","61075a765969d97b256603b7","polite","calibrator_conc_no_feedback","Concrete","VC",1739209143417,"concrete",1527,"A","concrete;abstract","","",7.33106030521863,35
"396","61075a765969d97b256603b7","grasshopper","calibrator_conc_no_feedback","Concrete","VC",1739209145464,"abstract",1291,"A","concrete;abstract","","",7.16317239084664,36
"397","61075a765969d97b256603b7","marriage","calibrator_conc_no_feedback","Concrete","VC",1739209147221,"concrete",1001,"A","concrete;abstract","","",6.90875477931522,37
"398","61075a765969d97b256603b7","theory","calibrator_conc_no_feedback","Concrete","VC",1739209149499,"concrete",1522,"A","concrete;abstract","","",7.32778053842163,38
"399","61075a765969d97b256603b7","gas","calibrator_conc_no_feedback","Concrete","VC",1739209152264,"concrete",2010,"A","concrete;abstract","","",7.60589000105312,39
"400","61075a765969d97b256603b7","sugar","calibrator_conc_no_feedback","Concrete","VC",1739209154180,"concrete",1161,"A","concrete;abstract","","",7.05703698169789,40
"401","6304b7a752adde130e57bddf","icebox","calibrator_val_feedback","Valence","VC",1739217293576,"positive",1331,"negative","positive","negative;positive","B",7.19368581839511,1
"402","6304b7a752adde130e57bddf","grin","calibrator_val_feedback","Valence","VC",1739217295625,"positive",884,"negative","positive","negative;positive","B",6.78445706263764,2
"403","6304b7a752adde130e57bddf","hat","calibrator_val_feedback","Valence","VC",1739217299804,"positive",1409,"negative","positive","negative;positive","B",7.25063551189868,3
"404","6304b7a752adde130e57bddf","joke","calibrator_val_feedback","Valence","VC",1739217303882,"positive",1299,"negative","positive","negative;positive","B",7.1693500166706,4
"405","6304b7a752adde130e57bddf","invader","calibrator_val_feedback","Valence","VC",1739217307897,"negative",1245,"negative","positive","negative;positive","B",7.12689080889881,5
"406","6304b7a752adde130e57bddf","insecure","calibrator_val_feedback","Valence","VC",1739217311850,"negative",1174,"negative","positive","negative;positive","B",7.06817200038804,6
"407","6304b7a752adde130e57bddf","jail","calibrator_val_feedback","Valence","VC",1739217316052,"negative",1158,"negative","positive","negative;positive","B",7.05444965813294,7
"408","6304b7a752adde130e57bddf","industry","calibrator_val_feedback","Valence","VC",1739217320270,"positive",1708,"negative","positive","negative;positive","B",7.44307837434852,8
"409","6304b7a752adde130e57bddf","kitten","calibrator_val_feedback","Valence","VC",1739217324072,"positive",1026,"negative","positive","negative;positive","B",6.93342302573071,9
"410","6304b7a752adde130e57bddf","free","calibrator_val_feedback","Valence","VC",1739217327765,"positive",912,"negative","positive","negative;positive","B",6.81563999007433,10
"411","6304b7a752adde130e57bddf","joke","calibrator_val_no_feedback","Valence","VC",1739217331720,"positive",1177,"B","negative;positive","","",7.07072410726028,11
"412","6304b7a752adde130e57bddf","industry","calibrator_val_no_feedback","Valence","VC",1739217333376,"positive",890,"B","negative;positive","","",6.79122146272619,12
"413","6304b7a752adde130e57bddf","free","calibrator_val_no_feedback","Valence","VC",1739217334742,"positive",598,"B","negative;positive","","",6.39359075395063,13
"414","6304b7a752adde130e57bddf","jail","calibrator_val_no_feedback","Valence","VC",1739217336159,"negative",647,"B","negative;positive","","",6.4723462945009,14
"415","6304b7a752adde130e57bddf","hat","calibrator_val_no_feedback","Valence","VC",1739217337519,"positive",588,"B","negative;positive","","",6.37672694789863,15
"416","6304b7a752adde130e57bddf","invader","calibrator_val_no_feedback","Valence","VC",1739217338833,"negative",543,"B","negative;positive","","",6.29710931993394,16
"417","6304b7a752adde130e57bddf","icebox","calibrator_val_no_feedback","Valence","VC",1739217340186,"positive",591,"B","negative;positive","","",6.3818160174061,17
"418","6304b7a752adde130e57bddf","grin","calibrator_val_no_feedback","Valence","VC",1739217341455,"positive",504,"B","negative;positive","","",6.22257626807137,18
"419","6304b7a752adde130e57bddf","kitten","calibrator_val_no_feedback","Valence","VC",1739217342645,"positive",426,"B","negative;positive","","",6.05443934626937,19
"420","6304b7a752adde130e57bddf","insecure","calibrator_val_no_feedback","Valence","VC",1739217343935,"negative",527,"B","negative;positive","","",6.26720054854136,20
"421","6304b7a752adde130e57bddf","polite","calibrator_conc_feedback","Concrete","VC",1739217531642,"abstract",1221,"abstract","concrete","abstract;concrete","B",7.1074254741107,21
"422","6304b7a752adde130e57bddf","theory","calibrator_conc_feedback","Concrete","VC",1739217534343,"abstract",1122,"abstract","concrete","abstract;concrete","B",7.02286808608264,22
"423","6304b7a752adde130e57bddf","sugar","calibrator_conc_feedback","Concrete","VC",1739217538155,"concrete",1034,"abstract","concrete","abstract;concrete","B",6.94119005506837,23
"424","6304b7a752adde130e57bddf","grasshopper","calibrator_conc_feedback","Concrete","VC",1739217542705,"concrete",1778,"abstract","concrete","abstract;concrete","B",7.48324441607385,24
"425","6304b7a752adde130e57bddf","marriage","calibrator_conc_feedback","Concrete","VC",1739217547962,"concrete",2490,"abstract","concrete","abstract;concrete","B",7.82003798945875,25
"426","6304b7a752adde130e57bddf","kick","calibrator_conc_feedback","Concrete","VC",1739217551921,"concrete",1177,"abstract","concrete","abstract;concrete","B",7.07072410726028,26
"427","6304b7a752adde130e57bddf","gas","calibrator_conc_feedback","Concrete","VC",1739217555826,"concrete",1133,"abstract","concrete","abstract;concrete","B",7.03262426102801,27
"428","6304b7a752adde130e57bddf","whistle","calibrator_conc_feedback","Concrete","VC",1739217559790,"concrete",1196,"abstract","concrete","abstract;concrete","B",7.08673793451058,28
"429","6304b7a752adde130e57bddf","shirt","calibrator_conc_feedback","Concrete","VC",1739217563426,"concrete",866,"abstract","concrete","abstract;concrete","B",6.76388490856244,29
"430","6304b7a752adde130e57bddf","insecure","calibrator_conc_feedback","Concrete","VC",1739217567455,"abstract",1250,"abstract","concrete","abstract;concrete","B",7.13089883029635,30
"431","6304b7a752adde130e57bddf","kick","calibrator_conc_no_feedback","Concrete","VC",1739217570954,"concrete",728,"B","abstract;concrete","","",6.59030104819669,31
"432","6304b7a752adde130e57bddf","polite","calibrator_conc_no_feedback","Concrete","VC",1739217572848,"abstract",1125,"B","abstract;concrete","","",7.02553831463852,32
"433","6304b7a752adde130e57bddf","whistle","calibrator_conc_no_feedback","Concrete","VC",1739217574451,"concrete",833,"B","abstract;concrete","","",6.72503364216684,33
"434","6304b7a752adde130e57bddf","sugar","calibrator_conc_no_feedback","Concrete","VC",1739217575708,"concrete",490,"B","abstract;concrete","","",6.19440539110467,34
"435","6304b7a752adde130e57bddf","shirt","calibrator_conc_no_feedback","Concrete","VC",1739217576974,"concrete",496,"B","abstract;concrete","","",6.20657592672493,35
"436","6304b7a752adde130e57bddf","grasshopper","calibrator_conc_no_feedback","Concrete","VC",1739217578348,"concrete",606,"B","abstract;concrete","","",6.40687998606931,36
"437","6304b7a752adde130e57bddf","marriage","calibrator_conc_no_feedback","Concrete","VC",1739217580142,"concrete",1034,"B","abstract;concrete","","",6.94119005506837,37
"438","6304b7a752adde130e57bddf","insecure","calibrator_conc_no_feedback","Concrete","VC",1739217581573,"abstract",664,"B","abstract;concrete","","",6.49828214947643,38
"439","6304b7a752adde130e57bddf","theory","calibrator_conc_no_feedback","Concrete","VC",1739217583064,"abstract",730,"B","abstract;concrete","","",6.59304453414244,39
"440","6304b7a752adde130e57bddf","gas","calibrator_conc_no_feedback","Concrete","VC",1739217584614,"concrete",780,"B","abstract;concrete","","",6.65929391968364,40
"441","629aaa38fdfc8168501b930e","insecure","calibrator_val_feedback","Valence","VC",1739216059761,"negative",2288,"negative","positive","negative;positive","B",7.73543335249969,1
"442","629aaa38fdfc8168501b930e","invader","calibrator_val_feedback","Valence","VC",1739216063442,"negative",916,"negative","positive","negative;positive","B",6.82001636467413,2
"443","629aaa38fdfc8168501b930e","grin","calibrator_val_feedback","Valence","VC",1739216067417,"positive",1210,"negative","positive","negative;positive","B",7.09837563859079,3
"444","629aaa38fdfc8168501b930e","joke","calibrator_val_feedback","Valence","VC",1739216070884,"positive",702,"negative","positive","negative;positive","B",6.55393340402581,4
"445","629aaa38fdfc8168501b930e","hat","calibrator_val_feedback","Valence","VC",1739216075232,"positive",1585,"negative","positive","negative;positive","B",7.36833968631138,5
"446","629aaa38fdfc8168501b930e","kitten","calibrator_val_feedback","Valence","VC",1739216078765,"positive",772,"negative","positive","negative;positive","B",6.64898455002478,6
"447","629aaa38fdfc8168501b930e","industry","calibrator_val_feedback","Valence","VC",1739216082673,"negative",1147,"negative","positive","negative;positive","B",7.04490511712937,7
"448","629aaa38fdfc8168501b930e","free","calibrator_val_feedback","Valence","VC",1739216086332,"positive",893,"negative","positive","negative;positive","B",6.7945865808765,8
"449","629aaa38fdfc8168501b930e","icebox","calibrator_val_feedback","Valence","VC",1739216089866,"positive",776,"negative","positive","negative;positive","B",6.65415252018322,9
"450","629aaa38fdfc8168501b930e","jail","calibrator_val_feedback","Valence","VC",1739216093473,"negative",845,"negative","positive","negative;positive","B",6.73933662735717,10
"451","629aaa38fdfc8168501b930e","industry","calibrator_val_no_feedback","Valence","VC",1739216098093,"negative",1855,"B","negative;positive","","",7.52563997504154,11
"452","629aaa38fdfc8168501b930e","joke","calibrator_val_no_feedback","Valence","VC",1739216101754,"positive",2899,"B","negative;positive","","",7.97212112892166,12
"453","629aaa38fdfc8168501b930e","hat","calibrator_val_no_feedback","Valence","VC",1739216103358,"positive",848,"B","negative;positive","","",6.7428806357919,13
"454","629aaa38fdfc8168501b930e","kitten","calibrator_val_no_feedback","Valence","VC",1739216104843,"positive",727,"B","negative;positive","","",6.58892647753352,14
"455","629aaa38fdfc8168501b930e","icebox","calibrator_val_no_feedback","Valence","VC",1739216106261,"positive",661,"B","negative;positive","","",6.49375383985169,15
"456","629aaa38fdfc8168501b930e","insecure","calibrator_val_no_feedback","Valence","VC",1739216107978,"negative",960,"B","negative;positive","","",6.86693328446188,16
"457","629aaa38fdfc8168501b930e","jail","calibrator_val_no_feedback","Valence","VC",1739216109576,"positive",841,"B","negative;positive","","",6.73459165997295,17
"458","629aaa38fdfc8168501b930e","grin","calibrator_val_no_feedback","Valence","VC",1739216112614,"positive",2282,"B","negative;positive","","",7.73280753042202,18
"459","629aaa38fdfc8168501b930e","invader","calibrator_val_no_feedback","Valence","VC",1739216114084,"negative",708,"B","negative;positive","","",6.56244409369372,19
"460","629aaa38fdfc8168501b930e","free","calibrator_val_no_feedback","Valence","VC",1739216116627,"positive",1784,"B","negative;positive","","",7.48661331313996,20
"461","629aaa38fdfc8168501b930e","marriage","calibrator_conc_feedback","Concrete","VC",1739216506203,"concrete",1288,"abstract","concrete","abstract;concrete","B",7.1608459066643,21
"462","629aaa38fdfc8168501b930e","insecure","calibrator_conc_feedback","Concrete","VC",1739216510042,"abstract",1075,"abstract","concrete","abstract;concrete","B",6.98007594056176,22
"463","629aaa38fdfc8168501b930e","sugar","calibrator_conc_feedback","Concrete","VC",1739216513583,"concrete",779,"abstract","concrete","abstract;concrete","B",6.65801104587075,23
"464","629aaa38fdfc8168501b930e","gas","calibrator_conc_feedback","Concrete","VC",1739216517768,"concrete",1421,"abstract","concrete","abstract;concrete","B",7.2591161280971,24
"465","629aaa38fdfc8168501b930e","shirt","calibrator_conc_feedback","Concrete","VC",1739216521242,"concrete",715,"abstract","concrete","abstract;concrete","B",6.57228254269401,25
"466","629aaa38fdfc8168501b930e","polite","calibrator_conc_feedback","Concrete","VC",1739216526694,"abstract",2687,"abstract","concrete","abstract;concrete","B",7.89618060861549,26
"467","629aaa38fdfc8168501b930e","grasshopper","calibrator_conc_feedback","Concrete","VC",1739216530218,"concrete",764,"abstract","concrete","abstract;concrete","B",6.63856778916652,27
"468","629aaa38fdfc8168501b930e","theory","calibrator_conc_feedback","Concrete","VC",1739216533639,"abstract",657,"abstract","concrete","abstract;concrete","B",6.48768401848461,28
"469","629aaa38fdfc8168501b930e","whistle","calibrator_conc_feedback","Concrete","VC",1739216537337,"concrete",937,"abstract","concrete","abstract;concrete","B",6.84268328223842,29
"470","629aaa38fdfc8168501b930e","kick","calibrator_conc_feedback","Concrete","VC",1739216540824,"concrete",724,"abstract","concrete","abstract;concrete","B",6.58479139238572,30
"471","629aaa38fdfc8168501b930e","shirt","calibrator_conc_no_feedback","Concrete","VC",1739216544521,"concrete",936,"B","abstract;concrete","","",6.84161547647759,31
"472","629aaa38fdfc8168501b930e","theory","calibrator_conc_no_feedback","Concrete","VC",1739216546074,"abstract",792,"B","abstract;concrete","","",6.67456139181443,32
"473","629aaa38fdfc8168501b930e","sugar","calibrator_conc_no_feedback","Concrete","VC",1739216547777,"concrete",942,"B","abstract;concrete","","",6.84800527457636,33
"474","629aaa38fdfc8168501b930e","whistle","calibrator_conc_no_feedback","Concrete","VC",1739216549232,"concrete",692,"B","abstract;concrete","","",6.53958595561767,34
"475","629aaa38fdfc8168501b930e","grasshopper","calibrator_conc_no_feedback","Concrete","VC",1739216550807,"concrete",820,"B","abstract;concrete","","",6.7093043402583,35
"476","629aaa38fdfc8168501b930e","polite","calibrator_conc_no_feedback","Concrete","VC",1739216552704,"abstract",1140,"B","abstract;concrete","","",7.03878354138854,36
"477","629aaa38fdfc8168501b930e","kick","calibrator_conc_no_feedback","Concrete","VC",1739216555749,"concrete",2285,"B","abstract;concrete","","",7.7341213033283,37
"478","629aaa38fdfc8168501b930e","marriage","calibrator_conc_no_feedback","Concrete","VC",1739216557992,"concrete",1486,"B","abstract;concrete","","",7.3038432252777,38
"479","629aaa38fdfc8168501b930e","gas","calibrator_conc_no_feedback","Concrete","VC",1739216559559,"concrete",807,"B","abstract;concrete","","",6.69332366826995,39
"480","629aaa38fdfc8168501b930e","insecure","calibrator_conc_no_feedback","Concrete","VC",1739216561494,"abstract",1173,"B","abstract;concrete","","",7.06731984865348,40
"481","6266aa7132e3a5bf1631ac1b","joke","calibrator_val_feedback","Valence","VC",1739213979347,"positive",3188,"negative","positive","negative;positive","B",8.06714903991011,1
"482","6266aa7132e3a5bf1631ac1b","insecure","calibrator_val_feedback","Valence","VC",1739213985134,"negative",3021,"negative","positive","negative;positive","B",8.01334318138667,2
"483","6266aa7132e3a5bf1631ac1b","grin","calibrator_val_feedback","Valence","VC",1739213990078,"positive",2182,"negative","positive","negative;positive","B",7.68799716639302,3
"484","6266aa7132e3a5bf1631ac1b","free","calibrator_val_feedback","Valence","VC",1739213994935,"positive",2097,"negative","positive","negative;positive","B",7.64826303090192,4
"485","6266aa7132e3a5bf1631ac1b","hat","calibrator_val_feedback","Valence","VC",1739213999503,"positive",1809,"negative","positive","negative;positive","B",7.50052948539529,5
"486","6266aa7132e3a5bf1631ac1b","jail","calibrator_val_feedback","Valence","VC",1739214003547,"negative",1282,"negative","positive","negative;positive","B",7.15617663748062,6
"487","6266aa7132e3a5bf1631ac1b","industry","calibrator_val_feedback","Valence","VC",1739214010511,"negative",4196,"negative","positive","negative;positive","B",8.34188696951619,7
"488","6266aa7132e3a5bf1631ac1b","kitten","calibrator_val_feedback","Valence","VC",1739214014774,"positive",1501,"negative","positive","negative;positive","B",7.31388683163346,8
"489","6266aa7132e3a5bf1631ac1b","icebox","calibrator_val_feedback","Valence","VC",1739214019261,"positive",1723,"negative","positive","negative;positive","B",7.45182223652793,9
"490","6266aa7132e3a5bf1631ac1b","invader","calibrator_val_feedback","Valence","VC",1739214026457,"negative",4434,"negative","positive","negative;positive","B",8.39705739017626,10
"491","6266aa7132e3a5bf1631ac1b","joke","calibrator_val_no_feedback","Valence","VC",1739214030835,"positive",1613,"B","negative;positive","","",7.38585107812521,11
"492","6266aa7132e3a5bf1631ac1b","industry","calibrator_val_no_feedback","Valence","VC",1739214033639,"negative",2048,"B","negative;positive","","",7.6246189861594,12
"493","6266aa7132e3a5bf1631ac1b","insecure","calibrator_val_no_feedback","Valence","VC",1739214035996,"negative",1598,"B","negative;positive","","",7.37650812632622,13
"494","6266aa7132e3a5bf1631ac1b","kitten","calibrator_val_no_feedback","Valence","VC",1739214038000,"positive",1244,"B","negative;positive","","",7.12608727329912,14
"495","6266aa7132e3a5bf1631ac1b","jail","calibrator_val_no_feedback","Valence","VC",1739214039852,"negative",1089,"B","negative;positive","","",6.99301512293296,15
"496","6266aa7132e3a5bf1631ac1b","icebox","calibrator_val_no_feedback","Valence","VC",1739214041884,"positive",1270,"B","negative;positive","","",7.14677217945264,16
"497","6266aa7132e3a5bf1631ac1b","hat","calibrator_val_no_feedback","Valence","VC",1739214043489,"positive",844,"B","negative;positive","","",6.73815249459596,17
"498","6266aa7132e3a5bf1631ac1b","invader","calibrator_val_no_feedback","Valence","VC",1739214045392,"negative",1144,"B","negative;positive","","",7.04228617193974,18
"499","6266aa7132e3a5bf1631ac1b","grin","calibrator_val_no_feedback","Valence","VC",1739214047033,"positive",881,"B","negative;positive","","",6.78105762593618,19
"500","6266aa7132e3a5bf1631ac1b","free","calibrator_val_no_feedback","Valence","VC",1739214049367,"positive",1575,"B","negative;positive","","",7.36201055125973,20
"501","6266aa7132e3a5bf1631ac1b","shirt","calibrator_conc_feedback","Concrete","VC",1739214298541,"concrete",2205,"abstract","concrete","abstract;concrete","B",7.69848278788095,21
"502","6266aa7132e3a5bf1631ac1b","insecure","calibrator_conc_feedback","Concrete","VC",1739214303982,"abstract",2684,"abstract","concrete","abstract;concrete","B",7.89506349809157,22
"503","6266aa7132e3a5bf1631ac1b","sugar","calibrator_conc_feedback","Concrete","VC",1739214308253,"concrete",1506,"abstract","concrete","abstract;concrete","B",7.31721240835984,23
"504","6266aa7132e3a5bf1631ac1b","polite","calibrator_conc_feedback","Concrete","VC",1739214313140,"abstract",2128,"abstract","concrete","abstract;concrete","B",7.66293785046154,24
"505","6266aa7132e3a5bf1631ac1b","grasshopper","calibrator_conc_feedback","Concrete","VC",1739214317581,"concrete",1678,"abstract","concrete","abstract;concrete","B",7.42535788702715,25
"506","6266aa7132e3a5bf1631ac1b","gas","calibrator_conc_feedback","Concrete","VC",1739214322495,"concrete",2151,"abstract","concrete","abstract;concrete","B",7.67368812926773,26
"507","6266aa7132e3a5bf1631ac1b","marriage","calibrator_conc_feedback","Concrete","VC",1739214327214,"concrete",1955,"abstract","concrete","abstract;concrete","B",7.57814547241947,27
"508","6266aa7132e3a5bf1631ac1b","whistle","calibrator_conc_feedback","Concrete","VC",1739214331674,"concrete",1695,"abstract","concrete","abstract;concrete","B",7.43543801981455,28
"509","6266aa7132e3a5bf1631ac1b","kick","calibrator_conc_feedback","Concrete","VC",1739214336059,"concrete",1624,"abstract","concrete","abstract;concrete","B",7.39264752072162,29
"510","6266aa7132e3a5bf1631ac1b","theory","calibrator_conc_feedback","Concrete","VC",1739214339823,"concrete",1000,"abstract","concrete","abstract;concrete","B",6.90775527898214,30
"511","6266aa7132e3a5bf1631ac1b","theory","calibrator_conc_no_feedback","Concrete","VC",1739214343760,"abstract",1174,"B","abstract;concrete","","",7.06817200038804,31
"512","6266aa7132e3a5bf1631ac1b","grasshopper","calibrator_conc_no_feedback","Concrete","VC",1739214345757,"concrete",1239,"B","abstract;concrete","","",7.12205988162914,32
"513","6266aa7132e3a5bf1631ac1b","whistle","calibrator_conc_no_feedback","Concrete","VC",1739214347924,"concrete",1406,"B","abstract;concrete","","",7.24850407237061,33
"514","6266aa7132e3a5bf1631ac1b","polite","calibrator_conc_no_feedback","Concrete","VC",1739214350389,"abstract",1708,"B","abstract;concrete","","",7.44307837434852,34
"515","6266aa7132e3a5bf1631ac1b","kick","calibrator_conc_no_feedback","Concrete","VC",1739214352506,"concrete",1358,"B","abstract;concrete","","",7.21376830811864,35
"516","6266aa7132e3a5bf1631ac1b","shirt","calibrator_conc_no_feedback","Concrete","VC",1739214354200,"concrete",938,"B","abstract;concrete","","",6.84374994900622,36
"517","6266aa7132e3a5bf1631ac1b","sugar","calibrator_conc_no_feedback","Concrete","VC",1739214356147,"concrete",1188,"B","abstract;concrete","","",7.08002649992259,37
"518","6266aa7132e3a5bf1631ac1b","insecure","calibrator_conc_no_feedback","Concrete","VC",1739214358207,"abstract",1302,"B","abstract;concrete","","",7.17165682276851,38
"519","6266aa7132e3a5bf1631ac1b","gas","calibrator_conc_no_feedback","Concrete","VC",1739214359779,"concrete",816,"B","abstract;concrete","","",6.70441435496411,39
"520","6266aa7132e3a5bf1631ac1b","marriage","calibrator_conc_no_feedback","Concrete","VC",1739214361724,"concrete",1188,"B","abstract;concrete","","",7.08002649992259,40
"521","5fb3cbedb3cc10000a19c09d","grasshopper","calibrator_conc_feedback","Concrete","CV",1739195209088,"concrete",2366,"concrete","abstract","concrete;abstract","A",7.76895604453833,1
"522","5fb3cbedb3cc10000a19c09d","gas","calibrator_conc_feedback","Concrete","CV",1739195213440,"concrete",1587,"concrete","abstract","concrete;abstract","A",7.36960072052641,2
"523","5fb3cbedb3cc10000a19c09d","shirt","calibrator_conc_feedback","Concrete","CV",1739195216936,"concrete",736,"concrete","abstract","concrete;abstract","A",6.60123011872888,3
"524","5fb3cbedb3cc10000a19c09d","whistle","calibrator_conc_feedback","Concrete","CV",1739195220544,"concrete",845,"concrete","abstract","concrete;abstract","A",6.73933662735717,4
"525","5fb3cbedb3cc10000a19c09d","sugar","calibrator_conc_feedback","Concrete","CV",1739195224001,"concrete",698,"concrete","abstract","concrete;abstract","A",6.54821910276237,5
"526","5fb3cbedb3cc10000a19c09d","polite","calibrator_conc_feedback","Concrete","CV",1739195227472,"abstract",709,"concrete","abstract","concrete;abstract","A",6.56385552653213,6
"527","5fb3cbedb3cc10000a19c09d","theory","calibrator_conc_feedback","Concrete","CV",1739195230953,"abstract",721,"concrete","abstract","concrete;abstract","A",6.58063913728495,7
"528","5fb3cbedb3cc10000a19c09d","marriage","calibrator_conc_feedback","Concrete","CV",1739195234881,"abstract",1160,"concrete","abstract","concrete;abstract","A",7.05617528410041,8
"529","5fb3cbedb3cc10000a19c09d","kick","calibrator_conc_feedback","Concrete","CV",1739195239472,"concrete",1830,"concrete","abstract","concrete;abstract","A",7.51207124583547,9
"530","5fb3cbedb3cc10000a19c09d","insecure","calibrator_conc_feedback","Concrete","CV",1739195242911,"abstract",684,"concrete","abstract","concrete;abstract","A",6.52795791762255,10
"531","5fb3cbedb3cc10000a19c09d","insecure","calibrator_conc_no_feedback","Concrete","CV",1739195246304,"abstract",633,"A","concrete;abstract","","",6.45047042214418,11
"532","5fb3cbedb3cc10000a19c09d","theory","calibrator_conc_no_feedback","Concrete","CV",1739195247848,"abstract",785,"A","concrete;abstract","","",6.66568371778241,12
"533","5fb3cbedb3cc10000a19c09d","kick","calibrator_conc_no_feedback","Concrete","CV",1739195250497,"concrete",1894,"A","concrete;abstract","","",7.54644627374602,13
"534","5fb3cbedb3cc10000a19c09d","polite","calibrator_conc_no_feedback","Concrete","CV",1739195252216,"abstract",960,"A","concrete;abstract","","",6.86693328446188,14
"535","5fb3cbedb3cc10000a19c09d","gas","calibrator_conc_no_feedback","Concrete","CV",1739195253640,"concrete",669,"A","concrete;abstract","","",6.50578406012823,15
"536","5fb3cbedb3cc10000a19c09d","sugar","calibrator_conc_no_feedback","Concrete","CV",1739195255032,"concrete",633,"A","concrete;abstract","","",6.45047042214418,16
"537","5fb3cbedb3cc10000a19c09d","shirt","calibrator_conc_no_feedback","Concrete","CV",1739195256417,"concrete",628,"A","concrete;abstract","","",6.4425401664682,17
"538","5fb3cbedb3cc10000a19c09d","whistle","calibrator_conc_no_feedback","Concrete","CV",1739195257856,"concrete",680,"A","concrete;abstract","","",6.52209279817015,18
"539","5fb3cbedb3cc10000a19c09d","marriage","calibrator_conc_no_feedback","Concrete","CV",1739195259440,"abstract",833,"A","concrete;abstract","","",6.72503364216684,19
"540","5fb3cbedb3cc10000a19c09d","grasshopper","calibrator_conc_no_feedback","Concrete","CV",1739195260920,"concrete",721,"A","concrete;abstract","","",6.58063913728495,20
"541","5fb3cbedb3cc10000a19c09d","kitten","calibrator_val_feedback","Valence","CV",1739195473120,"positive",790,"positive","negative","positive;negative","A",6.67203294546107,21
"542","5fb3cbedb3cc10000a19c09d","grin","calibrator_val_feedback","Valence","CV",1739195476600,"positive",721,"positive","negative","positive;negative","A",6.58063913728495,22
"543","5fb3cbedb3cc10000a19c09d","insecure","calibrator_val_feedback","Valence","CV",1739195479977,"negative",618,"positive","negative","positive;negative","A",6.42648845745769,23
"544","5fb3cbedb3cc10000a19c09d","invader","calibrator_val_feedback","Valence","CV",1739195483375,"negative",642,"positive","negative","positive;negative","A",6.46458830368996,24
"545","5fb3cbedb3cc10000a19c09d","joke","calibrator_val_feedback","Valence","CV",1739195487208,"positive",1075,"positive","negative","positive;negative","A",6.98007594056176,25
"546","5fb3cbedb3cc10000a19c09d","icebox","calibrator_val_feedback","Valence","CV",1739195490952,"positive",983,"positive","negative","positive;negative","A",6.89060912014717,26
"547","5fb3cbedb3cc10000a19c09d","hat","calibrator_val_feedback","Valence","CV",1739195494520,"positive",805,"positive","negative","positive;negative","A",6.69084227741856,27
"548","5fb3cbedb3cc10000a19c09d","jail","calibrator_val_feedback","Valence","CV",1739195498320,"negative",1038,"positive","negative","positive;negative","A",6.94505106372583,28
"549","5fb3cbedb3cc10000a19c09d","industry","calibrator_val_feedback","Valence","CV",1739195502112,"positive",1033,"positive","negative","positive;negative","A",6.94022246911964,29
"550","5fb3cbedb3cc10000a19c09d","free","calibrator_val_feedback","Valence","CV",1739195505793,"positive",920,"positive","negative","positive;negative","A",6.82437367004309,30
"551","5fb3cbedb3cc10000a19c09d","industry","calibrator_val_no_feedback","Valence","CV",1739195509704,"positive",1149,"A","positive;negative","","",7.04664727784876,31
"552","5fb3cbedb3cc10000a19c09d","free","calibrator_val_no_feedback","Valence","CV",1739195511624,"positive",1164,"A","positive;negative","","",7.05961762829138,32
"553","5fb3cbedb3cc10000a19c09d","jail","calibrator_val_no_feedback","Valence","CV",1739195513207,"negative",826,"A","positive;negative","","",6.71659477352098,33
"554","5fb3cbedb3cc10000a19c09d","joke","calibrator_val_no_feedback","Valence","CV",1739195514815,"positive",854,"A","positive;negative","","",6.74993119378857,34
"555","5fb3cbedb3cc10000a19c09d","invader","calibrator_val_no_feedback","Valence","CV",1739195516432,"negative",860,"A","positive;negative","","",6.75693238924755,35
"556","5fb3cbedb3cc10000a19c09d","kitten","calibrator_val_no_feedback","Valence","CV",1739195517928,"positive",736,"A","positive;negative","","",6.60123011872888,36
"557","5fb3cbedb3cc10000a19c09d","hat","calibrator_val_no_feedback","Valence","CV",1739195519480,"positive",796,"A","positive;negative","","",6.67959918584438,37
"558","5fb3cbedb3cc10000a19c09d","icebox","calibrator_val_no_feedback","Valence","CV",1739195521433,"positive",1195,"A","positive;negative","","",7.08590146436561,38
"559","5fb3cbedb3cc10000a19c09d","insecure","calibrator_val_no_feedback","Valence","CV",1739195523120,"negative",935,"A","positive;negative","","",6.84054652928869,39
"560","5fb3cbedb3cc10000a19c09d","grin","calibrator_val_no_feedback","Valence","CV",1739195524488,"positive",616,"A","positive;negative","","",6.42324696353352,40
"561","62728884995a1a76605d0214","marriage","calibrator_conc_feedback","Concrete","CV",1739195917713,"concrete",1371,"concrete","abstract","concrete;abstract","A",7.22329567956231,1
"562","62728884995a1a76605d0214","kick","calibrator_conc_feedback","Concrete","CV",1739195921853,"abstract",1371,"concrete","abstract","concrete;abstract","A",7.22329567956231,2
"563","62728884995a1a76605d0214","gas","calibrator_conc_feedback","Concrete","CV",1739195925686,"concrete",1063,"concrete","abstract","concrete;abstract","A",6.96885037834195,3
"564","62728884995a1a76605d0214","theory","calibrator_conc_feedback","Concrete","CV",1739195930174,"concrete",530,"concrete","abstract","concrete;abstract","A",6.27287700654617,4
"565","62728884995a1a76605d0214","shirt","calibrator_conc_feedback","Concrete","CV",1739195932526,"abstract",779,"concrete","abstract","concrete;abstract","A",6.65801104587075,5
"566","62728884995a1a76605d0214","polite","calibrator_conc_feedback","Concrete","CV",1739195937046,"concrete",1753,"concrete","abstract","concrete;abstract","A",7.46908388492123,6
"567","62728884995a1a76605d0214","sugar","calibrator_conc_feedback","Concrete","CV",1739195941215,"abstract",1402,"concrete","abstract","concrete;abstract","A",7.24565506759454,7
"568","62728884995a1a76605d0214","whistle","calibrator_conc_feedback","Concrete","CV",1739195946046,"concrete",2063,"concrete","abstract","concrete;abstract","A",7.63191651307125,8
"569","62728884995a1a76605d0214","grasshopper","calibrator_conc_feedback","Concrete","CV",1739195949845,"abstract",1033,"concrete","abstract","concrete;abstract","A",6.94022246911964,9
"570","62728884995a1a76605d0214","insecure","calibrator_conc_feedback","Concrete","CV",1739195952973,"concrete",364,"concrete","abstract","concrete;abstract","A",5.89715386763674,10
"571","62728884995a1a76605d0214","kick","calibrator_conc_no_feedback","Concrete","CV",1739195959597,"concrete",3863,"A","concrete;abstract","","",8.25919936266628,11
"572","62728884995a1a76605d0214","insecure","calibrator_conc_no_feedback","Concrete","CV",1739195963166,"abstract",2809,"A","concrete;abstract","","",7.94058382710424,12
"573","62728884995a1a76605d0214","theory","calibrator_conc_no_feedback","Concrete","CV",1739195965734,"abstract",1810,"A","concrete;abstract","","",7.50108212425987,13
"574","62728884995a1a76605d0214","polite","calibrator_conc_no_feedback","Concrete","CV",1739195967501,"concrete",1008,"A","concrete;abstract","","",6.91572344863131,14
"575","62728884995a1a76605d0214","gas","calibrator_conc_no_feedback","Concrete","CV",1739195969093,"concrete",831,"A","concrete;abstract","","",6.72262979485545,15
"576","62728884995a1a76605d0214","whistle","calibrator_conc_no_feedback","Concrete","CV",1739195971118,"concrete",1264,"A","concrete;abstract","","",7.1420365747068,16
"577","62728884995a1a76605d0214","marriage","calibrator_conc_no_feedback","Concrete","CV",1739195973918,"concrete",2040,"A","concrete;abstract","","",7.62070508683826,17
"578","62728884995a1a76605d0214","shirt","calibrator_conc_no_feedback","Concrete","CV",1739195975374,"concrete",692,"A","concrete;abstract","","",6.53958595561767,18
"579","62728884995a1a76605d0214","sugar","calibrator_conc_no_feedback","Concrete","CV",1739195977005,"concrete",871,"A","concrete;abstract","","",6.7696419768525,19
