"","ID.true","Word","Label","ConcValCombo","Task","BlockOrder","Group","Response","Accuracy","EventTime","Value","RT","ReactionTime","Key_value_F","Key_value_J","Comments","LogReactionTime","LogRT","TrialNumber"
"1","5ddcbca2798297c203d13723","splendid","test_conc","abstract-positive","Concrete","CV","abstract;concrete","abstract",1,1739204309906,"abstract",1530.66666666667,1005,"concrete","B","",6.91274282049318,7.33345864933129,1
"2","5ddcbca2798297c203d13723","starry","test_conc","concrete-positive","Concrete","CV","abstract;concrete","abstract",0,1739204311442,"abstract",1649,783,"concrete","B","",6.6631326959908,7.4079243225596,2
"3","5ddcbca2798297c203d13723","heartless","test_conc","abstract-negative","Concrete","CV","abstract;concrete","abstract",1,1739204312850,"abstract",1738.83333333333,649,"concrete","B","",6.47543271670409,7.46096966923991,3
"4","5ddcbca2798297c203d13723","possible","test_conc","abstract-positive","Concrete","CV","abstract;concrete","abstract",1,1739204314283,"abstract",1514.16666666667,676,"concrete","B","",6.51619307604296,7.32262051160222,4
"5","5ddcbca2798297c203d13723","soulless","test_conc","abstract-negative","Concrete","CV","abstract;concrete","abstract",1,1739204316090,"abstract",1523.66666666667,1051,"concrete","B","",6.95749737087695,7.32887498966363,5
"6","5ddcbca2798297c203d13723","sunny","test_conc","concrete-positive","Concrete","CV","abstract;concrete","abstract",0,1739204317531,"abstract",1475.16666666667,683,"concrete","B","",6.52649485957079,7.29652625674082,6
"7","5ddcbca2798297c203d13723","mindful","test_conc","abstract-positive","Concrete","CV","abstract;concrete","abstract",1,1739204319228,"abstract",1629,943,"concrete","B","",6.84906628263346,7.39572160860205,7
"8","5ddcbca2798297c203d13723","thorny","test_conc","concrete-negative","Concrete","CV","abstract;concrete","abstract",0,1739204321195,"abstract",1680.16666666667,1213,"concrete","B","",7.10085190894405,7.42664827382589,8
"9","5ddcbca2798297c203d13723","sexist","test_conc","abstract-negative","Concrete","CV","abstract;concrete","abstract",1,1739204322955,"abstract",1629.66666666667,1007,"concrete","B","",6.91473089271856,7.39613077391054,9
"10","5ddcbca2798297c203d13723","helpful","test_conc","abstract-positive","Concrete","CV","abstract;concrete","abstract",1,1739204324475,"abstract",1681.33333333333,765,"concrete","B","",6.63987583382654,7.4273424084167,10
"11","5ddcbca2798297c203d13723","wrinkled","test_conc","concrete-negative","Concrete","CV","abstract;concrete","concrete",1,1739204326266,"concrete",1909.33333333333,1036,"concrete","B","",6.94312242281943,7.55450941997237,11
"12","5ddcbca2798297c203d13723","lovable","test_conc","abstract-positive","Concrete","CV","abstract;concrete","abstract",1,1739204327906,"abstract",1681.66666666667,885,"concrete","B","",6.78558764500793,7.4275406441196,12
"13","5ddcbca2798297c203d13723","crappy","test_conc","abstract-negative","Concrete","CV","abstract;concrete","abstract",1,1739204329819,"abstract",1608.5,1157,"concrete","B","",7.05358572719368,7.38305734667908,13
"14","5ddcbca2798297c203d13723","disloyal","test_conc","abstract-negative","Concrete","CV","abstract;concrete","abstract",1,1739204331186,"abstract",1518.33333333333,610,"concrete","B","",6.41345895716736,7.32536852102595,14
"15","5ddcbca2798297c203d13723","worthless","test_conc","abstract-negative","Concrete","CV","abstract;concrete","abstract",1,1739204332900,"abstract",1740,957,"concrete","B","",6.86380339145295,7.46164039220858,15
"16","5ddcbca2798297c203d13723","newborn","test_conc","concrete-positive","Concrete","CV","abstract;concrete","concrete",1,1739204334538,"concrete",1518.66666666667,884,"concrete","B","",6.78445706263764,7.32558803589896,16
"17","5ddcbca2798297c203d13723","pleasant","test_conc","abstract-positive","Concrete","CV","abstract;concrete","abstract",1,1739204336162,"abstract",1541.66666666667,872,"concrete","B","",6.77078942390898,7.34061936127842,17
"18","5ddcbca2798297c203d13723","toothless","test_conc","concrete-negative","Concrete","CV","abstract;concrete","abstract",0,1739204338043,"abstract",1748.5,1126,"concrete","B","",7.02642680869964,7.46651355650343,18
"19","5ddcbca2798297c203d13723","awful","test_conc","abstract-negative","Concrete","CV","abstract;concrete","abstract",1,1739204339602,"abstract",1796.66666666667,805,"concrete","B","",6.69084227741856,7.49368837523493,19
"20","5ddcbca2798297c203d13723","female","test_conc","concrete-positive","Concrete","CV","abstract;concrete","abstract",0,1739204341203,"abstract",1680,845,"concrete","B","",6.73933662735717,7.4265490723973,20
"21","5ddcbca2798297c203d13723","lilac","test_conc","concrete-positive","Concrete","CV","abstract;concrete","concrete",1,1739204343283,"concrete",1617,1322,"concrete","B","",7.18690102041163,7.38832785957711,21
"22","5ddcbca2798297c203d13723","divine","test_conc","abstract-positive","Concrete","CV","abstract;concrete","abstract",1,1739204345043,"abstract",1821.16666666667,1007,"concrete","B","",6.91473089271856,7.50723260034269,22
"23","5ddcbca2798297c203d13723","handmade","test_conc","concrete-positive","Concrete","CV","abstract;concrete","concrete",1,1739204346899,"concrete",1570.33333333333,1099,"concrete","B","",7.00215595440362,7.35904319003193,23
"24","5ddcbca2798297c203d13723","pregnant","test_conc","concrete-positive","Concrete","CV","abstract;concrete","concrete",1,1739204348491,"concrete",1640.33333333333,835,"concrete","B","",6.72743172485086,7.40265475219787,24
"25","5ddcbca2798297c203d13723","rusted","test_conc","concrete-negative","Concrete","CV","abstract;concrete","concrete",1,1739204350123,"concrete",1698.83333333333,875,"concrete","B","",6.77422388635761,7.43769701994036,25
"26","5ddcbca2798297c203d13723","orange","test_conc","concrete-positive","Concrete","CV","abstract;concrete","concrete",1,1739204352115,"concrete",1548.16666666667,1234,"concrete","B","",7.11801620446533,7.34482671415947,26
"27","5ddcbca2798297c203d13723","sinful","test_conc","abstract-negative","Concrete","CV","abstract;concrete","abstract",1,1739204353731,"abstract",1582.5,859,"concrete","B","",6.75576892198425,7.36676115401833,27
"28","5ddcbca2798297c203d13723","bloodshot","test_conc","concrete-negative","Concrete","CV","abstract;concrete","abstract",0,1739204355475,"abstract",1658,987,"concrete","B","",6.89467003943348,7.41336733569524,28
"29","5ddcbca2798297c203d13723","freezing","test_conc","concrete-negative","Concrete","CV","abstract;concrete","abstract",0,1739204356979,"abstract",1740.5,746,"concrete","B","",6.61472560020376,7.46192770725149,29
"30","5ddcbca2798297c203d13723","dirty","test_conc","concrete-negative","Concrete","CV","abstract;concrete","abstract",0,1739204358890,"abstract",1653.66666666667,1153,"concrete","B","",7.05012252026906,7.41075032363294,30
"31","5ddcbca2798297c203d13723","stupid","test_conc","abstract-negative","Concrete","CV","abstract;concrete","abstract",1,1739204360363,"abstract",1563.5,717,"concrete","B","",6.57507584059962,7.3546821768979,31
"32","5ddcbca2798297c203d13723","bloody","test_conc","concrete-negative","Concrete","CV","abstract;concrete","abstract",0,1739204361971,"abstract",1475,855,"concrete","B","",6.75110146893676,7.29641326877392,32
"33","5ddcbca2798297c203d13723","human","test_conc","concrete-positive","Concrete","CV","abstract;concrete","concrete",1,1739204363523,"concrete",1646,793,"concrete","B","",6.67582322163485,7.40610338123702,33
"34","5ddcbca2798297c203d13723","honest","test_conc","abstract-positive","Concrete","CV","abstract;concrete","concrete",0,1739204365442,"concrete",1753.5,1166,"concrete","B","",7.06133436691044,7.46936906958023,34
"35","5ddcbca2798297c203d13723","headless","test_conc","concrete-negative","Concrete","CV","abstract;concrete","concrete",1,1739204367075,"concrete",1730,878,"concrete","B","",6.77764659363512,7.45587668749182,35
"36","5ddcbca2798297c203d13723","thankful","test_conc","abstract-positive","Concrete","CV","abstract;concrete","concrete",0,1739204368818,"concrete",1580.16666666667,991,"concrete","B","",6.89871453432999,7.3652856056899,36
"37","5ddcbca2798297c203d13723","blooming","test_conc","concrete-positive","Concrete","CV","abstract;concrete","abstract",0,1739204370522,"abstract",1601.5,945,"concrete","B","",6.85118492749374,7.37869596904921,37
"38","5ddcbca2798297c203d13723","evil","test_conc","abstract-negative","Concrete","CV","abstract;concrete","concrete",0,1739204372051,"concrete",1715,770,"concrete","B","",6.64639051484773,7.44716835960004,38
"39","5ddcbca2798297c203d13723","hairy","test_conc","concrete-negative","Concrete","CV","abstract;concrete","concrete",1,1739204373698,"concrete",1653.5,891,"concrete","B","",6.79234442747081,7.41064953242185,39
"40","5ddcbca2798297c203d13723","sensible","test_conc","abstract-positive","Concrete","CV","abstract;concrete","abstract",1,1739204375547,"abstract",1754.66666666667,1097,"concrete","B","",7.00033446027523,7.47003418433704,40
"41","5ddcbca2798297c203d13723","honest","test_conc","abstract-positive","Concrete","CV","abstract;concrete","abstract",1,1739204377067,"abstract",1753.5,761,"concrete","B","",6.63463335786169,7.46936906958023,41
"42","5ddcbca2798297c203d13723","thankful","test_conc","abstract-positive","Concrete","CV","abstract;concrete","abstract",1,1739204378571,"abstract",1580.16666666667,746,"concrete","B","",6.61472560020376,7.3652856056899,42
"43","5ddcbca2798297c203d13723","crappy","test_conc","abstract-negative","Concrete","CV","abstract;concrete","abstract",1,1739204380323,"abstract",1608.5,994,"concrete","B","",6.90173720665657,7.38305734667908,43
"44","5ddcbca2798297c203d13723","sinful","test_conc","abstract-negative","Concrete","CV","abstract;concrete","concrete",0,1739204382034,"concrete",1582.5,956,"concrete","B","",6.8627579130514,7.36676115401833,44
"45","5ddcbca2798297c203d13723","starry","test_conc","concrete-positive","Concrete","CV","abstract;concrete","abstract",0,1739204383899,"abstract",1649,1107,"concrete","B","",7.00940893270864,7.4079243225596,45
"46","5ddcbca2798297c203d13723","blooming","test_conc","concrete-positive","Concrete","CV","abstract;concrete","abstract",0,1739204385387,"abstract",1601.5,732,"concrete","B","",6.59578051396131,7.37869596904921,46
"47","5ddcbca2798297c203d13723","human","test_conc","concrete-positive","Concrete","CV","abstract;concrete","concrete",1,1739204386882,"concrete",1646,738,"concrete","B","",6.60394382460047,7.40610338123702,47
"48","5ddcbca2798297c203d13723","wrinkled","test_conc","concrete-negative","Concrete","CV","abstract;concrete","abstract",0,1739204388675,"abstract",1909.33333333333,1036,"concrete","B","",6.94312242281943,7.55450941997237,48
"49","5ddcbca2798297c203d13723","female","test_conc","concrete-positive","Concrete","CV","abstract;concrete","concrete",1,1739204390106,"concrete",1680,673,"concrete","B","",6.51174532964473,7.4265490723973,49
"50","5ddcbca2798297c203d13723","toothless","test_conc","concrete-negative","Concrete","CV","abstract;concrete","concrete",1,1739204391643,"concrete",1748.5,783,"concrete","B","",6.6631326959908,7.46651355650343,50
"51","5ddcbca2798297c203d13723","lovable","test_conc","abstract-positive","Concrete","CV","abstract;concrete","abstract",1,1739204393298,"abstract",1681.66666666667,901,"concrete","B","",6.80350525760834,7.4275406441196,51
"52","5ddcbca2798297c203d13723","awful","test_conc","abstract-negative","Concrete","CV","abstract;concrete","abstract",1,1739204394970,"abstract",1796.66666666667,918,"concrete","B","",6.82219739062049,7.49368837523493,52
"53","5ddcbca2798297c203d13723","lilac","test_conc","concrete-positive","Concrete","CV","abstract;concrete","concrete",1,1739204396634,"concrete",1617,909,"concrete","B","",6.81234509417748,7.38832785957711,53
"54","5ddcbca2798297c203d13723","stupid","test_conc","abstract-negative","Concrete","CV","abstract;concrete","concrete",0,1739204398195,"concrete",1563.5,806,"concrete","B","",6.69208374250663,7.3546821768979,54
"55","5ddcbca2798297c203d13723","divine","test_conc","abstract-positive","Concrete","CV","abstract;concrete","abstract",1,1739204399690,"abstract",1821.16666666667,737,"concrete","B","",6.60258789218934,7.50723260034269,55
"56","5ddcbca2798297c203d13723","bloody","test_conc","concrete-negative","Concrete","CV","abstract;concrete","abstract",0,1739204401138,"abstract",1475,693,"concrete","B","",6.5410299991899,7.29641326877392,56
"57","5ddcbca2798297c203d13723","heartless","test_conc","abstract-negative","Concrete","CV","abstract;concrete","abstract",1,1739204402978,"abstract",1738.83333333333,1084,"concrete","B","",6.98841318199959,7.46096966923991,57
"58","5ddcbca2798297c203d13723","disloyal","test_conc","abstract-negative","Concrete","CV","abstract;concrete","abstract",1,1739204404699,"abstract",1518.33333333333,964,"concrete","B","",6.87109129461055,7.32536852102595,58
"59","5ddcbca2798297c203d13723","newborn","test_conc","concrete-positive","Concrete","CV","abstract;concrete","concrete",1,1739204406139,"concrete",1518.66666666667,684,"concrete","B","",6.52795791762255,7.32558803589896,59
"60","5ddcbca2798297c203d13723","thorny","test_conc","concrete-negative","Concrete","CV","abstract;concrete","abstract",0,1739204407795,"abstract",1680.16666666667,901,"concrete","B","",6.80350525760834,7.42664827382589,60
"61","5ddcbca2798297c203d13723","sensible","test_conc","abstract-positive","Concrete","CV","abstract;concrete","abstract",1,1739204409162,"abstract",1754.66666666667,614,"concrete","B","",6.41999492814714,7.47003418433704,61
"62","5ddcbca2798297c203d13723","pregnant","test_conc","concrete-positive","Concrete","CV","abstract;concrete","concrete",1,1739204410698,"concrete",1640.33333333333,781,"concrete","B","",6.66057514983969,7.40265475219787,62
"63","5ddcbca2798297c203d13723","worthless","test_conc","abstract-negative","Concrete","CV","abstract;concrete","abstract",1,1739204412442,"abstract",1740,990,"concrete","B","",6.89770494312864,7.46164039220858,63
"64","5ddcbca2798297c203d13723","pleasant","test_conc","abstract-positive","Concrete","CV","abstract;concrete","abstract",1,1739204414163,"abstract",1541.66666666667,964,"concrete","B","",6.87109129461055,7.34061936127842,64
"65","5ddcbca2798297c203d13723","hairy","test_conc","concrete-negative","Concrete","CV","abstract;concrete","abstract",0,1739204415778,"abstract",1653.5,862,"concrete","B","",6.75925527066369,7.41064953242185,65
"66","5ddcbca2798297c203d13723","freezing","test_conc","concrete-negative","Concrete","CV","abstract;concrete","abstract",0,1739204417244,"abstract",1740.5,711,"concrete","B","",6.56667242980324,7.46192770725149,66
"67","5ddcbca2798297c203d13723","soulless","test_conc","abstract-negative","Concrete","CV","abstract;concrete","abstract",1,1739204418650,"abstract",1523.66666666667,653,"concrete","B","",6.48157712927643,7.32887498966363,67
"68","5ddcbca2798297c203d13723","bloodshot","test_conc","concrete-negative","Concrete","CV","abstract;concrete","abstract",0,1739204420739,"abstract",1658,1333,"concrete","B","",7.19518732017871,7.41336733569524,68
"69","5ddcbca2798297c203d13723","rusted","test_conc","concrete-negative","Concrete","CV","abstract;concrete","concrete",1,1739204423018,"concrete",1698.83333333333,1526,"concrete","B","",7.3304052118444,7.43769701994036,69
"70","5ddcbca2798297c203d13723","dirty","test_conc","concrete-negative","Concrete","CV","abstract;concrete","abstract",0,1739204424563,"abstract",1653.66666666667,788,"concrete","B","",6.66949808985788,7.41075032363294,70
"71","5ddcbca2798297c203d13723","mindful","test_conc","abstract-positive","Concrete","CV","abstract;concrete","abstract",1,1739204426202,"abstract",1629,882,"concrete","B","",6.78219205600679,7.39572160860205,71
"72","5ddcbca2798297c203d13723","possible","test_conc","abstract-positive","Concrete","CV","abstract;concrete","abstract",1,1739204427810,"abstract",1514.16666666667,853,"concrete","B","",6.74875954749168,7.32262051160222,72
"73","5ddcbca2798297c203d13723","headless","test_conc","concrete-negative","Concrete","CV","abstract;concrete","concrete",1,1739204429562,"concrete",1730,998,"concrete","B","",6.90575327631146,7.45587668749182,73
"74","5ddcbca2798297c203d13723","handmade","test_conc","concrete-positive","Concrete","CV","abstract;concrete","concrete",1,1739204431147,"concrete",1570.33333333333,832,"concrete","B","",6.72383244082121,7.35904319003193,74
"75","5ddcbca2798297c203d13723","sexist","test_conc","abstract-negative","Concrete","CV","abstract;concrete","abstract",1,1739204432874,"abstract",1629.66666666667,971,"concrete","B","",6.87832646829133,7.39613077391054,75
"76","5ddcbca2798297c203d13723","evil","test_conc","abstract-negative","Concrete","CV","abstract;concrete","concrete",0,1739204434514,"concrete",1715,884,"concrete","B","",6.78445706263764,7.44716835960004,76
"77","5ddcbca2798297c203d13723","orange","test_conc","concrete-positive","Concrete","CV","abstract;concrete","concrete",1,1739204436027,"concrete",1548.16666666667,756,"concrete","B","",6.62804137617953,7.34482671415947,77
"78","5ddcbca2798297c203d13723","sunny","test_conc","concrete-positive","Concrete","CV","abstract;concrete","abstract",0,1739204437603,"abstract",1475.16666666667,819,"concrete","B","",6.70808408385307,7.29652625674082,78
"79","5ddcbca2798297c203d13723","helpful","test_conc","abstract-positive","Concrete","CV","abstract;concrete","abstract",1,1739204439091,"abstract",1681.33333333333,733,"concrete","B","",6.59714570188665,7.4273424084167,79
"80","5ddcbca2798297c203d13723","splendid","test_conc","abstract-positive","Concrete","CV","abstract;concrete","abstract",1,1739204440410,"abstract",1530.66666666667,565,"concrete","B","",6.33682573114644,7.33345864933129,80
"81","5ddcbca2798297c203d13723","honest","test_conc","abstract-positive","Concrete","CV","abstract;concrete","concrete",0,1739204442395,"concrete",1753.5,1229,"concrete","B","",7.11395610956603,7.46936906958023,81
"82","5ddcbca2798297c203d13723","rusted","test_conc","concrete-negative","Concrete","CV","abstract;concrete","abstract",0,1739204443986,"abstract",1698.83333333333,836,"concrete","B","",6.7286286130847,7.43769701994036,82
"83","5ddcbca2798297c203d13723","bloody","test_conc","concrete-negative","Concrete","CV","abstract;concrete","abstract",0,1739204445522,"abstract",1475,783,"concrete","B","",6.6631326959908,7.29641326877392,83
"84","5ddcbca2798297c203d13723","pleasant","test_conc","abstract-positive","Concrete","CV","abstract;concrete","abstract",1,1739204446915,"abstract",1541.66666666667,641,"concrete","B","",6.46302945692067,7.34061936127842,84
"85","5ddcbca2798297c203d13723","human","test_conc","concrete-positive","Concrete","CV","abstract;concrete","abstract",0,1739204448492,"abstract",1646,818,"concrete","B","",6.70686233660275,7.40610338123702,85
"86","5ddcbca2798297c203d13723","starry","test_conc","concrete-positive","Concrete","CV","abstract;concrete","abstract",0,1739204449963,"abstract",1649,715,"concrete","B","",6.57228254269401,7.4079243225596,86
"87","5ddcbca2798297c203d13723","mindful","test_conc","abstract-positive","Concrete","CV","abstract;concrete","abstract",1,1739204451490,"abstract",1629,771,"concrete","B","",6.64768837356333,7.39572160860205,87
"88","5ddcbca2798297c203d13723","stupid","test_conc","abstract-negative","Concrete","CV","abstract;concrete","concrete",0,1739204453187,"concrete",1563.5,944,"concrete","B","",6.8501261661455,7.3546821768979,88
"89","5ddcbca2798297c203d13723","wrinkled","test_conc","concrete-negative","Concrete","CV","abstract;concrete","abstract",0,1739204454698,"abstract",1909.33333333333,752,"concrete","B","",6.62273632394984,7.55450941997237,89
"90","5ddcbca2798297c203d13723","thankful","test_conc","abstract-positive","Concrete","CV","abstract;concrete","abstract",1,1739204456242,"abstract",1580.16666666667,791,"concrete","B","",6.67329796776765,7.3652856056899,90
"91","5ddcbca2798297c203d13723","female","test_conc","concrete-positive","Concrete","CV","abstract;concrete","concrete",1,1739204458098,"concrete",1680,1101,"concrete","B","",7.00397413672268,7.4265490723973,91
"92","5ddcbca2798297c203d13723","possible","test_conc","abstract-positive","Concrete","CV","abstract;concrete","abstract",1,1739204459555,"abstract",1514.16666666667,703,"concrete","B","",6.55535689181067,7.32262051160222,92
"93","5ddcbca2798297c203d13723","newborn","test_conc","concrete-positive","Concrete","CV","abstract;concrete","concrete",1,1739204461235,"concrete",1518.66666666667,921,"concrete","B","",6.82546003625531,7.32558803589896,93
"94","5ddcbca2798297c203d13723","headless","test_conc","concrete-negative","Concrete","CV","abstract;concrete","concrete",1,1739204462954,"concrete",1730,966,"concrete","B","",6.87316383421252,7.45587668749182,94
"95","5ddcbca2798297c203d13723","splendid","test_conc","abstract-positive","Concrete","CV","abstract;concrete","abstract",1,1739204464364,"abstract",1530.66666666667,652,"concrete","B","",6.48004456192665,7.33345864933129,95
"96","5ddcbca2798297c203d13723","handmade","test_conc","concrete-positive","Concrete","CV","abstract;concrete","abstract",0,1739204465923,"abstract",1570.33333333333,804,"concrete","B","",6.68959926917897,7.35904319003193,96
"97","5ddcbca2798297c203d13723","helpful","test_conc","abstract-positive","Concrete","CV","abstract;concrete","abstract",1,1739204467458,"abstract",1681.33333333333,779,"concrete","B","",6.65801104587075,7.4273424084167,97
"98","5ddcbca2798297c203d13723","divine","test_conc","abstract-positive","Concrete","CV","abstract;concrete","abstract",1,1739204469426,"abstract",1821.16666666667,1214,"concrete","B","",7.10167597161944,7.50723260034269,98
"99","5ddcbca2798297c203d13723","pregnant","test_conc","concrete-positive","Concrete","CV","abstract;concrete","concrete",1,1739204470946,"concrete",1640.33333333333,766,"concrete","B","",6.64118216974059,7.40265475219787,99
"100","5ddcbca2798297c203d13723","lovable","test_conc","abstract-positive","Concrete","CV","abstract;concrete","abstract",1,1739204472826,"abstract",1681.66666666667,1121,"concrete","B","",7.02197642307216,7.4275406441196,100
"101","5ddcbca2798297c203d13723","thorny","test_conc","concrete-negative","Concrete","CV","abstract;concrete","abstract",0,1739204474403,"abstract",1680.16666666667,821,"concrete","B","",6.71052310945243,7.42664827382589,101
"102","5ddcbca2798297c203d13723","awful","test_conc","abstract-negative","Concrete","CV","abstract;concrete","abstract",1,1739204476538,"abstract",1796.66666666667,1379,"concrete","B","",7.2291138777933,7.49368837523493,102
"103","5ddcbca2798297c203d13723","soulless","test_conc","abstract-negative","Concrete","CV","abstract;concrete","abstract",1,1739204477970,"abstract",1523.66666666667,681,"concrete","B","",6.52356230614951,7.32887498966363,103
"104","5ddcbca2798297c203d13723","sensible","test_conc","abstract-positive","Concrete","CV","abstract;concrete","abstract",1,1739204480298,"abstract",1754.66666666667,1572,"concrete","B","",7.36010397298915,7.47003418433704,104
"105","5ddcbca2798297c203d13723","evil","test_conc","abstract-negative","Concrete","CV","abstract;concrete","concrete",0,1739204481874,"concrete",1715,822,"concrete","B","",6.71174039505618,7.44716835960004,105
"106","5ddcbca2798297c203d13723","sexist","test_conc","abstract-negative","Concrete","CV","abstract;concrete","abstract",1,1739204483370,"abstract",1629.66666666667,741,"concrete","B","",6.60800062529609,7.39613077391054,106
"107","5ddcbca2798297c203d13723","freezing","test_conc","concrete-negative","Concrete","CV","abstract;concrete","abstract",0,1739204485562,"abstract",1740.5,1439,"concrete","B","",7.27170370688737,7.46192770725149,107
"108","5ddcbca2798297c203d13723","toothless","test_conc","concrete-negative","Concrete","CV","abstract;concrete","abstract",0,1739204487442,"abstract",1748.5,1122,"concrete","B","",7.02286808608264,7.46651355650343,108
"109","5ddcbca2798297c203d13723","bloodshot","test_conc","concrete-negative","Concrete","CV","abstract;concrete","abstract",0,1739204488962,"abstract",1658,762,"concrete","B","",6.63594655568665,7.41336733569524,109
"110","5ddcbca2798297c203d13723","crappy","test_conc","abstract-negative","Concrete","CV","abstract;concrete","abstract",1,1739204490386,"abstract",1608.5,672,"concrete","B","",6.51025834052315,7.38305734667908,110
"111","5ddcbca2798297c203d13723","dirty","test_conc","concrete-negative","Concrete","CV","abstract;concrete","abstract",0,1739204491874,"abstract",1653.66666666667,733,"concrete","B","",6.59714570188665,7.41075032363294,111
"112","5ddcbca2798297c203d13723","sinful","test_conc","abstract-negative","Concrete","CV","abstract;concrete","abstract",1,1739204493362,"abstract",1582.5,731,"concrete","B","",6.59441345974978,7.36676115401833,112
"113","5ddcbca2798297c203d13723","hairy","test_conc","concrete-negative","Concrete","CV","abstract;concrete","abstract",0,1739204495002,"abstract",1653.5,885,"concrete","B","",6.78558764500793,7.41064953242185,113
"114","5ddcbca2798297c203d13723","blooming","test_conc","concrete-positive","Concrete","CV","abstract;concrete","abstract",0,1739204496810,"abstract",1601.5,1055,"concrete","B","",6.96129604591017,7.37869596904921,114
"115","5ddcbca2798297c203d13723","lilac","test_conc","concrete-positive","Concrete","CV","abstract;concrete","abstract",0,1739204498402,"abstract",1617,837,"concrete","B","",6.72982407048948,7.38832785957711,115
"116","5ddcbca2798297c203d13723","worthless","test_conc","abstract-negative","Concrete","CV","abstract;concrete","abstract",1,1739204500130,"abstract",1740,971,"concrete","B","",6.87832646829133,7.46164039220858,116
"117","5ddcbca2798297c203d13723","heartless","test_conc","abstract-negative","Concrete","CV","abstract;concrete","concrete",0,1739204502250,"concrete",1738.83333333333,1362,"concrete","B","",7.21670948670946,7.46096966923991,117
"118","5ddcbca2798297c203d13723","orange","test_conc","concrete-positive","Concrete","CV","abstract;concrete","concrete",1,1739204503602,"concrete",1548.16666666667,599,"concrete","B","",6.39526159811545,7.34482671415947,118
"119","5ddcbca2798297c203d13723","sunny","test_conc","concrete-positive","Concrete","CV","abstract;concrete","abstract",0,1739204505050,"abstract",1475.16666666667,690,"concrete","B","",6.5366915975913,7.29652625674082,119
"120","5ddcbca2798297c203d13723","disloyal","test_conc","abstract-negative","Concrete","CV","abstract;concrete","abstract",1,1739204506578,"abstract",1518.33333333333,775,"concrete","B","",6.65286302935335,7.32536852102595,120
"121","5ddcbca2798297c203d13723","sexist","test_val","abstract-negative","Valence","CV","negative;positive","negative",1,1739204584283,"negative",1629.66666666667,1288,"positive","B","",7.1608459066643,7.39613077391054,121
"122","5ddcbca2798297c203d13723","headless","test_val","concrete-negative","Valence","CV","negative;positive","negative",1,1739204586435,"negative",1730,1398,"positive","B","",7.24279792279376,7.45587668749182,122
"123","5ddcbca2798297c203d13723","pregnant","test_val","concrete-positive","Valence","CV","negative;positive","positive",1,1739204588731,"positive",1640.33333333333,1541,"positive","B","",7.34018683532012,7.40265475219787,123
"124","5ddcbca2798297c203d13723","pleasant","test_val","abstract-positive","Valence","CV","negative;positive","positive",1,1739204590291,"positive",1541.66666666667,806,"positive","B","",6.69208374250663,7.34061936127842,124
"125","5ddcbca2798297c203d13723","starry","test_val","concrete-positive","Valence","CV","negative;positive","positive",1,1739204591938,"positive",1649,887,"positive","B","",6.78784498230958,7.4079243225596,125
"126","5ddcbca2798297c203d13723","possible","test_val","abstract-positive","Valence","CV","negative;positive","positive",1,1739204593451,"positive",1514.16666666667,758,"positive","B","",6.63068338564237,7.32262051160222,126
"127","5ddcbca2798297c203d13723","dirty","test_val","concrete-negative","Valence","CV","negative;positive","negative",1,1739204595476,"negative",1653.66666666667,1270,"positive","B","",7.14677217945264,7.41075032363294,127
"128","5ddcbca2798297c203d13723","orange","test_val","concrete-positive","Valence","CV","negative;positive","positive",1,1739204596955,"positive",1548.16666666667,723,"positive","B","",6.58340922215876,7.34482671415947,128
"129","5ddcbca2798297c203d13723","lovable","test_val","abstract-positive","Valence","CV","negative;positive","positive",1,1739204598499,"positive",1681.66666666667,789,"positive","B","",6.67076632084587,7.4275406441196,129
"130","5ddcbca2798297c203d13723","sensible","test_val","abstract-positive","Valence","CV","negative;positive","positive",1,1739204600090,"positive",1754.66666666667,834,"positive","B","",6.72623340235875,7.47003418433704,130
"131","5ddcbca2798297c203d13723","handmade","test_val","concrete-positive","Valence","CV","negative;positive","positive",1,1739204601594,"positive",1570.33333333333,750,"positive","B","",6.62007320653036,7.35904319003193,131
"132","5ddcbca2798297c203d13723","blooming","test_val","concrete-positive","Valence","CV","negative;positive","positive",1,1739204603331,"positive",1601.5,984,"positive","B","",6.89162589705225,7.37869596904921,132
"133","5ddcbca2798297c203d13723","female","test_val","concrete-positive","Valence","CV","negative;positive","positive",1,1739204604867,"positive",1680,780,"positive","B","",6.65929391968364,7.4265490723973,133
"134","5ddcbca2798297c203d13723","mindful","test_val","abstract-positive","Valence","CV","negative;positive","positive",1,1739204606298,"positive",1629,675,"positive","B","",6.51471269087253,7.39572160860205,134
"135","5ddcbca2798297c203d13723","newborn","test_val","concrete-positive","Valence","CV","negative;positive","positive",1,1739204607739,"positive",1518.66666666667,687,"positive","B","",6.53233429222235,7.32558803589896,135
"136","5ddcbca2798297c203d13723","lilac","test_val","concrete-positive","Valence","CV","negative;positive","positive",1,1739204609186,"positive",1617,692,"positive","B","",6.53958595561767,7.38832785957711,136
"137","5ddcbca2798297c203d13723","soulless","test_val","abstract-negative","Valence","CV","negative;positive","negative",1,1739204610674,"negative",1523.66666666667,731,"positive","B","",6.59441345974978,7.32887498966363,137
"138","5ddcbca2798297c203d13723","honest","test_val","abstract-positive","Valence","CV","negative;positive","positive",1,1739204612106,"positive",1753.5,678,"positive","B","",6.5191472879404,7.46936906958023,138
"139","5ddcbca2798297c203d13723","sunny","test_val","concrete-positive","Valence","CV","negative;positive","positive",1,1739204613771,"positive",1475.16666666667,910,"positive","B","",6.8134445995109,7.29652625674082,139
"140","5ddcbca2798297c203d13723","crappy","test_val","abstract-negative","Valence","CV","negative;positive","negative",1,1739204615218,"negative",1608.5,692,"positive","B","",6.53958595561767,7.38305734667908,140
"141","5ddcbca2798297c203d13723","splendid","test_val","abstract-positive","Valence","CV","negative;positive","positive",1,1739204616738,"positive",1530.66666666667,760,"positive","B","",6.63331843328038,7.33345864933129,141
"142","5ddcbca2798297c203d13723","human","test_val","concrete-positive","Valence","CV","negative;positive","positive",1,1739204618251,"positive",1646,760,"positive","B","",6.63331843328038,7.40610338123702,142
"143","5ddcbca2798297c203d13723","divine","test_val","abstract-positive","Valence","CV","negative;positive","positive",1,1739204619923,"positive",1821.16666666667,914,"positive","B","",6.81783057145415,7.50723260034269,143
"144","5ddcbca2798297c203d13723","thankful","test_val","abstract-positive","Valence","CV","negative;positive","positive",1,1739204621444,"positive",1580.16666666667,763,"positive","B","",6.63725803128446,7.3652856056899,144
"145","5ddcbca2798297c203d13723","disloyal","test_val","abstract-negative","Valence","CV","negative;positive","positive",0,1739204623083,"positive",1518.33333333333,883,"positive","B","",6.78332520060396,7.32536852102595,145
"146","5ddcbca2798297c203d13723","sinful","test_val","abstract-negative","Valence","CV","negative;positive","negative",1,1739204624731,"negative",1582.5,892,"positive","B","",6.79346613258001,7.36676115401833,146
"147","5ddcbca2798297c203d13723","worthless","test_val","abstract-negative","Valence","CV","negative;positive","negative",1,1739204626162,"negative",1740,676,"positive","B","",6.51619307604296,7.46164039220858,147
"148","5ddcbca2798297c203d13723","bloody","test_val","concrete-negative","Valence","CV","negative;positive","negative",1,1739204627659,"negative",1475,740,"positive","B","",6.60665018619822,7.29641326877392,148
"149","5ddcbca2798297c203d13723","wrinkled","test_val","concrete-negative","Valence","CV","negative;positive","negative",1,1739204629627,"negative",1909.33333333333,1213,"positive","B","",7.10085190894405,7.55450941997237,149
"150","5ddcbca2798297c203d13723","thorny","test_val","concrete-negative","Valence","CV","negative;positive","negative",1,1739204631155,"negative",1680.16666666667,770,"positive","B","",6.64639051484773,7.42664827382589,150
"151","5ddcbca2798297c203d13723","awful","test_val","abstract-negative","Valence","CV","negative;positive","negative",1,1739204632707,"negative",1796.66666666667,795,"positive","B","",6.67834211465433,7.49368837523493,151
"152","5ddcbca2798297c203d13723","toothless","test_val","concrete-negative","Valence","CV","negative;positive","negative",1,1739204634483,"negative",1748.5,1021,"positive","B","",6.92853781816467,7.46651355650343,152
"153","5ddcbca2798297c203d13723","rusted","test_val","concrete-negative","Valence","CV","negative;positive","negative",1,1739204636027,"negative",1698.83333333333,785,"positive","B","",6.66568371778241,7.43769701994036,153
"154","5ddcbca2798297c203d13723","hairy","test_val","concrete-negative","Valence","CV","negative;positive","negative",1,1739204637587,"negative",1653.5,804,"positive","B","",6.68959926917897,7.41064953242185,154
"155","5ddcbca2798297c203d13723","stupid","test_val","abstract-negative","Valence","CV","negative;positive","negative",1,1739204639227,"negative",1563.5,884,"positive","B","",6.78445706263764,7.3546821768979,155
"156","5ddcbca2798297c203d13723","evil","test_val","abstract-negative","Valence","CV","negative;positive","negative",1,1739204641283,"negative",1715,1299,"positive","B","",7.1693500166706,7.44716835960004,156
"157","5ddcbca2798297c203d13723","helpful","test_val","abstract-positive","Valence","CV","negative;positive","positive",1,1739204643194,"positive",1681.33333333333,1155,"positive","B","",7.05185562295589,7.4273424084167,157
"158","5ddcbca2798297c203d13723","freezing","test_val","concrete-negative","Valence","CV","negative;positive","negative",1,1739204645194,"negative",1740.5,1244,"positive","B","",7.12608727329912,7.46192770725149,158
"159","5ddcbca2798297c203d13723","bloodshot","test_val","concrete-negative","Valence","CV","negative;positive","negative",1,1739204646850,"negative",1658,900,"positive","B","",6.80239476332431,7.41336733569524,159
"160","5ddcbca2798297c203d13723","heartless","test_val","abstract-negative","Valence","CV","negative;positive","negative",1,1739204648322,"negative",1738.83333333333,721,"positive","B","",6.58063913728495,7.46096966923991,160
"161","5ddcbca2798297c203d13723","possible","test_val","abstract-positive","Valence","CV","negative;positive","positive",1,1739204649978,"positive",1514.16666666667,898,"positive","B","",6.8001700683022,7.32262051160222,161
"162","5ddcbca2798297c203d13723","stupid","test_val","abstract-negative","Valence","CV","negative;positive","negative",1,1739204651523,"negative",1563.5,792,"positive","B","",6.67456139181443,7.3546821768979,162
"163","5ddcbca2798297c203d13723","toothless","test_val","concrete-negative","Valence","CV","negative;positive","negative",1,1739204653434,"negative",1748.5,1158,"positive","B","",7.05444965813294,7.46651355650343,163
"164","5ddcbca2798297c203d13723","soulless","test_val","abstract-negative","Valence","CV","negative;positive","negative",1,1739204654938,"negative",1523.66666666667,748,"positive","B","",6.61740297797448,7.32887498966363,164
"165","5ddcbca2798297c203d13723","female","test_val","concrete-positive","Valence","CV","negative;positive","positive",1,1739204657187,"positive",1680,1494,"positive","B","",7.30921236569276,7.4265490723973,165
"166","5ddcbca2798297c203d13723","hairy","test_val","concrete-negative","Valence","CV","negative;positive","negative",1,1739204659083,"negative",1653.5,1141,"positive","B","",7.03966034986208,7.41064953242185,166
"167","5ddcbca2798297c203d13723","thankful","test_val","abstract-positive","Valence","CV","negative;positive","positive",1,1739204660706,"positive",1580.16666666667,868,"positive","B","",6.76619171466035,7.3652856056899,167
"168","5ddcbca2798297c203d13723","rusted","test_val","concrete-negative","Valence","CV","negative;positive","negative",1,1739204662475,"negative",1698.83333333333,1013,"positive","B","",6.92067150424868,7.43769701994036,168
"169","5ddcbca2798297c203d13723","headless","test_val","concrete-negative","Valence","CV","negative;positive","negative",1,1739204664059,"negative",1730,829,"positive","B","",6.7202201551353,7.45587668749182,169
"170","5ddcbca2798297c203d13723","splendid","test_val","abstract-positive","Valence","CV","negative;positive","positive",1,1739204665563,"positive",1530.66666666667,748,"positive","B","",6.61740297797448,7.33345864933129,170
"171","5ddcbca2798297c203d13723","handmade","test_val","concrete-positive","Valence","CV","negative;positive","positive",1,1739204667019,"positive",1570.33333333333,701,"positive","B","",6.55250788703459,7.35904319003193,171
"172","5ddcbca2798297c203d13723","blooming","test_val","concrete-positive","Valence","CV","negative;positive","positive",1,1739204668555,"positive",1601.5,781,"positive","B","",6.66057514983969,7.37869596904921,172
"173","5ddcbca2798297c203d13723","worthless","test_val","abstract-negative","Valence","CV","negative;positive","negative",1,1739204670771,"negative",1740,1462,"positive","B","",7.28756064030972,7.46164039220858,173
"174","5ddcbca2798297c203d13723","disloyal","test_val","abstract-negative","Valence","CV","negative;positive","negative",1,1739204672290,"negative",1518.33333333333,762,"positive","B","",6.63594655568665,7.32536852102595,174
"175","5ddcbca2798297c203d13723","helpful","test_val","abstract-positive","Valence","CV","negative;positive","positive",1,1739204674139,"positive",1681.33333333333,1091,"positive","B","",6.99484998583307,7.4273424084167,175
"176","5ddcbca2798297c203d13723","divine","test_val","abstract-positive","Valence","CV","negative;positive","positive",1,1739204676243,"positive",1821.16666666667,1347,"positive","B","",7.20563517641036,7.50723260034269,176
"177","5ddcbca2798297c203d13723","sinful","test_val","abstract-negative","Valence","CV","negative;positive","negative",1,1739204677722,"negative",1582.5,724,"positive","B","",6.58479139238572,7.36676115401833,177
"178","5ddcbca2798297c203d13723","pregnant","test_val","concrete-positive","Valence","CV","negative;positive","positive",1,1739204679123,"positive",1640.33333333333,646,"positive","B","",6.4707995037826,7.40265475219787,178
"179","5ddcbca2798297c203d13723","orange","test_val","concrete-positive","Valence","CV","negative;positive","positive",1,1739204680594,"positive",1548.16666666667,717,"positive","B","",6.57507584059962,7.34482671415947,179
"180","5ddcbca2798297c203d13723","bloodshot","test_val","concrete-negative","Valence","CV","negative;positive","negative",1,1739204682155,"negative",1658,805,"positive","B","",6.69084227741856,7.41336733569524,180
"181","5ddcbca2798297c203d13723","bloody","test_val","concrete-negative","Valence","CV","negative;positive","negative",1,1739204683555,"negative",1475,643,"positive","B","",6.46614472423762,7.29641326877392,181
"182","5ddcbca2798297c203d13723","heartless","test_val","abstract-negative","Valence","CV","negative;positive","negative",1,1739204685579,"negative",1738.83333333333,1268,"positive","B","",7.14519613499717,7.46096966923991,182
"183","5ddcbca2798297c203d13723","human","test_val","concrete-positive","Valence","CV","negative;positive","positive",1,1739204687139,"positive",1646,805,"positive","B","",6.69084227741856,7.40610338123702,183
"184","5ddcbca2798297c203d13723","sensible","test_val","abstract-positive","Valence","CV","negative;positive","negative",0,1739204688898,"negative",1754.66666666667,1005,"positive","B","",6.91274282049318,7.47003418433704,184
"185","5ddcbca2798297c203d13723","honest","test_val","abstract-positive","Valence","CV","negative;positive","positive",1,1739204691058,"positive",1753.5,1407,"positive","B","",7.24921505711439,7.46936906958023,185
"186","5ddcbca2798297c203d13723","dirty","test_val","concrete-negative","Valence","CV","negative;positive","negative",1,1739204692626,"negative",1653.66666666667,810,"positive","B","",6.69703424766648,7.41075032363294,186
"187","5ddcbca2798297c203d13723","crappy","test_val","abstract-negative","Valence","CV","negative;positive","negative",1,1739204694427,"negative",1608.5,1045,"positive","B","",6.95177216439891,7.38305734667908,187
"188","5ddcbca2798297c203d13723","thorny","test_val","concrete-negative","Valence","CV","negative;positive","negative",1,1739204696050,"negative",1680.16666666667,868,"positive","B","",6.76619171466035,7.42664827382589,188
"189","5ddcbca2798297c203d13723","sexist","test_val","abstract-negative","Valence","CV","negative;positive","negative",1,1739204697427,"negative",1629.66666666667,623,"positive","B","",6.43454651878745,7.39613077391054,189
"190","5ddcbca2798297c203d13723","pleasant","test_val","abstract-positive","Valence","CV","negative;positive","positive",1,1739204698947,"positive",1541.66666666667,766,"positive","B","",6.64118216974059,7.34061936127842,190
"191","5ddcbca2798297c203d13723","mindful","test_val","abstract-positive","Valence","CV","negative;positive","negative",0,1739204700803,"negative",1629,1098,"positive","B","",7.00124562206948,7.39572160860205,191
"192","5ddcbca2798297c203d13723","wrinkled","test_val","concrete-negative","Valence","CV","negative;positive","negative",1,1739204703691,"negative",1909.33333333333,2134,"positive","B","",7.6657534318617,7.55450941997237,192
"193","5ddcbca2798297c203d13723","starry","test_val","concrete-positive","Valence","CV","negative;positive","positive",1,1739204705467,"positive",1649,1018,"positive","B","",6.92559519711047,7.4079243225596,193
"194","5ddcbca2798297c203d13723","freezing","test_val","concrete-negative","Valence","CV","negative;positive","negative",1,1739204706946,"negative",1740.5,723,"positive","B","",6.58340922215876,7.46192770725149,194
"195","5ddcbca2798297c203d13723","newborn","test_val","concrete-positive","Valence","CV","negative;positive","positive",1,1739204708507,"positive",1518.66666666667,807,"positive","B","",6.69332366826995,7.32558803589896,195
"196","5ddcbca2798297c203d13723","lovable","test_val","abstract-positive","Valence","CV","negative;positive","positive",1,1739204710579,"positive",1681.66666666667,1315,"positive","B","",7.18159194461187,7.4275406441196,196
"197","5ddcbca2798297c203d13723","lilac","test_val","concrete-positive","Valence","CV","negative;positive","positive",1,1739204712130,"positive",1617,796,"positive","B","",6.67959918584438,7.38832785957711,197
"198","5ddcbca2798297c203d13723","sunny","test_val","concrete-positive","Valence","CV","negative;positive","positive",1,1739204713507,"positive",1475.16666666667,620,"positive","B","",6.42971947803914,7.29652625674082,198
"199","5ddcbca2798297c203d13723","awful","test_val","abstract-negative","Valence","CV","negative;positive","negative",1,1739204715747,"negative",1796.66666666667,1483,"positive","B","",7.30182234213793,7.49368837523493,199
"200","5ddcbca2798297c203d13723","evil","test_val","abstract-negative","Valence","CV","negative;positive","negative",1,1739204717515,"negative",1715,1010,"positive","B","",6.9177056098353,7.44716835960004,200
"201","5ddcbca2798297c203d13723","toothless","test_val","concrete-negative","Valence","CV","negative;positive","negative",1,1739204719027,"negative",1748.5,757,"positive","B","",6.62936325343745,7.46651355650343,201
"202","5ddcbca2798297c203d13723","bloodshot","test_val","concrete-negative","Valence","CV","negative;positive","negative",1,1739204720411,"negative",1658,631,"positive","B","",6.44730586254121,7.41336733569524,202
"203","5ddcbca2798297c203d13723","awful","test_val","abstract-negative","Valence","CV","negative;positive","negative",1,1739204722043,"negative",1796.66666666667,875,"positive","B","",6.77422388635761,7.49368837523493,203
"204","5ddcbca2798297c203d13723","pregnant","test_val","concrete-positive","Valence","CV","negative;positive","positive",1,1739204723546,"positive",1640.33333333333,749,"positive","B","",6.61873898351722,7.40265475219787,204
"205","5ddcbca2798297c203d13723","thankful","test_val","abstract-positive","Valence","CV","negative;positive","positive",1,1739204725098,"positive",1580.16666666667,795,"positive","B","",6.67834211465433,7.3652856056899,205
"206","5ddcbca2798297c203d13723","helpful","test_val","abstract-positive","Valence","CV","negative;positive","positive",1,1739204726890,"positive",1681.33333333333,1037,"positive","B","",6.94408720822953,7.4273424084167,206
"207","5ddcbca2798297c203d13723","splendid","test_val","abstract-positive","Valence","CV","negative;positive","positive",1,1739204728571,"positive",1530.66666666667,921,"positive","B","",6.82546003625531,7.33345864933129,207
"208","5ddcbca2798297c203d13723","lilac","test_val","concrete-positive","Valence","CV","negative;positive","positive",1,1739204729946,"positive",1617,620,"positive","B","",6.42971947803914,7.38832785957711,208
"209","5ddcbca2798297c203d13723","thorny","test_val","concrete-negative","Valence","CV","negative;positive","negative",1,1739204731682,"negative",1680.16666666667,977,"positive","B","",6.88448665204278,7.42664827382589,209
"210","5ddcbca2798297c203d13723","soulless","test_val","abstract-negative","Valence","CV","negative;positive","negative",1,1739204733194,"negative",1523.66666666667,756,"positive","B","",6.62804137617953,7.32887498966363,210
"211","5ddcbca2798297c203d13723","heartless","test_val","abstract-negative","Valence","CV","negative;positive","negative",1,1739204734770,"negative",1738.83333333333,820,"positive","B","",6.7093043402583,7.46096966923991,211
"212","5ddcbca2798297c203d13723","human","test_val","concrete-positive","Valence","CV","negative;positive","positive",1,1739204736955,"positive",1646,1430,"positive","B","",7.26542972325395,7.40610338123702,212
"213","5ddcbca2798297c203d13723","newborn","test_val","concrete-positive","Valence","CV","negative;positive","positive",1,1739204738314,"positive",1518.66666666667,601,"positive","B","",6.39859493453521,7.32558803589896,213
"214","5ddcbca2798297c203d13723","lovable","test_val","abstract-positive","Valence","CV","negative;positive","positive",1,1739204739619,"positive",1681.66666666667,551,"positive","B","",6.31173480915291,7.4275406441196,214
"215","5ddcbca2798297c203d13723","sexist","test_val","abstract-negative","Valence","CV","negative;positive","negative",1,1739204741004,"negative",1629.66666666667,630,"positive","B","",6.44571981938558,7.39613077391054,215
"216","5ddcbca2798297c203d13723","worthless","test_val","abstract-negative","Valence","CV","negative;positive","negative",1,1739204742619,"negative",1740,860,"positive","B","",6.75693238924755,7.46164039220858,216
"217","5ddcbca2798297c203d13723","divine","test_val","abstract-positive","Valence","CV","negative;positive","positive",1,1739204744555,"positive",1821.16666666667,1180,"positive","B","",7.07326971745971,7.50723260034269,217
"218","5ddcbca2798297c203d13723","bloody","test_val","concrete-negative","Valence","CV","negative;positive","negative",1,1739204745922,"negative",1475,612,"positive","B","",6.41673228251233,7.29641326877392,218
"219","5ddcbca2798297c203d13723","freezing","test_val","concrete-negative","Valence","CV","negative;positive","negative",1,1739204747731,"negative",1740.5,1053,"positive","B","",6.95939851213398,7.46192770725149,219
"220","5ddcbca2798297c203d13723","honest","test_val","abstract-positive","Valence","CV","negative;positive","positive",1,1739204749243,"positive",1753.5,756,"positive","B","",6.62804137617953,7.46936906958023,220
"221","5ddcbca2798297c203d13723","sinful","test_val","abstract-negative","Valence","CV","negative;positive","negative",1,1739204750803,"negative",1582.5,806,"positive","B","",6.69208374250663,7.36676115401833,221
"222","5ddcbca2798297c203d13723","mindful","test_val","abstract-positive","Valence","CV","negative;positive","negative",0,1739204752434,"negative",1629,877,"positive","B","",6.77650699237218,7.39572160860205,222
"223","5ddcbca2798297c203d13723","orange","test_val","concrete-positive","Valence","CV","negative;positive","positive",1,1739204753922,"positive",1548.16666666667,729,"positive","B","",6.59167373200866,7.34482671415947,223
"224","5ddcbca2798297c203d13723","handmade","test_val","concrete-positive","Valence","CV","negative;positive","positive",1,1739204755394,"positive",1570.33333333333,718,"positive","B","",6.57646956904822,7.35904319003193,224
"225","5ddcbca2798297c203d13723","pleasant","test_val","abstract-positive","Valence","CV","negative;positive","positive",1,1739204756834,"positive",1541.66666666667,686,"positive","B","",6.53087762772588,7.34061936127842,225
"226","5ddcbca2798297c203d13723","sunny","test_val","concrete-positive","Valence","CV","negative;positive","positive",1,1739204758186,"positive",1475.16666666667,597,"positive","B","",6.3919171133926,7.29652625674082,226
"227","5ddcbca2798297c203d13723","possible","test_val","abstract-positive","Valence","CV","negative;positive","positive",1,1739204759610,"positive",1514.16666666667,668,"positive","B","",6.50428817353665,7.32262051160222,227
"228","5ddcbca2798297c203d13723","dirty","test_val","concrete-negative","Valence","CV","negative;positive","negative",1,1739204761003,"negative",1653.66666666667,640,"positive","B","",6.46146817635372,7.41075032363294,228
"229","5ddcbca2798297c203d13723","hairy","test_val","concrete-negative","Valence","CV","negative;positive","negative",1,1739204762571,"negative",1653.5,810,"positive","B","",6.69703424766648,7.41064953242185,229
"230","5ddcbca2798297c203d13723","blooming","test_val","concrete-positive","Valence","CV","negative;positive","negative",0,1739204763915,"negative",1601.5,590,"positive","B","",6.38012253689976,7.37869596904921,230
"231","5ddcbca2798297c203d13723","starry","test_val","concrete-positive","Valence","CV","negative;positive","positive",1,1739204765522,"positive",1649,849,"positive","B","",6.74405918631135,7.4079243225596,231
"232","5ddcbca2798297c203d13723","evil","test_val","abstract-negative","Valence","CV","negative;positive","negative",1,1739204767251,"negative",1715,976,"positive","B","",6.88346258641309,7.44716835960004,232
"233","5ddcbca2798297c203d13723","wrinkled","test_val","concrete-negative","Valence","CV","negative;positive","negative",1,1739204768762,"negative",1909.33333333333,757,"positive","B","",6.62936325343745,7.55450941997237,233
"234","5ddcbca2798297c203d13723","disloyal","test_val","abstract-negative","Valence","CV","negative;positive","negative",1,1739204770105,"negative",1518.33333333333,585,"positive","B","",6.37161184723186,7.32536852102595,234
"235","5ddcbca2798297c203d13723","stupid","test_val","abstract-negative","Valence","CV","negative;positive","negative",1,1739204771576,"negative",1563.5,717,"positive","B","",6.57507584059962,7.3546821768979,235
"236","5ddcbca2798297c203d13723","rusted","test_val","concrete-negative","Valence","CV","negative;positive","negative",1,1739204772961,"negative",1698.83333333333,626,"positive","B","",6.4393503711001,7.43769701994036,236
"237","5ddcbca2798297c203d13723","crappy","test_val","abstract-negative","Valence","CV","negative;positive","negative",1,1739204774281,"negative",1608.5,566,"positive","B","",6.33859407820318,7.38305734667908,237
"238","5ddcbca2798297c203d13723","sensible","test_val","abstract-positive","Valence","CV","negative;positive","positive",1,1739204775921,"positive",1754.66666666667,883,"positive","B","",6.78332520060396,7.47003418433704,238
"239","5ddcbca2798297c203d13723","headless","test_val","concrete-negative","Valence","CV","negative;positive","negative",1,1739204777466,"negative",1730,788,"positive","B","",6.66949808985788,7.45587668749182,239
"240","5ddcbca2798297c203d13723","female","test_val","concrete-positive","Valence","CV","negative;positive","positive",1,1739204778881,"positive",1680,661,"positive","B","",6.49375383985169,7.4265490723973,240
"241","5ba802ee60f3d5000169e5da","hairy","test_conc","concrete-negative","Concrete","CV","abstract;concrete","abstract",0,1739201818625,"abstract",1370.5,698,"concrete","B","",6.54821910276237,7.22293091574284,1
"242","5ba802ee60f3d5000169e5da","awful","test_conc","abstract-negative","Concrete","CV","abstract;concrete","abstract",1,1739201820080,"abstract",1336.66666666667,702,"concrete","B","",6.55393340402581,7.19793423163251,2
"243","5ba802ee60f3d5000169e5da","blooming","test_conc","concrete-positive","Concrete","CV","abstract;concrete","concrete",1,1739201821499,"concrete",1382.16666666667,659,"concrete","B","",6.49072353450251,7.23140759522315,3
"244","5ba802ee60f3d5000169e5da","thorny","test_conc","concrete-negative","Concrete","CV","abstract;concrete","concrete",1,1739201823148,"concrete",1444.33333333333,893,"concrete","B","",6.7945865808765,7.2754031330718,4
"245","5ba802ee60f3d5000169e5da","lilac","test_conc","concrete-positive","Concrete","CV","abstract;concrete","abstract",0,1739201824587,"abstract",1343.66666666667,682,"concrete","B","",6.52502965784346,7.20315747444906,5
"246","5ba802ee60f3d5000169e5da","honest","test_conc","abstract-positive","Concrete","CV","abstract;concrete","abstract",1,1739201826076,"abstract",1418.5,731,"concrete","B","",6.59441345974978,7.25735525424891,6
"247","5ba802ee60f3d5000169e5da","human","test_conc","concrete-positive","Concrete","CV","abstract;concrete","concrete",1,1739201827559,"concrete",1350.83333333333,727,"concrete","B","",6.58892647753352,7.20847696494172,7
"248","5ba802ee60f3d5000169e5da","lovable","test_conc","abstract-positive","Concrete","CV","abstract;concrete","abstract",1,1739201829014,"abstract",1373.33333333333,694,"concrete","B","",6.5424719605068,7.22499615367546,8
"249","5ba802ee60f3d5000169e5da","sinful","test_conc","abstract-negative","Concrete","CV","abstract;concrete","abstract",1,1739201830426,"abstract",1342,656,"concrete","B","",6.48616078894409,7.20191631753163,9
"250","5ba802ee60f3d5000169e5da","sensible","test_conc","abstract-positive","Concrete","CV","abstract;concrete","abstract",1,1739201831911,"abstract",1406.83333333333,728,"concrete","B","",6.59030104819669,7.24909659475566,10
"251","5ba802ee60f3d5000169e5da","divine","test_conc","abstract-positive","Concrete","CV","abstract;concrete","abstract",1,1739201833524,"abstract",1398,853,"concrete","B","",6.74875954749168,7.24279792279376,11
"252","5ba802ee60f3d5000169e5da","splendid","test_conc","abstract-positive","Concrete","CV","abstract;concrete","abstract",1,1739201835139,"abstract",1472.33333333333,859,"concrete","B","",6.75576892198425,7.29460372292842,12
"253","5ba802ee60f3d5000169e5da","heartless","test_conc","abstract-negative","Concrete","CV","abstract;concrete","abstract",1,1739201836722,"abstract",1425.5,827,"concrete","B","",6.71780469502369,7.26227790835273,13
"254","5ba802ee60f3d5000169e5da","rusted","test_conc","concrete-negative","Concrete","CV","abstract;concrete","concrete",1,1739201838143,"concrete",1366.66666666667,669,"concrete","B","",6.50578406012823,7.22012996402429,14
"255","5ba802ee60f3d5000169e5da","bloody","test_conc","concrete-negative","Concrete","CV","abstract;concrete","concrete",1,1739201839506,"concrete",1323,605,"concrete","B","",6.40522845803084,7.18765716411496,15
"256","5ba802ee60f3d5000169e5da","female","test_conc","concrete-positive","Concrete","CV","abstract;concrete","concrete",1,1739201840844,"concrete",1353.66666666667,583,"concrete","B","",6.36818718635049,7.21057223901819,16
"257","5ba802ee60f3d5000169e5da","helpful","test_conc","abstract-positive","Concrete","CV","abstract;concrete","abstract",1,1739201842247,"abstract",1390.66666666667,647,"concrete","B","",6.4723462945009,7.23753852745255,17
"258","5ba802ee60f3d5000169e5da","possible","test_conc","abstract-positive","Concrete","CV","abstract;concrete","abstract",1,1739201843826,"abstract",1369,823,"concrete","B","",6.71295620067707,7.22183582528845,18
"259","5ba802ee60f3d5000169e5da","pleasant","test_conc","abstract-positive","Concrete","CV","abstract;concrete","abstract",1,1739201845208,"abstract",1398.66666666667,623,"concrete","B","",6.43454651878745,7.24327468084808,19
"260","5ba802ee60f3d5000169e5da","soulless","test_conc","abstract-negative","Concrete","CV","abstract;concrete","abstract",1,1739201846585,"abstract",1362.33333333333,623,"concrete","B","",6.43454651878745,7.21695419489617,20
"261","5ba802ee60f3d5000169e5da","evil","test_conc","abstract-negative","Concrete","CV","abstract;concrete","abstract",1,1739201847935,"abstract",1306.33333333333,595,"concrete","B","",6.38856140554563,7.17497950953152,21
"262","5ba802ee60f3d5000169e5da","crappy","test_conc","abstract-negative","Concrete","CV","abstract;concrete","abstract",1,1739201849392,"abstract",1385.66666666667,703,"concrete","B","",6.55535689181067,7.23393665058453,22
"263","5ba802ee60f3d5000169e5da","disloyal","test_conc","abstract-negative","Concrete","CV","abstract;concrete","abstract",1,1739201850718,"abstract",1338.5,571,"concrete","B","",6.34738920965601,7.19930486296041,23
"264","5ba802ee60f3d5000169e5da","orange","test_conc","concrete-positive","Concrete","CV","abstract;concrete","concrete",1,1739201852182,"concrete",1325.16666666667,704,"concrete","B","",6.55677835615804,7.18929351667343,24
"265","5ba802ee60f3d5000169e5da","sexist","test_conc","abstract-negative","Concrete","CV","abstract;concrete","concrete",0,1739201853497,"concrete",1325.33333333333,557,"concrete","B","",6.32256523992728,7.18941927910836,25
"266","5ba802ee60f3d5000169e5da","starry","test_conc","concrete-positive","Concrete","CV","abstract;concrete","concrete",1,1739201854852,"concrete",1350.16666666667,598,"concrete","B","",6.39359075395063,7.20798332060244,26
"267","5ba802ee60f3d5000169e5da","freezing","test_conc","concrete-negative","Concrete","CV","abstract;concrete","concrete",1,1739201856226,"concrete",1339.5,616,"concrete","B","",6.42324696353352,7.20005168898466,27
"268","5ba802ee60f3d5000169e5da","sunny","test_conc","concrete-positive","Concrete","CV","abstract;concrete","abstract",0,1739201857555,"abstract",1432.91666666667,573,"concrete","B","",6.35088571671474,7.26746727307837,28
"269","5ba802ee60f3d5000169e5da","newborn","test_conc","concrete-positive","Concrete","CV","abstract;concrete","concrete",1,1739201859311,"concrete",1456.33333333333,999,"concrete","B","",6.90675477864855,7.28367714028333,29
"270","5ba802ee60f3d5000169e5da","pregnant","test_conc","concrete-positive","Concrete","CV","abstract;concrete","abstract",0,1739201860882,"abstract",1425.16666666667,816,"concrete","B","",6.70441435496411,7.2620440449279,30
"271","5ba802ee60f3d5000169e5da","thankful","test_conc","abstract-positive","Concrete","CV","abstract;concrete","abstract",1,1739201862655,"abstract",1406,1018,"concrete","B","",6.92559519711047,7.24850407237061,31
"272","5ba802ee60f3d5000169e5da","stupid","test_conc","abstract-negative","Concrete","CV","abstract;concrete","abstract",1,1739201864198,"abstract",1371.66666666667,782,"concrete","B","",6.66185474054531,7.22378182444306,32
"273","5ba802ee60f3d5000169e5da","mindful","test_conc","abstract-positive","Concrete","CV","abstract;concrete","abstract",1,1739201865887,"abstract",1443,936,"concrete","B","",6.84161547647759,7.27447955877387,33
"274","5ba802ee60f3d5000169e5da","headless","test_conc","concrete-negative","Concrete","CV","abstract;concrete","abstract",0,1739201867299,"abstract",1354.16666666667,657,"concrete","B","",6.48768401848461,7.21094153796988,34
"275","5ba802ee60f3d5000169e5da","dirty","test_conc","concrete-negative","Concrete","CV","abstract;concrete","concrete",1,1739201869123,"concrete",1413.83333333333,1067,"concrete","B","",6.97260625130175,7.25405997057968,35
"276","5ba802ee60f3d5000169e5da","handmade","test_conc","concrete-positive","Concrete","CV","abstract;concrete","concrete",1,1739201870592,"concrete",1375.33333333333,717,"concrete","B","",6.57507584059962,7.22645140496309,36
"277","5ba802ee60f3d5000169e5da","toothless","test_conc","concrete-negative","Concrete","CV","abstract;concrete","concrete",1,1739201872140,"concrete",1395.16666666667,792,"concrete","B","",6.67456139181443,7.240769161432,37
"278","5ba802ee60f3d5000169e5da","bloodshot","test_conc","concrete-negative","Concrete","CV","abstract;concrete","concrete",1,1739201873865,"concrete",1410,972,"concrete","B","",6.87935580446044,7.25134498337221,38
"279","5ba802ee60f3d5000169e5da","wrinkled","test_conc","concrete-negative","Concrete","CV","abstract;concrete","concrete",1,1739201875250,"concrete",1374.16666666667,631,"concrete","B","",6.44730586254121,7.22560276576564,39
"280","5ba802ee60f3d5000169e5da","worthless","test_conc","abstract-negative","Concrete","CV","abstract;concrete","abstract",1,1739201876864,"abstract",1370.33333333333,860,"concrete","B","",6.75693238924755,7.22280929822977,40
"281","5ba802ee60f3d5000169e5da","disloyal","test_conc","abstract-negative","Concrete","CV","abstract;concrete","abstract",1,1739201878260,"abstract",1338.5,643,"concrete","B","",6.46614472423762,7.19930486296041,41
"282","5ba802ee60f3d5000169e5da","sinful","test_conc","abstract-negative","Concrete","CV","abstract;concrete","abstract",1,1739201879746,"abstract",1342,729,"concrete","B","",6.59167373200866,7.20191631753163,42
"283","5ba802ee60f3d5000169e5da","splendid","test_conc","abstract-positive","Concrete","CV","abstract;concrete","abstract",1,1739201881266,"abstract",1472.33333333333,764,"concrete","B","",6.63856778916652,7.29460372292842,43
"284","5ba802ee60f3d5000169e5da","blooming","test_conc","concrete-positive","Concrete","CV","abstract;concrete","concrete",1,1739201882818,"concrete",1382.16666666667,796,"concrete","B","",6.67959918584438,7.23140759522315,44
"285","5ba802ee60f3d5000169e5da","orange","test_conc","concrete-positive","Concrete","CV","abstract;concrete","concrete",1,1739201884187,"concrete",1325.16666666667,613,"concrete","B","",6.41836493593621,7.18929351667343,45
"286","5ba802ee60f3d5000169e5da","starry","test_conc","concrete-positive","Concrete","CV","abstract;concrete","concrete",1,1739201885665,"concrete",1350.16666666667,722,"concrete","B","",6.58202513889283,7.20798332060244,46
"287","5ba802ee60f3d5000169e5da","rusted","test_conc","concrete-negative","Concrete","CV","abstract;concrete","concrete",1,1739201887057,"concrete",1366.66666666667,637,"concrete","B","",6.45676965557216,7.22012996402429,47
"288","5ba802ee60f3d5000169e5da","lovable","test_conc","abstract-positive","Concrete","CV","abstract;concrete","abstract",1,1739201888392,"abstract",1373.33333333333,581,"concrete","B","",6.36475075685191,7.22499615367546,48
"289","5ba802ee60f3d5000169e5da","freezing","test_conc","concrete-negative","Concrete","CV","abstract;concrete","concrete",1,1739201889847,"concrete",1339.5,697,"concrete","B","",6.54678541076052,7.20005168898466,49
"290","5ba802ee60f3d5000169e5da","thankful","test_conc","abstract-positive","Concrete","CV","abstract;concrete","abstract",1,1739201891233,"abstract",1406,629,"concrete","B","",6.44413125670044,7.24850407237061,50
"291","5ba802ee60f3d5000169e5da","handmade","test_conc","concrete-positive","Concrete","CV","abstract;concrete","concrete",1,1739201892633,"concrete",1375.33333333333,644,"concrete","B","",6.46769872610435,7.22645140496309,51
"292","5ba802ee60f3d5000169e5da","sunny","test_conc","concrete-positive","Concrete","CV","abstract;concrete","concrete",1,1739201894345,"concrete",1432.91666666667,957,"concrete","B","",6.86380339145295,7.26746727307837,52
"293","5ba802ee60f3d5000169e5da","crappy","test_conc","abstract-negative","Concrete","CV","abstract;concrete","abstract",1,1739201895767,"abstract",1385.66666666667,667,"concrete","B","",6.50279004591562,7.23393665058453,53
"294","5ba802ee60f3d5000169e5da","pleasant","test_conc","abstract-positive","Concrete","CV","abstract;concrete","abstract",1,1739201897314,"abstract",1398.66666666667,789,"concrete","B","",6.67076632084587,7.24327468084808,54
"295","5ba802ee60f3d5000169e5da","bloodshot","test_conc","concrete-negative","Concrete","CV","abstract;concrete","concrete",1,1739201898724,"concrete",1410,652,"concrete","B","",6.48004456192665,7.25134498337221,55
"296","5ba802ee60f3d5000169e5da","sexist","test_conc","abstract-negative","Concrete","CV","abstract;concrete","abstract",1,1739201900081,"abstract",1325.33333333333,599,"concrete","B","",6.39526159811545,7.18941927910836,56
"297","5ba802ee60f3d5000169e5da","stupid","test_conc","abstract-negative","Concrete","CV","abstract;concrete","abstract",1,1739201901539,"abstract",1371.66666666667,705,"concrete","B","",6.55819780281227,7.22378182444306,57
"298","5ba802ee60f3d5000169e5da","helpful","test_conc","abstract-positive","Concrete","CV","abstract;concrete","concrete",0,1739201903090,"concrete",1390.66666666667,794,"concrete","B","",6.67708346124714,7.23753852745255,58
"299","5ba802ee60f3d5000169e5da","human","test_conc","concrete-positive","Concrete","CV","abstract;concrete","concrete",1,1739201904405,"concrete",1350.83333333333,559,"concrete","B","",6.3261494731551,7.20847696494172,59
"300","5ba802ee60f3d5000169e5da","evil","test_conc","abstract-negative","Concrete","CV","abstract;concrete","abstract",1,1739201905762,"abstract",1306.33333333333,600,"concrete","B","",6.39692965521615,7.17497950953152,60
"301","5ba802ee60f3d5000169e5da","awful","test_conc","abstract-negative","Concrete","CV","abstract;concrete","abstract",1,1739201907097,"abstract",1336.66666666667,579,"concrete","B","",6.361302477573,7.19793423163251,61
"302","5ba802ee60f3d5000169e5da","lilac","test_conc","concrete-positive","Concrete","CV","abstract;concrete","concrete",1,1739201908480,"concrete",1343.66666666667,628,"concrete","B","",6.4425401664682,7.20315747444906,62
"303","5ba802ee60f3d5000169e5da","hairy","test_conc","concrete-negative","Concrete","CV","abstract;concrete","concrete",1,1739201909982,"concrete",1370.5,745,"concrete","B","",6.61338421837956,7.22293091574284,63
"304","5ba802ee60f3d5000169e5da","worthless","test_conc","abstract-negative","Concrete","CV","abstract;concrete","abstract",1,1739201911537,"abstract",1370.33333333333,801,"concrete","B","",6.68586094706836,7.22280929822977,64
"305","5ba802ee60f3d5000169e5da","divine","test_conc","abstract-positive","Concrete","CV","abstract;concrete","abstract",1,1739201912957,"abstract",1398,662,"concrete","B","",6.49526555593701,7.24279792279376,65
"306","5ba802ee60f3d5000169e5da","pregnant","test_conc","concrete-positive","Concrete","CV","abstract;concrete","concrete",1,1739201914502,"concrete",1425.16666666667,787,"concrete","B","",6.6682282484174,7.2620440449279,66
"307","5ba802ee60f3d5000169e5da","soulless","test_conc","abstract-negative","Concrete","CV","abstract;concrete","abstract",1,1739201915971,"abstract",1362.33333333333,715,"concrete","B","",6.57228254269401,7.21695419489617,67
"308","5ba802ee60f3d5000169e5da","female","test_conc","concrete-positive","Concrete","CV","abstract;concrete","concrete",1,1739201917369,"concrete",1353.66666666667,644,"concrete","B","",6.46769872610435,7.21057223901819,68
"309","5ba802ee60f3d5000169e5da","toothless","test_conc","concrete-negative","Concrete","CV","abstract;concrete","concrete",1,1739201918686,"concrete",1395.16666666667,561,"concrete","B","",6.3297209055227,7.240769161432,69
"310","5ba802ee60f3d5000169e5da","bloody","test_conc","concrete-negative","Concrete","CV","abstract;concrete","concrete",1,1739201920000,"concrete",1323,560,"concrete","B","",6.32793678372919,7.18765716411496,70
"311","5ba802ee60f3d5000169e5da","headless","test_conc","concrete-negative","Concrete","CV","abstract;concrete","abstract",0,1739201921426,"abstract",1354.16666666667,670,"concrete","B","",6.50727771238501,7.21094153796988,71
"312","5ba802ee60f3d5000169e5da","honest","test_conc","abstract-positive","Concrete","CV","abstract;concrete","abstract",1,1739201922917,"abstract",1418.5,736,"concrete","B","",6.60123011872888,7.25735525424891,72
"313","5ba802ee60f3d5000169e5da","possible","test_conc","abstract-positive","Concrete","CV","abstract;concrete","abstract",1,1739201924325,"abstract",1369,653,"concrete","B","",6.48157712927643,7.22183582528845,73
"314","5ba802ee60f3d5000169e5da","sensible","test_conc","abstract-positive","Concrete","CV","abstract;concrete","abstract",1,1739201925737,"abstract",1406.83333333333,658,"concrete","B","",6.48920493132532,7.24909659475566,74
"315","5ba802ee60f3d5000169e5da","dirty","test_conc","concrete-negative","Concrete","CV","abstract;concrete","concrete",1,1739201927048,"concrete",1413.83333333333,553,"concrete","B","",6.31535800152233,7.25405997057968,75
"316","5ba802ee60f3d5000169e5da","wrinkled","test_conc","concrete-negative","Concrete","CV","abstract;concrete","concrete",1,1739201928396,"concrete",1374.16666666667,592,"concrete","B","",6.38350663488401,7.22560276576564,76
"317","5ba802ee60f3d5000169e5da","thorny","test_conc","concrete-negative","Concrete","CV","abstract;concrete","concrete",1,1739201929805,"concrete",1444.33333333333,653,"concrete","B","",6.48157712927643,7.2754031330718,77
"318","5ba802ee60f3d5000169e5da","mindful","test_conc","abstract-positive","Concrete","CV","abstract;concrete","abstract",1,1739201931134,"abstract",1443,571,"concrete","B","",6.34738920965601,7.27447955877387,78
"319","5ba802ee60f3d5000169e5da","newborn","test_conc","concrete-positive","Concrete","CV","abstract;concrete","concrete",1,1739201932514,"concrete",1456.33333333333,623,"concrete","B","",6.43454651878745,7.28367714028333,79
"320","5ba802ee60f3d5000169e5da","heartless","test_conc","abstract-negative","Concrete","CV","abstract;concrete","abstract",1,1739201934022,"abstract",1425.5,749,"concrete","B","",6.61873898351722,7.26227790835273,80
"321","5ba802ee60f3d5000169e5da","headless","test_conc","concrete-negative","Concrete","CV","abstract;concrete","abstract",0,1739201935387,"abstract",1354.16666666667,610,"concrete","B","",6.41345895716736,7.21094153796988,81
"322","5ba802ee60f3d5000169e5da","newborn","test_conc","concrete-positive","Concrete","CV","abstract;concrete","concrete",1,1739201936876,"concrete",1456.33333333333,733,"concrete","B","",6.59714570188665,7.28367714028333,82
"323","5ba802ee60f3d5000169e5da","divine","test_conc","abstract-positive","Concrete","CV","abstract;concrete","abstract",1,1739201938208,"abstract",1398,575,"concrete","B","",6.35437004079735,7.24279792279376,83
"324","5ba802ee60f3d5000169e5da","bloodshot","test_conc","concrete-negative","Concrete","CV","abstract;concrete","concrete",1,1739201939550,"concrete",1410,585,"concrete","B","",6.37161184723186,7.25134498337221,84
"325","5ba802ee60f3d5000169e5da","dirty","test_conc","concrete-negative","Concrete","CV","abstract;concrete","concrete",1,1739201940864,"concrete",1413.83333333333,559,"concrete","B","",6.3261494731551,7.25405997057968,85
"326","5ba802ee60f3d5000169e5da","hairy","test_conc","concrete-negative","Concrete","CV","abstract;concrete","concrete",1,1739201942161,"concrete",1370.5,536,"concrete","B","",6.2841341610708,7.22293091574284,86
"327","5ba802ee60f3d5000169e5da","human","test_conc","concrete-positive","Concrete","CV","abstract;concrete","concrete",1,1739201943452,"concrete",1350.83333333333,532,"concrete","B","",6.27664348934164,7.20847696494172,87
"328","5ba802ee60f3d5000169e5da","crappy","test_conc","abstract-negative","Concrete","CV","abstract;concrete","abstract",1,1739201944927,"abstract",1385.66666666667,719,"concrete","B","",6.57786135772105,7.23393665058453,88
"329","5ba802ee60f3d5000169e5da","handmade","test_conc","concrete-positive","Concrete","CV","abstract;concrete","concrete",1,1739201946311,"concrete",1375.33333333333,627,"concrete","B","",6.44094654063292,7.22645140496309,89
"330","5ba802ee60f3d5000169e5da","bloody","test_conc","concrete-negative","Concrete","CV","abstract;concrete","concrete",1,1739201947608,"concrete",1323,537,"concrete","B","",6.28599809450886,7.18765716411496,90
"331","5ba802ee60f3d5000169e5da","sunny","test_conc","concrete-positive","Concrete","CV","abstract;concrete","concrete",1,1739201949057,"concrete",1432.91666666667,694,"concrete","B","",6.5424719605068,7.26746727307837,91
"332","5ba802ee60f3d5000169e5da","wrinkled","test_conc","concrete-negative","Concrete","CV","abstract;concrete","concrete",1,1739201950376,"concrete",1374.16666666667,563,"concrete","B","",6.33327962813969,7.22560276576564,92
"333","5ba802ee60f3d5000169e5da","worthless","test_conc","abstract-negative","Concrete","CV","abstract;concrete","abstract",1,1739201951635,"abstract",1370.33333333333,502,"concrete","B","",6.21860011969173,7.22280929822977,93
"334","5ba802ee60f3d5000169e5da","stupid","test_conc","abstract-negative","Concrete","CV","abstract;concrete","abstract",1,1739201952940,"abstract",1371.66666666667,547,"concrete","B","",6.30444880242198,7.22378182444306,94
"335","5ba802ee60f3d5000169e5da","rusted","test_conc","concrete-negative","Concrete","CV","abstract;concrete","concrete",1,1739201954289,"concrete",1366.66666666667,591,"concrete","B","",6.3818160174061,7.22012996402429,95
"336","5ba802ee60f3d5000169e5da","awful","test_conc","abstract-negative","Concrete","CV","abstract;concrete","abstract",1,1739201955588,"abstract",1336.66666666667,539,"concrete","B","",6.289715570909,7.19793423163251,96
"337","5ba802ee60f3d5000169e5da","helpful","test_conc","abstract-positive","Concrete","CV","abstract;concrete","abstract",1,1739201957015,"abstract",1390.66666666667,671,"concrete","B","",6.50876913697168,7.23753852745255,97
"338","5ba802ee60f3d5000169e5da","honest","test_conc","abstract-positive","Concrete","CV","abstract;concrete","abstract",1,1739201958533,"abstract",1418.5,759,"concrete","B","",6.63200177739563,7.25735525424891,98
"339","5ba802ee60f3d5000169e5da","possible","test_conc","abstract-positive","Concrete","CV","abstract;concrete","abstract",1,1739201959931,"abstract",1369,638,"concrete","B","",6.45833828334479,7.22183582528845,99
"340","5ba802ee60f3d5000169e5da","disloyal","test_conc","abstract-negative","Concrete","CV","abstract;concrete","abstract",1,1739201961260,"abstract",1338.5,571,"concrete","B","",6.34738920965601,7.19930486296041,100
"341","5ba802ee60f3d5000169e5da","lilac","test_conc","concrete-positive","Concrete","CV","abstract;concrete","concrete",1,1739201962580,"concrete",1343.66666666667,562,"concrete","B","",6.33150184989369,7.20315747444906,101
"342","5ba802ee60f3d5000169e5da","lovable","test_conc","abstract-positive","Concrete","CV","abstract;concrete","abstract",1,1739201963994,"abstract",1373.33333333333,658,"concrete","B","",6.48920493132532,7.22499615367546,102
"343","5ba802ee60f3d5000169e5da","pregnant","test_conc","concrete-positive","Concrete","CV","abstract;concrete","concrete",1,1739201965359,"concrete",1425.16666666667,610,"concrete","B","",6.41345895716736,7.2620440449279,103
"344","5ba802ee60f3d5000169e5da","female","test_conc","concrete-positive","Concrete","CV","abstract;concrete","concrete",1,1739201966703,"concrete",1353.66666666667,590,"concrete","B","",6.38012253689976,7.21057223901819,104
"345","5ba802ee60f3d5000169e5da","pleasant","test_conc","abstract-positive","Concrete","CV","abstract;concrete","abstract",1,1739201968088,"abstract",1398.66666666667,633,"concrete","B","",6.45047042214418,7.24327468084808,105
"346","5ba802ee60f3d5000169e5da","toothless","test_conc","concrete-negative","Concrete","CV","abstract;concrete","concrete",1,1739201969354,"concrete",1395.16666666667,510,"concrete","B","",6.23441072571837,7.240769161432,106
"347","5ba802ee60f3d5000169e5da","sexist","test_conc","abstract-negative","Concrete","CV","abstract;concrete","abstract",1,1739201970638,"abstract",1325.33333333333,524,"concrete","B","",6.26149168432104,7.18941927910836,107
"348","5ba802ee60f3d5000169e5da","blooming","test_conc","concrete-positive","Concrete","CV","abstract;concrete","concrete",1,1739201972020,"concrete",1382.16666666667,625,"concrete","B","",6.4377516497364,7.23140759522315,108
"349","5ba802ee60f3d5000169e5da","thankful","test_conc","abstract-positive","Concrete","CV","abstract;concrete","abstract",1,1739201973357,"abstract",1406,584,"concrete","B","",6.36990098282823,7.24850407237061,109
"350","5ba802ee60f3d5000169e5da","thorny","test_conc","concrete-negative","Concrete","CV","abstract;concrete","concrete",1,1739201974762,"concrete",1444.33333333333,647,"concrete","B","",6.4723462945009,7.2754031330718,110
"351","5ba802ee60f3d5000169e5da","evil","test_conc","abstract-negative","Concrete","CV","abstract;concrete","abstract",1,1739201976130,"abstract",1306.33333333333,613,"concrete","B","",6.41836493593621,7.17497950953152,111
"352","5ba802ee60f3d5000169e5da","heartless","test_conc","abstract-negative","Concrete","CV","abstract;concrete","abstract",1,1739201977555,"abstract",1425.5,668,"concrete","B","",6.50428817353665,7.26227790835273,112
"353","5ba802ee60f3d5000169e5da","freezing","test_conc","concrete-negative","Concrete","CV","abstract;concrete","concrete",1,1739201978867,"concrete",1339.5,558,"concrete","B","",6.32435896238131,7.20005168898466,113
"354","5ba802ee60f3d5000169e5da","splendid","test_conc","abstract-positive","Concrete","CV","abstract;concrete","abstract",1,1739201980206,"abstract",1472.33333333333,584,"concrete","B","",6.36990098282823,7.29460372292842,114
"355","5ba802ee60f3d5000169e5da","orange","test_conc","concrete-positive","Concrete","CV","abstract;concrete","concrete",1,1739201981497,"concrete",1325.16666666667,535,"concrete","B","",6.28226674689601,7.18929351667343,115
"356","5ba802ee60f3d5000169e5da","starry","test_conc","concrete-positive","Concrete","CV","abstract;concrete","concrete",1,1739201982817,"concrete",1350.16666666667,565,"concrete","B","",6.33682573114644,7.20798332060244,116
"357","5ba802ee60f3d5000169e5da","sinful","test_conc","abstract-negative","Concrete","CV","abstract;concrete","abstract",1,1739201984081,"abstract",1342,511,"concrete","B","",6.2363695902037,7.20191631753163,117
"358","5ba802ee60f3d5000169e5da","soulless","test_conc","abstract-negative","Concrete","CV","abstract;concrete","abstract",1,1739201985446,"abstract",1362.33333333333,605,"concrete","B","",6.40522845803084,7.21695419489617,118
"359","5ba802ee60f3d5000169e5da","mindful","test_conc","abstract-positive","Concrete","CV","abstract;concrete","abstract",1,1739201986860,"abstract",1443,657,"concrete","B","",6.48768401848461,7.27447955877387,119
"360","5ba802ee60f3d5000169e5da","sensible","test_conc","abstract-positive","Concrete","CV","abstract;concrete","abstract",1,1739201988177,"abstract",1406.83333333333,560,"concrete","B","",6.32793678372919,7.24909659475566,120
"361","5ba802ee60f3d5000169e5da","thankful","test_val","abstract-positive","Valence","CV","negative;positive","positive",1,1739202093699,"positive",1406,568,"positive","B","",6.34212141872115,7.24850407237061,121
"362","5ba802ee60f3d5000169e5da","thorny","test_val","concrete-negative","Valence","CV","negative;positive","positive",0,1739202095155,"positive",1444.33333333333,702,"positive","B","",6.55393340402581,7.2754031330718,122
"363","5ba802ee60f3d5000169e5da","splendid","test_val","abstract-positive","Valence","CV","negative;positive","positive",1,1739202096566,"positive",1472.33333333333,657,"positive","B","",6.48768401848461,7.29460372292842,123
"364","5ba802ee60f3d5000169e5da","crappy","test_val","abstract-negative","Valence","CV","negative;positive","negative",1,1739202097899,"negative",1385.66666666667,577,"positive","B","",6.3578422665081,7.23393665058453,124
"365","5ba802ee60f3d5000169e5da","mindful","test_val","abstract-positive","Valence","CV","negative;positive","positive",1,1739202099281,"positive",1443,628,"positive","B","",6.4425401664682,7.27447955877387,125
"366","5ba802ee60f3d5000169e5da","stupid","test_val","abstract-negative","Valence","CV","negative;positive","negative",1,1739202100670,"negative",1371.66666666667,634,"positive","B","",6.45204895443723,7.22378182444306,126
"367","5ba802ee60f3d5000169e5da","lilac","test_val","concrete-positive","Valence","CV","negative;positive","positive",1,1739202102032,"positive",1343.66666666667,607,"positive","B","",6.4085287910595,7.20315747444906,127
"368","5ba802ee60f3d5000169e5da","handmade","test_val","concrete-positive","Valence","CV","negative;positive","positive",1,1739202103333,"positive",1375.33333333333,545,"positive","B","",6.30078579466324,7.22645140496309,128
"369","5ba802ee60f3d5000169e5da","awful","test_val","abstract-negative","Valence","CV","negative;positive","negative",1,1739202104673,"negative",1336.66666666667,586,"positive","B","",6.37331978957701,7.19793423163251,129
"370","5ba802ee60f3d5000169e5da","sunny","test_val","concrete-positive","Valence","CV","negative;positive","positive",1,1739202105991,"positive",1432.91666666667,560,"positive","B","",6.32793678372919,7.26746727307837,130
"371","5ba802ee60f3d5000169e5da","divine","test_val","abstract-positive","Valence","CV","negative;positive","positive",1,1739202107313,"positive",1398,569,"positive","B","",6.34388043412633,7.24279792279376,131
"372","5ba802ee60f3d5000169e5da","bloodshot","test_val","concrete-negative","Valence","CV","negative;positive","negative",1,1739202108723,"negative",1410,656,"positive","B","",6.48616078894409,7.25134498337221,132
"373","5ba802ee60f3d5000169e5da","freezing","test_val","concrete-negative","Valence","CV","negative;positive","positive",0,1739202110039,"positive",1339.5,562,"positive","B","",6.33150184989369,7.20005168898466,133
"374","5ba802ee60f3d5000169e5da","wrinkled","test_val","concrete-negative","Valence","CV","negative;positive","negative",1,1739202111558,"negative",1374.16666666667,765,"positive","B","",6.63987583382654,7.22560276576564,134
"375","5ba802ee60f3d5000169e5da","heartless","test_val","abstract-negative","Valence","CV","negative;positive","negative",1,1739202112925,"negative",1425.5,612,"positive","B","",6.41673228251233,7.26227790835273,135
"376","5ba802ee60f3d5000169e5da","toothless","test_val","concrete-negative","Valence","CV","negative;positive","negative",1,1739202114496,"negative",1395.16666666667,816,"positive","B","",6.70441435496411,7.240769161432,136
"377","5ba802ee60f3d5000169e5da","bloody","test_val","concrete-negative","Valence","CV","negative;positive","negative",1,1739202115974,"negative",1323,718,"positive","B","",6.57646956904822,7.18765716411496,137
"378","5ba802ee60f3d5000169e5da","human","test_val","concrete-positive","Valence","CV","negative;positive","positive",1,1739202117344,"positive",1350.83333333333,614,"positive","B","",6.41999492814714,7.20847696494172,138
"379","5ba802ee60f3d5000169e5da","female","test_val","concrete-positive","Valence","CV","negative;positive","positive",1,1739202118821,"positive",1353.66666666667,723,"positive","B","",6.58340922215876,7.21057223901819,139
"380","5ba802ee60f3d5000169e5da","newborn","test_val","concrete-positive","Valence","CV","negative;positive","positive",1,1739202120169,"positive",1456.33333333333,589,"positive","B","",6.37842618365159,7.28367714028333,140
"381","5ba802ee60f3d5000169e5da","honest","test_val","abstract-positive","Valence","CV","negative;positive","positive",1,1739202121492,"positive",1418.5,567,"positive","B","",6.34035930372775,7.25735525424891,141
"382","5ba802ee60f3d5000169e5da","dirty","test_val","concrete-negative","Valence","CV","negative;positive","negative",1,1739202122770,"negative",1413.83333333333,524,"positive","B","",6.26149168432104,7.25405997057968,142
"383","5ba802ee60f3d5000169e5da","worthless","test_val","abstract-negative","Valence","CV","negative;positive","negative",1,1739202124055,"negative",1370.33333333333,530,"positive","B","",6.27287700654617,7.22280929822977,143
"384","5ba802ee60f3d5000169e5da","starry","test_val","concrete-positive","Valence","CV","negative;positive","positive",1,1739202125393,"positive",1350.16666666667,585,"positive","B","",6.37161184723186,7.20798332060244,144
"385","5ba802ee60f3d5000169e5da","lovable","test_val","abstract-positive","Valence","CV","negative;positive","positive",1,1739202126660,"positive",1373.33333333333,512,"positive","B","",6.23832462503951,7.22499615367546,145
"386","5ba802ee60f3d5000169e5da","soulless","test_val","abstract-negative","Valence","CV","negative;positive","negative",1,1739202128141,"negative",1362.33333333333,727,"positive","B","",6.58892647753352,7.21695419489617,146
"387","5ba802ee60f3d5000169e5da","evil","test_val","abstract-negative","Valence","CV","negative;positive","negative",1,1739202129397,"negative",1306.33333333333,500,"positive","B","",6.21460809842219,7.17497950953152,147
"388","5ba802ee60f3d5000169e5da","blooming","test_val","concrete-positive","Valence","CV","negative;positive","positive",1,1739202130721,"positive",1382.16666666667,571,"positive","B","",6.34738920965601,7.23140759522315,148
"389","5ba802ee60f3d5000169e5da","headless","test_val","concrete-negative","Valence","CV","negative;positive","negative",1,1739202132037,"negative",1354.16666666667,561,"positive","B","",6.3297209055227,7.21094153796988,149
"390","5ba802ee60f3d5000169e5da","rusted","test_val","concrete-negative","Valence","CV","negative;positive","negative",1,1739202133254,"negative",1366.66666666667,462,"positive","B","",6.13556489108174,7.22012996402429,150
"391","5ba802ee60f3d5000169e5da","sexist","test_val","abstract-negative","Valence","CV","negative;positive","negative",1,1739202134590,"negative",1325.33333333333,577,"positive","B","",6.3578422665081,7.18941927910836,151
"392","5ba802ee60f3d5000169e5da","sensible","test_val","abstract-positive","Valence","CV","negative;positive","positive",1,1739202136129,"positive",1406.83333333333,779,"positive","B","",6.65801104587075,7.24909659475566,152
"393","5ba802ee60f3d5000169e5da","helpful","test_val","abstract-positive","Valence","CV","negative;positive","positive",1,1739202137442,"positive",1390.66666666667,557,"positive","B","",6.32256523992728,7.23753852745255,153
"394","5ba802ee60f3d5000169e5da","sinful","test_val","abstract-negative","Valence","CV","negative;positive","negative",1,1739202138772,"negative",1342,574,"positive","B","",6.35262939631957,7.20191631753163,154
"395","5ba802ee60f3d5000169e5da","orange","test_val","concrete-positive","Valence","CV","negative;positive","positive",1,1739202140037,"positive",1325.16666666667,509,"positive","B","",6.23244801655052,7.18929351667343,155
"396","5ba802ee60f3d5000169e5da","possible","test_val","abstract-positive","Valence","CV","negative;positive","positive",1,1739202141312,"positive",1369,517,"positive","B","",6.24804287450843,7.22183582528845,156
"397","5ba802ee60f3d5000169e5da","pregnant","test_val","concrete-positive","Valence","CV","negative;positive","positive",1,1739202142589,"positive",1425.16666666667,519,"positive","B","",6.25190388316589,7.2620440449279,157
"398","5ba802ee60f3d5000169e5da","pleasant","test_val","abstract-positive","Valence","CV","negative;positive","negative",0,1739202144143,"negative",1398.66666666667,800,"positive","B","",6.68461172766793,7.24327468084808,158
"399","5ba802ee60f3d5000169e5da","disloyal","test_val","abstract-negative","Valence","CV","negative;positive","negative",1,1739202145594,"negative",1338.5,695,"positive","B","",6.54391184556479,7.19930486296041,159
"400","5ba802ee60f3d5000169e5da","hairy","test_val","concrete-negative","Valence","CV","negative;positive","negative",1,1739202146875,"negative",1370.5,527,"positive","B","",6.26720054854136,7.22293091574284,160
"401","5ba802ee60f3d5000169e5da","splendid","test_val","abstract-positive","Valence","CV","negative;positive","positive",1,1739202148331,"positive",1472.33333333333,698,"positive","B","",6.54821910276237,7.29460372292842,161
"402","5ba802ee60f3d5000169e5da","dirty","test_val","concrete-negative","Valence","CV","negative;positive","negative",1,1739202149775,"negative",1413.83333333333,688,"positive","B","",6.53378883793334,7.25405997057968,162
"403","5ba802ee60f3d5000169e5da","possible","test_val","abstract-positive","Valence","CV","negative;positive","positive",1,1739202151071,"positive",1369,539,"positive","B","",6.289715570909,7.22183582528845,163
"404","5ba802ee60f3d5000169e5da","sexist","test_val","abstract-negative","Valence","CV","negative;positive","negative",1,1739202152426,"negative",1325.33333333333,601,"positive","B","",6.39859493453521,7.18941927910836,164
"405","5ba802ee60f3d5000169e5da","heartless","test_val","abstract-negative","Valence","CV","negative;positive","negative",1,1739202153785,"negative",1425.5,602,"positive","B","",6.40025744530882,7.26227790835273,165
"406","5ba802ee60f3d5000169e5da","lovable","test_val","abstract-positive","Valence","CV","negative;positive","positive",1,1739202155091,"positive",1373.33333333333,550,"positive","B","",6.30991827822652,7.22499615367546,166
"407","5ba802ee60f3d5000169e5da","handmade","test_val","concrete-positive","Valence","CV","negative;positive","positive",1,1739202156454,"positive",1375.33333333333,606,"positive","B","",6.40687998606931,7.22645140496309,167
"408","5ba802ee60f3d5000169e5da","newborn","test_val","concrete-positive","Valence","CV","negative;positive","positive",1,1739202157894,"positive",1456.33333333333,687,"positive","B","",6.53233429222235,7.28367714028333,168
"409","5ba802ee60f3d5000169e5da","awful","test_val","abstract-negative","Valence","CV","negative;positive","negative",1,1739202159202,"negative",1336.66666666667,555,"positive","B","",6.31896811374643,7.19793423163251,169
"410","5ba802ee60f3d5000169e5da","starry","test_val","concrete-positive","Valence","CV","negative;positive","positive",1,1739202160490,"positive",1350.16666666667,532,"positive","B","",6.27664348934164,7.20798332060244,170
"411","5ba802ee60f3d5000169e5da","sunny","test_val","concrete-positive","Valence","CV","negative;positive","positive",1,1739202161923,"positive",1432.91666666667,678,"positive","B","",6.5191472879404,7.26746727307837,171
"412","5ba802ee60f3d5000169e5da","disloyal","test_val","abstract-negative","Valence","CV","negative;positive","negative",1,1739202163162,"negative",1338.5,482,"positive","B","",6.1779441140506,7.19930486296041,172
"413","5ba802ee60f3d5000169e5da","rusted","test_val","concrete-negative","Valence","CV","negative;positive","negative",1,1739202164392,"negative",1366.66666666667,476,"positive","B","",6.16541785423142,7.22012996402429,173
"414","5ba802ee60f3d5000169e5da","female","test_val","concrete-positive","Valence","CV","negative;positive","positive",1,1739202165665,"positive",1353.66666666667,516,"positive","B","",6.24610676548156,7.21057223901819,174
"415","5ba802ee60f3d5000169e5da","bloody","test_val","concrete-negative","Valence","CV","negative;positive","negative",1,1739202166930,"negative",1323,509,"positive","B","",6.23244801655052,7.18765716411496,175
"416","5ba802ee60f3d5000169e5da","evil","test_val","abstract-negative","Valence","CV","negative;positive","negative",1,1739202168197,"negative",1306.33333333333,508,"positive","B","",6.23048144757848,7.17497950953152,176
"417","5ba802ee60f3d5000169e5da","soulless","test_val","abstract-negative","Valence","CV","negative;positive","negative",1,1739202169427,"negative",1362.33333333333,475,"positive","B","",6.16331480403464,7.21695419489617,177
"418","5ba802ee60f3d5000169e5da","lilac","test_val","concrete-positive","Valence","CV","negative;positive","positive",1,1739202170697,"positive",1343.66666666667,513,"positive","B","",6.24027584517077,7.20315747444906,178
"419","5ba802ee60f3d5000169e5da","blooming","test_val","concrete-positive","Valence","CV","negative;positive","positive",1,1739202171977,"positive",1382.16666666667,522,"positive","B","",6.25766758788264,7.23140759522315,179
"420","5ba802ee60f3d5000169e5da","hairy","test_val","concrete-negative","Valence","CV","negative;positive","negative",1,1739202173337,"negative",1370.5,605,"positive","B","",6.40522845803084,7.22293091574284,180
"421","5ba802ee60f3d5000169e5da","freezing","test_val","concrete-negative","Valence","CV","negative;positive","negative",1,1739202174644,"negative",1339.5,551,"positive","B","",6.31173480915291,7.20005168898466,181
"422","5ba802ee60f3d5000169e5da","pregnant","test_val","concrete-positive","Valence","CV","negative;positive","positive",1,1739202176170,"positive",1425.16666666667,769,"positive","B","",6.64509096950564,7.2620440449279,182
"423","5ba802ee60f3d5000169e5da","thankful","test_val","abstract-positive","Valence","CV","negative;positive","positive",1,1739202177514,"positive",1406,589,"positive","B","",6.37842618365159,7.24850407237061,183
"424","5ba802ee60f3d5000169e5da","wrinkled","test_val","concrete-negative","Valence","CV","negative;positive","negative",1,1739202178925,"negative",1374.16666666667,656,"positive","B","",6.48616078894409,7.22560276576564,184
"425","5ba802ee60f3d5000169e5da","human","test_val","concrete-positive","Valence","CV","negative;positive","positive",1,1739202180255,"positive",1350.83333333333,575,"positive","B","",6.35437004079735,7.20847696494172,185
"426","5ba802ee60f3d5000169e5da","stupid","test_val","abstract-negative","Valence","CV","negative;positive","negative",1,1739202181544,"negative",1371.66666666667,532,"positive","B","",6.27664348934164,7.22378182444306,186
"427","5ba802ee60f3d5000169e5da","sinful","test_val","abstract-negative","Valence","CV","negative;positive","negative",1,1739202182750,"negative",1342,449,"positive","B","",6.10702288774225,7.20191631753163,187
"428","5ba802ee60f3d5000169e5da","honest","test_val","abstract-positive","Valence","CV","negative;positive","positive",1,1739202184085,"positive",1418.5,582,"positive","B","",6.36647044773144,7.25735525424891,188
"429","5ba802ee60f3d5000169e5da","thorny","test_val","concrete-negative","Valence","CV","negative;positive","negative",1,1739202185401,"negative",1444.33333333333,563,"positive","B","",6.33327962813969,7.2754031330718,189
"430","5ba802ee60f3d5000169e5da","headless","test_val","concrete-negative","Valence","CV","negative;positive","negative",1,1739202186764,"negative",1354.16666666667,604,"positive","B","",6.40357419793482,7.21094153796988,190
"431","5ba802ee60f3d5000169e5da","divine","test_val","abstract-positive","Valence","CV","negative;positive","positive",1,1739202188085,"positive",1398,565,"positive","B","",6.33682573114644,7.24279792279376,191
"432","5ba802ee60f3d5000169e5da","orange","test_val","concrete-positive","Valence","CV","negative;positive","positive",1,1739202189361,"positive",1325.16666666667,522,"positive","B","",6.25766758788264,7.18929351667343,192
"433","5ba802ee60f3d5000169e5da","crappy","test_val","abstract-negative","Valence","CV","negative;positive","negative",1,1739202190721,"negative",1385.66666666667,602,"positive","B","",6.40025744530882,7.23393665058453,193
"434","5ba802ee60f3d5000169e5da","worthless","test_val","abstract-negative","Valence","CV","negative;positive","negative",1,1739202191943,"negative",1370.33333333333,469,"positive","B","",6.15060276844628,7.22280929822977,194
"435","5ba802ee60f3d5000169e5da","bloodshot","test_val","concrete-negative","Valence","CV","negative;positive","negative",1,1739202193147,"negative",1410,446,"positive","B","",6.10031895202006,7.25134498337221,195
"436","5ba802ee60f3d5000169e5da","toothless","test_val","concrete-negative","Valence","CV","negative;positive","negative",1,1739202194562,"negative",1395.16666666667,661,"positive","B","",6.49375383985169,7.240769161432,196
"437","5ba802ee60f3d5000169e5da","sensible","test_val","abstract-positive","Valence","CV","negative;positive","negative",0,1739202195895,"negative",1406.83333333333,577,"positive","B","",6.3578422665081,7.24909659475566,197
"438","5ba802ee60f3d5000169e5da","helpful","test_val","abstract-positive","Valence","CV","negative;positive","positive",1,1739202197194,"positive",1390.66666666667,542,"positive","B","",6.29526600143965,7.23753852745255,198
"439","5ba802ee60f3d5000169e5da","pleasant","test_val","abstract-positive","Valence","CV","negative;positive","positive",1,1739202198467,"positive",1398.66666666667,516,"positive","B","",6.24610676548156,7.24327468084808,199
"440","5ba802ee60f3d5000169e5da","mindful","test_val","abstract-positive","Valence","CV","negative;positive","negative",0,1739202199822,"negative",1443,598,"positive","B","",6.39359075395063,7.27447955877387,200
"441","5ba802ee60f3d5000169e5da","hairy","test_val","concrete-negative","Valence","CV","negative;positive","negative",1,1739202201156,"negative",1370.5,583,"positive","B","",6.36818718635049,7.22293091574284,201
"442","5ba802ee60f3d5000169e5da","bloodshot","test_val","concrete-negative","Valence","CV","negative;positive","negative",1,1739202202532,"negative",1410,620,"positive","B","",6.42971947803914,7.25134498337221,202
"443","5ba802ee60f3d5000169e5da","female","test_val","concrete-positive","Valence","CV","negative;positive","positive",1,1739202203830,"positive",1353.66666666667,544,"positive","B","",6.29894924685594,7.21057223901819,203
"444","5ba802ee60f3d5000169e5da","possible","test_val","abstract-positive","Valence","CV","negative;positive","positive",1,1739202205094,"positive",1369,507,"positive","B","",6.22851100359118,7.22183582528845,204
"445","5ba802ee60f3d5000169e5da","soulless","test_val","abstract-negative","Valence","CV","negative;positive","negative",1,1739202206352,"negative",1362.33333333333,502,"positive","B","",6.21860011969173,7.21695419489617,205
"446","5ba802ee60f3d5000169e5da","splendid","test_val","abstract-positive","Valence","CV","negative;positive","positive",1,1739202207851,"positive",1472.33333333333,745,"positive","B","",6.61338421837956,7.29460372292842,206
"447","5ba802ee60f3d5000169e5da","disloyal","test_val","abstract-negative","Valence","CV","negative;positive","negative",1,1739202209149,"negative",1338.5,541,"positive","B","",6.29341927884648,7.19930486296041,207
"448","5ba802ee60f3d5000169e5da","wrinkled","test_val","concrete-negative","Valence","CV","negative;positive","negative",1,1739202210419,"negative",1374.16666666667,516,"positive","B","",6.24610676548156,7.22560276576564,208
"449","5ba802ee60f3d5000169e5da","worthless","test_val","abstract-negative","Valence","CV","negative;positive","negative",1,1739202211715,"negative",1370.33333333333,539,"positive","B","",6.289715570909,7.22280929822977,209
"450","5ba802ee60f3d5000169e5da","stupid","test_val","abstract-negative","Valence","CV","negative;positive","negative",1,1739202212970,"negative",1371.66666666667,500,"positive","B","",6.21460809842219,7.22378182444306,210
"451","5ba802ee60f3d5000169e5da","freezing","test_val","concrete-negative","Valence","CV","negative;positive","positive",0,1739202214250,"positive",1339.5,521,"positive","B","",6.25575004175337,7.20005168898466,211
"452","5ba802ee60f3d5000169e5da","rusted","test_val","concrete-negative","Valence","CV","negative;positive","positive",0,1739202215849,"positive",1366.66666666667,841,"positive","B","",6.73459165997295,7.22012996402429,212
"453","5ba802ee60f3d5000169e5da","lovable","test_val","abstract-positive","Valence","CV","negative;positive","positive",1,1739202217319,"positive",1373.33333333333,713,"positive","B","",6.5694814204143,7.22499615367546,213
