"","ID.true","Word","Label","ConcValCombo","Task","BlockOrder","Group","Response","Accuracy","EventTime","Value","RT","ReactionTime","Key_value_F","Key_value_J","Comments","LogReactionTime","LogRT","TrialNumber"
"1","632b5400bf46cdb11db9f588","rusted","test_val","concrete-negative","Valence","VC","positive;negative","negative",1,1742927220595,"negative",1146.33333333333,697,"negative","A","",6.54678541076052,7.04432372176416,1
"2","632b5400bf46cdb11db9f588","mindful","test_val","abstract-positive","Valence","VC","positive;negative","positive",1,1742927221933,"positive",1351.33333333333,572,"negative","A","",6.3491389913798,7.20884703834384,2
"3","632b5400bf46cdb11db9f588","freezing","test_val","concrete-negative","Valence","VC","positive;negative","negative",1,1742927223286,"negative",1188.66666666667,589,"negative","A","",6.37842618365159,7.08058750975498,3
"4","632b5400bf46cdb11db9f588","disloyal","test_val","abstract-negative","Valence","VC","positive;negative","negative",1,1742927224556,"negative",1174.66666666667,500,"negative","A","",6.21460809842219,7.06873969838796,4
"5","632b5400bf46cdb11db9f588","soulless","test_val","abstract-negative","Valence","VC","positive;negative","negative",1,1742927225916,"negative",1233.5,584,"negative","A","",6.36990098282823,7.11761093596941,5
"6","632b5400bf46cdb11db9f588","evil","test_val","abstract-negative","Valence","VC","positive;negative","negative",1,1742927227114,"negative",1116.16666666667,427,"negative","A","",6.05678401322862,7.017655474682,6
"7","632b5400bf46cdb11db9f588","starry","test_val","concrete-positive","Valence","VC","positive;negative","negative",0,1742927228346,"negative",1147.33333333333,461,"negative","A","",6.13339804299665,7.04519568810337,7
"8","632b5400bf46cdb11db9f588","female","test_val","concrete-positive","Valence","VC","positive;negative","positive",1,1742927229575,"positive",1161.33333333333,446,"negative","A","",6.10031895202006,7.05732404930428,8
"9","632b5400bf46cdb11db9f588","headless","test_val","concrete-negative","Valence","VC","positive;negative","negative",1,1742927230959,"negative",1165,610,"negative","A","",6.41345895716736,7.0604763659998,9
"10","632b5400bf46cdb11db9f588","hairy","test_val","concrete-negative","Valence","VC","positive;negative","negative",1,1742927232292,"negative",1219.66666666667,558,"negative","A","",6.32435896238131,7.1063328763511,10
"11","632b5400bf46cdb11db9f588","crappy","test_val","abstract-negative","Valence","VC","positive;negative","negative",1,1742927233623,"negative",1152.83333333333,560,"negative","A","",6.32793678372919,7.04997795937253,11
"12","632b5400bf46cdb11db9f588","lovable","test_val","abstract-positive","Valence","VC","positive;negative","positive",1,1742927234906,"positive",1175.83333333333,505,"negative","A","",6.22455842927536,7.06973239505886,12
"13","632b5400bf46cdb11db9f588","pleasant","test_val","abstract-positive","Valence","VC","positive;negative","positive",1,1742927236168,"positive",1259.66666666667,486,"negative","A","",6.18620862390049,7.13860241468138,13
"14","632b5400bf46cdb11db9f588","bloody","test_val","concrete-negative","Valence","VC","positive;negative","negative",1,1742927237500,"negative",1162.33333333333,554,"negative","A","",6.31716468674728,7.05818475800754,14
"15","632b5400bf46cdb11db9f588","pregnant","test_val","concrete-positive","Valence","VC","positive;negative","negative",0,1742927239166,"negative",1317,892,"negative","A","",6.79346613258001,7.18311170174328,15
"16","632b5400bf46cdb11db9f588","newborn","test_val","concrete-positive","Valence","VC","positive;negative","negative",0,1742927240857,"negative",1286.83333333333,927,"negative","A","",6.83195356556585,7.15993969908076,16
"17","632b5400bf46cdb11db9f588","human","test_val","concrete-positive","Valence","VC","positive;negative","positive",1,1742927242292,"positive",1153,664,"negative","A","",6.49828214947643,7.05012252026906,17
"18","632b5400bf46cdb11db9f588","honest","test_val","abstract-positive","Valence","VC","positive;negative","positive",1,1742927243464,"positive",1124.33333333333,396,"negative","A","",5.98141421125448,7.02494554639354,18
"19","632b5400bf46cdb11db9f588","worthless","test_val","abstract-negative","Valence","VC","positive;negative","negative",1,1742927244912,"negative",1190.5,677,"negative","A","",6.51767127291227,7.08212866592692,19
"20","632b5400bf46cdb11db9f588","possible","test_val","abstract-positive","Valence","VC","positive;negative","positive",1,1742927246215,"positive",1179.16666666667,534,"negative","A","",6.2803958389602,7.07256325328338,20
"21","632b5400bf46cdb11db9f588","divine","test_val","abstract-positive","Valence","VC","positive;negative","positive",1,1742927247630,"positive",1126.5,645,"negative","A","",6.46925031679577,7.0268707598723,21
"22","632b5400bf46cdb11db9f588","dirty","test_val","concrete-negative","Valence","VC","positive;negative","negative",1,1742927248922,"negative",1162.33333333333,525,"negative","A","",6.26339826259162,7.05818475800754,22
"23","632b5400bf46cdb11db9f588","toothless","test_val","concrete-negative","Valence","VC","positive;negative","positive",0,1742927250440,"positive",1243.5,747,"negative","A","",6.61606518513282,7.12568526324346,23
"24","632b5400bf46cdb11db9f588","bloodshot","test_val","concrete-negative","Valence","VC","positive;negative","negative",1,1742927251840,"negative",1171.16666666667,636,"negative","A","",6.45519856334012,7.06575568196414,24
"25","632b5400bf46cdb11db9f588","heartless","test_val","abstract-negative","Valence","VC","positive;negative","negative",1,1742927253298,"negative",1257.33333333333,693,"negative","A","",6.5410299991899,7.13674835508524,25
"26","632b5400bf46cdb11db9f588","thorny","test_val","concrete-negative","Valence","VC","positive;negative","negative",1,1742927254648,"negative",1190,583,"negative","A","",6.36818718635049,7.08170858610557,26
"27","632b5400bf46cdb11db9f588","handmade","test_val","concrete-positive","Valence","VC","positive;negative","positive",1,1742927256186,"positive",1216.16666666667,763,"negative","A","",6.63725803128446,7.10345911453757,27
"28","632b5400bf46cdb11db9f588","lilac","test_val","concrete-positive","Valence","VC","positive;negative","positive",1,1742927257615,"positive",1221,659,"negative","A","",6.49072353450251,7.1074254741107,28
"29","632b5400bf46cdb11db9f588","thankful","test_val","abstract-positive","Valence","VC","positive;negative","positive",1,1742927258841,"positive",1178.16666666667,457,"negative","A","",6.12468339089421,7.0717148369429,29
"30","632b5400bf46cdb11db9f588","blooming","test_val","concrete-positive","Valence","VC","positive;negative","positive",1,1742927260288,"positive",1185.33333333333,669,"negative","A","",6.50578406012823,7.07777930796569,30
"31","632b5400bf46cdb11db9f588","sunny","test_val","concrete-positive","Valence","VC","positive;negative","positive",1,1742927261516,"positive",1171.66666666667,453,"negative","A","",6.11589212548303,7.06618251557666,31
"32","632b5400bf46cdb11db9f588","helpful","test_val","abstract-positive","Valence","VC","positive;negative","positive",1,1742927262934,"positive",1245.83333333333,641,"negative","A","",6.46302945692067,7.12755992903083,32
"33","632b5400bf46cdb11db9f588","orange","test_val","concrete-positive","Valence","VC","positive;negative","negative",0,1742927264214,"negative",1236.83333333333,509,"negative","A","",6.23244801655052,7.12030962874208,33
"34","632b5400bf46cdb11db9f588","splendid","test_val","abstract-positive","Valence","VC","positive;negative","positive",1,1742927265431,"positive",1081.16666666667,443,"negative","A","",6.09356977004514,6.985795983985,34
"35","632b5400bf46cdb11db9f588","awful","test_val","abstract-negative","Valence","VC","positive;negative","positive",0,1742927266562,"positive",1137.66666666667,360,"negative","A","",5.88610403145016,7.0367346602386,35
"36","632b5400bf46cdb11db9f588","wrinkled","test_val","concrete-negative","Valence","VC","positive;negative","positive",0,1742927267912,"positive",1168.5,575,"negative","A","",6.35437004079735,7.06347615397891,36
"37","632b5400bf46cdb11db9f588","stupid","test_val","abstract-negative","Valence","VC","positive;negative","negative",1,1742927269300,"negative",1300.66666666667,628,"negative","A","",6.4425401664682,7.17063223251495,37
"38","632b5400bf46cdb11db9f588","sexist","test_val","abstract-negative","Valence","VC","positive;negative","negative",1,1742927270618,"negative",1243.66666666667,540,"negative","A","",6.29156913955832,7.12581928455305,38
"39","632b5400bf46cdb11db9f588","sensible","test_val","abstract-positive","Valence","VC","positive;negative","positive",1,1742927272042,"positive",1256.5,640,"negative","A","",6.46146817635372,7.13608535698365,39
"40","632b5400bf46cdb11db9f588","sinful","test_val","abstract-negative","Valence","VC","positive;negative","negative",1,1742927273479,"negative",1190,657,"negative","A","",6.48768401848461,7.08170858610557,40
"41","632b5400bf46cdb11db9f588","lovable","test_val","abstract-positive","Valence","VC","positive;negative","positive",1,1742927274662,"positive",1175.83333333333,401,"negative","A","",5.99396142730657,7.06973239505886,41
"42","632b5400bf46cdb11db9f588","thankful","test_val","abstract-positive","Valence","VC","positive;negative","positive",1,1742927275954,"positive",1178.16666666667,522,"negative","A","",6.25766758788264,7.0717148369429,42
"43","632b5400bf46cdb11db9f588","honest","test_val","abstract-positive","Valence","VC","positive;negative","positive",1,1742927277248,"positive",1124.33333333333,512,"negative","A","",6.23832462503951,7.02494554639354,43
"44","632b5400bf46cdb11db9f588","orange","test_val","concrete-positive","Valence","VC","positive;negative","positive",1,1742927278620,"positive",1236.83333333333,583,"negative","A","",6.36818718635049,7.12030962874208,44
"45","632b5400bf46cdb11db9f588","divine","test_val","abstract-positive","Valence","VC","positive;negative","positive",1,1742927279920,"positive",1126.5,520,"negative","A","",6.25382881157547,7.0268707598723,45
"46","632b5400bf46cdb11db9f588","possible","test_val","abstract-positive","Valence","VC","positive;negative","positive",1,1742927281176,"positive",1179.16666666667,475,"negative","A","",6.16331480403464,7.07256325328338,46
"47","632b5400bf46cdb11db9f588","blooming","test_val","concrete-positive","Valence","VC","positive;negative","positive",1,1742927282424,"positive",1185.33333333333,478,"negative","A","",6.16961073249146,7.07777930796569,47
"48","632b5400bf46cdb11db9f588","helpful","test_val","abstract-positive","Valence","VC","positive;negative","positive",1,1742927283596,"positive",1245.83333333333,399,"negative","A","",5.98896141688986,7.12755992903083,48
"49","632b5400bf46cdb11db9f588","awful","test_val","abstract-negative","Valence","VC","positive;negative","negative",1,1742927284913,"negative",1137.66666666667,544,"negative","A","",6.29894924685594,7.0367346602386,49
"50","632b5400bf46cdb11db9f588","newborn","test_val","concrete-positive","Valence","VC","positive;negative","negative",0,1742927286286,"negative",1286.83333333333,607,"negative","A","",6.4085287910595,7.15993969908076,50
"51","632b5400bf46cdb11db9f588","sensible","test_val","abstract-positive","Valence","VC","positive;negative","positive",1,1742927287562,"positive",1256.5,497,"negative","A","",6.20859002609663,7.13608535698365,51
"52","632b5400bf46cdb11db9f588","stupid","test_val","abstract-negative","Valence","VC","positive;negative","negative",1,1742927288876,"negative",1300.66666666667,549,"negative","A","",6.30809844150953,7.17063223251495,52
"53","632b5400bf46cdb11db9f588","handmade","test_val","concrete-positive","Valence","VC","positive;negative","positive",1,1742927290318,"positive",1216.16666666667,664,"negative","A","",6.49828214947643,7.10345911453757,53
"54","632b5400bf46cdb11db9f588","thorny","test_val","concrete-negative","Valence","VC","positive;negative","negative",1,1742927291574,"negative",1190,485,"negative","A","",6.18414889093748,7.08170858610557,54
"55","632b5400bf46cdb11db9f588","crappy","test_val","abstract-negative","Valence","VC","positive;negative","positive",0,1742927292794,"positive",1152.83333333333,438,"negative","A","",6.08221891037645,7.04997795937253,55
"56","632b5400bf46cdb11db9f588","sexist","test_val","abstract-negative","Valence","VC","positive;negative","negative",1,1742927294188,"negative",1243.66666666667,619,"negative","A","",6.4281052726846,7.12581928455305,56
"57","632b5400bf46cdb11db9f588","sunny","test_val","concrete-positive","Valence","VC","positive;negative","positive",1,1742927295548,"positive",1171.66666666667,582,"negative","A","",6.36647044773144,7.06618251557666,57
"58","632b5400bf46cdb11db9f588","splendid","test_val","abstract-positive","Valence","VC","positive;negative","positive",1,1742927296716,"positive",1081.16666666667,401,"negative","A","",5.99396142730657,6.985795983985,58
"59","632b5400bf46cdb11db9f588","pregnant","test_val","concrete-positive","Valence","VC","positive;negative","negative",0,1742927298174,"negative",1317,678,"negative","A","",6.5191472879404,7.18311170174328,59
"60","632b5400bf46cdb11db9f588","soulless","test_val","abstract-negative","Valence","VC","positive;negative","positive",0,1742927299402,"positive",1233.5,459,"negative","A","",6.12905021006055,7.11761093596941,60
"61","632b5400bf46cdb11db9f588","pleasant","test_val","abstract-positive","Valence","VC","positive;negative","positive",1,1742927300843,"positive",1259.66666666667,664,"negative","A","",6.49828214947643,7.13860241468138,61
"62","632b5400bf46cdb11db9f588","lilac","test_val","concrete-positive","Valence","VC","positive;negative","positive",1,1742927302147,"positive",1221,520,"negative","A","",6.25382881157547,7.1074254741107,62
"63","632b5400bf46cdb11db9f588","bloody","test_val","concrete-negative","Valence","VC","positive;negative","negative",1,1742927303449,"negative",1162.33333333333,526,"negative","A","",6.26530121273771,7.05818475800754,63
"64","632b5400bf46cdb11db9f588","sinful","test_val","abstract-negative","Valence","VC","positive;negative","positive",0,1742927304634,"positive",1190,416,"negative","A","",6.03068526026126,7.08170858610557,64
"65","632b5400bf46cdb11db9f588","rusted","test_val","concrete-negative","Valence","VC","positive;negative","negative",1,1742927305937,"negative",1146.33333333333,532,"negative","A","",6.27664348934164,7.04432372176416,65
"66","632b5400bf46cdb11db9f588","freezing","test_val","concrete-negative","Valence","VC","positive;negative","negative",1,1742927307110,"negative",1188.66666666667,399,"negative","A","",5.98896141688986,7.08058750975498,66
"67","632b5400bf46cdb11db9f588","dirty","test_val","concrete-negative","Valence","VC","positive;negative","negative",1,1742927308278,"negative",1162.33333333333,394,"negative","A","",5.97635090929793,7.05818475800754,67
"68","632b5400bf46cdb11db9f588","worthless","test_val","abstract-negative","Valence","VC","positive;negative","negative",1,1742927309540,"negative",1190.5,491,"negative","A","",6.19644412779452,7.08212866592692,68
"69","632b5400bf46cdb11db9f588","disloyal","test_val","abstract-negative","Valence","VC","positive;negative","negative",1,1742927310668,"negative",1174.66666666667,359,"negative","A","",5.88332238848828,7.06873969838796,69
"70","632b5400bf46cdb11db9f588","wrinkled","test_val","concrete-negative","Valence","VC","positive;negative","negative",1,1742927311799,"negative",1168.5,357,"negative","A","",5.87773578177964,7.06347615397891,70
"71","632b5400bf46cdb11db9f588","female","test_val","concrete-positive","Valence","VC","positive;negative","positive",1,1742927313113,"positive",1161.33333333333,545,"negative","A","",6.30078579466324,7.05732404930428,71
"72","632b5400bf46cdb11db9f588","mindful","test_val","abstract-positive","Valence","VC","positive;negative","positive",1,1742927314734,"positive",1351.33333333333,844,"negative","A","",6.73815249459596,7.20884703834384,72
"73","632b5400bf46cdb11db9f588","hairy","test_val","concrete-negative","Valence","VC","positive;negative","negative",1,1742927316074,"negative",1219.66666666667,562,"negative","A","",6.33150184989369,7.1063328763511,73
"74","632b5400bf46cdb11db9f588","evil","test_val","abstract-negative","Valence","VC","positive;negative","negative",1,1742927317202,"negative",1116.16666666667,349,"negative","A","",5.85507192220243,7.017655474682,74
"75","632b5400bf46cdb11db9f588","bloodshot","test_val","concrete-negative","Valence","VC","positive;negative","negative",1,1742927318396,"negative",1171.16666666667,420,"negative","A","",6.04025471127741,7.06575568196414,75
"76","632b5400bf46cdb11db9f588","toothless","test_val","concrete-negative","Valence","VC","positive;negative","negative",1,1742927319509,"negative",1243.5,329,"negative","A","",5.79605775076537,7.12568526324346,76
"77","632b5400bf46cdb11db9f588","headless","test_val","concrete-negative","Valence","VC","positive;negative","negative",1,1742927320596,"negative",1165,307,"negative","A","",5.7268477475872,7.0604763659998,77
"78","632b5400bf46cdb11db9f588","human","test_val","concrete-positive","Valence","VC","positive;negative","negative",0,1742927321790,"negative",1153,427,"negative","A","",6.05678401322862,7.05012252026906,78
"79","632b5400bf46cdb11db9f588","heartless","test_val","abstract-negative","Valence","VC","positive;negative","negative",1,1742927323244,"negative",1257.33333333333,688,"negative","A","",6.53378883793334,7.13674835508524,79
"80","632b5400bf46cdb11db9f588","starry","test_val","concrete-positive","Valence","VC","positive;negative","negative",0,1742927324321,"negative",1147.33333333333,296,"negative","A","",5.69035945432406,7.04519568810337,80
"81","632b5400bf46cdb11db9f588","evil","test_val","abstract-negative","Valence","VC","positive;negative","negative",1,1742927325561,"negative",1116.16666666667,458,"negative","A","",6.12686918411419,7.017655474682,81
"82","632b5400bf46cdb11db9f588","lilac","test_val","concrete-positive","Valence","VC","positive;negative","positive",1,1742927326843,"positive",1221,515,"negative","A","",6.24416690066374,7.1074254741107,82
"83","632b5400bf46cdb11db9f588","sinful","test_val","abstract-negative","Valence","VC","positive;negative","negative",1,1742927328174,"negative",1190,555,"negative","A","",6.31896811374643,7.08170858610557,83
"84","632b5400bf46cdb11db9f588","honest","test_val","abstract-positive","Valence","VC","positive;negative","negative",0,1742927329360,"negative",1124.33333333333,413,"negative","A","",6.02344759296103,7.02494554639354,84
"85","632b5400bf46cdb11db9f588","awful","test_val","abstract-negative","Valence","VC","positive;negative","negative",1,1742927330723,"negative",1137.66666666667,587,"negative","A","",6.3750248198281,7.0367346602386,85
"86","632b5400bf46cdb11db9f588","blooming","test_val","concrete-positive","Valence","VC","positive;negative","positive",1,1742927332080,"positive",1185.33333333333,590,"negative","A","",6.38012253689976,7.07777930796569,86
"87","632b5400bf46cdb11db9f588","starry","test_val","concrete-positive","Valence","VC","positive;negative","positive",1,1742927333411,"positive",1147.33333333333,557,"negative","A","",6.32256523992728,7.04519568810337,87
"88","632b5400bf46cdb11db9f588","worthless","test_val","abstract-negative","Valence","VC","positive;negative","negative",1,1742927334633,"negative",1190.5,451,"negative","A","",6.11146733950268,7.08212866592692,88
"89","632b5400bf46cdb11db9f588","dirty","test_val","concrete-negative","Valence","VC","positive;negative","negative",1,1742927335757,"negative",1162.33333333333,356,"negative","A","",5.87493073085203,7.05818475800754,89
"90","632b5400bf46cdb11db9f588","orange","test_val","concrete-positive","Valence","VC","positive;negative","negative",0,1742927337035,"negative",1236.83333333333,514,"negative","A","",6.24222326545517,7.12030962874208,90
"91","632b5400bf46cdb11db9f588","soulless","test_val","abstract-negative","Valence","VC","positive;negative","negative",1,1742927338333,"negative",1233.5,525,"negative","A","",6.26339826259162,7.11761093596941,91
"92","632b5400bf46cdb11db9f588","thankful","test_val","abstract-positive","Valence","VC","positive;negative","positive",1,1742927339649,"positive",1178.16666666667,544,"negative","A","",6.29894924685594,7.0717148369429,92
"93","632b5400bf46cdb11db9f588","crappy","test_val","abstract-negative","Valence","VC","positive;negative","negative",1,1742927340866,"negative",1152.83333333333,448,"negative","A","",6.10479323241498,7.04997795937253,93
"94","632b5400bf46cdb11db9f588","human","test_val","concrete-positive","Valence","VC","positive;negative","negative",0,1742927342164,"negative",1153,522,"negative","A","",6.25766758788264,7.05012252026906,94
"95","632b5400bf46cdb11db9f588","heartless","test_val","abstract-negative","Valence","VC","positive;negative","negative",1,1742927343543,"negative",1257.33333333333,609,"negative","A","",6.4118182677099,7.13674835508524,95
"96","632b5400bf46cdb11db9f588","pleasant","test_val","abstract-positive","Valence","VC","positive;negative","positive",1,1742927344700,"positive",1259.66666666667,373,"negative","A","",5.92157841964382,7.13860241468138,96
"97","632b5400bf46cdb11db9f588","sexist","test_val","abstract-negative","Valence","VC","positive;negative","negative",1,1742927345914,"negative",1243.66666666667,447,"negative","A","",6.10255859461357,7.12581928455305,97
"98","632b5400bf46cdb11db9f588","sensible","test_val","abstract-positive","Valence","VC","positive;negative","negative",0,1742927347040,"negative",1256.5,344,"negative","A","",5.8406416573734,7.13608535698365,98
"99","632b5400bf46cdb11db9f588","freezing","test_val","concrete-negative","Valence","VC","positive;negative","positive",0,1742927348028,"positive",1188.66666666667,219,"negative","A","",5.3890717298165,7.08058750975498,99
"100","632b5400bf46cdb11db9f588","helpful","test_val","abstract-positive","Valence","VC","positive;negative","positive",1,1742927349505,"positive",1245.83333333333,707,"negative","A","",6.56103066589657,7.12755992903083,100
"101","632b5400bf46cdb11db9f588","divine","test_val","abstract-positive","Valence","VC","positive;negative","positive",1,1742927350776,"positive",1126.5,499,"negative","A","",6.21260609575152,7.0268707598723,101
"102","632b5400bf46cdb11db9f588","female","test_val","concrete-positive","Valence","VC","positive;negative","positive",1,1742927351941,"positive",1161.33333333333,388,"negative","A","",5.96100533962327,7.05732404930428,102
"103","632b5400bf46cdb11db9f588","toothless","test_val","concrete-negative","Valence","VC","positive;negative","positive",0,1742927353122,"positive",1243.5,399,"negative","A","",5.98896141688986,7.12568526324346,103
"104","632b5400bf46cdb11db9f588","splendid","test_val","abstract-positive","Valence","VC","positive;negative","positive",1,1742927354397,"positive",1081.16666666667,504,"negative","A","",6.22257626807137,6.985795983985,104
"105","632b5400bf46cdb11db9f588","handmade","test_val","concrete-positive","Valence","VC","positive;negative","negative",0,1742927355688,"negative",1216.16666666667,523,"negative","A","",6.25958146406492,7.10345911453757,105
"106","632b5400bf46cdb11db9f588","rusted","test_val","concrete-negative","Valence","VC","positive;negative","negative",1,1742927356979,"negative",1146.33333333333,532,"negative","A","",6.27664348934164,7.04432372176416,106
"107","632b5400bf46cdb11db9f588","hairy","test_val","concrete-negative","Valence","VC","positive;negative","negative",1,1742927358237,"negative",1219.66666666667,477,"negative","A","",6.16751649088834,7.1063328763511,107
"108","632b5400bf46cdb11db9f588","wrinkled","test_val","concrete-negative","Valence","VC","positive;negative","negative",1,1742927359469,"negative",1168.5,448,"negative","A","",6.10479323241498,7.06347615397891,108
"109","632b5400bf46cdb11db9f588","possible","test_val","abstract-positive","Valence","VC","positive;negative","positive",1,1742927360767,"positive",1179.16666666667,520,"negative","A","",6.25382881157547,7.07256325328338,109
"110","632b5400bf46cdb11db9f588","disloyal","test_val","abstract-negative","Valence","VC","positive;negative","negative",1,1742927362148,"negative",1174.66666666667,603,"negative","A","",6.40191719672719,7.06873969838796,110
"111","632b5400bf46cdb11db9f588","lovable","test_val","abstract-positive","Valence","VC","positive;negative","negative",0,1742927363281,"negative",1175.83333333333,363,"negative","A","",5.89440283426485,7.06973239505886,111
"112","632b5400bf46cdb11db9f588","mindful","test_val","abstract-positive","Valence","VC","positive;negative","positive",1,1742927365097,"positive",1351.33333333333,1042,"negative","A","",6.94889722231331,7.20884703834384,112
"113","632b5400bf46cdb11db9f588","sunny","test_val","concrete-positive","Valence","VC","positive;negative","positive",1,1742927366671,"positive",1171.66666666667,805,"negative","A","",6.69084227741856,7.06618251557666,113
"114","632b5400bf46cdb11db9f588","stupid","test_val","abstract-negative","Valence","VC","positive;negative","positive",0,1742927367816,"positive",1300.66666666667,370,"negative","A","",5.91350300563827,7.17063223251495,114
"115","632b5400bf46cdb11db9f588","bloody","test_val","concrete-negative","Valence","VC","positive;negative","negative",1,1742927369011,"negative",1162.33333333333,429,"negative","A","",6.06145691892802,7.05818475800754,115
"116","632b5400bf46cdb11db9f588","newborn","test_val","concrete-positive","Valence","VC","positive;negative","negative",0,1742927370087,"negative",1286.83333333333,318,"negative","A","",5.76205138278018,7.15993969908076,116
"117","632b5400bf46cdb11db9f588","thorny","test_val","concrete-negative","Valence","VC","positive;negative","negative",1,1742927371263,"negative",1190,411,"negative","A","",6.01859321449623,7.08170858610557,117
"118","632b5400bf46cdb11db9f588","pregnant","test_val","concrete-positive","Valence","VC","positive;negative","negative",0,1742927372691,"negative",1317,651,"negative","A","",6.47850964220857,7.18311170174328,118
"119","632b5400bf46cdb11db9f588","headless","test_val","concrete-negative","Valence","VC","positive;negative","negative",1,1742927373853,"negative",1165,396,"negative","A","",5.98141421125448,7.0604763659998,119
"120","632b5400bf46cdb11db9f588","bloodshot","test_val","concrete-negative","Valence","VC","positive;negative","negative",1,1742927374977,"negative",1171.16666666667,352,"negative","A","",5.8636311755981,7.06575568196414,120
"121","632b5400bf46cdb11db9f588","newborn","test_conc","concrete-positive","Concrete","VC","concrete;abstract","concrete",1,1742927447210,"concrete",1286.83333333333,762,"abstract","A","",6.63594655568665,7.15993969908076,121
"122","632b5400bf46cdb11db9f588","toothless","test_conc","concrete-negative","Concrete","VC","concrete;abstract","abstract",0,1742927448570,"abstract",1243.5,591,"abstract","A","",6.3818160174061,7.12568526324346,122
"123","632b5400bf46cdb11db9f588","stupid","test_conc","abstract-negative","Concrete","VC","concrete;abstract","abstract",1,1742927450163,"abstract",1300.66666666667,808,"abstract","A","",6.69456205852109,7.17063223251495,123
"124","632b5400bf46cdb11db9f588","sensible","test_conc","abstract-positive","Concrete","VC","concrete;abstract","concrete",0,1742927451819,"concrete",1256.5,887,"abstract","A","",6.78784498230958,7.13608535698365,124
"125","632b5400bf46cdb11db9f588","heartless","test_conc","abstract-negative","Concrete","VC","concrete;abstract","abstract",1,1742927453139,"abstract",1257.33333333333,540,"abstract","A","",6.29156913955832,7.13674835508524,125
"126","632b5400bf46cdb11db9f588","possible","test_conc","abstract-positive","Concrete","VC","concrete;abstract","abstract",1,1742927454265,"abstract",1179.16666666667,347,"abstract","A","",5.84932477994686,7.07256325328338,126
"127","632b5400bf46cdb11db9f588","helpful","test_conc","abstract-positive","Concrete","VC","concrete;abstract","concrete",0,1742927455553,"concrete",1245.83333333333,522,"abstract","A","",6.25766758788264,7.12755992903083,127
"128","632b5400bf46cdb11db9f588","handmade","test_conc","concrete-positive","Concrete","VC","concrete;abstract","concrete",1,1742927456729,"concrete",1216.16666666667,412,"abstract","A","",6.02102334934953,7.10345911453757,128
"129","632b5400bf46cdb11db9f588","evil","test_conc","abstract-negative","Concrete","VC","concrete;abstract","abstract",1,1742927457970,"abstract",1116.16666666667,470,"abstract","A","",6.1527326947041,7.017655474682,129
"130","632b5400bf46cdb11db9f588","lovable","test_conc","abstract-positive","Concrete","VC","concrete;abstract","concrete",0,1742927459115,"concrete",1175.83333333333,372,"abstract","A","",5.91889385427315,7.06973239505886,130
"131","632b5400bf46cdb11db9f588","mindful","test_conc","abstract-positive","Concrete","VC","concrete;abstract","concrete",0,1742927460284,"concrete",1351.33333333333,400,"abstract","A","",5.99146454710798,7.20884703834384,131
"132","632b5400bf46cdb11db9f588","starry","test_conc","concrete-positive","Concrete","VC","concrete;abstract","concrete",1,1742927461390,"concrete",1147.33333333333,335,"abstract","A","",5.81413053182507,7.04519568810337,132
"133","632b5400bf46cdb11db9f588","crappy","test_conc","abstract-negative","Concrete","VC","concrete;abstract","concrete",0,1742927462412,"concrete",1152.83333333333,253,"abstract","A","",5.53338948872752,7.04997795937253,133
"134","632b5400bf46cdb11db9f588","bloody","test_conc","concrete-negative","Concrete","VC","concrete;abstract","concrete",1,1742927463486,"concrete",1162.33333333333,294,"abstract","A","",5.68357976733868,7.05818475800754,134
"135","632b5400bf46cdb11db9f588","headless","test_conc","concrete-negative","Concrete","VC","concrete;abstract","abstract",0,1742927464759,"abstract",1165,504,"abstract","A","",6.22257626807137,7.0604763659998,135
"136","632b5400bf46cdb11db9f588","pregnant","test_conc","concrete-positive","Concrete","VC","concrete;abstract","abstract",0,1742927465877,"abstract",1317,345,"abstract","A","",5.84354441703136,7.18311170174328,136
"137","632b5400bf46cdb11db9f588","orange","test_conc","concrete-positive","Concrete","VC","concrete;abstract","concrete",1,1742927466995,"concrete",1236.83333333333,350,"abstract","A","",5.85793315448346,7.12030962874208,137
"138","632b5400bf46cdb11db9f588","soulless","test_conc","abstract-negative","Concrete","VC","concrete;abstract","abstract",1,1742927468219,"abstract",1233.5,450,"abstract","A","",6.10924758276437,7.11761093596941,138
"139","632b5400bf46cdb11db9f588","disloyal","test_conc","abstract-negative","Concrete","VC","concrete;abstract","concrete",0,1742927469327,"concrete",1174.66666666667,328,"abstract","A","",5.79301360838414,7.06873969838796,139
"140","632b5400bf46cdb11db9f588","honest","test_conc","abstract-positive","Concrete","VC","concrete;abstract","concrete",0,1742927470493,"concrete",1124.33333333333,395,"abstract","A","",5.97888576490112,7.02494554639354,140
"141","632b5400bf46cdb11db9f588","hairy","test_conc","concrete-negative","Concrete","VC","concrete;abstract","concrete",1,1742927471650,"concrete",1219.66666666667,389,"abstract","A","",5.96357934361845,7.1063328763511,141
"142","632b5400bf46cdb11db9f588","pleasant","test_conc","abstract-positive","Concrete","VC","concrete;abstract","concrete",0,1742927472965,"concrete",1259.66666666667,537,"abstract","A","",6.28599809450886,7.13860241468138,142
"143","632b5400bf46cdb11db9f588","freezing","test_conc","concrete-negative","Concrete","VC","concrete;abstract","concrete",1,1742927474056,"concrete",1188.66666666667,315,"abstract","A","",5.75257263882563,7.08058750975498,143
"144","632b5400bf46cdb11db9f588","thankful","test_conc","abstract-positive","Concrete","VC","concrete;abstract","concrete",0,1742927475191,"concrete",1178.16666666667,361,"abstract","A","",5.88887795833288,7.0717148369429,144
"145","632b5400bf46cdb11db9f588","splendid","test_conc","abstract-positive","Concrete","VC","concrete;abstract","concrete",0,1742927476193,"concrete",1081.16666666667,225,"abstract","A","",5.41610040220442,6.985795983985,145
"146","632b5400bf46cdb11db9f588","blooming","test_conc","concrete-positive","Concrete","VC","concrete;abstract","concrete",1,1742927477185,"concrete",1185.33333333333,224,"abstract","A","",5.41164605185504,7.07777930796569,146
"147","632b5400bf46cdb11db9f588","lilac","test_conc","concrete-positive","Concrete","VC","concrete;abstract","concrete",1,1742927478492,"concrete",1221,530,"abstract","A","",6.27287700654617,7.1074254741107,147
"148","632b5400bf46cdb11db9f588","bloodshot","test_conc","concrete-negative","Concrete","VC","concrete;abstract","concrete",1,1742927479483,"concrete",1171.16666666667,221,"abstract","A","",5.39816270151775,7.06575568196414,148
"149","632b5400bf46cdb11db9f588","rusted","test_conc","concrete-negative","Concrete","VC","concrete;abstract","abstract",0,1742927480443,"abstract",1146.33333333333,197,"abstract","A","",5.28320372873799,7.04432372176416,149
"150","632b5400bf46cdb11db9f588","female","test_conc","concrete-positive","Concrete","VC","concrete;abstract","abstract",0,1742927481424,"abstract",1161.33333333333,198,"abstract","A","",5.28826703069454,7.05732404930428,150
"151","632b5400bf46cdb11db9f588","wrinkled","test_conc","concrete-negative","Concrete","VC","concrete;abstract","abstract",0,1742927482632,"abstract",1168.5,438,"abstract","A","",6.08221891037645,7.06347615397891,151
"152","632b5400bf46cdb11db9f588","worthless","test_conc","abstract-negative","Concrete","VC","concrete;abstract","abstract",1,1742927483719,"abstract",1190.5,319,"abstract","A","",5.76519110278484,7.08212866592692,152
"153","632b5400bf46cdb11db9f588","thorny","test_conc","concrete-negative","Concrete","VC","concrete;abstract","abstract",0,1742927484842,"abstract",1190,347,"abstract","A","",5.84932477994686,7.08170858610557,153
"154","632b5400bf46cdb11db9f588","sinful","test_conc","abstract-negative","Concrete","VC","concrete;abstract","abstract",1,1742927486023,"abstract",1190,408,"abstract","A","",6.01126717440416,7.08170858610557,154
"155","632b5400bf46cdb11db9f588","dirty","test_conc","concrete-negative","Concrete","VC","concrete;abstract","abstract",0,1742927487064,"abstract",1162.33333333333,278,"abstract","A","",5.62762111369064,7.05818475800754,155
"156","632b5400bf46cdb11db9f588","awful","test_conc","abstract-negative","Concrete","VC","concrete;abstract","abstract",1,1742927488070,"abstract",1137.66666666667,238,"abstract","A","",5.47227067367148,7.0367346602386,156
"157","632b5400bf46cdb11db9f588","sunny","test_conc","concrete-positive","Concrete","VC","concrete;abstract","abstract",0,1742927489069,"abstract",1171.66666666667,231,"abstract","A","",5.44241771052179,7.06618251557666,157
"158","632b5400bf46cdb11db9f588","divine","test_conc","abstract-positive","Concrete","VC","concrete;abstract","concrete",0,1742927489961,"concrete",1126.5,123,"abstract","A","",4.81218435537242,7.0268707598723,158
"159","632b5400bf46cdb11db9f588","sexist","test_conc","abstract-negative","Concrete","VC","concrete;abstract","abstract",1,1742927491445,"abstract",1243.66666666667,710,"abstract","A","",6.56526497003536,7.12581928455305,159
"160","632b5400bf46cdb11db9f588","human","test_conc","concrete-positive","Concrete","VC","concrete;abstract","concrete",1,1742927492504,"concrete",1153,298,"abstract","A","",5.6970934865054,7.05012252026906,160
"161","632b5400bf46cdb11db9f588","female","test_conc","concrete-positive","Concrete","VC","concrete;abstract","concrete",1,1742927493682,"concrete",1161.33333333333,396,"abstract","A","",5.98141421125448,7.05732404930428,161
"162","632b5400bf46cdb11db9f588","pleasant","test_conc","abstract-positive","Concrete","VC","concrete;abstract","concrete",0,1742927494851,"concrete",1259.66666666667,393,"abstract","A","",5.97380961186926,7.13860241468138,162
"163","632b5400bf46cdb11db9f588","disloyal","test_conc","abstract-negative","Concrete","VC","concrete;abstract","concrete",0,1742927495935,"concrete",1174.66666666667,307,"abstract","A","",5.7268477475872,7.06873969838796,163
"164","632b5400bf46cdb11db9f588","dirty","test_conc","concrete-negative","Concrete","VC","concrete;abstract","abstract",0,1742927497257,"abstract",1162.33333333333,550,"abstract","A","",6.30991827822652,7.05818475800754,164
"165","632b5400bf46cdb11db9f588","human","test_conc","concrete-positive","Concrete","VC","concrete;abstract","abstract",0,1742927498380,"abstract",1153,339,"abstract","A","",5.82600010738045,7.05012252026906,165
"166","632b5400bf46cdb11db9f588","bloody","test_conc","concrete-negative","Concrete","VC","concrete;abstract","abstract",0,1742927499556,"abstract",1162.33333333333,399,"abstract","A","",5.98896141688986,7.05818475800754,166
"167","632b5400bf46cdb11db9f588","thorny","test_conc","concrete-negative","Concrete","VC","concrete;abstract","abstract",0,1742927500822,"abstract",1190,483,"abstract","A","",6.18001665365257,7.08170858610557,167
"168","632b5400bf46cdb11db9f588","headless","test_conc","concrete-negative","Concrete","VC","concrete;abstract","abstract",0,1742927501908,"abstract",1165,321,"abstract","A","",5.77144112313002,7.0604763659998,168
"169","632b5400bf46cdb11db9f588","worthless","test_conc","abstract-negative","Concrete","VC","concrete;abstract","abstract",1,1742927503034,"abstract",1190.5,352,"abstract","A","",5.8636311755981,7.08212866592692,169
"170","632b5400bf46cdb11db9f588","crappy","test_conc","abstract-negative","Concrete","VC","concrete;abstract","abstract",1,1742927504035,"abstract",1152.83333333333,239,"abstract","A","",5.47646355193151,7.04997795937253,170
"171","632b5400bf46cdb11db9f588","sunny","test_conc","concrete-positive","Concrete","VC","concrete;abstract","abstract",0,1742927505014,"abstract",1171.66666666667,201,"abstract","A","",5.30330490805908,7.06618251557666,171
"172","632b5400bf46cdb11db9f588","soulless","test_conc","abstract-negative","Concrete","VC","concrete;abstract","concrete",0,1742927506096,"concrete",1233.5,310,"abstract","A","",5.73657229747919,7.11761093596941,172
"173","632b5400bf46cdb11db9f588","rusted","test_conc","concrete-negative","Concrete","VC","concrete;abstract","abstract",0,1742927506889,"abstract",1146.33333333333,30,"abstract","A","",3.40119738166216,7.04432372176416,173
"174","632b5400bf46cdb11db9f588","hairy","test_conc","concrete-negative","Concrete","VC","concrete;abstract","concrete",1,1742927508015,"concrete",1219.66666666667,347,"abstract","A","",5.84932477994686,7.1063328763511,174
"175","632b5400bf46cdb11db9f588","divine","test_conc","abstract-positive","Concrete","VC","concrete;abstract","abstract",1,1742927508900,"abstract",1126.5,106,"abstract","A","",4.66343909411207,7.0268707598723,175
"176","632b5400bf46cdb11db9f588","evil","test_conc","abstract-negative","Concrete","VC","concrete;abstract","concrete",0,1742927509940,"concrete",1116.16666666667,270,"abstract","A","",5.59842195899838,7.017655474682,176
"177","632b5400bf46cdb11db9f588","awful","test_conc","abstract-negative","Concrete","VC","concrete;abstract","concrete",0,1742927510934,"concrete",1137.66666666667,223,"abstract","A","",5.40717177146012,7.0367346602386,177
"178","632b5400bf46cdb11db9f588","wrinkled","test_conc","concrete-negative","Concrete","VC","concrete;abstract","abstract",0,1742927511994,"abstract",1168.5,282,"abstract","A","",5.64190707093811,7.06347615397891,178
"179","632b5400bf46cdb11db9f588","bloodshot","test_conc","concrete-negative","Concrete","VC","concrete;abstract","abstract",0,1742927513176,"abstract",1171.16666666667,402,"abstract","A","",5.99645208861902,7.06575568196414,179
"180","632b5400bf46cdb11db9f588","sexist","test_conc","abstract-negative","Concrete","VC","concrete;abstract","abstract",1,1742927514284,"abstract",1243.66666666667,338,"abstract","A","",5.82304589548302,7.12581928455305,180
"181","632b5400bf46cdb11db9f588","handmade","test_conc","concrete-positive","Concrete","VC","concrete;abstract","concrete",1,1742927515370,"concrete",1216.16666666667,315,"abstract","A","",5.75257263882563,7.10345911453757,181
"182","632b5400bf46cdb11db9f588","mindful","test_conc","abstract-positive","Concrete","VC","concrete;abstract","concrete",0,1742927516576,"concrete",1351.33333333333,430,"abstract","A","",6.06378520868761,7.20884703834384,182
"183","632b5400bf46cdb11db9f588","thankful","test_conc","abstract-positive","Concrete","VC","concrete;abstract","concrete",0,1742927517698,"concrete",1178.16666666667,349,"abstract","A","",5.85507192220243,7.0717148369429,183
"184","632b5400bf46cdb11db9f588","possible","test_conc","abstract-positive","Concrete","VC","concrete;abstract","concrete",0,1742927518817,"concrete",1179.16666666667,346,"abstract","A","",5.84643877505772,7.07256325328338,184
"185","632b5400bf46cdb11db9f588","freezing","test_conc","concrete-negative","Concrete","VC","concrete;abstract","concrete",1,1742927519844,"concrete",1188.66666666667,259,"abstract","A","",5.55682806169954,7.08058750975498,185
"186","632b5400bf46cdb11db9f588","toothless","test_conc","concrete-negative","Concrete","VC","concrete;abstract","concrete",1,1742927520971,"concrete",1243.5,358,"abstract","A","",5.8805329864007,7.12568526324346,186
"187","632b5400bf46cdb11db9f588","blooming","test_conc","concrete-positive","Concrete","VC","concrete;abstract","abstract",0,1742927522037,"abstract",1185.33333333333,289,"abstract","A","",5.66642668811243,7.07777930796569,187
"188","632b5400bf46cdb11db9f588","newborn","test_conc","concrete-positive","Concrete","VC","concrete;abstract","concrete",1,1742927523018,"concrete",1286.83333333333,215,"abstract","A","",5.37063802812766,7.15993969908076,188
"189","632b5400bf46cdb11db9f588","honest","test_conc","abstract-positive","Concrete","VC","concrete;abstract","concrete",0,1742927524094,"concrete",1124.33333333333,295,"abstract","A","",5.68697535633982,7.02494554639354,189
"190","632b5400bf46cdb11db9f588","lilac","test_conc","concrete-positive","Concrete","VC","concrete;abstract","concrete",1,1742927525086,"concrete",1221,214,"abstract","A","",5.36597601502185,7.1074254741107,190
"191","632b5400bf46cdb11db9f588","sinful","test_conc","abstract-negative","Concrete","VC","concrete;abstract","abstract",1,1742927526212,"abstract",1190,360,"abstract","A","",5.88610403145016,7.08170858610557,191
"192","632b5400bf46cdb11db9f588","lovable","test_conc","abstract-positive","Concrete","VC","concrete;abstract","concrete",0,1742927527470,"concrete",1175.83333333333,477,"abstract","A","",6.16751649088834,7.06973239505886,192
"193","632b5400bf46cdb11db9f588","orange","test_conc","concrete-positive","Concrete","VC","concrete;abstract","concrete",1,1742927528851,"concrete",1236.83333333333,609,"abstract","A","",6.4118182677099,7.12030962874208,193
"194","632b5400bf46cdb11db9f588","helpful","test_conc","abstract-positive","Concrete","VC","concrete;abstract","abstract",1,1742927529900,"abstract",1245.83333333333,273,"abstract","A","",5.60947179518496,7.12755992903083,194
"195","632b5400bf46cdb11db9f588","splendid","test_conc","abstract-positive","Concrete","VC","concrete;abstract","concrete",0,1742927530854,"concrete",1081.16666666667,184,"abstract","A","",5.21493575760899,6.985795983985,195
"196","632b5400bf46cdb11db9f588","pregnant","test_conc","concrete-positive","Concrete","VC","concrete;abstract","concrete",1,1742927532029,"concrete",1317,407,"abstract","A","",6.00881318544259,7.18311170174328,196
"197","632b5400bf46cdb11db9f588","starry","test_conc","concrete-positive","Concrete","VC","concrete;abstract","concrete",1,1742927533263,"concrete",1147.33333333333,455,"abstract","A","",6.12029741895095,7.04519568810337,197
"198","632b5400bf46cdb11db9f588","sensible","test_conc","abstract-positive","Concrete","VC","concrete;abstract","concrete",0,1742927534346,"concrete",1256.5,311,"abstract","A","",5.73979291217923,7.13608535698365,198
"199","632b5400bf46cdb11db9f588","stupid","test_conc","abstract-negative","Concrete","VC","concrete;abstract","concrete",0,1742927535370,"concrete",1300.66666666667,230,"abstract","A","",5.4380793089232,7.17063223251495,199
"200","632b5400bf46cdb11db9f588","heartless","test_conc","abstract-negative","Concrete","VC","concrete;abstract","abstract",1,1742927536372,"abstract",1257.33333333333,220,"abstract","A","",5.39362754635236,7.13674835508524,200
"201","632b5400bf46cdb11db9f588","dirty","test_conc","concrete-negative","Concrete","VC","concrete;abstract","abstract",0,1742927537412,"abstract",1162.33333333333,265,"abstract","A","",5.57972982598622,7.05818475800754,201
"202","632b5400bf46cdb11db9f588","pregnant","test_conc","concrete-positive","Concrete","VC","concrete;abstract","abstract",0,1742927538482,"abstract",1317,292,"abstract","A","",5.67675380226828,7.18311170174328,202
"203","632b5400bf46cdb11db9f588","crappy","test_conc","abstract-negative","Concrete","VC","concrete;abstract","abstract",1,1742927539620,"abstract",1152.83333333333,367,"abstract","A","",5.90536184805457,7.04997795937253,203
"204","632b5400bf46cdb11db9f588","headless","test_conc","concrete-negative","Concrete","VC","concrete;abstract","abstract",0,1742927540630,"abstract",1165,237,"abstract","A","",5.46806014113513,7.0604763659998,204
"205","632b5400bf46cdb11db9f588","possible","test_conc","abstract-positive","Concrete","VC","concrete;abstract","abstract",1,1742927541615,"abstract",1179.16666666667,215,"abstract","A","",5.37063802812766,7.07256325328338,205
"206","632b5400bf46cdb11db9f588","honest","test_conc","abstract-positive","Concrete","VC","concrete;abstract","concrete",0,1742927542480,"concrete",1124.33333333333,95,"abstract","A","",4.55387689160054,7.02494554639354,206
"207","632b5400bf46cdb11db9f588","bloodshot","test_conc","concrete-negative","Concrete","VC","concrete;abstract","abstract",0,1742927543628,"abstract",1171.16666666667,367,"abstract","A","",5.90536184805457,7.06575568196414,207
"208","632b5400bf46cdb11db9f588","evil","test_conc","abstract-negative","Concrete","VC","concrete;abstract","concrete",0,1742927544492,"concrete",1116.16666666667,91,"abstract","A","",4.51085950651685,7.017655474682,208
"209","632b5400bf46cdb11db9f588","bloody","test_conc","concrete-negative","Concrete","VC","concrete;abstract","abstract",0,1742927545399,"abstract",1162.33333333333,122,"abstract","A","",4.80402104473326,7.05818475800754,209
"210","632b5400bf46cdb11db9f588","mindful","test_conc","abstract-positive","Concrete","VC","concrete;abstract","abstract",1,1742927546369,"abstract",1351.33333333333,201,"abstract","A","",5.30330490805908,7.20884703834384,210
"211","632b5400bf46cdb11db9f588","newborn","test_conc","concrete-positive","Concrete","VC","concrete;abstract","concrete",1,1742927547444,"concrete",1286.83333333333,302,"abstract","A","",5.71042701737487,7.15993969908076,211
"212","632b5400bf46cdb11db9f588","female","test_conc","concrete-positive","Concrete","VC","concrete;abstract","concrete",1,1742927548558,"concrete",1161.33333333333,342,"abstract","A","",5.8348107370626,7.05732404930428,212
"213","632b5400bf46cdb11db9f588","worthless","test_conc","abstract-negative","Concrete","VC","concrete;abstract","concrete",0,1742927549566,"concrete",1190.5,227,"abstract","A","",5.4249500174814,7.08212866592692,213
"214","632b5400bf46cdb11db9f588","pleasant","test_conc","abstract-positive","Concrete","VC","concrete;abstract","concrete",0,1742927550792,"concrete",1259.66666666667,455,"abstract","A","",6.12029741895095,7.13860241468138,214
"215","632b5400bf46cdb11db9f588","heartless","test_conc","abstract-negative","Concrete","VC","concrete;abstract","concrete",0,1742927551736,"concrete",1257.33333333333,164,"abstract","A","",5.0998664278242,7.13674835508524,215
"216","632b5400bf46cdb11db9f588","freezing","test_conc","concrete-negative","Concrete","VC","concrete;abstract","concrete",1,1742927553246,"concrete",1188.66666666667,743,"abstract","A","",6.61069604471776,7.08058750975498,216
"217","632b5400bf46cdb11db9f588","stupid","test_conc","abstract-negative","Concrete","VC","concrete;abstract","concrete",0,1742927554600,"concrete",1300.66666666667,580,"abstract","A","",6.36302810354046,7.17063223251495,217
"218","632b5400bf46cdb11db9f588","toothless","test_conc","concrete-negative","Concrete","VC","concrete;abstract","abstract",0,1742927555774,"abstract",1243.5,400,"abstract","A","",5.99146454710798,7.12568526324346,218
"219","632b5400bf46cdb11db9f588","human","test_conc","concrete-positive","Concrete","VC","concrete;abstract","abstract",0,1742927556594,"abstract",1153,43,"abstract","A","",3.76120011569356,7.05012252026906,219
"220","632b5400bf46cdb11db9f588","sensible","test_conc","abstract-positive","Concrete","VC","concrete;abstract","abstract",1,1742927557579,"abstract",1256.5,223,"abstract","A","",5.40717177146012,7.13608535698365,220
"221","632b5400bf46cdb11db9f588","sexist","test_conc","abstract-negative","Concrete","VC","concrete;abstract","concrete",0,1742927558535,"concrete",1243.66666666667,187,"abstract","A","",5.23110861685459,7.12581928455305,221
"222","632b5400bf46cdb11db9f588","hairy","test_conc","concrete-negative","Concrete","VC","concrete;abstract","concrete",1,1742927559652,"concrete",1219.66666666667,337,"abstract","A","",5.82008293035236,7.1063328763511,222
"223","632b5400bf46cdb11db9f588","handmade","test_conc","concrete-positive","Concrete","VC","concrete;abstract","abstract",0,1742927560430,"abstract",1216.16666666667,5,"abstract","A","",1.6094379124341,7.10345911453757,223
"224","632b5400bf46cdb11db9f588","soulless","test_conc","abstract-negative","Concrete","VC","concrete;abstract","abstract",1,1742927561650,"abstract",1233.5,440,"abstract","A","",6.08677472691231,7.11761093596941,224
"225","632b5400bf46cdb11db9f588","splendid","test_conc","abstract-positive","Concrete","VC","concrete;abstract","abstract",1,1742927562535,"abstract",1081.16666666667,115,"abstract","A","",4.74493212836325,6.985795983985,225
"226","632b5400bf46cdb11db9f588","sunny","test_conc","concrete-positive","Concrete","VC","concrete;abstract","abstract",0,1742927563439,"abstract",1171.66666666667,132,"abstract","A","",4.88280192258637,7.06618251557666,226
"227","632b5400bf46cdb11db9f588","starry","test_conc","concrete-positive","Concrete","VC","concrete;abstract","concrete",1,1742927564355,"concrete",1147.33333333333,142,"abstract","A","",4.95582705760126,7.04519568810337,227
"228","632b5400bf46cdb11db9f588","thorny","test_conc","concrete-negative","Concrete","VC","concrete;abstract","concrete",1,1742927565337,"concrete",1190,201,"abstract","A","",5.30330490805908,7.08170858610557,228
"229","632b5400bf46cdb11db9f588","orange","test_conc","concrete-positive","Concrete","VC","concrete;abstract","concrete",1,1742927566339,"concrete",1236.83333333333,223,"abstract","A","",5.40717177146012,7.12030962874208,229
"230","632b5400bf46cdb11db9f588","rusted","test_conc","concrete-negative","Concrete","VC","concrete;abstract","concrete",1,1742927567412,"concrete",1146.33333333333,300,"abstract","A","",5.7037824746562,7.04432372176416,230
"231","632b5400bf46cdb11db9f588","blooming","test_conc","concrete-positive","Concrete","VC","concrete;abstract","concrete",1,1742927568426,"concrete",1185.33333333333,248,"abstract","A","",5.51342874616498,7.07777930796569,231
"232","632b5400bf46cdb11db9f588","divine","test_conc","abstract-positive","Concrete","VC","concrete;abstract","concrete",0,1742927569436,"concrete",1126.5,242,"abstract","A","",5.48893772615669,7.0268707598723,232
"233","632b5400bf46cdb11db9f588","thankful","test_conc","abstract-positive","Concrete","VC","concrete;abstract","concrete",0,1742927570425,"concrete",1178.16666666667,215,"abstract","A","",5.37063802812766,7.0717148369429,233
"234","632b5400bf46cdb11db9f588","disloyal","test_conc","abstract-negative","Concrete","VC","concrete;abstract","concrete",0,1742927571512,"concrete",1174.66666666667,307,"abstract","A","",5.7268477475872,7.06873969838796,234
"235","632b5400bf46cdb11db9f588","wrinkled","test_conc","concrete-negative","Concrete","VC","concrete;abstract","concrete",1,1742927572554,"concrete",1168.5,282,"abstract","A","",5.64190707093811,7.06347615397891,235
"236","632b5400bf46cdb11db9f588","sinful","test_conc","abstract-negative","Concrete","VC","concrete;abstract","abstract",1,1742927573445,"abstract",1190,129,"abstract","A","",4.85981240436167,7.08170858610557,236
"237","632b5400bf46cdb11db9f588","awful","test_conc","abstract-negative","Concrete","VC","concrete;abstract","abstract",1,1742927574473,"abstract",1137.66666666667,250,"abstract","A","",5.52146091786225,7.0367346602386,237
"238","632b5400bf46cdb11db9f588","lilac","test_conc","concrete-positive","Concrete","VC","concrete;abstract","abstract",0,1742927575497,"abstract",1221,248,"abstract","A","",5.51342874616498,7.1074254741107,238
"239","632b5400bf46cdb11db9f588","helpful","test_conc","abstract-positive","Concrete","VC","concrete;abstract","concrete",0,1742927576581,"concrete",1245.83333333333,300,"abstract","A","",5.7037824746562,7.12755992903083,239
"240","632b5400bf46cdb11db9f588","lovable","test_conc","abstract-positive","Concrete","VC","concrete;abstract","concrete",0,1742927577646,"concrete",1175.83333333333,292,"abstract","A","",5.67675380226828,7.06973239505886,240
"241","5ddcbca2798297c203d13723","splendid","test_conc","abstract-positive","Concrete","CV","abstract;concrete","abstract",1,1739204309906,"abstract",1530.66666666667,1005,"concrete","B","",6.91274282049318,7.33345864933129,1
"242","5ddcbca2798297c203d13723","starry","test_conc","concrete-positive","Concrete","CV","abstract;concrete","abstract",0,1739204311442,"abstract",1649,783,"concrete","B","",6.6631326959908,7.4079243225596,2
"243","5ddcbca2798297c203d13723","heartless","test_conc","abstract-negative","Concrete","CV","abstract;concrete","abstract",1,1739204312850,"abstract",1738.83333333333,649,"concrete","B","",6.47543271670409,7.46096966923991,3
"244","5ddcbca2798297c203d13723","possible","test_conc","abstract-positive","Concrete","CV","abstract;concrete","abstract",1,1739204314283,"abstract",1514.16666666667,676,"concrete","B","",6.51619307604296,7.32262051160222,4
"245","5ddcbca2798297c203d13723","soulless","test_conc","abstract-negative","Concrete","CV","abstract;concrete","abstract",1,1739204316090,"abstract",1523.66666666667,1051,"concrete","B","",6.95749737087695,7.32887498966363,5
"246","5ddcbca2798297c203d13723","sunny","test_conc","concrete-positive","Concrete","CV","abstract;concrete","abstract",0,1739204317531,"abstract",1475.16666666667,683,"concrete","B","",6.52649485957079,7.29652625674082,6
"247","5ddcbca2798297c203d13723","mindful","test_conc","abstract-positive","Concrete","CV","abstract;concrete","abstract",1,1739204319228,"abstract",1629,943,"concrete","B","",6.84906628263346,7.39572160860205,7
"248","5ddcbca2798297c203d13723","thorny","test_conc","concrete-negative","Concrete","CV","abstract;concrete","abstract",0,1739204321195,"abstract",1680.16666666667,1213,"concrete","B","",7.10085190894405,7.42664827382589,8
"249","5ddcbca2798297c203d13723","sexist","test_conc","abstract-negative","Concrete","CV","abstract;concrete","abstract",1,1739204322955,"abstract",1629.66666666667,1007,"concrete","B","",6.91473089271856,7.39613077391054,9
"250","5ddcbca2798297c203d13723","helpful","test_conc","abstract-positive","Concrete","CV","abstract;concrete","abstract",1,1739204324475,"abstract",1681.33333333333,765,"concrete","B","",6.63987583382654,7.4273424084167,10
"251","5ddcbca2798297c203d13723","wrinkled","test_conc","concrete-negative","Concrete","CV","abstract;concrete","concrete",1,1739204326266,"concrete",1909.33333333333,1036,"concrete","B","",6.94312242281943,7.55450941997237,11
"252","5ddcbca2798297c203d13723","lovable","test_conc","abstract-positive","Concrete","CV","abstract;concrete","abstract",1,1739204327906,"abstract",1681.66666666667,885,"concrete","B","",6.78558764500793,7.4275406441196,12
"253","5ddcbca2798297c203d13723","crappy","test_conc","abstract-negative","Concrete","CV","abstract;concrete","abstract",1,1739204329819,"abstract",1608.5,1157,"concrete","B","",7.05358572719368,7.38305734667908,13
"254","5ddcbca2798297c203d13723","disloyal","test_conc","abstract-negative","Concrete","CV","abstract;concrete","abstract",1,1739204331186,"abstract",1518.33333333333,610,"concrete","B","",6.41345895716736,7.32536852102595,14
"255","5ddcbca2798297c203d13723","worthless","test_conc","abstract-negative","Concrete","CV","abstract;concrete","abstract",1,1739204332900,"abstract",1740,957,"concrete","B","",6.86380339145295,7.46164039220858,15
"256","5ddcbca2798297c203d13723","newborn","test_conc","concrete-positive","Concrete","CV","abstract;concrete","concrete",1,1739204334538,"concrete",1518.66666666667,884,"concrete","B","",6.78445706263764,7.32558803589896,16
"257","5ddcbca2798297c203d13723","pleasant","test_conc","abstract-positive","Concrete","CV","abstract;concrete","abstract",1,1739204336162,"abstract",1541.66666666667,872,"concrete","B","",6.77078942390898,7.34061936127842,17
"258","5ddcbca2798297c203d13723","toothless","test_conc","concrete-negative","Concrete","CV","abstract;concrete","abstract",0,1739204338043,"abstract",1748.5,1126,"concrete","B","",7.02642680869964,7.46651355650343,18
"259","5ddcbca2798297c203d13723","awful","test_conc","abstract-negative","Concrete","CV","abstract;concrete","abstract",1,1739204339602,"abstract",1796.66666666667,805,"concrete","B","",6.69084227741856,7.49368837523493,19
"260","5ddcbca2798297c203d13723","female","test_conc","concrete-positive","Concrete","CV","abstract;concrete","abstract",0,1739204341203,"abstract",1680,845,"concrete","B","",6.73933662735717,7.4265490723973,20
"261","5ddcbca2798297c203d13723","lilac","test_conc","concrete-positive","Concrete","CV","abstract;concrete","concrete",1,1739204343283,"concrete",1617,1322,"concrete","B","",7.18690102041163,7.38832785957711,21
"262","5ddcbca2798297c203d13723","divine","test_conc","abstract-positive","Concrete","CV","abstract;concrete","abstract",1,1739204345043,"abstract",1821.16666666667,1007,"concrete","B","",6.91473089271856,7.50723260034269,22
"263","5ddcbca2798297c203d13723","handmade","test_conc","concrete-positive","Concrete","CV","abstract;concrete","concrete",1,1739204346899,"concrete",1570.33333333333,1099,"concrete","B","",7.00215595440362,7.35904319003193,23
"264","5ddcbca2798297c203d13723","pregnant","test_conc","concrete-positive","Concrete","CV","abstract;concrete","concrete",1,1739204348491,"concrete",1640.33333333333,835,"concrete","B","",6.72743172485086,7.40265475219787,24
"265","5ddcbca2798297c203d13723","rusted","test_conc","concrete-negative","Concrete","CV","abstract;concrete","concrete",1,1739204350123,"concrete",1698.83333333333,875,"concrete","B","",6.77422388635761,7.43769701994036,25
"266","5ddcbca2798297c203d13723","orange","test_conc","concrete-positive","Concrete","CV","abstract;concrete","concrete",1,1739204352115,"concrete",1548.16666666667,1234,"concrete","B","",7.11801620446533,7.34482671415947,26
"267","5ddcbca2798297c203d13723","sinful","test_conc","abstract-negative","Concrete","CV","abstract;concrete","abstract",1,1739204353731,"abstract",1582.5,859,"concrete","B","",6.75576892198425,7.36676115401833,27
"268","5ddcbca2798297c203d13723","bloodshot","test_conc","concrete-negative","Concrete","CV","abstract;concrete","abstract",0,1739204355475,"abstract",1658,987,"concrete","B","",6.89467003943348,7.41336733569524,28
"269","5ddcbca2798297c203d13723","freezing","test_conc","concrete-negative","Concrete","CV","abstract;concrete","abstract",0,1739204356979,"abstract",1740.5,746,"concrete","B","",6.61472560020376,7.46192770725149,29
"270","5ddcbca2798297c203d13723","dirty","test_conc","concrete-negative","Concrete","CV","abstract;concrete","abstract",0,1739204358890,"abstract",1653.66666666667,1153,"concrete","B","",7.05012252026906,7.41075032363294,30
"271","5ddcbca2798297c203d13723","stupid","test_conc","abstract-negative","Concrete","CV","abstract;concrete","abstract",1,1739204360363,"abstract",1563.5,717,"concrete","B","",6.57507584059962,7.3546821768979,31
"272","5ddcbca2798297c203d13723","bloody","test_conc","concrete-negative","Concrete","CV","abstract;concrete","abstract",0,1739204361971,"abstract",1475,855,"concrete","B","",6.75110146893676,7.29641326877392,32
"273","5ddcbca2798297c203d13723","human","test_conc","concrete-positive","Concrete","CV","abstract;concrete","concrete",1,1739204363523,"concrete",1646,793,"concrete","B","",6.67582322163485,7.40610338123702,33
"274","5ddcbca2798297c203d13723","honest","test_conc","abstract-positive","Concrete","CV","abstract;concrete","concrete",0,1739204365442,"concrete",1753.5,1166,"concrete","B","",7.06133436691044,7.46936906958023,34
"275","5ddcbca2798297c203d13723","headless","test_conc","concrete-negative","Concrete","CV","abstract;concrete","concrete",1,1739204367075,"concrete",1730,878,"concrete","B","",6.77764659363512,7.45587668749182,35
"276","5ddcbca2798297c203d13723","thankful","test_conc","abstract-positive","Concrete","CV","abstract;concrete","concrete",0,1739204368818,"concrete",1580.16666666667,991,"concrete","B","",6.89871453432999,7.3652856056899,36
"277","5ddcbca2798297c203d13723","blooming","test_conc","concrete-positive","Concrete","CV","abstract;concrete","abstract",0,1739204370522,"abstract",1601.5,945,"concrete","B","",6.85118492749374,7.37869596904921,37
"278","5ddcbca2798297c203d13723","evil","test_conc","abstract-negative","Concrete","CV","abstract;concrete","concrete",0,1739204372051,"concrete",1715,770,"concrete","B","",6.64639051484773,7.44716835960004,38
"279","5ddcbca2798297c203d13723","hairy","test_conc","concrete-negative","Concrete","CV","abstract;concrete","concrete",1,1739204373698,"concrete",1653.5,891,"concrete","B","",6.79234442747081,7.41064953242185,39
"280","5ddcbca2798297c203d13723","sensible","test_conc","abstract-positive","Concrete","CV","abstract;concrete","abstract",1,1739204375547,"abstract",1754.66666666667,1097,"concrete","B","",7.00033446027523,7.47003418433704,40
"281","5ddcbca2798297c203d13723","honest","test_conc","abstract-positive","Concrete","CV","abstract;concrete","abstract",1,1739204377067,"abstract",1753.5,761,"concrete","B","",6.63463335786169,7.46936906958023,41
"282","5ddcbca2798297c203d13723","thankful","test_conc","abstract-positive","Concrete","CV","abstract;concrete","abstract",1,1739204378571,"abstract",1580.16666666667,746,"concrete","B","",6.61472560020376,7.3652856056899,42
"283","5ddcbca2798297c203d13723","crappy","test_conc","abstract-negative","Concrete","CV","abstract;concrete","abstract",1,1739204380323,"abstract",1608.5,994,"concrete","B","",6.90173720665657,7.38305734667908,43
"284","5ddcbca2798297c203d13723","sinful","test_conc","abstract-negative","Concrete","CV","abstract;concrete","concrete",0,1739204382034,"concrete",1582.5,956,"concrete","B","",6.8627579130514,7.36676115401833,44
"285","5ddcbca2798297c203d13723","starry","test_conc","concrete-positive","Concrete","CV","abstract;concrete","abstract",0,1739204383899,"abstract",1649,1107,"concrete","B","",7.00940893270864,7.4079243225596,45
"286","5ddcbca2798297c203d13723","blooming","test_conc","concrete-positive","Concrete","CV","abstract;concrete","abstract",0,1739204385387,"abstract",1601.5,732,"concrete","B","",6.59578051396131,7.37869596904921,46
"287","5ddcbca2798297c203d13723","human","test_conc","concrete-positive","Concrete","CV","abstract;concrete","concrete",1,1739204386882,"concrete",1646,738,"concrete","B","",6.60394382460047,7.40610338123702,47
"288","5ddcbca2798297c203d13723","wrinkled","test_conc","concrete-negative","Concrete","CV","abstract;concrete","abstract",0,1739204388675,"abstract",1909.33333333333,1036,"concrete","B","",6.94312242281943,7.55450941997237,48
"289","5ddcbca2798297c203d13723","female","test_conc","concrete-positive","Concrete","CV","abstract;concrete","concrete",1,1739204390106,"concrete",1680,673,"concrete","B","",6.51174532964473,7.4265490723973,49
"290","5ddcbca2798297c203d13723","toothless","test_conc","concrete-negative","Concrete","CV","abstract;concrete","concrete",1,1739204391643,"concrete",1748.5,783,"concrete","B","",6.6631326959908,7.46651355650343,50
"291","5ddcbca2798297c203d13723","lovable","test_conc","abstract-positive","Concrete","CV","abstract;concrete","abstract",1,1739204393298,"abstract",1681.66666666667,901,"concrete","B","",6.80350525760834,7.4275406441196,51
"292","5ddcbca2798297c203d13723","awful","test_conc","abstract-negative","Concrete","CV","abstract;concrete","abstract",1,1739204394970,"abstract",1796.66666666667,918,"concrete","B","",6.82219739062049,7.49368837523493,52
"293","5ddcbca2798297c203d13723","lilac","test_conc","concrete-positive","Concrete","CV","abstract;concrete","concrete",1,1739204396634,"concrete",1617,909,"concrete","B","",6.81234509417748,7.38832785957711,53
"294","5ddcbca2798297c203d13723","stupid","test_conc","abstract-negative","Concrete","CV","abstract;concrete","concrete",0,1739204398195,"concrete",1563.5,806,"concrete","B","",6.69208374250663,7.3546821768979,54
"295","5ddcbca2798297c203d13723","divine","test_conc","abstract-positive","Concrete","CV","abstract;concrete","abstract",1,1739204399690,"abstract",1821.16666666667,737,"concrete","B","",6.60258789218934,7.50723260034269,55
"296","5ddcbca2798297c203d13723","bloody","test_conc","concrete-negative","Concrete","CV","abstract;concrete","abstract",0,1739204401138,"abstract",1475,693,"concrete","B","",6.5410299991899,7.29641326877392,56
"297","5ddcbca2798297c203d13723","heartless","test_conc","abstract-negative","Concrete","CV","abstract;concrete","abstract",1,1739204402978,"abstract",1738.83333333333,1084,"concrete","B","",6.98841318199959,7.46096966923991,57
"298","5ddcbca2798297c203d13723","disloyal","test_conc","abstract-negative","Concrete","CV","abstract;concrete","abstract",1,1739204404699,"abstract",1518.33333333333,964,"concrete","B","",6.87109129461055,7.32536852102595,58
"299","5ddcbca2798297c203d13723","newborn","test_conc","concrete-positive","Concrete","CV","abstract;concrete","concrete",1,1739204406139,"concrete",1518.66666666667,684,"concrete","B","",6.52795791762255,7.32558803589896,59
"300","5ddcbca2798297c203d13723","thorny","test_conc","concrete-negative","Concrete","CV","abstract;concrete","abstract",0,1739204407795,"abstract",1680.16666666667,901,"concrete","B","",6.80350525760834,7.42664827382589,60
"301","5ddcbca2798297c203d13723","sensible","test_conc","abstract-positive","Concrete","CV","abstract;concrete","abstract",1,1739204409162,"abstract",1754.66666666667,614,"concrete","B","",6.41999492814714,7.47003418433704,61
"302","5ddcbca2798297c203d13723","pregnant","test_conc","concrete-positive","Concrete","CV","abstract;concrete","concrete",1,1739204410698,"concrete",1640.33333333333,781,"concrete","B","",6.66057514983969,7.40265475219787,62
"303","5ddcbca2798297c203d13723","worthless","test_conc","abstract-negative","Concrete","CV","abstract;concrete","abstract",1,1739204412442,"abstract",1740,990,"concrete","B","",6.89770494312864,7.46164039220858,63
"304","5ddcbca2798297c203d13723","pleasant","test_conc","abstract-positive","Concrete","CV","abstract;concrete","abstract",1,1739204414163,"abstract",1541.66666666667,964,"concrete","B","",6.87109129461055,7.34061936127842,64
"305","5ddcbca2798297c203d13723","hairy","test_conc","concrete-negative","Concrete","CV","abstract;concrete","abstract",0,1739204415778,"abstract",1653.5,862,"concrete","B","",6.75925527066369,7.41064953242185,65
"306","5ddcbca2798297c203d13723","freezing","test_conc","concrete-negative","Concrete","CV","abstract;concrete","abstract",0,1739204417244,"abstract",1740.5,711,"concrete","B","",6.56667242980324,7.46192770725149,66
"307","5ddcbca2798297c203d13723","soulless","test_conc","abstract-negative","Concrete","CV","abstract;concrete","abstract",1,1739204418650,"abstract",1523.66666666667,653,"concrete","B","",6.48157712927643,7.32887498966363,67
"308","5ddcbca2798297c203d13723","bloodshot","test_conc","concrete-negative","Concrete","CV","abstract;concrete","abstract",0,1739204420739,"abstract",1658,1333,"concrete","B","",7.19518732017871,7.41336733569524,68
"309","5ddcbca2798297c203d13723","rusted","test_conc","concrete-negative","Concrete","CV","abstract;concrete","concrete",1,1739204423018,"concrete",1698.83333333333,1526,"concrete","B","",7.3304052118444,7.43769701994036,69
"310","5ddcbca2798297c203d13723","dirty","test_conc","concrete-negative","Concrete","CV","abstract;concrete","abstract",0,1739204424563,"abstract",1653.66666666667,788,"concrete","B","",6.66949808985788,7.41075032363294,70
"311","5ddcbca2798297c203d13723","mindful","test_conc","abstract-positive","Concrete","CV","abstract;concrete","abstract",1,1739204426202,"abstract",1629,882,"concrete","B","",6.78219205600679,7.39572160860205,71
"312","5ddcbca2798297c203d13723","possible","test_conc","abstract-positive","Concrete","CV","abstract;concrete","abstract",1,1739204427810,"abstract",1514.16666666667,853,"concrete","B","",6.74875954749168,7.32262051160222,72
"313","5ddcbca2798297c203d13723","headless","test_conc","concrete-negative","Concrete","CV","abstract;concrete","concrete",1,1739204429562,"concrete",1730,998,"concrete","B","",6.90575327631146,7.45587668749182,73
"314","5ddcbca2798297c203d13723","handmade","test_conc","concrete-positive","Concrete","CV","abstract;concrete","concrete",1,1739204431147,"concrete",1570.33333333333,832,"concrete","B","",6.72383244082121,7.35904319003193,74
"315","5ddcbca2798297c203d13723","sexist","test_conc","abstract-negative","Concrete","CV","abstract;concrete","abstract",1,1739204432874,"abstract",1629.66666666667,971,"concrete","B","",6.87832646829133,7.39613077391054,75
"316","5ddcbca2798297c203d13723","evil","test_conc","abstract-negative","Concrete","CV","abstract;concrete","concrete",0,1739204434514,"concrete",1715,884,"concrete","B","",6.78445706263764,7.44716835960004,76
"317","5ddcbca2798297c203d13723","orange","test_conc","concrete-positive","Concrete","CV","abstract;concrete","concrete",1,1739204436027,"concrete",1548.16666666667,756,"concrete","B","",6.62804137617953,7.34482671415947,77
"318","5ddcbca2798297c203d13723","sunny","test_conc","concrete-positive","Concrete","CV","abstract;concrete","abstract",0,1739204437603,"abstract",1475.16666666667,819,"concrete","B","",6.70808408385307,7.29652625674082,78
"319","5ddcbca2798297c203d13723","helpful","test_conc","abstract-positive","Concrete","CV","abstract;concrete","abstract",1,1739204439091,"abstract",1681.33333333333,733,"concrete","B","",6.59714570188665,7.4273424084167,79
"320","5ddcbca2798297c203d13723","splendid","test_conc","abstract-positive","Concrete","CV","abstract;concrete","abstract",1,1739204440410,"abstract",1530.66666666667,565,"concrete","B","",6.33682573114644,7.33345864933129,80
"321","5ddcbca2798297c203d13723","honest","test_conc","abstract-positive","Concrete","CV","abstract;concrete","concrete",0,1739204442395,"concrete",1753.5,1229,"concrete","B","",7.11395610956603,7.46936906958023,81
"322","5ddcbca2798297c203d13723","rusted","test_conc","concrete-negative","Concrete","CV","abstract;concrete","abstract",0,1739204443986,"abstract",1698.83333333333,836,"concrete","B","",6.7286286130847,7.43769701994036,82
"323","5ddcbca2798297c203d13723","bloody","test_conc","concrete-negative","Concrete","CV","abstract;concrete","abstract",0,1739204445522,"abstract",1475,783,"concrete","B","",6.6631326959908,7.29641326877392,83
"324","5ddcbca2798297c203d13723","pleasant","test_conc","abstract-positive","Concrete","CV","abstract;concrete","abstract",1,1739204446915,"abstract",1541.66666666667,641,"concrete","B","",6.46302945692067,7.34061936127842,84
"325","5ddcbca2798297c203d13723","human","test_conc","concrete-positive","Concrete","CV","abstract;concrete","abstract",0,1739204448492,"abstract",1646,818,"concrete","B","",6.70686233660275,7.40610338123702,85
"326","5ddcbca2798297c203d13723","starry","test_conc","concrete-positive","Concrete","CV","abstract;concrete","abstract",0,1739204449963,"abstract",1649,715,"concrete","B","",6.57228254269401,7.4079243225596,86
"327","5ddcbca2798297c203d13723","mindful","test_conc","abstract-positive","Concrete","CV","abstract;concrete","abstract",1,1739204451490,"abstract",1629,771,"concrete","B","",6.64768837356333,7.39572160860205,87
"328","5ddcbca2798297c203d13723","stupid","test_conc","abstract-negative","Concrete","CV","abstract;concrete","concrete",0,1739204453187,"concrete",1563.5,944,"concrete","B","",6.8501261661455,7.3546821768979,88
"329","5ddcbca2798297c203d13723","wrinkled","test_conc","concrete-negative","Concrete","CV","abstract;concrete","abstract",0,1739204454698,"abstract",1909.33333333333,752,"concrete","B","",6.62273632394984,7.55450941997237,89
"330","5ddcbca2798297c203d13723","thankful","test_conc","abstract-positive","Concrete","CV","abstract;concrete","abstract",1,1739204456242,"abstract",1580.16666666667,791,"concrete","B","",6.67329796776765,7.3652856056899,90
"331","5ddcbca2798297c203d13723","female","test_conc","concrete-positive","Concrete","CV","abstract;concrete","concrete",1,1739204458098,"concrete",1680,1101,"concrete","B","",7.00397413672268,7.4265490723973,91
"332","5ddcbca2798297c203d13723","possible","test_conc","abstract-positive","Concrete","CV","abstract;concrete","abstract",1,1739204459555,"abstract",1514.16666666667,703,"concrete","B","",6.55535689181067,7.32262051160222,92
"333","5ddcbca2798297c203d13723","newborn","test_conc","concrete-positive","Concrete","CV","abstract;concrete","concrete",1,1739204461235,"concrete",1518.66666666667,921,"concrete","B","",6.82546003625531,7.32558803589896,93
"334","5ddcbca2798297c203d13723","headless","test_conc","concrete-negative","Concrete","CV","abstract;concrete","concrete",1,1739204462954,"concrete",1730,966,"concrete","B","",6.87316383421252,7.45587668749182,94
"335","5ddcbca2798297c203d13723","splendid","test_conc","abstract-positive","Concrete","CV","abstract;concrete","abstract",1,1739204464364,"abstract",1530.66666666667,652,"concrete","B","",6.48004456192665,7.33345864933129,95
"336","5ddcbca2798297c203d13723","handmade","test_conc","concrete-positive","Concrete","CV","abstract;concrete","abstract",0,1739204465923,"abstract",1570.33333333333,804,"concrete","B","",6.68959926917897,7.35904319003193,96
"337","5ddcbca2798297c203d13723","helpful","test_conc","abstract-positive","Concrete","CV","abstract;concrete","abstract",1,1739204467458,"abstract",1681.33333333333,779,"concrete","B","",6.65801104587075,7.4273424084167,97
"338","5ddcbca2798297c203d13723","divine","test_conc","abstract-positive","Concrete","CV","abstract;concrete","abstract",1,1739204469426,"abstract",1821.16666666667,1214,"concrete","B","",7.10167597161944,7.50723260034269,98
"339","5ddcbca2798297c203d13723","pregnant","test_conc","concrete-positive","Concrete","CV","abstract;concrete","concrete",1,1739204470946,"concrete",1640.33333333333,766,"concrete","B","",6.64118216974059,7.40265475219787,99
"340","5ddcbca2798297c203d13723","lovable","test_conc","abstract-positive","Concrete","CV","abstract;concrete","abstract",1,1739204472826,"abstract",1681.66666666667,1121,"concrete","B","",7.02197642307216,7.4275406441196,100
"341","5ddcbca2798297c203d13723","thorny","test_conc","concrete-negative","Concrete","CV","abstract;concrete","abstract",0,1739204474403,"abstract",1680.16666666667,821,"concrete","B","",6.71052310945243,7.42664827382589,101
"342","5ddcbca2798297c203d13723","awful","test_conc","abstract-negative","Concrete","CV","abstract;concrete","abstract",1,1739204476538,"abstract",1796.66666666667,1379,"concrete","B","",7.2291138777933,7.49368837523493,102
"343","5ddcbca2798297c203d13723","soulless","test_conc","abstract-negative","Concrete","CV","abstract;concrete","abstract",1,1739204477970,"abstract",1523.66666666667,681,"concrete","B","",6.52356230614951,7.32887498966363,103
"344","5ddcbca2798297c203d13723","sensible","test_conc","abstract-positive","Concrete","CV","abstract;concrete","abstract",1,1739204480298,"abstract",1754.66666666667,1572,"concrete","B","",7.36010397298915,7.47003418433704,104
"345","5ddcbca2798297c203d13723","evil","test_conc","abstract-negative","Concrete","CV","abstract;concrete","concrete",0,1739204481874,"concrete",1715,822,"concrete","B","",6.71174039505618,7.44716835960004,105
"346","5ddcbca2798297c203d13723","sexist","test_conc","abstract-negative","Concrete","CV","abstract;concrete","abstract",1,1739204483370,"abstract",1629.66666666667,741,"concrete","B","",6.60800062529609,7.39613077391054,106
"347","5ddcbca2798297c203d13723","freezing","test_conc","concrete-negative","Concrete","CV","abstract;concrete","abstract",0,1739204485562,"abstract",1740.5,1439,"concrete","B","",7.27170370688737,7.46192770725149,107
"348","5ddcbca2798297c203d13723","toothless","test_conc","concrete-negative","Concrete","CV","abstract;concrete","abstract",0,1739204487442,"abstract",1748.5,1122,"concrete","B","",7.02286808608264,7.46651355650343,108
"349","5ddcbca2798297c203d13723","bloodshot","test_conc","concrete-negative","Concrete","CV","abstract;concrete","abstract",0,1739204488962,"abstract",1658,762,"concrete","B","",6.63594655568665,7.41336733569524,109
"350","5ddcbca2798297c203d13723","crappy","test_conc","abstract-negative","Concrete","CV","abstract;concrete","abstract",1,1739204490386,"abstract",1608.5,672,"concrete","B","",6.51025834052315,7.38305734667908,110
"351","5ddcbca2798297c203d13723","dirty","test_conc","concrete-negative","Concrete","CV","abstract;concrete","abstract",0,1739204491874,"abstract",1653.66666666667,733,"concrete","B","",6.59714570188665,7.41075032363294,111
"352","5ddcbca2798297c203d13723","sinful","test_conc","abstract-negative","Concrete","CV","abstract;concrete","abstract",1,1739204493362,"abstract",1582.5,731,"concrete","B","",6.59441345974978,7.36676115401833,112
"353","5ddcbca2798297c203d13723","hairy","test_conc","concrete-negative","Concrete","CV","abstract;concrete","abstract",0,1739204495002,"abstract",1653.5,885,"concrete","B","",6.78558764500793,7.41064953242185,113
"354","5ddcbca2798297c203d13723","blooming","test_conc","concrete-positive","Concrete","CV","abstract;concrete","abstract",0,1739204496810,"abstract",1601.5,1055,"concrete","B","",6.96129604591017,7.37869596904921,114
"355","5ddcbca2798297c203d13723","lilac","test_conc","concrete-positive","Concrete","CV","abstract;concrete","abstract",0,1739204498402,"abstract",1617,837,"concrete","B","",6.72982407048948,7.38832785957711,115
"356","5ddcbca2798297c203d13723","worthless","test_conc","abstract-negative","Concrete","CV","abstract;concrete","abstract",1,1739204500130,"abstract",1740,971,"concrete","B","",6.87832646829133,7.46164039220858,116
"357","5ddcbca2798297c203d13723","heartless","test_conc","abstract-negative","Concrete","CV","abstract;concrete","concrete",0,1739204502250,"concrete",1738.83333333333,1362,"concrete","B","",7.21670948670946,7.46096966923991,117
"358","5ddcbca2798297c203d13723","orange","test_conc","concrete-positive","Concrete","CV","abstract;concrete","concrete",1,1739204503602,"concrete",1548.16666666667,599,"concrete","B","",6.39526159811545,7.34482671415947,118
"359","5ddcbca2798297c203d13723","sunny","test_conc","concrete-positive","Concrete","CV","abstract;concrete","abstract",0,1739204505050,"abstract",1475.16666666667,690,"concrete","B","",6.5366915975913,7.29652625674082,119
"360","5ddcbca2798297c203d13723","disloyal","test_conc","abstract-negative","Concrete","CV","abstract;concrete","abstract",1,1739204506578,"abstract",1518.33333333333,775,"concrete","B","",6.65286302935335,7.32536852102595,120
"361","5ddcbca2798297c203d13723","sexist","test_val","abstract-negative","Valence","CV","negative;positive","negative",1,1739204584283,"negative",1629.66666666667,1288,"positive","B","",7.1608459066643,7.39613077391054,121
"362","5ddcbca2798297c203d13723","headless","test_val","concrete-negative","Valence","CV","negative;positive","negative",1,1739204586435,"negative",1730,1398,"positive","B","",7.24279792279376,7.45587668749182,122
"363","5ddcbca2798297c203d13723","pregnant","test_val","concrete-positive","Valence","CV","negative;positive","positive",1,1739204588731,"positive",1640.33333333333,1541,"positive","B","",7.34018683532012,7.40265475219787,123
"364","5ddcbca2798297c203d13723","pleasant","test_val","abstract-positive","Valence","CV","negative;positive","positive",1,1739204590291,"positive",1541.66666666667,806,"positive","B","",6.69208374250663,7.34061936127842,124
"365","5ddcbca2798297c203d13723","starry","test_val","concrete-positive","Valence","CV","negative;positive","positive",1,1739204591938,"positive",1649,887,"positive","B","",6.78784498230958,7.4079243225596,125
"366","5ddcbca2798297c203d13723","possible","test_val","abstract-positive","Valence","CV","negative;positive","positive",1,1739204593451,"positive",1514.16666666667,758,"positive","B","",6.63068338564237,7.32262051160222,126
"367","5ddcbca2798297c203d13723","dirty","test_val","concrete-negative","Valence","CV","negative;positive","negative",1,1739204595476,"negative",1653.66666666667,1270,"positive","B","",7.14677217945264,7.41075032363294,127
"368","5ddcbca2798297c203d13723","orange","test_val","concrete-positive","Valence","CV","negative;positive","positive",1,1739204596955,"positive",1548.16666666667,723,"positive","B","",6.58340922215876,7.34482671415947,128
"369","5ddcbca2798297c203d13723","lovable","test_val","abstract-positive","Valence","CV","negative;positive","positive",1,1739204598499,"positive",1681.66666666667,789,"positive","B","",6.67076632084587,7.4275406441196,129
"370","5ddcbca2798297c203d13723","sensible","test_val","abstract-positive","Valence","CV","negative;positive","positive",1,1739204600090,"positive",1754.66666666667,834,"positive","B","",6.72623340235875,7.47003418433704,130
"371","5ddcbca2798297c203d13723","handmade","test_val","concrete-positive","Valence","CV","negative;positive","positive",1,1739204601594,"positive",1570.33333333333,750,"positive","B","",6.62007320653036,7.35904319003193,131
"372","5ddcbca2798297c203d13723","blooming","test_val","concrete-positive","Valence","CV","negative;positive","positive",1,1739204603331,"positive",1601.5,984,"positive","B","",6.89162589705225,7.37869596904921,132
"373","5ddcbca2798297c203d13723","female","test_val","concrete-positive","Valence","CV","negative;positive","positive",1,1739204604867,"positive",1680,780,"positive","B","",6.65929391968364,7.4265490723973,133
"374","5ddcbca2798297c203d13723","mindful","test_val","abstract-positive","Valence","CV","negative;positive","positive",1,1739204606298,"positive",1629,675,"positive","B","",6.51471269087253,7.39572160860205,134
"375","5ddcbca2798297c203d13723","newborn","test_val","concrete-positive","Valence","CV","negative;positive","positive",1,1739204607739,"positive",1518.66666666667,687,"positive","B","",6.53233429222235,7.32558803589896,135
"376","5ddcbca2798297c203d13723","lilac","test_val","concrete-positive","Valence","CV","negative;positive","positive",1,1739204609186,"positive",1617,692,"positive","B","",6.53958595561767,7.38832785957711,136
"377","5ddcbca2798297c203d13723","soulless","test_val","abstract-negative","Valence","CV","negative;positive","negative",1,1739204610674,"negative",1523.66666666667,731,"positive","B","",6.59441345974978,7.32887498966363,137
"378","5ddcbca2798297c203d13723","honest","test_val","abstract-positive","Valence","CV","negative;positive","positive",1,1739204612106,"positive",1753.5,678,"positive","B","",6.5191472879404,7.46936906958023,138
"379","5ddcbca2798297c203d13723","sunny","test_val","concrete-positive","Valence","CV","negative;positive","positive",1,1739204613771,"positive",1475.16666666667,910,"positive","B","",6.8134445995109,7.29652625674082,139
"380","5ddcbca2798297c203d13723","crappy","test_val","abstract-negative","Valence","CV","negative;positive","negative",1,1739204615218,"negative",1608.5,692,"positive","B","",6.53958595561767,7.38305734667908,140
"381","5ddcbca2798297c203d13723","splendid","test_val","abstract-positive","Valence","CV","negative;positive","positive",1,1739204616738,"positive",1530.66666666667,760,"positive","B","",6.63331843328038,7.33345864933129,141
"382","5ddcbca2798297c203d13723","human","test_val","concrete-positive","Valence","CV","negative;positive","positive",1,1739204618251,"positive",1646,760,"positive","B","",6.63331843328038,7.40610338123702,142
"383","5ddcbca2798297c203d13723","divine","test_val","abstract-positive","Valence","CV","negative;positive","positive",1,1739204619923,"positive",1821.16666666667,914,"positive","B","",6.81783057145415,7.50723260034269,143
"384","5ddcbca2798297c203d13723","thankful","test_val","abstract-positive","Valence","CV","negative;positive","positive",1,1739204621444,"positive",1580.16666666667,763,"positive","B","",6.63725803128446,7.3652856056899,144
"385","5ddcbca2798297c203d13723","disloyal","test_val","abstract-negative","Valence","CV","negative;positive","positive",0,1739204623083,"positive",1518.33333333333,883,"positive","B","",6.78332520060396,7.32536852102595,145
"386","5ddcbca2798297c203d13723","sinful","test_val","abstract-negative","Valence","CV","negative;positive","negative",1,1739204624731,"negative",1582.5,892,"positive","B","",6.79346613258001,7.36676115401833,146
"387","5ddcbca2798297c203d13723","worthless","test_val","abstract-negative","Valence","CV","negative;positive","negative",1,1739204626162,"negative",1740,676,"positive","B","",6.51619307604296,7.46164039220858,147
"388","5ddcbca2798297c203d13723","bloody","test_val","concrete-negative","Valence","CV","negative;positive","negative",1,1739204627659,"negative",1475,740,"positive","B","",6.60665018619822,7.29641326877392,148
"389","5ddcbca2798297c203d13723","wrinkled","test_val","concrete-negative","Valence","CV","negative;positive","negative",1,1739204629627,"negative",1909.33333333333,1213,"positive","B","",7.10085190894405,7.55450941997237,149
"390","5ddcbca2798297c203d13723","thorny","test_val","concrete-negative","Valence","CV","negative;positive","negative",1,1739204631155,"negative",1680.16666666667,770,"positive","B","",6.64639051484773,7.42664827382589,150
"391","5ddcbca2798297c203d13723","awful","test_val","abstract-negative","Valence","CV","negative;positive","negative",1,1739204632707,"negative",1796.66666666667,795,"positive","B","",6.67834211465433,7.49368837523493,151
"392","5ddcbca2798297c203d13723","toothless","test_val","concrete-negative","Valence","CV","negative;positive","negative",1,1739204634483,"negative",1748.5,1021,"positive","B","",6.92853781816467,7.46651355650343,152
"393","5ddcbca2798297c203d13723","rusted","test_val","concrete-negative","Valence","CV","negative;positive","negative",1,1739204636027,"negative",1698.83333333333,785,"positive","B","",6.66568371778241,7.43769701994036,153
"394","5ddcbca2798297c203d13723","hairy","test_val","concrete-negative","Valence","CV","negative;positive","negative",1,1739204637587,"negative",1653.5,804,"positive","B","",6.68959926917897,7.41064953242185,154
"395","5ddcbca2798297c203d13723","stupid","test_val","abstract-negative","Valence","CV","negative;positive","negative",1,1739204639227,"negative",1563.5,884,"positive","B","",6.78445706263764,7.3546821768979,155
"396","5ddcbca2798297c203d13723","evil","test_val","abstract-negative","Valence","CV","negative;positive","negative",1,1739204641283,"negative",1715,1299,"positive","B","",7.1693500166706,7.44716835960004,156
"397","5ddcbca2798297c203d13723","helpful","test_val","abstract-positive","Valence","CV","negative;positive","positive",1,1739204643194,"positive",1681.33333333333,1155,"positive","B","",7.05185562295589,7.4273424084167,157
"398","5ddcbca2798297c203d13723","freezing","test_val","concrete-negative","Valence","CV","negative;positive","negative",1,1739204645194,"negative",1740.5,1244,"positive","B","",7.12608727329912,7.46192770725149,158
"399","5ddcbca2798297c203d13723","bloodshot","test_val","concrete-negative","Valence","CV","negative;positive","negative",1,1739204646850,"negative",1658,900,"positive","B","",6.80239476332431,7.41336733569524,159
"400","5ddcbca2798297c203d13723","heartless","test_val","abstract-negative","Valence","CV","negative;positive","negative",1,1739204648322,"negative",1738.83333333333,721,"positive","B","",6.58063913728495,7.46096966923991,160
"401","5ddcbca2798297c203d13723","possible","test_val","abstract-positive","Valence","CV","negative;positive","positive",1,1739204649978,"positive",1514.16666666667,898,"positive","B","",6.8001700683022,7.32262051160222,161
"402","5ddcbca2798297c203d13723","stupid","test_val","abstract-negative","Valence","CV","negative;positive","negative",1,1739204651523,"negative",1563.5,792,"positive","B","",6.67456139181443,7.3546821768979,162
"403","5ddcbca2798297c203d13723","toothless","test_val","concrete-negative","Valence","CV","negative;positive","negative",1,1739204653434,"negative",1748.5,1158,"positive","B","",7.05444965813294,7.46651355650343,163
"404","5ddcbca2798297c203d13723","soulless","test_val","abstract-negative","Valence","CV","negative;positive","negative",1,1739204654938,"negative",1523.66666666667,748,"positive","B","",6.61740297797448,7.32887498966363,164
"405","5ddcbca2798297c203d13723","female","test_val","concrete-positive","Valence","CV","negative;positive","positive",1,1739204657187,"positive",1680,1494,"positive","B","",7.30921236569276,7.4265490723973,165
"406","5ddcbca2798297c203d13723","hairy","test_val","concrete-negative","Valence","CV","negative;positive","negative",1,1739204659083,"negative",1653.5,1141,"positive","B","",7.03966034986208,7.41064953242185,166
"407","5ddcbca2798297c203d13723","thankful","test_val","abstract-positive","Valence","CV","negative;positive","positive",1,1739204660706,"positive",1580.16666666667,868,"positive","B","",6.76619171466035,7.3652856056899,167
"408","5ddcbca2798297c203d13723","rusted","test_val","concrete-negative","Valence","CV","negative;positive","negative",1,1739204662475,"negative",1698.83333333333,1013,"positive","B","",6.92067150424868,7.43769701994036,168
"409","5ddcbca2798297c203d13723","headless","test_val","concrete-negative","Valence","CV","negative;positive","negative",1,1739204664059,"negative",1730,829,"positive","B","",6.7202201551353,7.45587668749182,169
"410","5ddcbca2798297c203d13723","splendid","test_val","abstract-positive","Valence","CV","negative;positive","positive",1,1739204665563,"positive",1530.66666666667,748,"positive","B","",6.61740297797448,7.33345864933129,170
"411","5ddcbca2798297c203d13723","handmade","test_val","concrete-positive","Valence","CV","negative;positive","positive",1,1739204667019,"positive",1570.33333333333,701,"positive","B","",6.55250788703459,7.35904319003193,171
"412","5ddcbca2798297c203d13723","blooming","test_val","concrete-positive","Valence","CV","negative;positive","positive",1,1739204668555,"positive",1601.5,781,"positive","B","",6.66057514983969,7.37869596904921,172
"413","5ddcbca2798297c203d13723","worthless","test_val","abstract-negative","Valence","CV","negative;positive","negative",1,1739204670771,"negative",1740,1462,"positive","B","",7.28756064030972,7.46164039220858,173
"414","5ddcbca2798297c203d13723","disloyal","test_val","abstract-negative","Valence","CV","negative;positive","negative",1,1739204672290,"negative",1518.33333333333,762,"positive","B","",6.63594655568665,7.32536852102595,174
"415","5ddcbca2798297c203d13723","helpful","test_val","abstract-positive","Valence","CV","negative;positive","positive",1,1739204674139,"positive",1681.33333333333,1091,"positive","B","",6.99484998583307,7.4273424084167,175
"416","5ddcbca2798297c203d13723","divine","test_val","abstract-positive","Valence","CV","negative;positive","positive",1,1739204676243,"positive",1821.16666666667,1347,"positive","B","",7.20563517641036,7.50723260034269,176
"417","5ddcbca2798297c203d13723","sinful","test_val","abstract-negative","Valence","CV","negative;positive","negative",1,1739204677722,"negative",1582.5,724,"positive","B","",6.58479139238572,7.36676115401833,177
"418","5ddcbca2798297c203d13723","pregnant","test_val","concrete-positive","Valence","CV","negative;positive","positive",1,1739204679123,"positive",1640.33333333333,646,"positive","B","",6.4707995037826,7.40265475219787,178
"419","5ddcbca2798297c203d13723","orange","test_val","concrete-positive","Valence","CV","negative;positive","positive",1,1739204680594,"positive",1548.16666666667,717,"positive","B","",6.57507584059962,7.34482671415947,179
"420","5ddcbca2798297c203d13723","bloodshot","test_val","concrete-negative","Valence","CV","negative;positive","negative",1,1739204682155,"negative",1658,805,"positive","B","",6.69084227741856,7.41336733569524,180
"421","5ddcbca2798297c203d13723","bloody","test_val","concrete-negative","Valence","CV","negative;positive","negative",1,1739204683555,"negative",1475,643,"positive","B","",6.46614472423762,7.29641326877392,181
"422","5ddcbca2798297c203d13723","heartless","test_val","abstract-negative","Valence","CV","negative;positive","negative",1,1739204685579,"negative",1738.83333333333,1268,"positive","B","",7.14519613499717,7.46096966923991,182
"423","5ddcbca2798297c203d13723","human","test_val","concrete-positive","Valence","CV","negative;positive","positive",1,1739204687139,"positive",1646,805,"positive","B","",6.69084227741856,7.40610338123702,183
"424","5ddcbca2798297c203d13723","sensible","test_val","abstract-positive","Valence","CV","negative;positive","negative",0,1739204688898,"negative",1754.66666666667,1005,"positive","B","",6.91274282049318,7.47003418433704,184
"425","5ddcbca2798297c203d13723","honest","test_val","abstract-positive","Valence","CV","negative;positive","positive",1,1739204691058,"positive",1753.5,1407,"positive","B","",7.24921505711439,7.46936906958023,185
"426","5ddcbca2798297c203d13723","dirty","test_val","concrete-negative","Valence","CV","negative;positive","negative",1,1739204692626,"negative",1653.66666666667,810,"positive","B","",6.69703424766648,7.41075032363294,186
"427","5ddcbca2798297c203d13723","crappy","test_val","abstract-negative","Valence","CV","negative;positive","negative",1,1739204694427,"negative",1608.5,1045,"positive","B","",6.95177216439891,7.38305734667908,187
"428","5ddcbca2798297c203d13723","thorny","test_val","concrete-negative","Valence","CV","negative;positive","negative",1,1739204696050,"negative",1680.16666666667,868,"positive","B","",6.76619171466035,7.42664827382589,188
"429","5ddcbca2798297c203d13723","sexist","test_val","abstract-negative","Valence","CV","negative;positive","negative",1,1739204697427,"negative",1629.66666666667,623,"positive","B","",6.43454651878745,7.39613077391054,189
"430","5ddcbca2798297c203d13723","pleasant","test_val","abstract-positive","Valence","CV","negative;positive","positive",1,1739204698947,"positive",1541.66666666667,766,"positive","B","",6.64118216974059,7.34061936127842,190
"431","5ddcbca2798297c203d13723","mindful","test_val","abstract-positive","Valence","CV","negative;positive","negative",0,1739204700803,"negative",1629,1098,"positive","B","",7.00124562206948,7.39572160860205,191
"432","5ddcbca2798297c203d13723","wrinkled","test_val","concrete-negative","Valence","CV","negative;positive","negative",1,1739204703691,"negative",1909.33333333333,2134,"positive","B","",7.6657534318617,7.55450941997237,192
"433","5ddcbca2798297c203d13723","starry","test_val","concrete-positive","Valence","CV","negative;positive","positive",1,1739204705467,"positive",1649,1018,"positive","B","",6.92559519711047,7.4079243225596,193
"434","5ddcbca2798297c203d13723","freezing","test_val","concrete-negative","Valence","CV","negative;positive","negative",1,1739204706946,"negative",1740.5,723,"positive","B","",6.58340922215876,7.46192770725149,194
"435","5ddcbca2798297c203d13723","newborn","test_val","concrete-positive","Valence","CV","negative;positive","positive",1,1739204708507,"positive",1518.66666666667,807,"positive","B","",6.69332366826995,7.32558803589896,195
"436","5ddcbca2798297c203d13723","lovable","test_val","abstract-positive","Valence","CV","negative;positive","positive",1,1739204710579,"positive",1681.66666666667,1315,"positive","B","",7.18159194461187,7.4275406441196,196
"437","5ddcbca2798297c203d13723","lilac","test_val","concrete-positive","Valence","CV","negative;positive","positive",1,1739204712130,"positive",1617,796,"positive","B","",6.67959918584438,7.38832785957711,197
"438","5ddcbca2798297c203d13723","sunny","test_val","concrete-positive","Valence","CV","negative;positive","positive",1,1739204713507,"positive",1475.16666666667,620,"positive","B","",6.42971947803914,7.29652625674082,198
"439","5ddcbca2798297c203d13723","awful","test_val","abstract-negative","Valence","CV","negative;positive","negative",1,1739204715747,"negative",1796.66666666667,1483,"positive","B","",7.30182234213793,7.49368837523493,199
"440","5ddcbca2798297c203d13723","evil","test_val","abstract-negative","Valence","CV","negative;positive","negative",1,1739204717515,"negative",1715,1010,"positive","B","",6.9177056098353,7.44716835960004,200
"441","5ddcbca2798297c203d13723","toothless","test_val","concrete-negative","Valence","CV","negative;positive","negative",1,1739204719027,"negative",1748.5,757,"positive","B","",6.62936325343745,7.46651355650343,201
"442","5ddcbca2798297c203d13723","bloodshot","test_val","concrete-negative","Valence","CV","negative;positive","negative",1,1739204720411,"negative",1658,631,"positive","B","",6.44730586254121,7.41336733569524,202
"443","5ddcbca2798297c203d13723","awful","test_val","abstract-negative","Valence","CV","negative;positive","negative",1,1739204722043,"negative",1796.66666666667,875,"positive","B","",6.77422388635761,7.49368837523493,203
"444","5ddcbca2798297c203d13723","pregnant","test_val","concrete-positive","Valence","CV","negative;positive","positive",1,1739204723546,"positive",1640.33333333333,749,"positive","B","",6.61873898351722,7.40265475219787,204
"445","5ddcbca2798297c203d13723","thankful","test_val","abstract-positive","Valence","CV","negative;positive","positive",1,1739204725098,"positive",1580.16666666667,795,"positive","B","",6.67834211465433,7.3652856056899,205
"446","5ddcbca2798297c203d13723","helpful","test_val","abstract-positive","Valence","CV","negative;positive","positive",1,1739204726890,"positive",1681.33333333333,1037,"positive","B","",6.94408720822953,7.4273424084167,206
"447","5ddcbca2798297c203d13723","splendid","test_val","abstract-positive","Valence","CV","negative;positive","positive",1,1739204728571,"positive",1530.66666666667,921,"positive","B","",6.82546003625531,7.33345864933129,207
"448","5ddcbca2798297c203d13723","lilac","test_val","concrete-positive","Valence","CV","negative;positive","positive",1,1739204729946,"positive",1617,620,"positive","B","",6.42971947803914,7.38832785957711,208
"449","5ddcbca2798297c203d13723","thorny","test_val","concrete-negative","Valence","CV","negative;positive","negative",1,1739204731682,"negative",1680.16666666667,977,"positive","B","",6.88448665204278,7.42664827382589,209
"450","5ddcbca2798297c203d13723","soulless","test_val","abstract-negative","Valence","CV","negative;positive","negative",1,1739204733194,"negative",1523.66666666667,756,"positive","B","",6.62804137617953,7.32887498966363,210
"451","5ddcbca2798297c203d13723","heartless","test_val","abstract-negative","Valence","CV","negative;positive","negative",1,1739204734770,"negative",1738.83333333333,820,"positive","B","",6.7093043402583,7.46096966923991,211
"452","5ddcbca2798297c203d13723","human","test_val","concrete-positive","Valence","CV","negative;positive","positive",1,1739204736955,"positive",1646,1430,"positive","B","",7.26542972325395,7.40610338123702,212
"453","5ddcbca2798297c203d13723","newborn","test_val","concrete-positive","Valence","CV","negative;positive","positive",1,1739204738314,"positive",1518.66666666667,601,"positive","B","",6.39859493453521,7.32558803589896,213
