#
# Results on Thu, 22 May 2025 17:43:53 GMT
# USER AGENT: Mozilla/5.0 (Macintosh; Intel Mac OS X 10_15_7) AppleWebKit/537.36 (KHTML, like Gecko) Chrome/136.0.0.0 Safari/537.36
# Design number was non-random = 8
#
# Columns below this comment are as follows:
# 1. Results reception time.
# 2. MD5 hash of participant's IP address.
# 3. Controller name.
# 4. Order number of item.
# 5. Inner element number.
# 6. Label.
# 7. Latin Square Group.
# 8. PennElementType.
# 9. PennElementName.
# 10. Parameter.
# 11. Value.
# 12. EventTime.
# 13. Comments.
1747935833,3c4f8f1e52d19cd74be30f5651b3b853,PennController,1,0,welcome,NULL,PennController,0,_Trial_,Start,1747935797014,NULL
1747935833,3c4f8f1e52d19cd74be30f5651b3b853,PennController,1,0,welcome,NULL,PennController,0,_Trial_,End,1747935798239,NULL
1747935833,3c4f8f1e52d19cd74be30f5651b3b853,PennController,17,0,instructions1,NULL,PennController,4,_Trial_,Start,1747935798241,NULL
1747935833,3c4f8f1e52d19cd74be30f5651b3b853,PennController,17,0,instructions1,NULL,PennController,4,_Trial_,End,1747935799605,NULL
1747935833,3c4f8f1e52d19cd74be30f5651b3b853,PennController,4,0,rating_task,NULL,PennController,9,_Trial_,Start,1747935799606,NULL
1747935833,3c4f8f1e52d19cd74be30f5651b3b853,PennController,4,0,rating_task,NULL,Scale,likert,Choice,4,1747935801171,NULL
1747935833,3c4f8f1e52d19cd74be30f5651b3b853,PennController,4,0,rating_task,NULL,Var,notFit,Final,no,1747935803693,Value at the end of the trial
1747935833,3c4f8f1e52d19cd74be30f5651b3b853,PennController,4,0,rating_task,NULL,PennController,9,_Trial_,End,1747935803693,NULL
1747935833,3c4f8f1e52d19cd74be30f5651b3b853,PennController,5,0,rating_task,NULL,PennController,10,_Trial_,Start,1747935803695,NULL
1747935833,3c4f8f1e52d19cd74be30f5651b3b853,PennController,5,0,rating_task,NULL,Scale,likert,Choice,1,1747935804928,NULL
1747935833,3c4f8f1e52d19cd74be30f5651b3b853,PennController,5,0,rating_task,NULL,Var,notFit,Final,no,1747935805847,Value at the end of the trial
1747935833,3c4f8f1e52d19cd74be30f5651b3b853,PennController,5,0,rating_task,NULL,PennController,10,_Trial_,End,1747935805847,NULL
1747935833,3c4f8f1e52d19cd74be30f5651b3b853,PennController,6,0,rating_task,NULL,PennController,11,_Trial_,Start,1747935805848,NULL
1747935833,3c4f8f1e52d19cd74be30f5651b3b853,PennController,6,0,rating_task,NULL,Scale,likert,Choice,1,1747935807002,NULL
1747935833,3c4f8f1e52d19cd74be30f5651b3b853,PennController,6,0,rating_task,NULL,Var,notFit,Final,yes,1747935808873,Value at the end of the trial
1747935833,3c4f8f1e52d19cd74be30f5651b3b853,PennController,6,0,rating_task,NULL,PennController,11,_Trial_,End,1747935808873,NULL
1747935833,3c4f8f1e52d19cd74be30f5651b3b853,PennController,7,0,rating_task,NULL,PennController,12,_Trial_,Start,1747935808874,NULL
1747935833,3c4f8f1e52d19cd74be30f5651b3b853,PennController,7,0,rating_task,NULL,Scale,likert,Choice,7,1747935810854,NULL
1747935833,3c4f8f1e52d19cd74be30f5651b3b853,PennController,7,0,rating_task,NULL,Var,notFit,Final,no,1747935812278,Value at the end of the trial
1747935833,3c4f8f1e52d19cd74be30f5651b3b853,PennController,7,0,rating_task,NULL,PennController,12,_Trial_,End,1747935812278,NULL
1747935833,3c4f8f1e52d19cd74be30f5651b3b853,PennController,8,0,rating_task,NULL,PennController,13,_Trial_,Start,1747935812280,NULL
1747935833,3c4f8f1e52d19cd74be30f5651b3b853,PennController,8,0,rating_task,NULL,Scale,likert,Choice,4,1747935813786,NULL
1747935833,3c4f8f1e52d19cd74be30f5651b3b853,PennController,8,0,rating_task,NULL,Var,notFit,Final,no,1747935815254,Value at the end of the trial
1747935833,3c4f8f1e52d19cd74be30f5651b3b853,PennController,8,0,rating_task,NULL,PennController,13,_Trial_,End,1747935815254,NULL
1747935833,3c4f8f1e52d19cd74be30f5651b3b853,PennController,9,0,rating_task,NULL,PennController,14,_Trial_,Start,1747935815256,NULL
1747935833,3c4f8f1e52d19cd74be30f5651b3b853,PennController,9,0,rating_task,NULL,Scale,likert,Choice,2,1747935816704,NULL
1747935833,3c4f8f1e52d19cd74be30f5651b3b853,PennController,9,0,rating_task,NULL,Var,notFit,Final,no,1747935817702,Value at the end of the trial
1747935833,3c4f8f1e52d19cd74be30f5651b3b853,PennController,9,0,rating_task,NULL,PennController,14,_Trial_,End,1747935817702,NULL
1747935833,3c4f8f1e52d19cd74be30f5651b3b853,PennController,10,0,rating_task,NULL,PennController,15,_Trial_,Start,1747935817703,NULL
1747935833,3c4f8f1e52d19cd74be30f5651b3b853,PennController,10,0,rating_task,NULL,Scale,likert,Choice,5,1747935819392,NULL
1747935833,3c4f8f1e52d19cd74be30f5651b3b853,PennController,10,0,rating_task,NULL,Var,notFit,Final,no,1747935820446,Value at the end of the trial
1747935833,3c4f8f1e52d19cd74be30f5651b3b853,PennController,10,0,rating_task,NULL,PennController,15,_Trial_,End,1747935820446,NULL
1747935833,3c4f8f1e52d19cd74be30f5651b3b853,PennController,11,0,rating_task,NULL,PennController,16,_Trial_,Start,1747935820448,NULL
1747935833,3c4f8f1e52d19cd74be30f5651b3b853,PennController,11,0,rating_task,NULL,Scale,likert,Choice,6,1747935821868,NULL
1747935833,3c4f8f1e52d19cd74be30f5651b3b853,PennController,11,0,rating_task,NULL,Var,notFit,Final,yes,1747935824144,Value at the end of the trial
1747935833,3c4f8f1e52d19cd74be30f5651b3b853,PennController,11,0,rating_task,NULL,PennController,16,_Trial_,End,1747935824144,NULL
1747935833,3c4f8f1e52d19cd74be30f5651b3b853,PennController,12,0,rating_task,NULL,PennController,17,_Trial_,Start,1747935824145,NULL
1747935833,3c4f8f1e52d19cd74be30f5651b3b853,PennController,12,0,rating_task,NULL,Scale,likert,Choice,1,1747935825575,NULL
1747935833,3c4f8f1e52d19cd74be30f5651b3b853,PennController,12,0,rating_task,NULL,Var,notFit,Final,yes,1747935827304,Value at the end of the trial
1747935833,3c4f8f1e52d19cd74be30f5651b3b853,PennController,12,0,rating_task,NULL,PennController,17,_Trial_,End,1747935827304,NULL
1747935833,3c4f8f1e52d19cd74be30f5651b3b853,PennController,13,0,rating_task,NULL,PennController,18,_Trial_,Start,1747935827305,NULL
1747935833,3c4f8f1e52d19cd74be30f5651b3b853,PennController,13,0,rating_task,NULL,Scale,likert,Choice,3,1747935828576,NULL
1747935833,3c4f8f1e52d19cd74be30f5651b3b853,PennController,13,0,rating_task,NULL,Var,notFit,Final,no,1747935829398,Value at the end of the trial
1747935833,3c4f8f1e52d19cd74be30f5651b3b853,PennController,13,0,rating_task,NULL,PennController,18,_Trial_,End,1747935829398,NULL
1747935833,3c4f8f1e52d19cd74be30f5651b3b853,PennController,14,0,rating_task,NULL,PennController,19,_Trial_,Start,1747935829399,NULL
1747935833,3c4f8f1e52d19cd74be30f5651b3b853,PennController,14,0,rating_task,NULL,Scale,likert,Choice,1,1747935831757,NULL
1747935833,3c4f8f1e52d19cd74be30f5651b3b853,PennController,14,0,rating_task,NULL,Var,notFit,Final,yes,1747935832949,Value at the end of the trial
1747935833,3c4f8f1e52d19cd74be30f5651b3b853,PennController,14,0,rating_task,NULL,PennController,19,_Trial_,End,1747935832949,NULL
#
# Results on Fri, 23 May 2025 08:11:06 GMT
# USER AGENT: Mozilla/5.0 (Macintosh; Intel Mac OS X 10_15_7) AppleWebKit/537.36 (KHTML, like Gecko) Chrome/136.0.0.0 Safari/537.36
# Design number was non-random = 9
#
# Columns below this comment are as follows:
# 1. Results reception time.
# 2. MD5 hash of participant's IP address.
# 3. Controller name.
# 4. Order number of item.
# 5. Inner element number.
# 6. Label.
# 7. Latin Square Group.
# 8. PennElementType.
# 9. PennElementName.
# 10. Parameter.
# 11. Value.
# 12. EventTime.
# 13. Comments.
1747987866,e0ffc1941efa0c5e15283aefc1a64bec,PennController,8,0,rating_task,NULL,PennController,12,_Trial_,Start,1747987859067,NULL
1747987866,e0ffc1941efa0c5e15283aefc1a64bec,PennController,8,0,rating_task,NULL,Scale,likert,Choice,4,1747987861212,NULL
1747987866,e0ffc1941efa0c5e15283aefc1a64bec,PennController,8,0,rating_task,NULL,Var,notFit,Final,no,1747987862330,Value at the end of the trial
1747987866,e0ffc1941efa0c5e15283aefc1a64bec,PennController,8,0,rating_task,NULL,PennController,12,_Trial_,End,1747987862330,NULL
1747987866,e0ffc1941efa0c5e15283aefc1a64bec,PennController,12,0,rating_task,NULL,PennController,16,_Trial_,Start,1747987862332,NULL
1747987866,e0ffc1941efa0c5e15283aefc1a64bec,PennController,12,0,rating_task,NULL,Scale,likert,Choice,7,1747987863579,NULL
1747987866,e0ffc1941efa0c5e15283aefc1a64bec,PennController,12,0,rating_task,NULL,Var,notFit,Final,no,1747987864278,Value at the end of the trial
1747987866,e0ffc1941efa0c5e15283aefc1a64bec,PennController,12,0,rating_task,NULL,PennController,16,_Trial_,End,1747987864278,NULL
1747987866,e0ffc1941efa0c5e15283aefc1a64bec,PennController,10,0,rating_task,NULL,PennController,14,_Trial_,Start,1747987864280,NULL
1747987866,e0ffc1941efa0c5e15283aefc1a64bec,PennController,10,0,rating_task,NULL,Scale,likert,Choice,1,1747987865562,NULL
1747987866,e0ffc1941efa0c5e15283aefc1a64bec,PennController,10,0,rating_task,NULL,Var,notFit,Final,no,1747987866680,Value at the end of the trial
1747987866,e0ffc1941efa0c5e15283aefc1a64bec,PennController,10,0,rating_task,NULL,PennController,14,_Trial_,End,1747987866680,NULL
#
# Results on Fri, 23 May 2025 08:32:07 GMT
# USER AGENT: Mozilla/5.0 (Macintosh; Intel Mac OS X 10_15_7) AppleWebKit/537.36 (KHTML, like Gecko) Chrome/136.0.0.0 Safari/537.36
# Design number was non-random = 10
#
# Columns below this comment are as follows:
# 1. Results reception time.
# 2. MD5 hash of participant's IP address.
# 3. Controller name.
# 4. Order number of item.
# 5. Inner element number.
# 6. Label.
# 7. Latin Square Group.
# 8. PennElementType.
# 9. PennElementName.
# 10. Parameter.
# 11. Value.
# 12. EventTime.
# 13. Comments.
1747989127,e0ffc1941efa0c5e15283aefc1a64bec,PennController,13,0,rating_task,NULL,PennController,17,_Trial_,Start,1747989119154,NULL
1747989127,e0ffc1941efa0c5e15283aefc1a64bec,PennController,13,0,rating_task,NULL,Scale,likert,Choice,4,1747989121822,NULL
1747989127,e0ffc1941efa0c5e15283aefc1a64bec,PennController,13,0,rating_task,NULL,Var,notFit,Final,no,1747989122707,Value at the end of the trial
1747989127,e0ffc1941efa0c5e15283aefc1a64bec,PennController,13,0,rating_task,NULL,PennController,17,_Trial_,End,1747989122707,NULL
1747989127,e0ffc1941efa0c5e15283aefc1a64bec,PennController,9,0,rating_task,NULL,PennController,13,_Trial_,Start,1747989122709,NULL
1747989127,e0ffc1941efa0c5e15283aefc1a64bec,PennController,9,0,rating_task,NULL,Scale,likert,Choice,7,1747989123673,NULL
1747989127,e0ffc1941efa0c5e15283aefc1a64bec,PennController,9,0,rating_task,NULL,Var,notFit,Final,no,1747989124507,Value at the end of the trial
1747989127,e0ffc1941efa0c5e15283aefc1a64bec,PennController,9,0,rating_task,NULL,PennController,13,_Trial_,End,1747989124507,NULL
1747989127,e0ffc1941efa0c5e15283aefc1a64bec,PennController,10,0,rating_task,NULL,PennController,14,_Trial_,Start,1747989124509,NULL
1747989127,e0ffc1941efa0c5e15283aefc1a64bec,PennController,10,0,rating_task,NULL,Scale,likert,Choice,1,1747989125739,NULL
1747989127,e0ffc1941efa0c5e15283aefc1a64bec,PennController,10,0,rating_task,NULL,Var,notFit,Final,no,1747989126839,Value at the end of the trial
1747989127,e0ffc1941efa0c5e15283aefc1a64bec,PennController,10,0,rating_task,NULL,PennController,14,_Trial_,End,1747989126839,NULL
#
# Results on Fri, 23 May 2025 09:23:18 GMT
# USER AGENT: Mozilla/5.0 (Macintosh; Intel Mac OS X 10_15_7) AppleWebKit/537.36 (KHTML, like Gecko) Chrome/136.0.0.0 Safari/537.36
# Design number was non-random = 11
#
# Columns below this comment are as follows:
# 1. Results reception time.
# 2. MD5 hash of participant's IP address.
# 3. Controller name.
# 4. Order number of item.
# 5. Inner element number.
# 6. Label.
# 7. Latin Square Group.
# 8. PennElementType.
# 9. PennElementName.
# 10. Parameter.
# 11. Value.
# 12. EventTime.
# 13. ID.
# 14. Comments.
1747992198,3c4f8f1e52d19cd74be30f5651b3b853,PennController,5,0,rating_task,NULL,PennController,9,_Trial_,Start,1747992086602,undefined,NULL
1747992198,3c4f8f1e52d19cd74be30f5651b3b853,PennController,5,0,rating_task,NULL,PennController,9,_Header_,Start,1747992086602,undefined,NULL
1747992198,3c4f8f1e52d19cd74be30f5651b3b853,PennController,5,0,rating_task,NULL,PennController,9,_Header_,End,1747992086602,undefined,NULL
1747992198,3c4f8f1e52d19cd74be30f5651b3b853,PennController,5,0,rating_task,NULL,Var,group,Final,E,1747992092789,undefined,Value at the end of the trial
1747992198,3c4f8f1e52d19cd74be30f5651b3b853,PennController,5,0,rating_task,NULL,Var,notFit,Final,no,1747992092789,undefined,Value at the end of the trial
1747992198,3c4f8f1e52d19cd74be30f5651b3b853,PennController,5,0,rating_task,NULL,Scale,likert,Choice,5,1747992091077,undefined,NULL
1747992198,3c4f8f1e52d19cd74be30f5651b3b853,PennController,5,0,rating_task,NULL,PennController,9,_Trial_,End,1747992092789,undefined,NULL
1747992198,3c4f8f1e52d19cd74be30f5651b3b853,PennController,38,0,rating_task,NULL,PennController,42,_Trial_,Start,1747992092793,undefined,NULL
1747992198,3c4f8f1e52d19cd74be30f5651b3b853,PennController,38,0,rating_task,NULL,PennController,42,_Header_,Start,1747992092793,undefined,NULL
1747992198,3c4f8f1e52d19cd74be30f5651b3b853,PennController,38,0,rating_task,NULL,PennController,42,_Header_,End,1747992092793,undefined,NULL
1747992198,3c4f8f1e52d19cd74be30f5651b3b853,PennController,38,0,rating_task,NULL,Var,group,Final,E,1747992095500,undefined,Value at the end of the trial
1747992198,3c4f8f1e52d19cd74be30f5651b3b853,PennController,38,0,rating_task,NULL,Var,notFit,Final,no,1747992095500,undefined,Value at the end of the trial
1747992198,3c4f8f1e52d19cd74be30f5651b3b853,PennController,38,0,rating_task,NULL,Scale,likert,Choice,1,1747992094054,undefined,NULL
1747992198,3c4f8f1e52d19cd74be30f5651b3b853,PennController,38,0,rating_task,NULL,PennController,42,_Trial_,End,1747992095501,undefined,NULL
1747992198,3c4f8f1e52d19cd74be30f5651b3b853,PennController,27,0,rating_task,NULL,PennController,31,_Trial_,Start,1747992095503,undefined,NULL
1747992198,3c4f8f1e52d19cd74be30f5651b3b853,PennController,27,0,rating_task,NULL,PennController,31,_Header_,Start,1747992095503,undefined,NULL
1747992198,3c4f8f1e52d19cd74be30f5651b3b853,PennController,27,0,rating_task,NULL,PennController,31,_Header_,End,1747992095503,undefined,NULL
1747992198,3c4f8f1e52d19cd74be30f5651b3b853,PennController,27,0,rating_task,NULL,Var,group,Final,E,1747992097506,undefined,Value at the end of the trial
1747992198,3c4f8f1e52d19cd74be30f5651b3b853,PennController,27,0,rating_task,NULL,Var,notFit,Final,no,1747992097506,undefined,Value at the end of the trial
1747992198,3c4f8f1e52d19cd74be30f5651b3b853,PennController,27,0,rating_task,NULL,Scale,likert,Choice,7,1747992096669,undefined,NULL
1747992198,3c4f8f1e52d19cd74be30f5651b3b853,PennController,27,0,rating_task,NULL,PennController,31,_Trial_,End,1747992097506,undefined,NULL
1747992198,3c4f8f1e52d19cd74be30f5651b3b853,PennController,10,0,rating_task,NULL,PennController,14,_Trial_,Start,1747992097509,undefined,NULL
1747992198,3c4f8f1e52d19cd74be30f5651b3b853,PennController,10,0,rating_task,NULL,PennController,14,_Header_,Start,1747992097509,undefined,NULL
1747992198,3c4f8f1e52d19cd74be30f5651b3b853,PennController,10,0,rating_task,NULL,PennController,14,_Header_,End,1747992097509,undefined,NULL
1747992198,3c4f8f1e52d19cd74be30f5651b3b853,PennController,10,0,rating_task,NULL,Var,group,Final,E,1747992099974,undefined,Value at the end of the trial
1747992198,3c4f8f1e52d19cd74be30f5651b3b853,PennController,10,0,rating_task,NULL,Var,notFit,Final,no,1747992099974,undefined,Value at the end of the trial
1747992198,3c4f8f1e52d19cd74be30f5651b3b853,PennController,10,0,rating_task,NULL,Scale,likert,Choice,4,1747992098875,undefined,NULL
1747992198,3c4f8f1e52d19cd74be30f5651b3b853,PennController,10,0,rating_task,NULL,PennController,14,_Trial_,End,1747992099974,undefined,NULL
1747992198,3c4f8f1e52d19cd74be30f5651b3b853,PennController,17,0,rating_task,NULL,PennController,21,_Trial_,Start,1747992099977,undefined,NULL
1747992198,3c4f8f1e52d19cd74be30f5651b3b853,PennController,17,0,rating_task,NULL,PennController,21,_Header_,Start,1747992099977,undefined,NULL
1747992198,3c4f8f1e52d19cd74be30f5651b3b853,PennController,17,0,rating_task,NULL,PennController,21,_Header_,End,1747992099977,undefined,NULL
1747992198,3c4f8f1e52d19cd74be30f5651b3b853,PennController,17,0,rating_task,NULL,Var,group,Final,E,1747992103924,undefined,Value at the end of the trial
1747992198,3c4f8f1e52d19cd74be30f5651b3b853,PennController,17,0,rating_task,NULL,Var,notFit,Final,no,1747992103924,undefined,Value at the end of the trial
1747992198,3c4f8f1e52d19cd74be30f5651b3b853,PennController,17,0,rating_task,NULL,Scale,likert,Choice,2,1747992102948,undefined,NULL
1747992198,3c4f8f1e52d19cd74be30f5651b3b853,PennController,17,0,rating_task,NULL,PennController,21,_Trial_,End,1747992103925,undefined,NULL
1747992198,3c4f8f1e52d19cd74be30f5651b3b853,PennController,8,0,rating_task,NULL,PennController,12,_Trial_,Start,1747992103927,undefined,NULL
1747992198,3c4f8f1e52d19cd74be30f5651b3b853,PennController,8,0,rating_task,NULL,PennController,12,_Header_,Start,1747992103927,undefined,NULL
1747992198,3c4f8f1e52d19cd74be30f5651b3b853,PennController,8,0,rating_task,NULL,PennController,12,_Header_,End,1747992103927,undefined,NULL
1747992198,3c4f8f1e52d19cd74be30f5651b3b853,PennController,8,0,rating_task,NULL,Var,group,Final,E,1747992107467,undefined,Value at the end of the trial
1747992198,3c4f8f1e52d19cd74be30f5651b3b853,PennController,8,0,rating_task,NULL,Var,notFit,Final,yes,1747992107467,undefined,Value at the end of the trial
1747992198,3c4f8f1e52d19cd74be30f5651b3b853,PennController,8,0,rating_task,NULL,Scale,likert,Choice,5,1747992105309,undefined,NULL
1747992198,3c4f8f1e52d19cd74be30f5651b3b853,PennController,8,0,rating_task,NULL,PennController,12,_Trial_,End,1747992107467,undefined,NULL
1747992198,3c4f8f1e52d19cd74be30f5651b3b853,PennController,31,0,rating_task,NULL,PennController,35,_Trial_,Start,1747992107470,undefined,NULL
1747992198,3c4f8f1e52d19cd74be30f5651b3b853,PennController,31,0,rating_task,NULL,PennController,35,_Header_,Start,1747992107470,undefined,NULL
1747992198,3c4f8f1e52d19cd74be30f5651b3b853,PennController,31,0,rating_task,NULL,PennController,35,_Header_,End,1747992107470,undefined,NULL
1747992198,3c4f8f1e52d19cd74be30f5651b3b853,PennController,31,0,rating_task,NULL,Var,group,Final,E,1747992110983,undefined,Value at the end of the trial
1747992198,3c4f8f1e52d19cd74be30f5651b3b853,PennController,31,0,rating_task,NULL,Var,notFit,Final,yes,1747992110983,undefined,Value at the end of the trial
1747992198,3c4f8f1e52d19cd74be30f5651b3b853,PennController,31,0,rating_task,NULL,Scale,likert,Choice,3,1747992108718,undefined,NULL
1747992198,3c4f8f1e52d19cd74be30f5651b3b853,PennController,31,0,rating_task,NULL,PennController,35,_Trial_,End,1747992110983,undefined,NULL
1747992198,3c4f8f1e52d19cd74be30f5651b3b853,PennController,23,0,rating_task,NULL,PennController,27,_Trial_,Start,1747992110986,undefined,NULL
1747992198,3c4f8f1e52d19cd74be30f5651b3b853,PennController,23,0,rating_task,NULL,PennController,27,_Header_,Start,1747992110986,undefined,NULL
1747992198,3c4f8f1e52d19cd74be30f5651b3b853,PennController,23,0,rating_task,NULL,PennController,27,_Header_,End,1747992110986,undefined,NULL
1747992198,3c4f8f1e52d19cd74be30f5651b3b853,PennController,23,0,rating_task,NULL,Var,group,Final,E,1747992113179,undefined,Value at the end of the trial
1747992198,3c4f8f1e52d19cd74be30f5651b3b853,PennController,23,0,rating_task,NULL,Var,notFit,Final,no,1747992113179,undefined,Value at the end of the trial
1747992198,3c4f8f1e52d19cd74be30f5651b3b853,PennController,23,0,rating_task,NULL,Scale,likert,Choice,7,1747992112275,undefined,NULL
1747992198,3c4f8f1e52d19cd74be30f5651b3b853,PennController,23,0,rating_task,NULL,PennController,27,_Trial_,End,1747992113180,undefined,NULL
1747992198,3c4f8f1e52d19cd74be30f5651b3b853,PennController,29,0,rating_task,NULL,PennController,33,_Trial_,Start,1747992113182,undefined,NULL
1747992198,3c4f8f1e52d19cd74be30f5651b3b853,PennController,29,0,rating_task,NULL,PennController,33,_Header_,Start,1747992113182,undefined,NULL
1747992198,3c4f8f1e52d19cd74be30f5651b3b853,PennController,29,0,rating_task,NULL,PennController,33,_Header_,End,1747992113182,undefined,NULL
1747992198,3c4f8f1e52d19cd74be30f5651b3b853,PennController,29,0,rating_task,NULL,Var,group,Final,E,1747992114967,undefined,Value at the end of the trial
1747992198,3c4f8f1e52d19cd74be30f5651b3b853,PennController,29,0,rating_task,NULL,Var,notFit,Final,no,1747992114967,undefined,Value at the end of the trial
1747992198,3c4f8f1e52d19cd74be30f5651b3b853,PennController,29,0,rating_task,NULL,Scale,likert,Choice,1,1747992114080,undefined,NULL
1747992198,3c4f8f1e52d19cd74be30f5651b3b853,PennController,29,0,rating_task,NULL,PennController,33,_Trial_,End,1747992114968,undefined,NULL
1747992198,3c4f8f1e52d19cd74be30f5651b3b853,PennController,25,0,rating_task,NULL,PennController,29,_Trial_,Start,1747992114970,undefined,NULL
1747992198,3c4f8f1e52d19cd74be30f5651b3b853,PennController,25,0,rating_task,NULL,PennController,29,_Header_,Start,1747992114970,undefined,NULL
1747992198,3c4f8f1e52d19cd74be30f5651b3b853,PennController,25,0,rating_task,NULL,PennController,29,_Header_,End,1747992114970,undefined,NULL
1747992198,3c4f8f1e52d19cd74be30f5651b3b853,PennController,25,0,rating_task,NULL,Var,group,Final,E,1747992118746,undefined,Value at the end of the trial
1747992198,3c4f8f1e52d19cd74be30f5651b3b853,PennController,25,0,rating_task,NULL,Var,notFit,Final,no,1747992118746,undefined,Value at the end of the trial
1747992198,3c4f8f1e52d19cd74be30f5651b3b853,PennController,25,0,rating_task,NULL,Scale,likert,Choice,6,1747992116811,undefined,NULL
1747992198,3c4f8f1e52d19cd74be30f5651b3b853,PennController,25,0,rating_task,NULL,PennController,29,_Trial_,End,1747992118747,undefined,NULL
1747992198,3c4f8f1e52d19cd74be30f5651b3b853,PennController,42,0,rating_task,NULL,PennController,46,_Trial_,Start,1747992118749,undefined,NULL
1747992198,3c4f8f1e52d19cd74be30f5651b3b853,PennController,42,0,rating_task,NULL,PennController,46,_Header_,Start,1747992118749,undefined,NULL
1747992198,3c4f8f1e52d19cd74be30f5651b3b853,PennController,42,0,rating_task,NULL,PennController,46,_Header_,End,1747992118749,undefined,NULL
1747992198,3c4f8f1e52d19cd74be30f5651b3b853,PennController,42,0,rating_task,NULL,Var,group,Final,E,1747992123849,undefined,Value at the end of the trial
1747992198,3c4f8f1e52d19cd74be30f5651b3b853,PennController,42,0,rating_task,NULL,Var,notFit,Final,yes,1747992123849,undefined,Value at the end of the trial
1747992198,3c4f8f1e52d19cd74be30f5651b3b853,PennController,42,0,rating_task,NULL,Scale,likert,Choice,1,1747992122540,undefined,NULL
1747992198,3c4f8f1e52d19cd74be30f5651b3b853,PennController,42,0,rating_task,NULL,PennController,46,_Trial_,End,1747992123849,undefined,NULL
1747992198,3c4f8f1e52d19cd74be30f5651b3b853,PennController,19,0,rating_task,NULL,PennController,23,_Trial_,Start,1747992123851,undefined,NULL
1747992198,3c4f8f1e52d19cd74be30f5651b3b853,PennController,19,0,rating_task,NULL,PennController,23,_Header_,Start,1747992123851,undefined,NULL
1747992198,3c4f8f1e52d19cd74be30f5651b3b853,PennController,19,0,rating_task,NULL,PennController,23,_Header_,End,1747992123852,undefined,NULL
1747992198,3c4f8f1e52d19cd74be30f5651b3b853,PennController,19,0,rating_task,NULL,Var,group,Final,E,1747992126325,undefined,Value at the end of the trial
1747992198,3c4f8f1e52d19cd74be30f5651b3b853,PennController,19,0,rating_task,NULL,Var,notFit,Final,no,1747992126325,undefined,Value at the end of the trial
1747992198,3c4f8f1e52d19cd74be30f5651b3b853,PennController,19,0,rating_task,NULL,Scale,likert,Choice,6,1747992125255,undefined,NULL
1747992198,3c4f8f1e52d19cd74be30f5651b3b853,PennController,19,0,rating_task,NULL,PennController,23,_Trial_,End,1747992126326,undefined,NULL
1747992198,3c4f8f1e52d19cd74be30f5651b3b853,PennController,13,0,rating_task,NULL,PennController,17,_Trial_,Start,1747992126328,undefined,NULL
1747992198,3c4f8f1e52d19cd74be30f5651b3b853,PennController,13,0,rating_task,NULL,PennController,17,_Header_,Start,1747992126328,undefined,NULL
1747992198,3c4f8f1e52d19cd74be30f5651b3b853,PennController,13,0,rating_task,NULL,PennController,17,_Header_,End,1747992126328,undefined,NULL
1747992198,3c4f8f1e52d19cd74be30f5651b3b853,PennController,13,0,rating_task,NULL,Var,group,Final,E,1747992128466,undefined,Value at the end of the trial
1747992198,3c4f8f1e52d19cd74be30f5651b3b853,PennController,13,0,rating_task,NULL,Var,notFit,Final,no,1747992128466,undefined,Value at the end of the trial
1747992198,3c4f8f1e52d19cd74be30f5651b3b853,PennController,13,0,rating_task,NULL,Scale,likert,Choice,2,1747992127577,undefined,NULL
1747992198,3c4f8f1e52d19cd74be30f5651b3b853,PennController,13,0,rating_task,NULL,PennController,17,_Trial_,End,1747992128467,undefined,NULL
1747992198,3c4f8f1e52d19cd74be30f5651b3b853,PennController,43,0,rating_task,NULL,PennController,47,_Trial_,Start,1747992128469,undefined,NULL
1747992198,3c4f8f1e52d19cd74be30f5651b3b853,PennController,43,0,rating_task,NULL,PennController,47,_Header_,Start,1747992128469,undefined,NULL
1747992198,3c4f8f1e52d19cd74be30f5651b3b853,PennController,43,0,rating_task,NULL,PennController,47,_Header_,End,1747992128469,undefined,NULL
1747992198,3c4f8f1e52d19cd74be30f5651b3b853,PennController,43,0,rating_task,NULL,Var,group,Final,E,1747992130678,undefined,Value at the end of the trial
1747992198,3c4f8f1e52d19cd74be30f5651b3b853,PennController,43,0,rating_task,NULL,Var,notFit,Final,no,1747992130678,undefined,Value at the end of the trial
1747992198,3c4f8f1e52d19cd74be30f5651b3b853,PennController,43,0,rating_task,NULL,Scale,likert,Choice,5,1747992129804,undefined,NULL
1747992198,3c4f8f1e52d19cd74be30f5651b3b853,PennController,43,0,rating_task,NULL,PennController,47,_Trial_,End,1747992130678,undefined,NULL
1747992198,3c4f8f1e52d19cd74be30f5651b3b853,PennController,34,0,rating_task,NULL,PennController,38,_Trial_,Start,1747992130680,undefined,NULL
1747992198,3c4f8f1e52d19cd74be30f5651b3b853,PennController,34,0,rating_task,NULL,PennController,38,_Header_,Start,1747992130680,undefined,NULL
1747992198,3c4f8f1e52d19cd74be30f5651b3b853,PennController,34,0,rating_task,NULL,PennController,38,_Header_,End,1747992130681,undefined,NULL
1747992198,3c4f8f1e52d19cd74be30f5651b3b853,PennController,34,0,rating_task,NULL,Var,group,Final,E,1747992133389,undefined,Value at the end of the trial
1747992198,3c4f8f1e52d19cd74be30f5651b3b853,PennController,34,0,rating_task,NULL,Var,notFit,Final,no,1747992133389,undefined,Value at the end of the trial
1747992198,3c4f8f1e52d19cd74be30f5651b3b853,PennController,34,0,rating_task,NULL,Scale,likert,Choice,3,1747992132349,undefined,NULL
1747992198,3c4f8f1e52d19cd74be30f5651b3b853,PennController,34,0,rating_task,NULL,PennController,38,_Trial_,End,1747992133390,undefined,NULL
1747992198,3c4f8f1e52d19cd74be30f5651b3b853,PennController,21,0,rating_task,NULL,PennController,25,_Trial_,Start,1747992133392,undefined,NULL
1747992198,3c4f8f1e52d19cd74be30f5651b3b853,PennController,21,0,rating_task,NULL,PennController,25,_Header_,Start,1747992133392,undefined,NULL
1747992198,3c4f8f1e52d19cd74be30f5651b3b853,PennController,21,0,rating_task,NULL,PennController,25,_Header_,End,1747992133392,undefined,NULL
1747992198,3c4f8f1e52d19cd74be30f5651b3b853,PennController,21,0,rating_task,NULL,Var,group,Final,E,1747992136365,undefined,Value at the end of the trial
1747992198,3c4f8f1e52d19cd74be30f5651b3b853,PennController,21,0,rating_task,NULL,Var,notFit,Final,no,1747992136365,undefined,Value at the end of the trial
1747992198,3c4f8f1e52d19cd74be30f5651b3b853,PennController,21,0,rating_task,NULL,Scale,likert,Choice,7,1747992135582,undefined,NULL
1747992198,3c4f8f1e52d19cd74be30f5651b3b853,PennController,21,0,rating_task,NULL,PennController,25,_Trial_,End,1747992136366,undefined,NULL
1747992198,3c4f8f1e52d19cd74be30f5651b3b853,PennController,7,0,rating_task,NULL,PennController,11,_Trial_,Start,1747992136368,undefined,NULL
1747992198,3c4f8f1e52d19cd74be30f5651b3b853,PennController,7,0,rating_task,NULL,PennController,11,_Header_,Start,1747992136368,undefined,NULL
1747992198,3c4f8f1e52d19cd74be30f5651b3b853,PennController,7,0,rating_task,NULL,PennController,11,_Header_,End,1747992136368,undefined,NULL
1747992198,3c4f8f1e52d19cd74be30f5651b3b853,PennController,7,0,rating_task,NULL,Var,group,Final,E,1747992139957,undefined,Value at the end of the trial
1747992198,3c4f8f1e52d19cd74be30f5651b3b853,PennController,7,0,rating_task,NULL,Var,notFit,Final,no,1747992139957,undefined,Value at the end of the trial
1747992198,3c4f8f1e52d19cd74be30f5651b3b853,PennController,7,0,rating_task,NULL,Scale,likert,Choice,4,1747992138753,undefined,NULL
1747992198,3c4f8f1e52d19cd74be30f5651b3b853,PennController,7,0,rating_task,NULL,PennController,11,_Trial_,End,1747992139958,undefined,NULL
1747992198,3c4f8f1e52d19cd74be30f5651b3b853,PennController,39,0,rating_task,NULL,PennController,43,_Trial_,Start,1747992139960,undefined,NULL
1747992198,3c4f8f1e52d19cd74be30f5651b3b853,PennController,39,0,rating_task,NULL,PennController,43,_Header_,Start,1747992139960,undefined,NULL
1747992198,3c4f8f1e52d19cd74be30f5651b3b853,PennController,39,0,rating_task,NULL,PennController,43,_Header_,End,1747992139961,undefined,NULL
1747992198,3c4f8f1e52d19cd74be30f5651b3b853,PennController,39,0,rating_task,NULL,Var,group,Final,E,1747992142108,undefined,Value at the end of the trial
1747992198,3c4f8f1e52d19cd74be30f5651b3b853,PennController,39,0,rating_task,NULL,Var,notFit,Final,no,1747992142108,undefined,Value at the end of the trial
1747992198,3c4f8f1e52d19cd74be30f5651b3b853,PennController,39,0,rating_task,NULL,Scale,likert,Choice,2,1747992141154,undefined,NULL
1747992198,3c4f8f1e52d19cd74be30f5651b3b853,PennController,39,0,rating_task,NULL,PennController,43,_Trial_,End,1747992142108,undefined,NULL
1747992198,3c4f8f1e52d19cd74be30f5651b3b853,PennController,4,0,rating_task,NULL,PennController,8,_Trial_,Start,1747992142111,undefined,NULL
1747992198,3c4f8f1e52d19cd74be30f5651b3b853,PennController,4,0,rating_task,NULL,PennController,8,_Header_,Start,1747992142111,undefined,NULL
1747992198,3c4f8f1e52d19cd74be30f5651b3b853,PennController,4,0,rating_task,NULL,PennController,8,_Header_,End,1747992142111,undefined,NULL
1747992198,3c4f8f1e52d19cd74be30f5651b3b853,PennController,4,0,rating_task,NULL,Var,group,Final,E,1747992144266,undefined,Value at the end of the trial
1747992198,3c4f8f1e52d19cd74be30f5651b3b853,PennController,4,0,rating_task,NULL,Var,notFit,Final,no,1747992144266,undefined,Value at the end of the trial
1747992198,3c4f8f1e52d19cd74be30f5651b3b853,PennController,4,0,rating_task,NULL,Scale,likert,Choice,6,1747992143237,undefined,NULL
1747992198,3c4f8f1e52d19cd74be30f5651b3b853,PennController,4,0,rating_task,NULL,PennController,8,_Trial_,End,1747992144266,undefined,NULL
1747992198,3c4f8f1e52d19cd74be30f5651b3b853,PennController,18,0,rating_task,NULL,PennController,22,_Trial_,Start,1747992144268,undefined,NULL
1747992198,3c4f8f1e52d19cd74be30f5651b3b853,PennController,18,0,rating_task,NULL,PennController,22,_Header_,Start,1747992144268,undefined,NULL
1747992198,3c4f8f1e52d19cd74be30f5651b3b853,PennController,18,0,rating_task,NULL,PennController,22,_Header_,End,1747992144268,undefined,NULL
1747992198,3c4f8f1e52d19cd74be30f5651b3b853,PennController,18,0,rating_task,NULL,Var,group,Final,E,1747992146180,undefined,Value at the end of the trial
1747992198,3c4f8f1e52d19cd74be30f5651b3b853,PennController,18,0,rating_task,NULL,Var,notFit,Final,no,1747992146180,undefined,Value at the end of the trial
1747992198,3c4f8f1e52d19cd74be30f5651b3b853,PennController,18,0,rating_task,NULL,Scale,likert,Choice,3,1747992145289,undefined,NULL
1747992198,3c4f8f1e52d19cd74be30f5651b3b853,PennController,18,0,rating_task,NULL,PennController,22,_Trial_,End,1747992146180,undefined,NULL
1747992198,3c4f8f1e52d19cd74be30f5651b3b853,PennController,28,0,rating_task,NULL,PennController,32,_Trial_,Start,1747992146184,undefined,NULL
1747992198,3c4f8f1e52d19cd74be30f5651b3b853,PennController,28,0,rating_task,NULL,PennController,32,_Header_,Start,1747992146184,undefined,NULL
1747992198,3c4f8f1e52d19cd74be30f5651b3b853,PennController,28,0,rating_task,NULL,PennController,32,_Header_,End,1747992146184,undefined,NULL
1747992198,3c4f8f1e52d19cd74be30f5651b3b853,PennController,28,0,rating_task,NULL,Var,group,Final,E,1747992148466,undefined,Value at the end of the trial
1747992198,3c4f8f1e52d19cd74be30f5651b3b853,PennController,28,0,rating_task,NULL,Var,notFit,Final,no,1747992148466,undefined,Value at the end of the trial
1747992198,3c4f8f1e52d19cd74be30f5651b3b853,PennController,28,0,rating_task,NULL,Scale,likert,Choice,7,1747992147374,undefined,NULL
1747992198,3c4f8f1e52d19cd74be30f5651b3b853,PennController,28,0,rating_task,NULL,PennController,32,_Trial_,End,1747992148466,undefined,NULL
1747992198,3c4f8f1e52d19cd74be30f5651b3b853,PennController,40,0,rating_task,NULL,PennController,44,_Trial_,Start,1747992148468,undefined,NULL
1747992198,3c4f8f1e52d19cd74be30f5651b3b853,PennController,40,0,rating_task,NULL,PennController,44,_Header_,Start,1747992148468,undefined,NULL
1747992198,3c4f8f1e52d19cd74be30f5651b3b853,PennController,40,0,rating_task,NULL,PennController,44,_Header_,End,1747992148468,undefined,NULL
1747992198,3c4f8f1e52d19cd74be30f5651b3b853,PennController,40,0,rating_task,NULL,Var,group,Final,E,1747992151649,undefined,Value at the end of the trial
1747992198,3c4f8f1e52d19cd74be30f5651b3b853,PennController,40,0,rating_task,NULL,Var,notFit,Final,no,1747992151649,undefined,Value at the end of the trial
1747992198,3c4f8f1e52d19cd74be30f5651b3b853,PennController,40,0,rating_task,NULL,Scale,likert,Choice,4,1747992150402,undefined,NULL
1747992198,3c4f8f1e52d19cd74be30f5651b3b853,PennController,40,0,rating_task,NULL,PennController,44,_Trial_,End,1747992151650,undefined,NULL
1747992198,3c4f8f1e52d19cd74be30f5651b3b853,PennController,11,0,rating_task,NULL,PennController,15,_Trial_,Start,1747992151652,undefined,NULL
1747992198,3c4f8f1e52d19cd74be30f5651b3b853,PennController,11,0,rating_task,NULL,PennController,15,_Header_,Start,1747992151652,undefined,NULL
1747992198,3c4f8f1e52d19cd74be30f5651b3b853,PennController,11,0,rating_task,NULL,PennController,15,_Header_,End,1747992151652,undefined,NULL
1747992198,3c4f8f1e52d19cd74be30f5651b3b853,PennController,11,0,rating_task,NULL,Var,group,Final,E,1747992154232,undefined,Value at the end of the trial
1747992198,3c4f8f1e52d19cd74be30f5651b3b853,PennController,11,0,rating_task,NULL,Var,notFit,Final,no,1747992154232,undefined,Value at the end of the trial
1747992198,3c4f8f1e52d19cd74be30f5651b3b853,PennController,11,0,rating_task,NULL,Scale,likert,Choice,2,1747992153095,undefined,NULL
1747992198,3c4f8f1e52d19cd74be30f5651b3b853,PennController,11,0,rating_task,NULL,PennController,15,_Trial_,End,1747992154233,undefined,NULL
1747992198,3c4f8f1e52d19cd74be30f5651b3b853,PennController,44,0,rating_task,NULL,PennController,48,_Trial_,Start,1747992154235,undefined,NULL
1747992198,3c4f8f1e52d19cd74be30f5651b3b853,PennController,44,0,rating_task,NULL,PennController,48,_Header_,Start,1747992154235,undefined,NULL
1747992198,3c4f8f1e52d19cd74be30f5651b3b853,PennController,44,0,rating_task,NULL,PennController,48,_Header_,End,1747992154235,undefined,NULL
1747992198,3c4f8f1e52d19cd74be30f5651b3b853,PennController,44,0,rating_task,NULL,Var,group,Final,E,1747992156687,undefined,Value at the end of the trial
1747992198,3c4f8f1e52d19cd74be30f5651b3b853,PennController,44,0,rating_task,NULL,Var,notFit,Final,no,1747992156687,undefined,Value at the end of the trial
1747992198,3c4f8f1e52d19cd74be30f5651b3b853,PennController,44,0,rating_task,NULL,Scale,likert,Choice,6,1747992155570,undefined,NULL
1747992198,3c4f8f1e52d19cd74be30f5651b3b853,PennController,44,0,rating_task,NULL,PennController,48,_Trial_,End,1747992156687,undefined,NULL
1747992198,3c4f8f1e52d19cd74be30f5651b3b853,PennController,33,0,rating_task,NULL,PennController,37,_Trial_,Start,1747992156689,undefined,NULL
1747992198,3c4f8f1e52d19cd74be30f5651b3b853,PennController,33,0,rating_task,NULL,PennController,37,_Header_,Start,1747992156689,undefined,NULL
1747992198,3c4f8f1e52d19cd74be30f5651b3b853,PennController,33,0,rating_task,NULL,PennController,37,_Header_,End,1747992156689,undefined,NULL
1747992198,3c4f8f1e52d19cd74be30f5651b3b853,PennController,33,0,rating_task,NULL,Var,group,Final,E,1747992158944,undefined,Value at the end of the trial
1747992198,3c4f8f1e52d19cd74be30f5651b3b853,PennController,33,0,rating_task,NULL,Var,notFit,Final,no,1747992158944,undefined,Value at the end of the trial
1747992198,3c4f8f1e52d19cd74be30f5651b3b853,PennController,33,0,rating_task,NULL,Scale,likert,Choice,5,1747992157911,undefined,NULL
1747992198,3c4f8f1e52d19cd74be30f5651b3b853,PennController,33,0,rating_task,NULL,PennController,37,_Trial_,End,1747992158944,undefined,NULL
1747992198,3c4f8f1e52d19cd74be30f5651b3b853,PennController,15,0,rating_task,NULL,PennController,19,_Trial_,Start,1747992158946,undefined,NULL
1747992198,3c4f8f1e52d19cd74be30f5651b3b853,PennController,15,0,rating_task,NULL,PennController,19,_Header_,Start,1747992158946,undefined,NULL
1747992198,3c4f8f1e52d19cd74be30f5651b3b853,PennController,15,0,rating_task,NULL,PennController,19,_Header_,End,1747992158947,undefined,NULL
1747992198,3c4f8f1e52d19cd74be30f5651b3b853,PennController,15,0,rating_task,NULL,Var,group,Final,E,1747992161441,undefined,Value at the end of the trial
1747992198,3c4f8f1e52d19cd74be30f5651b3b853,PennController,15,0,rating_task,NULL,Var,notFit,Final,no,1747992161441,undefined,Value at the end of the trial
1747992198,3c4f8f1e52d19cd74be30f5651b3b853,PennController,15,0,rating_task,NULL,Scale,likert,Choice,4,1747992160313,undefined,NULL
1747992198,3c4f8f1e52d19cd74be30f5651b3b853,PennController,15,0,rating_task,NULL,PennController,19,_Trial_,End,1747992161442,undefined,NULL
1747992198,3c4f8f1e52d19cd74be30f5651b3b853,PennController,22,0,rating_task,NULL,PennController,26,_Trial_,Start,1747992161444,undefined,NULL
1747992198,3c4f8f1e52d19cd74be30f5651b3b853,PennController,22,0,rating_task,NULL,PennController,26,_Header_,Start,1747992161444,undefined,NULL
1747992198,3c4f8f1e52d19cd74be30f5651b3b853,PennController,22,0,rating_task,NULL,PennController,26,_Header_,End,1747992161444,undefined,NULL
1747992198,3c4f8f1e52d19cd74be30f5651b3b853,PennController,22,0,rating_task,NULL,Var,group,Final,E,1747992163899,undefined,Value at the end of the trial
1747992198,3c4f8f1e52d19cd74be30f5651b3b853,PennController,22,0,rating_task,NULL,Var,notFit,Final,no,1747992163899,undefined,Value at the end of the trial
1747992198,3c4f8f1e52d19cd74be30f5651b3b853,PennController,22,0,rating_task,NULL,Scale,likert,Choice,3,1747992162853,undefined,NULL
1747992198,3c4f8f1e52d19cd74be30f5651b3b853,PennController,22,0,rating_task,NULL,PennController,26,_Trial_,End,1747992163900,undefined,NULL
1747992198,3c4f8f1e52d19cd74be30f5651b3b853,PennController,20,0,rating_task,NULL,PennController,24,_Trial_,Start,1747992163902,undefined,NULL
1747992198,3c4f8f1e52d19cd74be30f5651b3b853,PennController,20,0,rating_task,NULL,PennController,24,_Header_,Start,1747992163902,undefined,NULL
1747992198,3c4f8f1e52d19cd74be30f5651b3b853,PennController,20,0,rating_task,NULL,PennController,24,_Header_,End,1747992163902,undefined,NULL
1747992198,3c4f8f1e52d19cd74be30f5651b3b853,PennController,20,0,rating_task,NULL,Var,group,Final,E,1747992166206,undefined,Value at the end of the trial
1747992198,3c4f8f1e52d19cd74be30f5651b3b853,PennController,20,0,rating_task,NULL,Var,notFit,Final,no,1747992166206,undefined,Value at the end of the trial
1747992198,3c4f8f1e52d19cd74be30f5651b3b853,PennController,20,0,rating_task,NULL,Scale,likert,Choice,2,1747992165154,undefined,NULL
1747992198,3c4f8f1e52d19cd74be30f5651b3b853,PennController,20,0,rating_task,NULL,PennController,24,_Trial_,End,1747992166206,undefined,NULL
1747992198,3c4f8f1e52d19cd74be30f5651b3b853,PennController,36,0,rating_task,NULL,PennController,40,_Trial_,Start,1747992166208,undefined,NULL
1747992198,3c4f8f1e52d19cd74be30f5651b3b853,PennController,36,0,rating_task,NULL,PennController,40,_Header_,Start,1747992166208,undefined,NULL
1747992198,3c4f8f1e52d19cd74be30f5651b3b853,PennController,36,0,rating_task,NULL,PennController,40,_Header_,End,1747992166208,undefined,NULL
1747992198,3c4f8f1e52d19cd74be30f5651b3b853,PennController,36,0,rating_task,NULL,Var,group,Final,E,1747992169027,undefined,Value at the end of the trial
1747992198,3c4f8f1e52d19cd74be30f5651b3b853,PennController,36,0,rating_task,NULL,Var,notFit,Final,no,1747992169027,undefined,Value at the end of the trial
1747992198,3c4f8f1e52d19cd74be30f5651b3b853,PennController,36,0,rating_task,NULL,Scale,likert,Choice,7,1747992167985,undefined,NULL
1747992198,3c4f8f1e52d19cd74be30f5651b3b853,PennController,36,0,rating_task,NULL,PennController,40,_Trial_,End,1747992169028,undefined,NULL
1747992198,3c4f8f1e52d19cd74be30f5651b3b853,PennController,6,0,rating_task,NULL,PennController,10,_Trial_,Start,1747992169029,undefined,NULL
1747992198,3c4f8f1e52d19cd74be30f5651b3b853,PennController,6,0,rating_task,NULL,PennController,10,_Header_,Start,1747992169029,undefined,NULL
1747992198,3c4f8f1e52d19cd74be30f5651b3b853,PennController,6,0,rating_task,NULL,PennController,10,_Header_,End,1747992169029,undefined,NULL
1747992198,3c4f8f1e52d19cd74be30f5651b3b853,PennController,6,0,rating_task,NULL,Var,group,Final,E,1747992171626,undefined,Value at the end of the trial
1747992198,3c4f8f1e52d19cd74be30f5651b3b853,PennController,6,0,rating_task,NULL,Var,notFit,Final,no,1747992171626,undefined,Value at the end of the trial
1747992198,3c4f8f1e52d19cd74be30f5651b3b853,PennController,6,0,rating_task,NULL,Scale,likert,Choice,1,1747992170496,undefined,NULL
1747992198,3c4f8f1e52d19cd74be30f5651b3b853,PennController,6,0,rating_task,NULL,PennController,10,_Trial_,End,1747992171626,undefined,NULL
1747992198,3c4f8f1e52d19cd74be30f5651b3b853,PennController,24,0,rating_task,NULL,PennController,28,_Trial_,Start,1747992171628,undefined,NULL
1747992198,3c4f8f1e52d19cd74be30f5651b3b853,PennController,24,0,rating_task,NULL,PennController,28,_Header_,Start,1747992171628,undefined,NULL
1747992198,3c4f8f1e52d19cd74be30f5651b3b853,PennController,24,0,rating_task,NULL,PennController,28,_Header_,End,1747992171628,undefined,NULL
1747992198,3c4f8f1e52d19cd74be30f5651b3b853,PennController,24,0,rating_task,NULL,Var,group,Final,E,1747992174212,undefined,Value at the end of the trial
1747992198,3c4f8f1e52d19cd74be30f5651b3b853,PennController,24,0,rating_task,NULL,Var,notFit,Final,no,1747992174212,undefined,Value at the end of the trial
1747992198,3c4f8f1e52d19cd74be30f5651b3b853,PennController,24,0,rating_task,NULL,Scale,likert,Choice,3,1747992172757,undefined,NULL
1747992198,3c4f8f1e52d19cd74be30f5651b3b853,PennController,24,0,rating_task,NULL,PennController,28,_Trial_,End,1747992174213,undefined,NULL
1747992198,3c4f8f1e52d19cd74be30f5651b3b853,PennController,16,0,rating_task,NULL,PennController,20,_Trial_,Start,1747992174215,undefined,NULL
1747992198,3c4f8f1e52d19cd74be30f5651b3b853,PennController,16,0,rating_task,NULL,PennController,20,_Header_,Start,1747992174215,undefined,NULL
1747992198,3c4f8f1e52d19cd74be30f5651b3b853,PennController,16,0,rating_task,NULL,PennController,20,_Header_,End,1747992174215,undefined,NULL
1747992198,3c4f8f1e52d19cd74be30f5651b3b853,PennController,16,0,rating_task,NULL,Var,group,Final,E,1747992176803,undefined,Value at the end of the trial
1747992198,3c4f8f1e52d19cd74be30f5651b3b853,PennController,16,0,rating_task,NULL,Var,notFit,Final,no,1747992176803,undefined,Value at the end of the trial
1747992198,3c4f8f1e52d19cd74be30f5651b3b853,PennController,16,0,rating_task,NULL,Scale,likert,Choice,6,1747992175850,undefined,NULL
1747992198,3c4f8f1e52d19cd74be30f5651b3b853,PennController,16,0,rating_task,NULL,PennController,20,_Trial_,End,1747992176803,undefined,NULL
1747992198,3c4f8f1e52d19cd74be30f5651b3b853,PennController,26,0,rating_task,NULL,PennController,30,_Trial_,Start,1747992176805,undefined,NULL
1747992198,3c4f8f1e52d19cd74be30f5651b3b853,PennController,26,0,rating_task,NULL,PennController,30,_Header_,Start,1747992176805,undefined,NULL
1747992198,3c4f8f1e52d19cd74be30f5651b3b853,PennController,26,0,rating_task,NULL,PennController,30,_Header_,End,1747992176805,undefined,NULL
1747992198,3c4f8f1e52d19cd74be30f5651b3b853,PennController,26,0,rating_task,NULL,Var,group,Final,E,1747992179265,undefined,Value at the end of the trial
1747992198,3c4f8f1e52d19cd74be30f5651b3b853,PennController,26,0,rating_task,NULL,Var,notFit,Final,no,1747992179265,undefined,Value at the end of the trial
1747992198,3c4f8f1e52d19cd74be30f5651b3b853,PennController,26,0,rating_task,NULL,Scale,likert,Choice,4,1747992178142,undefined,NULL
1747992198,3c4f8f1e52d19cd74be30f5651b3b853,PennController,26,0,rating_task,NULL,PennController,30,_Trial_,End,1747992179266,undefined,NULL
1747992198,3c4f8f1e52d19cd74be30f5651b3b853,PennController,30,0,rating_task,NULL,PennController,34,_Trial_,Start,1747992179268,undefined,NULL
1747992198,3c4f8f1e52d19cd74be30f5651b3b853,PennController,30,0,rating_task,NULL,PennController,34,_Header_,Start,1747992179268,undefined,NULL
1747992198,3c4f8f1e52d19cd74be30f5651b3b853,PennController,30,0,rating_task,NULL,PennController,34,_Header_,End,1747992179268,undefined,NULL
1747992198,3c4f8f1e52d19cd74be30f5651b3b853,PennController,30,0,rating_task,NULL,Var,group,Final,E,1747992181438,undefined,Value at the end of the trial
1747992198,3c4f8f1e52d19cd74be30f5651b3b853,PennController,30,0,rating_task,NULL,Var,notFit,Final,no,1747992181439,undefined,Value at the end of the trial
1747992198,3c4f8f1e52d19cd74be30f5651b3b853,PennController,30,0,rating_task,NULL,Scale,likert,Choice,3,1747992180510,undefined,NULL
1747992198,3c4f8f1e52d19cd74be30f5651b3b853,PennController,30,0,rating_task,NULL,PennController,34,_Trial_,End,1747992181439,undefined,NULL
1747992198,3c4f8f1e52d19cd74be30f5651b3b853,PennController,12,0,rating_task,NULL,PennController,16,_Trial_,Start,1747992181441,undefined,NULL
1747992198,3c4f8f1e52d19cd74be30f5651b3b853,PennController,12,0,rating_task,NULL,PennController,16,_Header_,Start,1747992181441,undefined,NULL
1747992198,3c4f8f1e52d19cd74be30f5651b3b853,PennController,12,0,rating_task,NULL,PennController,16,_Header_,End,1747992181441,undefined,NULL
1747992198,3c4f8f1e52d19cd74be30f5651b3b853,PennController,12,0,rating_task,NULL,Var,group,Final,E,1747992183787,undefined,Value at the end of the trial
1747992198,3c4f8f1e52d19cd74be30f5651b3b853,PennController,12,0,rating_task,NULL,Var,notFit,Final,no,1747992183787,undefined,Value at the end of the trial
1747992198,3c4f8f1e52d19cd74be30f5651b3b853,PennController,12,0,rating_task,NULL,Scale,likert,Choice,2,1747992182819,undefined,NULL
1747992198,3c4f8f1e52d19cd74be30f5651b3b853,PennController,12,0,rating_task,NULL,PennController,16,_Trial_,End,1747992183788,undefined,NULL
1747992198,3c4f8f1e52d19cd74be30f5651b3b853,PennController,32,0,rating_task,NULL,PennController,36,_Trial_,Start,1747992183789,undefined,NULL
1747992198,3c4f8f1e52d19cd74be30f5651b3b853,PennController,32,0,rating_task,NULL,PennController,36,_Header_,Start,1747992183789,undefined,NULL
1747992198,3c4f8f1e52d19cd74be30f5651b3b853,PennController,32,0,rating_task,NULL,PennController,36,_Header_,End,1747992183789,undefined,NULL
1747992198,3c4f8f1e52d19cd74be30f5651b3b853,PennController,32,0,rating_task,NULL,Var,group,Final,E,1747992186363,undefined,Value at the end of the trial
1747992198,3c4f8f1e52d19cd74be30f5651b3b853,PennController,32,0,rating_task,NULL,Var,notFit,Final,no,1747992186363,undefined,Value at the end of the trial
1747992198,3c4f8f1e52d19cd74be30f5651b3b853,PennController,32,0,rating_task,NULL,Scale,likert,Choice,7,1747992185292,undefined,NULL
1747992198,3c4f8f1e52d19cd74be30f5651b3b853,PennController,32,0,rating_task,NULL,PennController,36,_Trial_,End,1747992186364,undefined,NULL
1747992198,3c4f8f1e52d19cd74be30f5651b3b853,PennController,41,0,rating_task,NULL,PennController,45,_Trial_,Start,1747992186366,undefined,NULL
1747992198,3c4f8f1e52d19cd74be30f5651b3b853,PennController,41,0,rating_task,NULL,PennController,45,_Header_,Start,1747992186366,undefined,NULL
1747992198,3c4f8f1e52d19cd74be30f5651b3b853,PennController,41,0,rating_task,NULL,PennController,45,_Header_,End,1747992186366,undefined,NULL
1747992198,3c4f8f1e52d19cd74be30f5651b3b853,PennController,41,0,rating_task,NULL,Var,group,Final,E,1747992188952,undefined,Value at the end of the trial
1747992198,3c4f8f1e52d19cd74be30f5651b3b853,PennController,41,0,rating_task,NULL,Var,notFit,Final,no,1747992188952,undefined,Value at the end of the trial
1747992198,3c4f8f1e52d19cd74be30f5651b3b853,PennController,41,0,rating_task,NULL,Scale,likert,Choice,1,1747992187846,undefined,NULL
1747992198,3c4f8f1e52d19cd74be30f5651b3b853,PennController,41,0,rating_task,NULL,PennController,45,_Trial_,End,1747992188953,undefined,NULL
1747992198,3c4f8f1e52d19cd74be30f5651b3b853,PennController,37,0,rating_task,NULL,PennController,41,_Trial_,Start,1747992188954,undefined,NULL
1747992198,3c4f8f1e52d19cd74be30f5651b3b853,PennController,37,0,rating_task,NULL,PennController,41,_Header_,Start,1747992188954,undefined,NULL
1747992198,3c4f8f1e52d19cd74be30f5651b3b853,PennController,37,0,rating_task,NULL,PennController,41,_Header_,End,1747992188954,undefined,NULL
1747992198,3c4f8f1e52d19cd74be30f5651b3b853,PennController,37,0,rating_task,NULL,Var,group,Final,E,1747992191414,undefined,Value at the end of the trial
1747992198,3c4f8f1e52d19cd74be30f5651b3b853,PennController,37,0,rating_task,NULL,Var,notFit,Final,no,1747992191414,undefined,Value at the end of the trial
1747992198,3c4f8f1e52d19cd74be30f5651b3b853,PennController,37,0,rating_task,NULL,Scale,likert,Choice,6,1747992190275,undefined,NULL
1747992198,3c4f8f1e52d19cd74be30f5651b3b853,PennController,37,0,rating_task,NULL,PennController,41,_Trial_,End,1747992191414,undefined,NULL
1747992198,3c4f8f1e52d19cd74be30f5651b3b853,PennController,9,0,rating_task,NULL,PennController,13,_Trial_,Start,1747992191416,undefined,NULL
1747992198,3c4f8f1e52d19cd74be30f5651b3b853,PennController,9,0,rating_task,NULL,PennController,13,_Header_,Start,1747992191416,undefined,NULL
1747992198,3c4f8f1e52d19cd74be30f5651b3b853,PennController,9,0,rating_task,NULL,PennController,13,_Header_,End,1747992191416,undefined,NULL
1747992198,3c4f8f1e52d19cd74be30f5651b3b853,PennController,9,0,rating_task,NULL,Var,group,Final,E,1747992193833,undefined,Value at the end of the trial
1747992198,3c4f8f1e52d19cd74be30f5651b3b853,PennController,9,0,rating_task,NULL,Var,notFit,Final,no,1747992193833,undefined,Value at the end of the trial
1747992198,3c4f8f1e52d19cd74be30f5651b3b853,PennController,9,0,rating_task,NULL,Scale,likert,Choice,2,1747992192871,undefined,NULL
1747992198,3c4f8f1e52d19cd74be30f5651b3b853,PennController,9,0,rating_task,NULL,PennController,13,_Trial_,End,1747992193833,undefined,NULL
1747992198,3c4f8f1e52d19cd74be30f5651b3b853,PennController,14,0,rating_task,NULL,PennController,18,_Trial_,Start,1747992193835,undefined,NULL
1747992198,3c4f8f1e52d19cd74be30f5651b3b853,PennController,14,0,rating_task,NULL,PennController,18,_Header_,Start,1747992193835,undefined,NULL
1747992198,3c4f8f1e52d19cd74be30f5651b3b853,PennController,14,0,rating_task,NULL,PennController,18,_Header_,End,1747992193835,undefined,NULL
1747992198,3c4f8f1e52d19cd74be30f5651b3b853,PennController,14,0,rating_task,NULL,Var,group,Final,E,1747992195979,undefined,Value at the end of the trial
1747992198,3c4f8f1e52d19cd74be30f5651b3b853,PennController,14,0,rating_task,NULL,Var,notFit,Final,no,1747992195979,undefined,Value at the end of the trial
1747992198,3c4f8f1e52d19cd74be30f5651b3b853,PennController,14,0,rating_task,NULL,Scale,likert,Choice,6,1747992194980,undefined,NULL
1747992198,3c4f8f1e52d19cd74be30f5651b3b853,PennController,14,0,rating_task,NULL,PennController,18,_Trial_,End,1747992195979,undefined,NULL
1747992198,3c4f8f1e52d19cd74be30f5651b3b853,PennController,35,0,rating_task,NULL,PennController,39,_Trial_,Start,1747992195981,undefined,NULL
1747992198,3c4f8f1e52d19cd74be30f5651b3b853,PennController,35,0,rating_task,NULL,PennController,39,_Header_,Start,1747992195981,undefined,NULL
1747992198,3c4f8f1e52d19cd74be30f5651b3b853,PennController,35,0,rating_task,NULL,PennController,39,_Header_,End,1747992195981,undefined,NULL
1747992198,3c4f8f1e52d19cd74be30f5651b3b853,PennController,35,0,rating_task,NULL,Var,group,Final,E,1747992198159,undefined,Value at the end of the trial
1747992198,3c4f8f1e52d19cd74be30f5651b3b853,PennController,35,0,rating_task,NULL,Var,notFit,Final,no,1747992198159,undefined,Value at the end of the trial
1747992198,3c4f8f1e52d19cd74be30f5651b3b853,PennController,35,0,rating_task,NULL,Scale,likert,Choice,3,1747992197182,undefined,NULL
1747992198,3c4f8f1e52d19cd74be30f5651b3b853,PennController,35,0,rating_task,NULL,PennController,39,_Trial_,End,1747992198160,undefined,NULL
#
# Results on Fri, 23 May 2025 09:40:05 GMT
# USER AGENT: Mozilla/5.0 (Macintosh; Intel Mac OS X 10_15_7) AppleWebKit/537.36 (KHTML, like Gecko) Chrome/136.0.0.0 Safari/537.36
# Design number was non-random = 12
#
# Columns below this comment are as follows:
# 1. Results reception time.
# 2. MD5 hash of participant's IP address.
# 3. Controller name.
# 4. Order number of item.
# 5. Inner element number.
# 6. Label.
# 7. Latin Square Group.
# 8. PennElementType.
# 9. PennElementName.
# 10. Parameter.
# 11. Value.
# 12. EventTime.
# 13. ID.
# 14. Comments.
1747993205,3c4f8f1e52d19cd74be30f5651b3b853,PennController,1,0,welcome,NULL,PennController,0,_Trial_,Start,1747992969821,undefined,NULL
1747993205,3c4f8f1e52d19cd74be30f5651b3b853,PennController,1,0,welcome,NULL,PennController,0,_Header_,Start,1747992969821,undefined,NULL
1747993205,3c4f8f1e52d19cd74be30f5651b3b853,PennController,1,0,welcome,NULL,PennController,0,_Header_,End,1747992969821,undefined,NULL
1747993205,3c4f8f1e52d19cd74be30f5651b3b853,PennController,1,0,welcome,NULL,PennController,0,_Trial_,End,1747992971802,undefined,NULL
# 14. ID.
# 15. Comments.
1747993205,3c4f8f1e52d19cd74be30f5651b3b853,PennController,46,0,consent,NULL,PennController,2,_Trial_,Start,1747992971806,morgab,morgab,NULL
1747993205,3c4f8f1e52d19cd74be30f5651b3b853,PennController,46,0,consent,NULL,PennController,2,_Header_,Start,1747992971806,morgab,morgab,NULL
1747993205,3c4f8f1e52d19cd74be30f5651b3b853,PennController,46,0,consent,NULL,PennController,2,_Header_,End,1747992971806,morgab,morgab,NULL
1747993205,3c4f8f1e52d19cd74be30f5651b3b853,PennController,46,0,consent,NULL,TextInput,ID,Final,morgab,1747992975346,morgab,morgab,NULL
1747993205,3c4f8f1e52d19cd74be30f5651b3b853,PennController,46,0,consent,NULL,TextInput,ID,First,,1747992972854,morgab,morgab,s
1747993205,3c4f8f1e52d19cd74be30f5651b3b853,PennController,46,0,consent,NULL,PennController,2,_Trial_,End,1747992975346,morgab,morgab,NULL
# 14. Comments.
1747993205,3c4f8f1e52d19cd74be30f5651b3b853,PennController,48,0,instructions1,NULL,PennController,4,_Trial_,Start,1747992975349,morgab,NULL
1747993205,3c4f8f1e52d19cd74be30f5651b3b853,PennController,48,0,instructions1,NULL,PennController,4,_Header_,Start,1747992975349,morgab,NULL
1747993205,3c4f8f1e52d19cd74be30f5651b3b853,PennController,48,0,instructions1,NULL,PennController,4,_Header_,End,1747992975349,morgab,NULL
1747993205,3c4f8f1e52d19cd74be30f5651b3b853,PennController,48,0,instructions1,NULL,PennController,4,_Trial_,End,1747992977017,morgab,NULL
1747993205,3c4f8f1e52d19cd74be30f5651b3b853,PennController,49,0,instructions2,NULL,PennController,5,_Trial_,Start,1747992977021,morgab,NULL
1747993205,3c4f8f1e52d19cd74be30f5651b3b853,PennController,49,0,instructions2,NULL,PennController,5,_Header_,Start,1747992977021,morgab,NULL
1747993205,3c4f8f1e52d19cd74be30f5651b3b853,PennController,49,0,instructions2,NULL,PennController,5,_Header_,End,1747992977021,morgab,NULL
1747993205,3c4f8f1e52d19cd74be30f5651b3b853,PennController,49,0,instructions2,NULL,PennController,5,_Trial_,End,1747992977705,morgab,NULL
1747993205,3c4f8f1e52d19cd74be30f5651b3b853,PennController,50,0,practice_intro,NULL,PennController,6,_Trial_,Start,1747992977708,morgab,NULL
1747993205,3c4f8f1e52d19cd74be30f5651b3b853,PennController,50,0,practice_intro,NULL,PennController,6,_Header_,Start,1747992977708,morgab,NULL
1747993205,3c4f8f1e52d19cd74be30f5651b3b853,PennController,50,0,practice_intro,NULL,PennController,6,_Header_,End,1747992977708,morgab,NULL
1747993205,3c4f8f1e52d19cd74be30f5651b3b853,PennController,50,0,practice_intro,NULL,PennController,6,_Trial_,End,1747992978724,morgab,NULL
1747993205,3c4f8f1e52d19cd74be30f5651b3b853,PennController,55,0,practice,NULL,PennController,53,_Trial_,Start,1747992978727,morgab,NULL
1747993205,3c4f8f1e52d19cd74be30f5651b3b853,PennController,55,0,practice,NULL,PennController,53,_Header_,Start,1747992978727,morgab,NULL
1747993205,3c4f8f1e52d19cd74be30f5651b3b853,PennController,55,0,practice,NULL,PennController,53,_Header_,End,1747992978727,morgab,NULL
1747993205,3c4f8f1e52d19cd74be30f5651b3b853,PennController,55,0,practice,NULL,Scale,likert,Choice,7,1747992980530,morgab,NULL
1747993205,3c4f8f1e52d19cd74be30f5651b3b853,PennController,55,0,practice,NULL,Var,notFit,Final,no,1747992982837,morgab,Value at the end of the trial
1747993205,3c4f8f1e52d19cd74be30f5651b3b853,PennController,55,0,practice,NULL,PennController,53,_Trial_,End,1747992982837,morgab,NULL
1747993205,3c4f8f1e52d19cd74be30f5651b3b853,PennController,62,0,practice,NULL,PennController,60,_Trial_,Start,1747992982841,morgab,NULL
1747993205,3c4f8f1e52d19cd74be30f5651b3b853,PennController,62,0,practice,NULL,PennController,60,_Header_,Start,1747992982841,morgab,NULL
1747993205,3c4f8f1e52d19cd74be30f5651b3b853,PennController,62,0,practice,NULL,PennController,60,_Header_,End,1747992982841,morgab,NULL
1747993205,3c4f8f1e52d19cd74be30f5651b3b853,PennController,62,0,practice,NULL,Scale,likert,Choice,1,1747992984019,morgab,NULL
1747993205,3c4f8f1e52d19cd74be30f5651b3b853,PennController,62,0,practice,NULL,Var,notFit,Final,no,1747992986254,morgab,Value at the end of the trial
1747993205,3c4f8f1e52d19cd74be30f5651b3b853,PennController,62,0,practice,NULL,PennController,60,_Trial_,End,1747992986254,morgab,NULL
1747993205,3c4f8f1e52d19cd74be30f5651b3b853,PennController,60,0,practice,NULL,PennController,58,_Trial_,Start,1747992986258,morgab,NULL
1747993205,3c4f8f1e52d19cd74be30f5651b3b853,PennController,60,0,practice,NULL,PennController,58,_Header_,Start,1747992986258,morgab,NULL
1747993205,3c4f8f1e52d19cd74be30f5651b3b853,PennController,60,0,practice,NULL,PennController,58,_Header_,End,1747992986258,morgab,NULL
1747993205,3c4f8f1e52d19cd74be30f5651b3b853,PennController,60,0,practice,NULL,Scale,likert,Choice,4,1747992987344,morgab,NULL
1747993205,3c4f8f1e52d19cd74be30f5651b3b853,PennController,60,0,practice,NULL,Var,notFit,Final,no,1747993003791,morgab,Value at the end of the trial
1747993205,3c4f8f1e52d19cd74be30f5651b3b853,PennController,60,0,practice,NULL,PennController,58,_Trial_,End,1747993003791,morgab,NULL
1747993205,3c4f8f1e52d19cd74be30f5651b3b853,PennController,67,0,practice,NULL,PennController,65,_Trial_,Start,1747993003795,morgab,NULL
1747993205,3c4f8f1e52d19cd74be30f5651b3b853,PennController,67,0,practice,NULL,PennController,65,_Header_,Start,1747993003795,morgab,NULL
1747993205,3c4f8f1e52d19cd74be30f5651b3b853,PennController,67,0,practice,NULL,PennController,65,_Header_,End,1747993003795,morgab,NULL
1747993205,3c4f8f1e52d19cd74be30f5651b3b853,PennController,67,0,practice,NULL,Scale,likert,Choice,1,1747993005763,morgab,NULL
1747993205,3c4f8f1e52d19cd74be30f5651b3b853,PennController,67,0,practice,NULL,Var,notFit,Final,no,1747993008684,morgab,Value at the end of the trial
1747993205,3c4f8f1e52d19cd74be30f5651b3b853,PennController,67,0,practice,NULL,PennController,65,_Trial_,End,1747993008684,morgab,NULL
1747993205,3c4f8f1e52d19cd74be30f5651b3b853,PennController,59,0,practice,NULL,PennController,57,_Trial_,Start,1747993008687,morgab,NULL
1747993205,3c4f8f1e52d19cd74be30f5651b3b853,PennController,59,0,practice,NULL,PennController,57,_Header_,Start,1747993008687,morgab,NULL
1747993205,3c4f8f1e52d19cd74be30f5651b3b853,PennController,59,0,practice,NULL,PennController,57,_Header_,End,1747993008687,morgab,NULL
1747993205,3c4f8f1e52d19cd74be30f5651b3b853,PennController,59,0,practice,NULL,Scale,likert,Choice,5,1747993009875,morgab,NULL
1747993205,3c4f8f1e52d19cd74be30f5651b3b853,PennController,59,0,practice,NULL,Var,notFit,Final,no,1747993011418,morgab,Value at the end of the trial
1747993205,3c4f8f1e52d19cd74be30f5651b3b853,PennController,59,0,practice,NULL,PennController,57,_Trial_,End,1747993011418,morgab,NULL
1747993205,3c4f8f1e52d19cd74be30f5651b3b853,PennController,54,0,practice,NULL,PennController,52,_Trial_,Start,1747993011421,morgab,NULL
1747993205,3c4f8f1e52d19cd74be30f5651b3b853,PennController,54,0,practice,NULL,PennController,52,_Header_,Start,1747993011421,morgab,NULL
1747993205,3c4f8f1e52d19cd74be30f5651b3b853,PennController,54,0,practice,NULL,PennController,52,_Header_,End,1747993011421,morgab,NULL
1747993205,3c4f8f1e52d19cd74be30f5651b3b853,PennController,54,0,practice,NULL,Scale,likert,Choice,1,1747993014825,morgab,NULL
1747993205,3c4f8f1e52d19cd74be30f5651b3b853,PennController,54,0,practice,NULL,Var,notFit,Final,no,1747993016794,morgab,Value at the end of the trial
1747993205,3c4f8f1e52d19cd74be30f5651b3b853,PennController,54,0,practice,NULL,PennController,52,_Trial_,End,1747993016794,morgab,NULL
1747993205,3c4f8f1e52d19cd74be30f5651b3b853,PennController,64,0,practice,NULL,PennController,62,_Trial_,Start,1747993016797,morgab,NULL
1747993205,3c4f8f1e52d19cd74be30f5651b3b853,PennController,64,0,practice,NULL,PennController,62,_Header_,Start,1747993016797,morgab,NULL
1747993205,3c4f8f1e52d19cd74be30f5651b3b853,PennController,64,0,practice,NULL,PennController,62,_Header_,End,1747993016797,morgab,NULL
1747993205,3c4f8f1e52d19cd74be30f5651b3b853,PennController,64,0,practice,NULL,Scale,likert,Choice,5,1747993017829,morgab,NULL
1747993205,3c4f8f1e52d19cd74be30f5651b3b853,PennController,64,0,practice,NULL,Var,notFit,Final,no,1747993019500,morgab,Value at the end of the trial
1747993205,3c4f8f1e52d19cd74be30f5651b3b853,PennController,64,0,practice,NULL,PennController,62,_Trial_,End,1747993019500,morgab,NULL
1747993205,3c4f8f1e52d19cd74be30f5651b3b853,PennController,66,0,practice,NULL,PennController,64,_Trial_,Start,1747993019503,morgab,NULL
1747993205,3c4f8f1e52d19cd74be30f5651b3b853,PennController,66,0,practice,NULL,PennController,64,_Header_,Start,1747993019503,morgab,NULL
1747993205,3c4f8f1e52d19cd74be30f5651b3b853,PennController,66,0,practice,NULL,PennController,64,_Header_,End,1747993019503,morgab,NULL
1747993205,3c4f8f1e52d19cd74be30f5651b3b853,PennController,66,0,practice,NULL,Scale,likert,Choice,1,1747993020974,morgab,NULL
1747993205,3c4f8f1e52d19cd74be30f5651b3b853,PennController,66,0,practice,NULL,Var,notFit,Final,no,1747993022933,morgab,Value at the end of the trial
1747993205,3c4f8f1e52d19cd74be30f5651b3b853,PennController,66,0,practice,NULL,PennController,64,_Trial_,End,1747993022933,morgab,NULL
1747993205,3c4f8f1e52d19cd74be30f5651b3b853,PennController,57,0,practice,NULL,PennController,55,_Trial_,Start,1747993022937,morgab,NULL
1747993205,3c4f8f1e52d19cd74be30f5651b3b853,PennController,57,0,practice,NULL,PennController,55,_Header_,Start,1747993022937,morgab,NULL
1747993205,3c4f8f1e52d19cd74be30f5651b3b853,PennController,57,0,practice,NULL,PennController,55,_Header_,End,1747993022937,morgab,NULL
1747993205,3c4f8f1e52d19cd74be30f5651b3b853,PennController,57,0,practice,NULL,Scale,likert,Choice,7,1747993024201,morgab,NULL
1747993205,3c4f8f1e52d19cd74be30f5651b3b853,PennController,57,0,practice,NULL,Var,notFit,Final,no,1747993025779,morgab,Value at the end of the trial
1747993205,3c4f8f1e52d19cd74be30f5651b3b853,PennController,57,0,practice,NULL,PennController,55,_Trial_,End,1747993025779,morgab,NULL
1747993205,3c4f8f1e52d19cd74be30f5651b3b853,PennController,61,0,practice,NULL,PennController,59,_Trial_,Start,1747993025782,morgab,NULL
1747993205,3c4f8f1e52d19cd74be30f5651b3b853,PennController,61,0,practice,NULL,PennController,59,_Header_,Start,1747993025782,morgab,NULL
1747993205,3c4f8f1e52d19cd74be30f5651b3b853,PennController,61,0,practice,NULL,PennController,59,_Header_,End,1747993025783,morgab,NULL
1747993205,3c4f8f1e52d19cd74be30f5651b3b853,PennController,61,0,practice,NULL,Scale,likert,Choice,6,1747993027215,morgab,NULL
1747993205,3c4f8f1e52d19cd74be30f5651b3b853,PennController,61,0,practice,NULL,Var,notFit,Final,no,1747993031404,morgab,Value at the end of the trial
1747993205,3c4f8f1e52d19cd74be30f5651b3b853,PennController,61,0,practice,NULL,PennController,59,_Trial_,End,1747993031404,morgab,NULL
1747993205,3c4f8f1e52d19cd74be30f5651b3b853,PennController,53,0,practice,NULL,PennController,51,_Trial_,Start,1747993031407,morgab,NULL
1747993205,3c4f8f1e52d19cd74be30f5651b3b853,PennController,53,0,practice,NULL,PennController,51,_Header_,Start,1747993031407,morgab,NULL
1747993205,3c4f8f1e52d19cd74be30f5651b3b853,PennController,53,0,practice,NULL,PennController,51,_Header_,End,1747993031407,morgab,NULL
1747993205,3c4f8f1e52d19cd74be30f5651b3b853,PennController,53,0,practice,NULL,Scale,likert,Choice,1,1747993033247,morgab,NULL
1747993205,3c4f8f1e52d19cd74be30f5651b3b853,PennController,53,0,practice,NULL,Var,notFit,Final,no,1747993035452,morgab,Value at the end of the trial
1747993205,3c4f8f1e52d19cd74be30f5651b3b853,PennController,53,0,practice,NULL,PennController,51,_Trial_,End,1747993035452,morgab,NULL
1747993205,3c4f8f1e52d19cd74be30f5651b3b853,PennController,56,0,practice,NULL,PennController,54,_Trial_,Start,1747993035454,morgab,NULL
1747993205,3c4f8f1e52d19cd74be30f5651b3b853,PennController,56,0,practice,NULL,PennController,54,_Header_,Start,1747993035454,morgab,NULL
1747993205,3c4f8f1e52d19cd74be30f5651b3b853,PennController,56,0,practice,NULL,PennController,54,_Header_,End,1747993035454,morgab,NULL
1747993205,3c4f8f1e52d19cd74be30f5651b3b853,PennController,56,0,practice,NULL,Scale,likert,Choice,7,1747993066481,morgab,NULL
1747993205,3c4f8f1e52d19cd74be30f5651b3b853,PennController,56,0,practice,NULL,Var,notFit,Final,no,1747993069245,morgab,Value at the end of the trial
1747993205,3c4f8f1e52d19cd74be30f5651b3b853,PennController,56,0,practice,NULL,PennController,54,_Trial_,End,1747993069245,morgab,NULL
1747993205,3c4f8f1e52d19cd74be30f5651b3b853,PennController,65,0,practice,NULL,PennController,63,_Trial_,Start,1747993069248,morgab,NULL
1747993205,3c4f8f1e52d19cd74be30f5651b3b853,PennController,65,0,practice,NULL,PennController,63,_Header_,Start,1747993069248,morgab,NULL
1747993205,3c4f8f1e52d19cd74be30f5651b3b853,PennController,65,0,practice,NULL,PennController,63,_Header_,End,1747993069248,morgab,NULL
1747993205,3c4f8f1e52d19cd74be30f5651b3b853,PennController,65,0,practice,NULL,Scale,likert,Choice,4,1747993070479,morgab,NULL
1747993205,3c4f8f1e52d19cd74be30f5651b3b853,PennController,65,0,practice,NULL,Var,notFit,Final,no,1747993072391,morgab,Value at the end of the trial
1747993205,3c4f8f1e52d19cd74be30f5651b3b853,PennController,65,0,practice,NULL,PennController,63,_Trial_,End,1747993072391,morgab,NULL
1747993205,3c4f8f1e52d19cd74be30f5651b3b853,PennController,52,0,practice,NULL,PennController,50,_Trial_,Start,1747993072394,morgab,NULL
1747993205,3c4f8f1e52d19cd74be30f5651b3b853,PennController,52,0,practice,NULL,PennController,50,_Header_,Start,1747993072394,morgab,NULL
1747993205,3c4f8f1e52d19cd74be30f5651b3b853,PennController,52,0,practice,NULL,PennController,50,_Header_,End,1747993072394,morgab,NULL
1747993205,3c4f8f1e52d19cd74be30f5651b3b853,PennController,52,0,practice,NULL,Scale,likert,Choice,7,1747993073507,morgab,NULL
1747993205,3c4f8f1e52d19cd74be30f5651b3b853,PennController,52,0,practice,NULL,Var,notFit,Final,no,1747993075389,morgab,Value at the end of the trial
1747993205,3c4f8f1e52d19cd74be30f5651b3b853,PennController,52,0,practice,NULL,PennController,50,_Trial_,End,1747993075389,morgab,NULL
1747993205,3c4f8f1e52d19cd74be30f5651b3b853,PennController,63,0,practice,NULL,PennController,61,_Trial_,Start,1747993075392,morgab,NULL
1747993205,3c4f8f1e52d19cd74be30f5651b3b853,PennController,63,0,practice,NULL,PennController,61,_Header_,Start,1747993075392,morgab,NULL
1747993205,3c4f8f1e52d19cd74be30f5651b3b853,PennController,63,0,practice,NULL,PennController,61,_Header_,End,1747993075392,morgab,NULL
1747993205,3c4f8f1e52d19cd74be30f5651b3b853,PennController,63,0,practice,NULL,Scale,likert,Choice,1,1747993076818,morgab,NULL
1747993205,3c4f8f1e52d19cd74be30f5651b3b853,PennController,63,0,practice,NULL,Var,notFit,Final,no,1747993078608,morgab,Value at the end of the trial
1747993205,3c4f8f1e52d19cd74be30f5651b3b853,PennController,63,0,practice,NULL,PennController,61,_Trial_,End,1747993078608,morgab,NULL
1747993205,3c4f8f1e52d19cd74be30f5651b3b853,PennController,58,0,practice,NULL,PennController,56,_Trial_,Start,1747993078611,morgab,NULL
1747993205,3c4f8f1e52d19cd74be30f5651b3b853,PennController,58,0,practice,NULL,PennController,56,_Header_,Start,1747993078611,morgab,NULL
1747993205,3c4f8f1e52d19cd74be30f5651b3b853,PennController,58,0,practice,NULL,PennController,56,_Header_,End,1747993078611,morgab,NULL
1747993205,3c4f8f1e52d19cd74be30f5651b3b853,PennController,58,0,practice,NULL,Scale,likert,Choice,7,1747993079779,morgab,NULL
1747993205,3c4f8f1e52d19cd74be30f5651b3b853,PennController,58,0,practice,NULL,Var,notFit,Final,no,1747993081511,morgab,Value at the end of the trial
1747993205,3c4f8f1e52d19cd74be30f5651b3b853,PennController,58,0,practice,NULL,PennController,56,_Trial_,End,1747993081511,morgab,NULL
1747993205,3c4f8f1e52d19cd74be30f5651b3b853,PennController,45,0,rating_task,NULL,PennController,49,_Trial_,Start,1747993081514,morgab,NULL
1747993205,3c4f8f1e52d19cd74be30f5651b3b853,PennController,45,0,rating_task,NULL,PennController,49,_Header_,Start,1747993081514,morgab,NULL
1747993205,3c4f8f1e52d19cd74be30f5651b3b853,PennController,45,0,rating_task,NULL,PennController,49,_Header_,End,1747993081514,morgab,NULL
1747993205,3c4f8f1e52d19cd74be30f5651b3b853,PennController,45,0,rating_task,NULL,Var,group,Final,F,1747993083520,morgab,Value at the end of the trial
1747993205,3c4f8f1e52d19cd74be30f5651b3b853,PennController,45,0,rating_task,NULL,Var,notFit,Final,no,1747993083520,morgab,Value at the end of the trial
1747993205,3c4f8f1e52d19cd74be30f5651b3b853,PennController,45,0,rating_task,NULL,Scale,likert,Choice,4,1747993082808,morgab,NULL
1747993205,3c4f8f1e52d19cd74be30f5651b3b853,PennController,45,0,rating_task,NULL,PennController,49,_Trial_,End,1747993083521,morgab,NULL
1747993205,3c4f8f1e52d19cd74be30f5651b3b853,PennController,19,0,rating_task,NULL,PennController,23,_Trial_,Start,1747993083524,morgab,NULL
1747993205,3c4f8f1e52d19cd74be30f5651b3b853,PennController,19,0,rating_task,NULL,PennController,23,_Header_,Start,1747993083524,morgab,NULL
1747993205,3c4f8f1e52d19cd74be30f5651b3b853,PennController,19,0,rating_task,NULL,PennController,23,_Header_,End,1747993083524,morgab,NULL
1747993205,3c4f8f1e52d19cd74be30f5651b3b853,PennController,19,0,rating_task,NULL,Var,group,Final,F,1747993109435,morgab,Value at the end of the trial
1747993205,3c4f8f1e52d19cd74be30f5651b3b853,PennController,19,0,rating_task,NULL,Var,notFit,Final,no,1747993109435,morgab,Value at the end of the trial
1747993205,3c4f8f1e52d19cd74be30f5651b3b853,PennController,19,0,rating_task,NULL,Scale,likert,Choice,7,1747993107858,morgab,NULL
1747993205,3c4f8f1e52d19cd74be30f5651b3b853,PennController,19,0,rating_task,NULL,PennController,23,_Trial_,End,1747993109436,morgab,NULL
1747993205,3c4f8f1e52d19cd74be30f5651b3b853,PennController,8,0,rating_task,NULL,PennController,12,_Trial_,Start,1747993109439,morgab,NULL
1747993205,3c4f8f1e52d19cd74be30f5651b3b853,PennController,8,0,rating_task,NULL,PennController,12,_Header_,Start,1747993109439,morgab,NULL
1747993205,3c4f8f1e52d19cd74be30f5651b3b853,PennController,8,0,rating_task,NULL,PennController,12,_Header_,End,1747993109439,morgab,NULL
1747993205,3c4f8f1e52d19cd74be30f5651b3b853,PennController,8,0,rating_task,NULL,Var,group,Final,F,1747993110944,morgab,Value at the end of the trial
1747993205,3c4f8f1e52d19cd74be30f5651b3b853,PennController,8,0,rating_task,NULL,Var,notFit,Final,no,1747993110944,morgab,Value at the end of the trial
1747993205,3c4f8f1e52d19cd74be30f5651b3b853,PennController,8,0,rating_task,NULL,Scale,likert,Choice,1,1747993110317,morgab,NULL
1747993205,3c4f8f1e52d19cd74be30f5651b3b853,PennController,8,0,rating_task,NULL,PennController,12,_Trial_,End,1747993110945,morgab,NULL
1747993205,3c4f8f1e52d19cd74be30f5651b3b853,PennController,21,0,rating_task,NULL,PennController,25,_Trial_,Start,1747993110947,morgab,NULL
1747993205,3c4f8f1e52d19cd74be30f5651b3b853,PennController,21,0,rating_task,NULL,PennController,25,_Header_,Start,1747993110947,morgab,NULL
1747993205,3c4f8f1e52d19cd74be30f5651b3b853,PennController,21,0,rating_task,NULL,PennController,25,_Header_,End,1747993110947,morgab,NULL
1747993205,3c4f8f1e52d19cd74be30f5651b3b853,PennController,21,0,rating_task,NULL,Var,group,Final,F,1747993112846,morgab,Value at the end of the trial
1747993205,3c4f8f1e52d19cd74be30f5651b3b853,PennController,21,0,rating_task,NULL,Var,notFit,Final,no,1747993112846,morgab,Value at the end of the trial
1747993205,3c4f8f1e52d19cd74be30f5651b3b853,PennController,21,0,rating_task,NULL,Scale,likert,Choice,4,1747993111829,morgab,NULL
1747993205,3c4f8f1e52d19cd74be30f5651b3b853,PennController,21,0,rating_task,NULL,PennController,25,_Trial_,End,1747993112847,morgab,NULL
1747993205,3c4f8f1e52d19cd74be30f5651b3b853,PennController,16,0,rating_task,NULL,PennController,20,_Trial_,Start,1747993112849,morgab,NULL
1747993205,3c4f8f1e52d19cd74be30f5651b3b853,PennController,16,0,rating_task,NULL,PennController,20,_Header_,Start,1747993112849,morgab,NULL
1747993205,3c4f8f1e52d19cd74be30f5651b3b853,PennController,16,0,rating_task,NULL,PennController,20,_Header_,End,1747993112849,morgab,NULL
1747993205,3c4f8f1e52d19cd74be30f5651b3b853,PennController,16,0,rating_task,NULL,Var,group,Final,F,1747993117161,morgab,Value at the end of the trial
1747993205,3c4f8f1e52d19cd74be30f5651b3b853,PennController,16,0,rating_task,NULL,Var,notFit,Final,yes,1747993117161,morgab,Value at the end of the trial
1747993205,3c4f8f1e52d19cd74be30f5651b3b853,PennController,16,0,rating_task,NULL,Scale,likert,Choice,1,1747993116325,morgab,NULL
1747993205,3c4f8f1e52d19cd74be30f5651b3b853,PennController,16,0,rating_task,NULL,PennController,20,_Trial_,End,1747993117161,morgab,NULL
1747993205,3c4f8f1e52d19cd74be30f5651b3b853,PennController,40,0,rating_task,NULL,PennController,44,_Trial_,Start,1747993117164,morgab,NULL
1747993205,3c4f8f1e52d19cd74be30f5651b3b853,PennController,40,0,rating_task,NULL,PennController,44,_Header_,Start,1747993117164,morgab,NULL
1747993205,3c4f8f1e52d19cd74be30f5651b3b853,PennController,40,0,rating_task,NULL,PennController,44,_Header_,End,1747993117164,morgab,NULL
1747993205,3c4f8f1e52d19cd74be30f5651b3b853,PennController,40,0,rating_task,NULL,Var,group,Final,F,1747993120916,morgab,Value at the end of the trial
1747993205,3c4f8f1e52d19cd74be30f5651b3b853,PennController,40,0,rating_task,NULL,Var,notFit,Final,yes,1747993120916,morgab,Value at the end of the trial
1747993205,3c4f8f1e52d19cd74be30f5651b3b853,PennController,40,0,rating_task,NULL,Scale,likert,Choice,5,1747993118686,morgab,NULL
1747993205,3c4f8f1e52d19cd74be30f5651b3b853,PennController,40,0,rating_task,NULL,PennController,44,_Trial_,End,1747993120917,morgab,NULL
1747993205,3c4f8f1e52d19cd74be30f5651b3b853,PennController,37,0,rating_task,NULL,PennController,41,_Trial_,Start,1747993120920,morgab,NULL
1747993205,3c4f8f1e52d19cd74be30f5651b3b853,PennController,37,0,rating_task,NULL,PennController,41,_Header_,Start,1747993120920,morgab,NULL
1747993205,3c4f8f1e52d19cd74be30f5651b3b853,PennController,37,0,rating_task,NULL,PennController,41,_Header_,End,1747993120920,morgab,NULL
1747993205,3c4f8f1e52d19cd74be30f5651b3b853,PennController,37,0,rating_task,NULL,Var,group,Final,F,1747993123399,morgab,Value at the end of the trial
1747993205,3c4f8f1e52d19cd74be30f5651b3b853,PennController,37,0,rating_task,NULL,Var,notFit,Final,no,1747993123399,morgab,Value at the end of the trial
1747993205,3c4f8f1e52d19cd74be30f5651b3b853,PennController,37,0,rating_task,NULL,Scale,likert,Choice,7,1747993122456,morgab,NULL
1747993205,3c4f8f1e52d19cd74be30f5651b3b853,PennController,37,0,rating_task,NULL,PennController,41,_Trial_,End,1747993123400,morgab,NULL
1747993205,3c4f8f1e52d19cd74be30f5651b3b853,PennController,39,0,rating_task,NULL,PennController,43,_Trial_,Start,1747993123402,morgab,NULL
1747993205,3c4f8f1e52d19cd74be30f5651b3b853,PennController,39,0,rating_task,NULL,PennController,43,_Header_,Start,1747993123402,morgab,NULL
1747993205,3c4f8f1e52d19cd74be30f5651b3b853,PennController,39,0,rating_task,NULL,PennController,43,_Header_,End,1747993123403,morgab,NULL
1747993205,3c4f8f1e52d19cd74be30f5651b3b853,PennController,39,0,rating_task,NULL,Var,group,Final,F,1747993125620,morgab,Value at the end of the trial
1747993205,3c4f8f1e52d19cd74be30f5651b3b853,PennController,39,0,rating_task,NULL,Var,notFit,Final,no,1747993125621,morgab,Value at the end of the trial
1747993205,3c4f8f1e52d19cd74be30f5651b3b853,PennController,39,0,rating_task,NULL,Scale,likert,Choice,1,1747993124736,morgab,NULL
1747993205,3c4f8f1e52d19cd74be30f5651b3b853,PennController,39,0,rating_task,NULL,PennController,43,_Trial_,End,1747993125621,morgab,NULL
1747993205,3c4f8f1e52d19cd74be30f5651b3b853,PennController,18,0,rating_task,NULL,PennController,22,_Trial_,Start,1747993125624,morgab,NULL
1747993205,3c4f8f1e52d19cd74be30f5651b3b853,PennController,18,0,rating_task,NULL,PennController,22,_Header_,Start,1747993125624,morgab,NULL
1747993205,3c4f8f1e52d19cd74be30f5651b3b853,PennController,18,0,rating_task,NULL,PennController,22,_Header_,End,1747993125624,morgab,NULL
1747993205,3c4f8f1e52d19cd74be30f5651b3b853,PennController,18,0,rating_task,NULL,Var,group,Final,F,1747993128440,morgab,Value at the end of the trial
1747993205,3c4f8f1e52d19cd74be30f5651b3b853,PennController,18,0,rating_task,NULL,Var,notFit,Final,no,1747993128440,morgab,Value at the end of the trial
1747993205,3c4f8f1e52d19cd74be30f5651b3b853,PennController,18,0,rating_task,NULL,Scale,likert,Choice,7,1747993127338,morgab,NULL
1747993205,3c4f8f1e52d19cd74be30f5651b3b853,PennController,18,0,rating_task,NULL,PennController,22,_Trial_,End,1747993128440,morgab,NULL
1747993205,3c4f8f1e52d19cd74be30f5651b3b853,PennController,27,0,rating_task,NULL,PennController,31,_Trial_,Start,1747993128443,morgab,NULL
1747993205,3c4f8f1e52d19cd74be30f5651b3b853,PennController,27,0,rating_task,NULL,PennController,31,_Header_,Start,1747993128443,morgab,NULL
1747993205,3c4f8f1e52d19cd74be30f5651b3b853,PennController,27,0,rating_task,NULL,PennController,31,_Header_,End,1747993128443,morgab,NULL
1747993205,3c4f8f1e52d19cd74be30f5651b3b853,PennController,27,0,rating_task,NULL,Var,group,Final,F,1747993130470,morgab,Value at the end of the trial
1747993205,3c4f8f1e52d19cd74be30f5651b3b853,PennController,27,0,rating_task,NULL,Var,notFit,Final,no,1747993130470,morgab,Value at the end of the trial
1747993205,3c4f8f1e52d19cd74be30f5651b3b853,PennController,27,0,rating_task,NULL,Scale,likert,Choice,4,1747993129528,morgab,NULL
1747993205,3c4f8f1e52d19cd74be30f5651b3b853,PennController,27,0,rating_task,NULL,PennController,31,_Trial_,End,1747993130471,morgab,NULL
1747993205,3c4f8f1e52d19cd74be30f5651b3b853,PennController,29,0,rating_task,NULL,PennController,33,_Trial_,Start,1747993130474,morgab,NULL
1747993205,3c4f8f1e52d19cd74be30f5651b3b853,PennController,29,0,rating_task,NULL,PennController,33,_Header_,Start,1747993130474,morgab,NULL
1747993205,3c4f8f1e52d19cd74be30f5651b3b853,PennController,29,0,rating_task,NULL,PennController,33,_Header_,End,1747993130474,morgab,NULL
1747993205,3c4f8f1e52d19cd74be30f5651b3b853,PennController,29,0,rating_task,NULL,Var,group,Final,F,1747993132500,morgab,Value at the end of the trial
1747993205,3c4f8f1e52d19cd74be30f5651b3b853,PennController,29,0,rating_task,NULL,Var,notFit,Final,no,1747993132500,morgab,Value at the end of the trial
1747993205,3c4f8f1e52d19cd74be30f5651b3b853,PennController,29,0,rating_task,NULL,Scale,likert,Choice,3,1747993131650,morgab,NULL
1747993205,3c4f8f1e52d19cd74be30f5651b3b853,PennController,29,0,rating_task,NULL,PennController,33,_Trial_,End,1747993132500,morgab,NULL
1747993205,3c4f8f1e52d19cd74be30f5651b3b853,PennController,41,0,rating_task,NULL,PennController,45,_Trial_,Start,1747993132503,morgab,NULL
1747993205,3c4f8f1e52d19cd74be30f5651b3b853,PennController,41,0,rating_task,NULL,PennController,45,_Header_,Start,1747993132503,morgab,NULL
1747993205,3c4f8f1e52d19cd74be30f5651b3b853,PennController,41,0,rating_task,NULL,PennController,45,_Header_,End,1747993132503,morgab,NULL
1747993205,3c4f8f1e52d19cd74be30f5651b3b853,PennController,41,0,rating_task,NULL,Var,group,Final,F,1747993134665,morgab,Value at the end of the trial
1747993205,3c4f8f1e52d19cd74be30f5651b3b853,PennController,41,0,rating_task,NULL,Var,notFit,Final,no,1747993134665,morgab,Value at the end of the trial
1747993205,3c4f8f1e52d19cd74be30f5651b3b853,PennController,41,0,rating_task,NULL,Scale,likert,Choice,5,1747993133736,morgab,NULL
1747993205,3c4f8f1e52d19cd74be30f5651b3b853,PennController,41,0,rating_task,NULL,PennController,45,_Trial_,End,1747993134666,morgab,NULL
1747993205,3c4f8f1e52d19cd74be30f5651b3b853,PennController,11,0,rating_task,NULL,PennController,15,_Trial_,Start,1747993134669,morgab,NULL
1747993205,3c4f8f1e52d19cd74be30f5651b3b853,PennController,11,0,rating_task,NULL,PennController,15,_Header_,Start,1747993134669,morgab,NULL
1747993205,3c4f8f1e52d19cd74be30f5651b3b853,PennController,11,0,rating_task,NULL,PennController,15,_Header_,End,1747993134669,morgab,NULL
1747993205,3c4f8f1e52d19cd74be30f5651b3b853,PennController,11,0,rating_task,NULL,Var,group,Final,F,1747993137044,morgab,Value at the end of the trial
1747993205,3c4f8f1e52d19cd74be30f5651b3b853,PennController,11,0,rating_task,NULL,Var,notFit,Final,no,1747993137044,morgab,Value at the end of the trial
1747993205,3c4f8f1e52d19cd74be30f5651b3b853,PennController,11,0,rating_task,NULL,Scale,likert,Choice,6,1747993135951,morgab,NULL
1747993205,3c4f8f1e52d19cd74be30f5651b3b853,PennController,11,0,rating_task,NULL,PennController,15,_Trial_,End,1747993137044,morgab,NULL
1747993205,3c4f8f1e52d19cd74be30f5651b3b853,PennController,24,0,rating_task,NULL,PennController,28,_Trial_,Start,1747993137047,morgab,NULL
1747993205,3c4f8f1e52d19cd74be30f5651b3b853,PennController,24,0,rating_task,NULL,PennController,28,_Header_,Start,1747993137047,morgab,NULL
1747993205,3c4f8f1e52d19cd74be30f5651b3b853,PennController,24,0,rating_task,NULL,PennController,28,_Header_,End,1747993137047,morgab,NULL
1747993205,3c4f8f1e52d19cd74be30f5651b3b853,PennController,24,0,rating_task,NULL,Var,group,Final,F,1747993139130,morgab,Value at the end of the trial
1747993205,3c4f8f1e52d19cd74be30f5651b3b853,PennController,24,0,rating_task,NULL,Var,notFit,Final,no,1747993139130,morgab,Value at the end of the trial
1747993205,3c4f8f1e52d19cd74be30f5651b3b853,PennController,24,0,rating_task,NULL,Scale,likert,Choice,1,1747993138269,morgab,NULL
1747993205,3c4f8f1e52d19cd74be30f5651b3b853,PennController,24,0,rating_task,NULL,PennController,28,_Trial_,End,1747993139130,morgab,NULL
1747993205,3c4f8f1e52d19cd74be30f5651b3b853,PennController,31,0,rating_task,NULL,PennController,35,_Trial_,Start,1747993139133,morgab,NULL
1747993205,3c4f8f1e52d19cd74be30f5651b3b853,PennController,31,0,rating_task,NULL,PennController,35,_Header_,Start,1747993139133,morgab,NULL
1747993205,3c4f8f1e52d19cd74be30f5651b3b853,PennController,31,0,rating_task,NULL,PennController,35,_Header_,End,1747993139133,morgab,NULL
1747993205,3c4f8f1e52d19cd74be30f5651b3b853,PennController,31,0,rating_task,NULL,Var,group,Final,F,1747993141191,morgab,Value at the end of the trial
1747993205,3c4f8f1e52d19cd74be30f5651b3b853,PennController,31,0,rating_task,NULL,Var,notFit,Final,no,1747993141191,morgab,Value at the end of the trial
1747993205,3c4f8f1e52d19cd74be30f5651b3b853,PennController,31,0,rating_task,NULL,Scale,likert,Choice,7,1747993140420,morgab,NULL
1747993205,3c4f8f1e52d19cd74be30f5651b3b853,PennController,31,0,rating_task,NULL,PennController,35,_Trial_,End,1747993141192,morgab,NULL
1747993205,3c4f8f1e52d19cd74be30f5651b3b853,PennController,15,0,rating_task,NULL,PennController,19,_Trial_,Start,1747993141194,morgab,NULL
1747993205,3c4f8f1e52d19cd74be30f5651b3b853,PennController,15,0,rating_task,NULL,PennController,19,_Header_,Start,1747993141194,morgab,NULL
1747993205,3c4f8f1e52d19cd74be30f5651b3b853,PennController,15,0,rating_task,NULL,PennController,19,_Header_,End,1747993141194,morgab,NULL
1747993205,3c4f8f1e52d19cd74be30f5651b3b853,PennController,15,0,rating_task,NULL,Var,group,Final,F,1747993142982,morgab,Value at the end of the trial
1747993205,3c4f8f1e52d19cd74be30f5651b3b853,PennController,15,0,rating_task,NULL,Var,notFit,Final,no,1747993142982,morgab,Value at the end of the trial
1747993205,3c4f8f1e52d19cd74be30f5651b3b853,PennController,15,0,rating_task,NULL,Scale,likert,Choice,2,1747993142198,morgab,NULL
1747993205,3c4f8f1e52d19cd74be30f5651b3b853,PennController,15,0,rating_task,NULL,PennController,19,_Trial_,End,1747993142983,morgab,NULL
1747993205,3c4f8f1e52d19cd74be30f5651b3b853,PennController,13,0,rating_task,NULL,PennController,17,_Trial_,Start,1747993142985,morgab,NULL
1747993205,3c4f8f1e52d19cd74be30f5651b3b853,PennController,13,0,rating_task,NULL,PennController,17,_Header_,Start,1747993142985,morgab,NULL
1747993205,3c4f8f1e52d19cd74be30f5651b3b853,PennController,13,0,rating_task,NULL,PennController,17,_Header_,End,1747993142985,morgab,NULL
1747993205,3c4f8f1e52d19cd74be30f5651b3b853,PennController,13,0,rating_task,NULL,Var,group,Final,F,1747993145043,morgab,Value at the end of the trial
1747993205,3c4f8f1e52d19cd74be30f5651b3b853,PennController,13,0,rating_task,NULL,Var,notFit,Final,no,1747993145043,morgab,Value at the end of the trial
1747993205,3c4f8f1e52d19cd74be30f5651b3b853,PennController,13,0,rating_task,NULL,Scale,likert,Choice,6,1747993144139,morgab,NULL
1747993205,3c4f8f1e52d19cd74be30f5651b3b853,PennController,13,0,rating_task,NULL,PennController,17,_Trial_,End,1747993145044,morgab,NULL
1747993205,3c4f8f1e52d19cd74be30f5651b3b853,PennController,35,0,rating_task,NULL,PennController,39,_Trial_,Start,1747993145046,morgab,NULL
1747993205,3c4f8f1e52d19cd74be30f5651b3b853,PennController,35,0,rating_task,NULL,PennController,39,_Header_,Start,1747993145046,morgab,NULL
1747993205,3c4f8f1e52d19cd74be30f5651b3b853,PennController,35,0,rating_task,NULL,PennController,39,_Header_,End,1747993145046,morgab,NULL
1747993205,3c4f8f1e52d19cd74be30f5651b3b853,PennController,35,0,rating_task,NULL,Var,group,Final,F,1747993147357,morgab,Value at the end of the trial
1747993205,3c4f8f1e52d19cd74be30f5651b3b853,PennController,35,0,rating_task,NULL,Var,notFit,Final,no,1747993147357,morgab,Value at the end of the trial
1747993205,3c4f8f1e52d19cd74be30f5651b3b853,PennController,35,0,rating_task,NULL,Scale,likert,Choice,3,1747993146206,morgab,NULL
1747993205,3c4f8f1e52d19cd74be30f5651b3b853,PennController,35,0,rating_task,NULL,PennController,39,_Trial_,End,1747993147358,morgab,NULL
1747993205,3c4f8f1e52d19cd74be30f5651b3b853,PennController,6,0,rating_task,NULL,PennController,10,_Trial_,Start,1747993147360,morgab,NULL
1747993205,3c4f8f1e52d19cd74be30f5651b3b853,PennController,6,0,rating_task,NULL,PennController,10,_Header_,Start,1747993147360,morgab,NULL
1747993205,3c4f8f1e52d19cd74be30f5651b3b853,PennController,6,0,rating_task,NULL,PennController,10,_Header_,End,1747993147360,morgab,NULL
1747993205,3c4f8f1e52d19cd74be30f5651b3b853,PennController,6,0,rating_task,NULL,Var,group,Final,F,1747993149720,morgab,Value at the end of the trial
1747993205,3c4f8f1e52d19cd74be30f5651b3b853,PennController,6,0,rating_task,NULL,Var,notFit,Final,no,1747993149720,morgab,Value at the end of the trial
1747993205,3c4f8f1e52d19cd74be30f5651b3b853,PennController,6,0,rating_task,NULL,Scale,likert,Choice,6,1747993148765,morgab,NULL
1747993205,3c4f8f1e52d19cd74be30f5651b3b853,PennController,6,0,rating_task,NULL,PennController,10,_Trial_,End,1747993149721,morgab,NULL
1747993205,3c4f8f1e52d19cd74be30f5651b3b853,PennController,30,0,rating_task,NULL,PennController,34,_Trial_,Start,1747993149724,morgab,NULL
1747993205,3c4f8f1e52d19cd74be30f5651b3b853,PennController,30,0,rating_task,NULL,PennController,34,_Header_,Start,1747993149724,morgab,NULL
1747993205,3c4f8f1e52d19cd74be30f5651b3b853,PennController,30,0,rating_task,NULL,PennController,34,_Header_,End,1747993149724,morgab,NULL
1747993205,3c4f8f1e52d19cd74be30f5651b3b853,PennController,30,0,rating_task,NULL,Var,group,Final,F,1747993151647,morgab,Value at the end of the trial
1747993205,3c4f8f1e52d19cd74be30f5651b3b853,PennController,30,0,rating_task,NULL,Var,notFit,Final,no,1747993151647,morgab,Value at the end of the trial
1747993205,3c4f8f1e52d19cd74be30f5651b3b853,PennController,30,0,rating_task,NULL,Scale,likert,Choice,4,1747993150890,morgab,NULL
1747993205,3c4f8f1e52d19cd74be30f5651b3b853,PennController,30,0,rating_task,NULL,PennController,34,_Trial_,End,1747993151648,morgab,NULL
1747993205,3c4f8f1e52d19cd74be30f5651b3b853,PennController,42,0,rating_task,NULL,PennController,46,_Trial_,Start,1747993151650,morgab,NULL
1747993205,3c4f8f1e52d19cd74be30f5651b3b853,PennController,42,0,rating_task,NULL,PennController,46,_Header_,Start,1747993151650,morgab,NULL
1747993205,3c4f8f1e52d19cd74be30f5651b3b853,PennController,42,0,rating_task,NULL,PennController,46,_Header_,End,1747993151650,morgab,NULL
1747993205,3c4f8f1e52d19cd74be30f5651b3b853,PennController,42,0,rating_task,NULL,Var,group,Final,F,1747993153890,morgab,Value at the end of the trial
1747993205,3c4f8f1e52d19cd74be30f5651b3b853,PennController,42,0,rating_task,NULL,Var,notFit,Final,no,1747993153890,morgab,Value at the end of the trial
1747993205,3c4f8f1e52d19cd74be30f5651b3b853,PennController,42,0,rating_task,NULL,Scale,likert,Choice,2,1747993152904,morgab,NULL
1747993205,3c4f8f1e52d19cd74be30f5651b3b853,PennController,42,0,rating_task,NULL,PennController,46,_Trial_,End,1747993153890,morgab,NULL
1747993205,3c4f8f1e52d19cd74be30f5651b3b853,PennController,33,0,rating_task,NULL,PennController,37,_Trial_,Start,1747993153893,morgab,NULL
1747993205,3c4f8f1e52d19cd74be30f5651b3b853,PennController,33,0,rating_task,NULL,PennController,37,_Header_,Start,1747993153893,morgab,NULL
1747993205,3c4f8f1e52d19cd74be30f5651b3b853,PennController,33,0,rating_task,NULL,PennController,37,_Header_,End,1747993153893,morgab,NULL
1747993205,3c4f8f1e52d19cd74be30f5651b3b853,PennController,33,0,rating_task,NULL,Var,group,Final,F,1747993156092,morgab,Value at the end of the trial
1747993205,3c4f8f1e52d19cd74be30f5651b3b853,PennController,33,0,rating_task,NULL,Var,notFit,Final,no,1747993156092,morgab,Value at the end of the trial
1747993205,3c4f8f1e52d19cd74be30f5651b3b853,PennController,33,0,rating_task,NULL,Scale,likert,Choice,7,1747993155182,morgab,NULL
1747993205,3c4f8f1e52d19cd74be30f5651b3b853,PennController,33,0,rating_task,NULL,PennController,37,_Trial_,End,1747993156092,morgab,NULL
1747993205,3c4f8f1e52d19cd74be30f5651b3b853,PennController,5,0,rating_task,NULL,PennController,9,_Trial_,Start,1747993156094,morgab,NULL
1747993205,3c4f8f1e52d19cd74be30f5651b3b853,PennController,5,0,rating_task,NULL,PennController,9,_Header_,Start,1747993156094,morgab,NULL
1747993205,3c4f8f1e52d19cd74be30f5651b3b853,PennController,5,0,rating_task,NULL,PennController,9,_Header_,End,1747993156094,morgab,NULL
1747993205,3c4f8f1e52d19cd74be30f5651b3b853,PennController,5,0,rating_task,NULL,Var,group,Final,F,1747993158432,morgab,Value at the end of the trial
1747993205,3c4f8f1e52d19cd74be30f5651b3b853,PennController,5,0,rating_task,NULL,Var,notFit,Final,no,1747993158432,morgab,Value at the end of the trial
1747993205,3c4f8f1e52d19cd74be30f5651b3b853,PennController,5,0,rating_task,NULL,Scale,likert,Choice,2,1747993157347,morgab,NULL
1747993205,3c4f8f1e52d19cd74be30f5651b3b853,PennController,5,0,rating_task,NULL,PennController,9,_Trial_,End,1747993158433,morgab,NULL
1747993205,3c4f8f1e52d19cd74be30f5651b3b853,PennController,36,0,rating_task,NULL,PennController,40,_Trial_,Start,1747993158435,morgab,NULL
1747993205,3c4f8f1e52d19cd74be30f5651b3b853,PennController,36,0,rating_task,NULL,PennController,40,_Header_,Start,1747993158435,morgab,NULL
1747993205,3c4f8f1e52d19cd74be30f5651b3b853,PennController,36,0,rating_task,NULL,PennController,40,_Header_,End,1747993158435,morgab,NULL
1747993205,3c4f8f1e52d19cd74be30f5651b3b853,PennController,36,0,rating_task,NULL,Var,group,Final,F,1747993161016,morgab,Value at the end of the trial
1747993205,3c4f8f1e52d19cd74be30f5651b3b853,PennController,36,0,rating_task,NULL,Var,notFit,Final,no,1747993161016,morgab,Value at the end of the trial
1747993205,3c4f8f1e52d19cd74be30f5651b3b853,PennController,36,0,rating_task,NULL,Scale,likert,Choice,6,1747993159803,morgab,NULL
1747993205,3c4f8f1e52d19cd74be30f5651b3b853,PennController,36,0,rating_task,NULL,PennController,40,_Trial_,End,1747993161016,morgab,NULL
1747993205,3c4f8f1e52d19cd74be30f5651b3b853,PennController,12,0,rating_task,NULL,PennController,16,_Trial_,Start,1747993161019,morgab,NULL
1747993205,3c4f8f1e52d19cd74be30f5651b3b853,PennController,12,0,rating_task,NULL,PennController,16,_Header_,Start,1747993161019,morgab,NULL
1747993205,3c4f8f1e52d19cd74be30f5651b3b853,PennController,12,0,rating_task,NULL,PennController,16,_Header_,End,1747993161019,morgab,NULL
1747993205,3c4f8f1e52d19cd74be30f5651b3b853,PennController,12,0,rating_task,NULL,Var,group,Final,F,1747993163745,morgab,Value at the end of the trial
1747993205,3c4f8f1e52d19cd74be30f5651b3b853,PennController,12,0,rating_task,NULL,Var,notFit,Final,no,1747993163745,morgab,Value at the end of the trial
1747993205,3c4f8f1e52d19cd74be30f5651b3b853,PennController,12,0,rating_task,NULL,Scale,likert,Choice,4,1747993162672,morgab,NULL
1747993205,3c4f8f1e52d19cd74be30f5651b3b853,PennController,12,0,rating_task,NULL,PennController,16,_Trial_,End,1747993163745,morgab,NULL
1747993205,3c4f8f1e52d19cd74be30f5651b3b853,PennController,22,0,rating_task,NULL,PennController,26,_Trial_,Start,1747993163747,morgab,NULL
1747993205,3c4f8f1e52d19cd74be30f5651b3b853,PennController,22,0,rating_task,NULL,PennController,26,_Header_,Start,1747993163747,morgab,NULL
1747993205,3c4f8f1e52d19cd74be30f5651b3b853,PennController,22,0,rating_task,NULL,PennController,26,_Header_,End,1747993163747,morgab,NULL
1747993205,3c4f8f1e52d19cd74be30f5651b3b853,PennController,22,0,rating_task,NULL,Var,group,Final,F,1747993165510,morgab,Value at the end of the trial
1747993205,3c4f8f1e52d19cd74be30f5651b3b853,PennController,22,0,rating_task,NULL,Var,notFit,Final,no,1747993165510,morgab,Value at the end of the trial
1747993205,3c4f8f1e52d19cd74be30f5651b3b853,PennController,22,0,rating_task,NULL,Scale,likert,Choice,3,1747993164716,morgab,NULL
1747993205,3c4f8f1e52d19cd74be30f5651b3b853,PennController,22,0,rating_task,NULL,PennController,26,_Trial_,End,1747993165510,morgab,NULL
1747993205,3c4f8f1e52d19cd74be30f5651b3b853,PennController,7,0,rating_task,NULL,PennController,11,_Trial_,Start,1747993165512,morgab,NULL
1747993205,3c4f8f1e52d19cd74be30f5651b3b853,PennController,7,0,rating_task,NULL,PennController,11,_Header_,Start,1747993165512,morgab,NULL
1747993205,3c4f8f1e52d19cd74be30f5651b3b853,PennController,7,0,rating_task,NULL,PennController,11,_Header_,End,1747993165512,morgab,NULL
1747993205,3c4f8f1e52d19cd74be30f5651b3b853,PennController,7,0,rating_task,NULL,Var,group,Final,F,1747993167452,morgab,Value at the end of the trial
1747993205,3c4f8f1e52d19cd74be30f5651b3b853,PennController,7,0,rating_task,NULL,Var,notFit,Final,no,1747993167452,morgab,Value at the end of the trial
1747993205,3c4f8f1e52d19cd74be30f5651b3b853,PennController,7,0,rating_task,NULL,Scale,likert,Choice,6,1747993166486,morgab,NULL
1747993205,3c4f8f1e52d19cd74be30f5651b3b853,PennController,7,0,rating_task,NULL,PennController,11,_Trial_,End,1747993167452,morgab,NULL
1747993205,3c4f8f1e52d19cd74be30f5651b3b853,PennController,4,0,rating_task,NULL,PennController,8,_Trial_,Start,1747993167453,morgab,NULL
1747993205,3c4f8f1e52d19cd74be30f5651b3b853,PennController,4,0,rating_task,NULL,PennController,8,_Header_,Start,1747993167453,morgab,NULL
1747993205,3c4f8f1e52d19cd74be30f5651b3b853,PennController,4,0,rating_task,NULL,PennController,8,_Header_,End,1747993167453,morgab,NULL
1747993205,3c4f8f1e52d19cd74be30f5651b3b853,PennController,4,0,rating_task,NULL,Var,group,Final,F,1747993169282,morgab,Value at the end of the trial
1747993205,3c4f8f1e52d19cd74be30f5651b3b853,PennController,4,0,rating_task,NULL,Var,notFit,Final,no,1747993169282,morgab,Value at the end of the trial
1747993205,3c4f8f1e52d19cd74be30f5651b3b853,PennController,4,0,rating_task,NULL,Scale,likert,Choice,3,1747993168422,morgab,NULL
1747993205,3c4f8f1e52d19cd74be30f5651b3b853,PennController,4,0,rating_task,NULL,PennController,8,_Trial_,End,1747993169283,morgab,NULL
1747993205,3c4f8f1e52d19cd74be30f5651b3b853,PennController,9,0,rating_task,NULL,PennController,13,_Trial_,Start,1747993169286,morgab,NULL
1747993205,3c4f8f1e52d19cd74be30f5651b3b853,PennController,9,0,rating_task,NULL,PennController,13,_Header_,Start,1747993169286,morgab,NULL
1747993205,3c4f8f1e52d19cd74be30f5651b3b853,PennController,9,0,rating_task,NULL,PennController,13,_Header_,End,1747993169286,morgab,NULL
1747993205,3c4f8f1e52d19cd74be30f5651b3b853,PennController,9,0,rating_task,NULL,Var,group,Final,F,1747993171335,morgab,Value at the end of the trial
1747993205,3c4f8f1e52d19cd74be30f5651b3b853,PennController,9,0,rating_task,NULL,Var,notFit,Final,no,1747993171335,morgab,Value at the end of the trial
1747993205,3c4f8f1e52d19cd74be30f5651b3b853,PennController,9,0,rating_task,NULL,Scale,likert,Choice,7,1747993170624,morgab,NULL
1747993205,3c4f8f1e52d19cd74be30f5651b3b853,PennController,9,0,rating_task,NULL,PennController,13,_Trial_,End,1747993171336,morgab,NULL
1747993205,3c4f8f1e52d19cd74be30f5651b3b853,PennController,20,0,rating_task,NULL,PennController,24,_Trial_,Start,1747993171338,morgab,NULL
1747993205,3c4f8f1e52d19cd74be30f5651b3b853,PennController,20,0,rating_task,NULL,PennController,24,_Header_,Start,1747993171338,morgab,NULL
1747993205,3c4f8f1e52d19cd74be30f5651b3b853,PennController,20,0,rating_task,NULL,PennController,24,_Header_,End,1747993171338,morgab,NULL
1747993205,3c4f8f1e52d19cd74be30f5651b3b853,PennController,20,0,rating_task,NULL,Var,group,Final,F,1747993174150,morgab,Value at the end of the trial
1747993205,3c4f8f1e52d19cd74be30f5651b3b853,PennController,20,0,rating_task,NULL,Var,notFit,Final,yes,1747993174150,morgab,Value at the end of the trial
1747993205,3c4f8f1e52d19cd74be30f5651b3b853,PennController,20,0,rating_task,NULL,Scale,likert,Choice,4,1747993172211,morgab,NULL
1747993205,3c4f8f1e52d19cd74be30f5651b3b853,PennController,20,0,rating_task,NULL,PennController,24,_Trial_,End,1747993174151,morgab,NULL
1747993205,3c4f8f1e52d19cd74be30f5651b3b853,PennController,38,0,rating_task,NULL,PennController,42,_Trial_,Start,1747993174153,morgab,NULL
1747993205,3c4f8f1e52d19cd74be30f5651b3b853,PennController,38,0,rating_task,NULL,PennController,42,_Header_,Start,1747993174153,morgab,NULL
1747993205,3c4f8f1e52d19cd74be30f5651b3b853,PennController,38,0,rating_task,NULL,PennController,42,_Header_,End,1747993174153,morgab,NULL
1747993205,3c4f8f1e52d19cd74be30f5651b3b853,PennController,38,0,rating_task,NULL,Var,group,Final,F,1747993176019,morgab,Value at the end of the trial
1747993205,3c4f8f1e52d19cd74be30f5651b3b853,PennController,38,0,rating_task,NULL,Var,notFit,Final,no,1747993176019,morgab,Value at the end of the trial
1747993205,3c4f8f1e52d19cd74be30f5651b3b853,PennController,38,0,rating_task,NULL,Scale,likert,Choice,3,1747993175173,morgab,NULL
