"","ID.true","Word","Label","Task","EventTime","Value","ReactionTime","Key_value_F","Key_value_J","Comments","Group","LogReactionTime","TrialNumber"
"1","5fb9eb323531776e460fe5e0","free","calibrator","Valence",1727876638072,"positive",2055,"negative","positive","negative;positive","B",7.62803112693033,1
"2","5fb9eb323531776e460fe5e0","joke","calibrator","Valence",1727876639915,"positive",1081,"negative","positive","negative;positive","B",6.98564181763921,2
"3","5fb9eb323531776e460fe5e0","insecure","calibrator","Valence",1727876641573,"negative",888,"negative","positive","negative;positive","B",6.78897174299217,3
"4","5fb9eb323531776e460fe5e0","icebox","calibrator","Valence",1727876644022,"positive",1687,"negative","positive","negative;positive","B",7.43070708254597,4
"5","5fb9eb323531776e460fe5e0","industry","calibrator","Valence",1727876647212,"negative",2425,"negative","positive","negative;positive","B",7.79358680337158,5
"6","5fb9eb323531776e460fe5e0","jail","calibrator","Valence",1727876648914,"negative",937,"negative","positive","negative;positive","B",6.84268328223842,6
"7","5fb9eb323531776e460fe5e0","grin","calibrator","Valence",1727876650819,"positive",1132,"negative","positive","negative;positive","B",7.03174125876313,7
"8","5fb9eb323531776e460fe5e0","hat","calibrator","Valence",1727876652902,"positive",1324,"negative","positive","negative;positive","B",7.18841273649695,8
"9","5fb9eb323531776e460fe5e0","invader","calibrator","Valence",1727876654762,"negative",1096,"negative","positive","negative;positive","B",6.99942246750796,9
"10","5fb9eb323531776e460fe5e0","kitten","calibrator","Valence",1727876656163,"positive",631,"negative","positive","negative;positive","B",6.44730586254121,10
"11","5c205371da51990001e17313","industry","calibrator","Valence",1727875868111,"negative",3336,"negative","positive","negative;positive","B",8.11252776347864,1
"12","5c205371da51990001e17313","kitten","calibrator","Valence",1727875869556,"positive",675,"negative","positive","negative;positive","B",6.51471269087253,2
"13","5c205371da51990001e17313","icebox","calibrator","Valence",1727875871339,"negative",1013,"negative","positive","negative;positive","B",6.92067150424868,3
"14","5c205371da51990001e17313","joke","calibrator","Valence",1727875872818,"positive",712,"negative","positive","negative;positive","B",6.56807791141198,4
"15","5c205371da51990001e17313","free","calibrator","Valence",1727875874275,"positive",690,"negative","positive","negative;positive","B",6.5366915975913,5
"16","5c205371da51990001e17313","jail","calibrator","Valence",1727875875735,"negative",697,"negative","positive","negative;positive","B",6.54678541076052,6
"17","5c205371da51990001e17313","insecure","calibrator","Valence",1727875877143,"negative",638,"negative","positive","negative;positive","B",6.45833828334479,7
"18","5c205371da51990001e17313","grin","calibrator","Valence",1727875878590,"positive",687,"negative","positive","negative;positive","B",6.53233429222235,8
"19","5c205371da51990001e17313","invader","calibrator","Valence",1727875880122,"negative",767,"negative","positive","negative;positive","B",6.64248680136726,9
"20","5c205371da51990001e17313","hat","calibrator","Valence",1727875881847,"positive",957,"negative","positive","negative;positive","B",6.86380339145295,10
"21","63f779382e81070cd6f77b5e","icebox","calibrator","Valence",1727879456743,"positive",2258,"negative","positive","negative;positive","B",7.72223474470961,1
"22","63f779382e81070cd6f77b5e","jail","calibrator","Valence",1727879458473,"negative",965,"negative","positive","negative;positive","B",6.87212810133899,2
"23","63f779382e81070cd6f77b5e","joke","calibrator","Valence",1727879460116,"positive",887,"negative","positive","negative;positive","B",6.78784498230958,3
"24","63f779382e81070cd6f77b5e","insecure","calibrator","Valence",1727879461899,"negative",1019,"negative","positive","negative;positive","B",6.92657703322272,4
"25","63f779382e81070cd6f77b5e","industry","calibrator","Valence",1727879464123,"positive",1465,"negative","positive","negative;positive","B",7.28961052145117,5
"26","63f779382e81070cd6f77b5e","grin","calibrator","Valence",1727879465492,"positive",612,"negative","positive","negative;positive","B",6.41673228251233,6
"27","63f779382e81070cd6f77b5e","kitten","calibrator","Valence",1727879466748,"positive",495,"negative","positive","negative;positive","B",6.20455776256869,7
"28","63f779382e81070cd6f77b5e","hat","calibrator","Valence",1727879467972,"positive",466,"negative","positive","negative;positive","B",6.14418563412565,8
"29","63f779382e81070cd6f77b5e","free","calibrator","Valence",1727879469605,"positive",870,"negative","positive","negative;positive","B",6.76849321164863,9
"30","63f779382e81070cd6f77b5e","invader","calibrator","Valence",1727879470930,"negative",563,"negative","positive","negative;positive","B",6.33327962813969,10
"31","5de985cf1be52f0a75357332","polite","calibrator","Semantic",1727861630941,"concrete",2069,"abstract","concrete","abstract;concrete","A",7.63482067774554,1
"32","5de985cf1be52f0a75357332","infinity","calibrator","Semantic",1727861634053,"abstract",2353,"abstract","concrete","abstract;concrete","A",7.76344638872736,2
"33","5de985cf1be52f0a75357332","whistle","calibrator","Semantic",1727861636767,"concrete",1958,"abstract","concrete","abstract;concrete","A",7.57967882309046,3
"34","5de985cf1be52f0a75357332","kick","calibrator","Semantic",1727861638967,"concrete",1443,"abstract","concrete","abstract;concrete","A",7.27447955877387,4
"35","5de985cf1be52f0a75357332","grasshopper","calibrator","Semantic",1727861640973,"concrete",1250,"abstract","concrete","abstract;concrete","A",7.13089883029635,5
"36","5de985cf1be52f0a75357332","gas","calibrator","Semantic",1727861644636,"abstract",2909,"abstract","concrete","abstract;concrete","A",7.9755646584952,6
"37","5de985cf1be52f0a75357332","marriage","calibrator","Semantic",1727861646353,"abstract",960,"abstract","concrete","abstract;concrete","A",6.86693328446188,7
"38","5de985cf1be52f0a75357332","theory","calibrator","Semantic",1727861648931,"abstract",1822,"abstract","concrete","abstract;concrete","A",7.5076900778199,8
"39","5de985cf1be52f0a75357332","sugar","calibrator","Semantic",1727861650737,"concrete",1052,"abstract","concrete","abstract;concrete","A",6.95844839329766,9
"40","5de985cf1be52f0a75357332","shirt","calibrator","Semantic",1727861652479,"concrete",983,"abstract","concrete","abstract;concrete","A",6.89060912014717,10
"41","66c9eb78c1a775cf07bbe72c","grin","calibrator","Valence",1727876001711,"negative",1157,"negative","positive","negative;positive","B",7.05358572719368,1
"42","66c9eb78c1a775cf07bbe72c","icebox","calibrator","Valence",1727876003527,"negative",1059,"negative","positive","negative;positive","B",6.96508034560141,2
"43","66c9eb78c1a775cf07bbe72c","insecure","calibrator","Valence",1727876005063,"positive",779,"negative","positive","negative;positive","B",6.65801104587075,3
"44","66c9eb78c1a775cf07bbe72c","industry","calibrator","Valence",1727876006910,"negative",1091,"negative","positive","negative;positive","B",6.99484998583307,4
"45","66c9eb78c1a775cf07bbe72c","free","calibrator","Valence",1727876008487,"negative",819,"negative","positive","negative;positive","B",6.70808408385307,5
"46","66c9eb78c1a775cf07bbe72c","kitten","calibrator","Valence",1727876010007,"negative",765,"negative","positive","negative;positive","B",6.63987583382654,6
"47","66c9eb78c1a775cf07bbe72c","invader","calibrator","Valence",1727876011551,"positive",787,"negative","positive","negative;positive","B",6.6682282484174,7
"48","66c9eb78c1a775cf07bbe72c","jail","calibrator","Valence",1727876013031,"positive",726,"negative","positive","negative;positive","B",6.5875500148248,8
"49","66c9eb78c1a775cf07bbe72c","hat","calibrator","Valence",1727876014640,"negative",851,"negative","positive","negative;positive","B",6.74641212857337,9
"50","66c9eb78c1a775cf07bbe72c","joke","calibrator","Valence",1727876016264,"negative",869,"negative","positive","negative;positive","B",6.76734312526539,10
"51","66ec2ab8b6d500411685ac15","theory","calibrator","Semantic",1727862527229,"abstract",4990,"abstract","concrete","abstract;concrete","A",8.51519118874556,1
"52","66ec2ab8b6d500411685ac15","grasshopper","calibrator","Semantic",1727862529257,"concrete",1262,"abstract","concrete","abstract;concrete","A",7.14045304310116,2
"53","66ec2ab8b6d500411685ac15","gas","calibrator","Semantic",1727862531132,"abstract",1100,"abstract","concrete","abstract;concrete","A",7.00306545878646,3
"54","66ec2ab8b6d500411685ac15","infinity","calibrator","Semantic",1727862533067,"abstract",1160,"abstract","concrete","abstract;concrete","A",7.05617528410041,4
"55","66ec2ab8b6d500411685ac15","whistle","calibrator","Semantic",1727862534882,"concrete",1054,"abstract","concrete","abstract;concrete","A",6.96034772910131,5
"56","66ec2ab8b6d500411685ac15","kick","calibrator","Semantic",1727862538183,"concrete",2517,"abstract","concrete","abstract;concrete","A",7.83082299513532,6
"57","66ec2ab8b6d500411685ac15","polite","calibrator","Semantic",1727862541669,"abstract",2724,"abstract","concrete","abstract;concrete","A",7.9098566672694,7
"58","66ec2ab8b6d500411685ac15","marriage","calibrator","Semantic",1727862543696,"abstract",1257,"abstract","concrete","abstract;concrete","A",7.13648320859025,8
"59","66ec2ab8b6d500411685ac15","shirt","calibrator","Semantic",1727862545654,"concrete",1193,"abstract","concrete","abstract;concrete","A",7.08422642209792,9
"60","66ec2ab8b6d500411685ac15","sugar","calibrator","Semantic",1727862547416,"concrete",1003,"abstract","concrete","abstract;concrete","A",6.91075078796194,10
"61","62a0294e78bac60d6f9c49df","whistle","calibrator","Semantic",1727862612369,"concrete",3008,"abstract","concrete","abstract;concrete","A",8.00903068506973,1
"62","62a0294e78bac60d6f9c49df","theory","calibrator","Semantic",1727862613816,"abstract",681,"abstract","concrete","abstract;concrete","A",6.52356230614951,2
"63","62a0294e78bac60d6f9c49df","grasshopper","calibrator","Semantic",1727862615209,"concrete",628,"abstract","concrete","abstract;concrete","A",6.4425401664682,3
"64","62a0294e78bac60d6f9c49df","marriage","calibrator","Semantic",1727862617440,"concrete",1473,"abstract","concrete","abstract;concrete","A",7.29505641646263,4
"65","62a0294e78bac60d6f9c49df","sugar","calibrator","Semantic",1727862618747,"concrete",547,"abstract","concrete","abstract;concrete","A",6.30444880242198,5
"66","62a0294e78bac60d6f9c49df","gas","calibrator","Semantic",1727862620577,"concrete",1071,"abstract","concrete","abstract;concrete","A",6.97634807044775,6
"67","62a0294e78bac60d6f9c49df","shirt","calibrator","Semantic",1727862621815,"concrete",470,"abstract","concrete","abstract;concrete","A",6.1527326947041,7
"68","62a0294e78bac60d6f9c49df","polite","calibrator","Semantic",1727862623312,"abstract",738,"abstract","concrete","abstract;concrete","A",6.60394382460047,8
"69","62a0294e78bac60d6f9c49df","kick","calibrator","Semantic",1727862624631,"concrete",558,"abstract","concrete","abstract;concrete","A",6.32435896238131,9
"70","62a0294e78bac60d6f9c49df","infinity","calibrator","Semantic",1727862626364,"abstract",975,"abstract","concrete","abstract;concrete","A",6.88243747099785,10
"71","663c8bf2f8c29a144dc191de","shirt","calibrator","Semantic",1727861781948,"concrete",1479,"abstract","concrete","abstract;concrete","A",7.2991214627108,1
"72","663c8bf2f8c29a144dc191de","kick","calibrator","Semantic",1727861783587,"concrete",883,"abstract","concrete","abstract;concrete","A",6.78332520060396,2
"73","663c8bf2f8c29a144dc191de","grasshopper","calibrator","Semantic",1727861785723,"concrete",1384,"abstract","concrete","abstract;concrete","A",7.23273313617761,3
"74","663c8bf2f8c29a144dc191de","infinity","calibrator","Semantic",1727861787315,"abstract",835,"abstract","concrete","abstract;concrete","A",6.72743172485086,4
"75","663c8bf2f8c29a144dc191de","gas","calibrator","Semantic",1727861789868,"abstract",1795,"abstract","concrete","abstract;concrete","A",7.49276030092238,5
"76","663c8bf2f8c29a144dc191de","polite","calibrator","Semantic",1727861791709,"abstract",1082,"abstract","concrete","abstract;concrete","A",6.98656645940643,6
"77","663c8bf2f8c29a144dc191de","theory","calibrator","Semantic",1727861793309,"abstract",841,"abstract","concrete","abstract;concrete","A",6.73459165997295,7
"78","663c8bf2f8c29a144dc191de","marriage","calibrator","Semantic",1727861794884,"abstract",818,"abstract","concrete","abstract;concrete","A",6.70686233660275,8
"79","663c8bf2f8c29a144dc191de","whistle","calibrator","Semantic",1727861798204,"abstract",2561,"abstract","concrete","abstract;concrete","A",7.84815308619953,9
"80","663c8bf2f8c29a144dc191de","sugar","calibrator","Semantic",1727861799804,"concrete",845,"abstract","concrete","abstract;concrete","A",6.73933662735717,10
"81","66e1a750e31b6003841c5472","shirt","calibrator","Semantic",1727861858394,"abstract",1054,"abstract","concrete","abstract;concrete","A",6.96034772910131,1
"82","66e1a750e31b6003841c5472","grasshopper","calibrator","Semantic",1727861860840,"concrete",1685,"abstract","concrete","abstract;concrete","A",7.42952084278646,2
"83","66e1a750e31b6003841c5472","polite","calibrator","Semantic",1727861862864,"abstract",1253,"abstract","concrete","abstract;concrete","A",7.13329595489607,3
"84","66e1a750e31b6003841c5472","marriage","calibrator","Semantic",1727861864552,"concrete",932,"abstract","concrete","abstract;concrete","A",6.83733281468559,4
"85","66e1a750e31b6003841c5472","whistle","calibrator","Semantic",1727861866744,"concrete",1432,"abstract","concrete","abstract;concrete","A",7.26682734752059,5
"86","66e1a750e31b6003841c5472","theory","calibrator","Semantic",1727861868672,"abstract",1166,"abstract","concrete","abstract;concrete","A",7.06133436691044,6
"87","66e1a750e31b6003841c5472","infinity","calibrator","Semantic",1727861870726,"abstract",1293,"abstract","concrete","abstract;concrete","A",7.16472037877186,7
"88","66e1a750e31b6003841c5472","kick","calibrator","Semantic",1727861872385,"concrete",896,"abstract","concrete","abstract;concrete","A",6.79794041297493,8
"89","66e1a750e31b6003841c5472","gas","calibrator","Semantic",1727861874088,"concrete",941,"abstract","concrete","abstract;concrete","A",6.84694313958538,9
"90","66e1a750e31b6003841c5472","sugar","calibrator","Semantic",1727861876055,"concrete",1206,"abstract","concrete","abstract;concrete","A",7.09506437728713,10
"91","66fbab0373b325bac2693590","gas","calibrator","Semantic",1727861675782,"abstract",6699,"abstract","concrete","abstract;concrete","A",8.80971354050827,1
"92","66fbab0373b325bac2693590","sugar","calibrator","Semantic",1727861681830,"abstract",5294,"abstract","concrete","abstract;concrete","A",8.57432938278705,2
"93","66fbab0373b325bac2693590","marriage","calibrator","Semantic",1727861691070,"abstract",8486,"abstract","concrete","abstract;concrete","A",9.04617302576227,3
"94","66fbab0373b325bac2693590","whistle","calibrator","Semantic",1727861694934,"concrete",3107,"abstract","concrete","abstract;concrete","A",8.04141290939305,4
"95","66fbab0373b325bac2693590","shirt","calibrator","Semantic",1727861699198,"abstract",3508,"abstract","concrete","abstract;concrete","A",8.16280135349207,5
"96","66fbab0373b325bac2693590","grasshopper","calibrator","Semantic",1727861701030,"abstract",1077,"abstract","concrete","abstract;concrete","A",6.98193467715639,6
"97","66fbab0373b325bac2693590","infinity","calibrator","Semantic",1727861702878,"abstract",1096,"abstract","concrete","abstract;concrete","A",6.99942246750796,7
"98","66fbab0373b325bac2693590","kick","calibrator","Semantic",1727861706253,"abstract",2619,"abstract","concrete","abstract;concrete","A",7.87054784450771,8
"99","66fbab0373b325bac2693590","polite","calibrator","Semantic",1727861707798,"abstract",791,"abstract","concrete","abstract;concrete","A",6.67329796776765,9
"100","66fbab0373b325bac2693590","theory","calibrator","Semantic",1727861709374,"abstract",821,"abstract","concrete","abstract;concrete","A",6.71052310945243,10
"101","66fc3e8fef1797e175a11e8d","whistle","calibrator","Semantic",1727862688746,"concrete",3229,"abstract","concrete","abstract;concrete","A",8.07992777075827,1
"102","66fc3e8fef1797e175a11e8d","polite","calibrator","Semantic",1727862693308,"concrete",3793,"abstract","concrete","abstract;concrete","A",8.2409125416889,2
"103","66fc3e8fef1797e175a11e8d","sugar","calibrator","Semantic",1727862694891,"concrete",818,"abstract","concrete","abstract;concrete","A",6.70686233660275,3
"104","66fc3e8fef1797e175a11e8d","marriage","calibrator","Semantic",1727862697475,"abstract",1812,"abstract","concrete","abstract;concrete","A",7.50218648660292,4
"105","66fc3e8fef1797e175a11e8d","gas","calibrator","Semantic",1727862699759,"concrete",1517,"abstract","concrete","abstract;concrete","A",7.32448997934853,5
"106","66fc3e8fef1797e175a11e8d","theory","calibrator","Semantic",1727862702201,"abstract",1679,"abstract","concrete","abstract;concrete","A",7.42595365707754,6
"107","66fc3e8fef1797e175a11e8d","shirt","calibrator","Semantic",1727862703808,"concrete",849,"abstract","concrete","abstract;concrete","A",6.74405918631135,7
"108","66fc3e8fef1797e175a11e8d","kick","calibrator","Semantic",1727862707582,"concrete",3008,"abstract","concrete","abstract;concrete","A",8.00903068506973,8
"109","66fc3e8fef1797e175a11e8d","infinity","calibrator","Semantic",1727862709971,"abstract",1634,"abstract","concrete","abstract;concrete","A",7.39878627541995,9
"110","66fc3e8fef1797e175a11e8d","grasshopper","calibrator","Semantic",1727862711518,"concrete",775,"abstract","concrete","abstract;concrete","A",6.65286302935335,10
"111","570bc1ffb9b52b00102db939","gas","calibrator","Semantic",1727861820624,"abstract",1229,"abstract","concrete","abstract;concrete","A",7.11395610956603,1
"112","570bc1ffb9b52b00102db939","kick","calibrator","Semantic",1727861822584,"abstract",1195,"abstract","concrete","abstract;concrete","A",7.08590146436561,2
"113","570bc1ffb9b52b00102db939","grasshopper","calibrator","Semantic",1727861824143,"abstract",796,"abstract","concrete","abstract;concrete","A",6.67959918584438,3
"114","570bc1ffb9b52b00102db939","whistle","calibrator","Semantic",1727861825983,"abstract",1078,"abstract","concrete","abstract;concrete","A",6.98286275146894,4
"115","570bc1ffb9b52b00102db939","polite","calibrator","Semantic",1727861827607,"abstract",863,"abstract","concrete","abstract;concrete","A",6.76041469108343,5
"116","570bc1ffb9b52b00102db939","shirt","calibrator","Semantic",1727861829055,"concrete",685,"abstract","concrete","abstract;concrete","A",6.52941883826223,6
"117","570bc1ffb9b52b00102db939","sugar","calibrator","Semantic",1727861830455,"concrete",644,"abstract","concrete","abstract;concrete","A",6.46769872610435,7
"118","570bc1ffb9b52b00102db939","theory","calibrator","Semantic",1727861831975,"abstract",765,"abstract","concrete","abstract;concrete","A",6.63987583382654,8
"119","570bc1ffb9b52b00102db939","marriage","calibrator","Semantic",1727861833886,"concrete",1150,"abstract","concrete","abstract;concrete","A",7.0475172213573,9
"120","570bc1ffb9b52b00102db939","infinity","calibrator","Semantic",1727861835456,"abstract",814,"abstract","concrete","abstract;concrete","A",6.70196036600254,10
"121","599de5758a6cc5000128f97e","grin","calibrator","Valence",1727874864974,"positive",2175,"negative","positive","negative;positive","B",7.68478394352278,1
"122","599de5758a6cc5000128f97e","joke","calibrator","Valence",1727874867175,"positive",1440,"negative","positive","negative;positive","B",7.27239839257005,2
"123","599de5758a6cc5000128f97e","icebox","calibrator","Valence",1727874869121,"positive",1182,"negative","positive","negative;positive","B",7.07496319796604,3
"124","599de5758a6cc5000128f97e","insecure","calibrator","Valence",1727874870736,"negative",851,"negative","positive","negative;positive","B",6.74641212857337,4
"125","599de5758a6cc5000128f97e","invader","calibrator","Valence",1727874872743,"negative",1245,"negative","positive","negative;positive","B",7.12689080889881,5
"126","599de5758a6cc5000128f97e","free","calibrator","Valence",1727874874272,"positive",768,"negative","positive","negative;positive","B",6.64378973314767,6
"127","599de5758a6cc5000128f97e","hat","calibrator","Valence",1727874876324,"positive",1294,"negative","positive","negative;positive","B",7.16549347506085,7
"128","599de5758a6cc5000128f97e","jail","calibrator","Valence",1727874878076,"negative",989,"negative","positive","negative;positive","B",6.89669433162271,8
"129","599de5758a6cc5000128f97e","kitten","calibrator","Valence",1727874879715,"positive",881,"negative","positive","negative;positive","B",6.78105762593618,9
"130","599de5758a6cc5000128f97e","industry","calibrator","Valence",1727874881619,"positive",1139,"negative","positive","negative;positive","B",7.03790596344718,10
"131","66a831d910e0a2b141015591","sugar","calibrator","Semantic",1727862385957,"concrete",3887,"abstract","concrete","abstract;concrete","A",8.26539293085222,1
"132","66a831d910e0a2b141015591","kick","calibrator","Semantic",1727862388115,"concrete",1394,"abstract","concrete","abstract;concrete","A",7.23993259132047,2
"133","66a831d910e0a2b141015591","infinity","calibrator","Semantic",1727862390217,"abstract",1344,"abstract","concrete","abstract;concrete","A",7.20340552108309,3
"134","66a831d910e0a2b141015591","shirt","calibrator","Semantic",1727862392693,"concrete",1714,"abstract","concrete","abstract;concrete","A",7.44658509915773,4
"135","66a831d910e0a2b141015591","grasshopper","calibrator","Semantic",1727862394339,"concrete",888,"abstract","concrete","abstract;concrete","A",6.78897174299217,5
"136","66a831d910e0a2b141015591","theory","calibrator","Semantic",1727862396918,"abstract",1821,"abstract","concrete","abstract;concrete","A",7.50714107972761,6
"137","66a831d910e0a2b141015591","marriage","calibrator","Semantic",1727862400325,"abstract",2650,"abstract","concrete","abstract;concrete","A",7.88231491898027,7
"138","66a831d910e0a2b141015591","polite","calibrator","Semantic",1727862402862,"abstract",1780,"abstract","concrete","abstract;concrete","A",7.48436864328613,8
"139","66a831d910e0a2b141015591","whistle","calibrator","Semantic",1727862404651,"concrete",1032,"abstract","concrete","abstract;concrete","A",6.93925394604151,9
"140","66a831d910e0a2b141015591","gas","calibrator","Semantic",1727862406214,"concrete",803,"abstract","concrete","abstract;concrete","A",6.68835471394676,10
"141","60ff46f0d588d3f6f641a0ee","invader","calibrator","Valence",1727878356329,"positive",975,"negative","positive","negative;positive","B",6.88243747099785,1
"142","60ff46f0d588d3f6f641a0ee","free","calibrator","Valence",1727878357867,"negative",762,"negative","positive","negative;positive","B",6.63594655568665,2
"143","60ff46f0d588d3f6f641a0ee","icebox","calibrator","Valence",1727878359775,"positive",1136,"negative","positive","negative;positive","B",7.0352685992811,3
"144","60ff46f0d588d3f6f641a0ee","industry","calibrator","Valence",1727878361368,"negative",826,"negative","positive","negative;positive","B",6.71659477352098,4
"145","60ff46f0d588d3f6f641a0ee","joke","calibrator","Valence",1727878362935,"positive",797,"negative","positive","negative;positive","B",6.68085467879022,5
"146","60ff46f0d588d3f6f641a0ee","grin","calibrator","Valence",1727878364366,"positive",658,"negative","positive","negative;positive","B",6.48920493132532,6
"147","60ff46f0d588d3f6f641a0ee","jail","calibrator","Valence",1727878365982,"negative",846,"negative","positive","negative;positive","B",6.74051935960622,7
"148","60ff46f0d588d3f6f641a0ee","kitten","calibrator","Valence",1727878367381,"positive",630,"negative","positive","negative;positive","B",6.44571981938558,8
"149","60ff46f0d588d3f6f641a0ee","hat","calibrator","Valence",1727878368993,"positive",829,"negative","positive","negative;positive","B",6.7202201551353,9
"150","60ff46f0d588d3f6f641a0ee","insecure","calibrator","Valence",1727878371814,"negative",2046,"negative","positive","negative;positive","B",7.62364194651157,10
"151","66bf07381e009d1ae52946ee","shirt","calibrator","Semantic",1727862544425,"concrete",1881,"abstract","concrete","abstract;concrete","A",7.53955882930103,1
"152","66bf07381e009d1ae52946ee","sugar","calibrator","Semantic",1727862546124,"concrete",943,"abstract","concrete","abstract;concrete","A",6.84906628263346,2
"153","66bf07381e009d1ae52946ee","marriage","calibrator","Semantic",1727862549070,"abstract",2189,"abstract","concrete","abstract;concrete","A",7.69120009752286,3
"154","66bf07381e009d1ae52946ee","whistle","calibrator","Semantic",1727862550863,"concrete",1038,"abstract","concrete","abstract;concrete","A",6.94505106372583,4
"155","66bf07381e009d1ae52946ee","grasshopper","calibrator","Semantic",1727862552486,"concrete",869,"abstract","concrete","abstract;concrete","A",6.76734312526539,5
"156","66bf07381e009d1ae52946ee","infinity","calibrator","Semantic",1727862554048,"abstract",804,"abstract","concrete","abstract;concrete","A",6.68959926917897,6
"157","66bf07381e009d1ae52946ee","polite","calibrator","Semantic",1727862555671,"abstract",865,"abstract","concrete","abstract;concrete","A",6.76272950693188,7
"158","66bf07381e009d1ae52946ee","gas","calibrator","Semantic",1727862557015,"concrete",590,"abstract","concrete","abstract;concrete","A",6.38012253689976,8
"159","66bf07381e009d1ae52946ee","theory","calibrator","Semantic",1727862558543,"abstract",771,"abstract","concrete","abstract;concrete","A",6.64768837356333,9
"160","66bf07381e009d1ae52946ee","kick","calibrator","Semantic",1727862559883,"concrete",582,"abstract","concrete","abstract;concrete","A",6.36647044773144,10
"161","668a7ac9a407373e5cf36bd3","theory","calibrator","Semantic",1727862522571,"abstract",1728,"abstract","concrete","abstract;concrete","A",7.454719949364,1
"162","668a7ac9a407373e5cf36bd3","marriage","calibrator","Semantic",1727862524418,"concrete",1091,"abstract","concrete","abstract;concrete","A",6.99484998583307,2
"163","668a7ac9a407373e5cf36bd3","infinity","calibrator","Semantic",1727862526002,"abstract",825,"abstract","concrete","abstract;concrete","A",6.71538338633468,3
"164","668a7ac9a407373e5cf36bd3","gas","calibrator","Semantic",1727862527890,"concrete",1128,"abstract","concrete","abstract;concrete","A",7.028201432058,4
"165","668a7ac9a407373e5cf36bd3","polite","calibrator","Semantic",1727862529546,"abstract",895,"abstract","concrete","abstract;concrete","A",6.79682371827486,5
"166","668a7ac9a407373e5cf36bd3","whistle","calibrator","Semantic",1727862531362,"abstract",1057,"abstract","concrete","abstract;concrete","A",6.96318998587024,6
"167","668a7ac9a407373e5cf36bd3","shirt","calibrator","Semantic",1727862533186,"concrete",1067,"abstract","concrete","abstract;concrete","A",6.97260625130175,7
"168","668a7ac9a407373e5cf36bd3","grasshopper","calibrator","Semantic",1727862534658,"concrete",713,"abstract","concrete","abstract;concrete","A",6.5694814204143,8
"169","668a7ac9a407373e5cf36bd3","sugar","calibrator","Semantic",1727862536474,"concrete",1058,"abstract","concrete","abstract;concrete","A",6.96413561241824,9
"170","668a7ac9a407373e5cf36bd3","kick","calibrator","Semantic",1727862539186,"abstract",1957,"abstract","concrete","abstract;concrete","A",7.57916796739608,10
"171","6630e6a0f1db179069761af4","theory","calibrator","Semantic",1727860746444,"concrete",2720,"abstract","concrete","abstract;concrete","A",7.90838715929004,1
"172","6630e6a0f1db179069761af4","whistle","calibrator","Semantic",1727860750338,"concrete",3136,"abstract","concrete","abstract;concrete","A",8.0507033814703,2
"173","6630e6a0f1db179069761af4","marriage","calibrator","Semantic",1727860753764,"abstract",2672,"abstract","concrete","abstract;concrete","A",7.89058253465654,3
"174","6630e6a0f1db179069761af4","kick","calibrator","Semantic",1727860757433,"concrete",2912,"abstract","concrete","abstract;concrete","A",7.97659540931658,4
"175","6630e6a0f1db179069761af4","polite","calibrator","Semantic",1727860759915,"abstract",1729,"abstract","concrete","abstract;concrete","A",7.45529848568329,5
"176","6630e6a0f1db179069761af4","infinity","calibrator","Semantic",1727860765789,"abstract",5118,"abstract","concrete","abstract;concrete","A",8.54051901671973,6
"177","6630e6a0f1db179069761af4","gas","calibrator","Semantic",1727860768547,"concrete",2001,"abstract","concrete","abstract;concrete","A",7.60140233458373,7
"178","6630e6a0f1db179069761af4","sugar","calibrator","Semantic",1727860770693,"abstract",1392,"abstract","concrete","abstract;concrete","A",7.23849684089437,8
"179","6630e6a0f1db179069761af4","grasshopper","calibrator","Semantic",1727860772923,"abstract",1472,"abstract","concrete","abstract;concrete","A",7.29437729928882,9
"180","6630e6a0f1db179069761af4","shirt","calibrator","Semantic",1727860775317,"abstract",1640,"abstract","concrete","abstract;concrete","A",7.40245152081824,10
"181","61531624b67f1ccd83e48d48","icebox","calibrator","Valence",1727876120430,"negative",1242,"negative","positive","negative;positive","B",7.12447826249342,1
"182","61531624b67f1ccd83e48d48","jail","calibrator","Valence",1727876122479,"negative",1284,"negative","positive","negative;positive","B",7.15773548424991,2
"183","61531624b67f1ccd83e48d48","joke","calibrator","Valence",1727876124796,"positive",1555,"negative","positive","negative;positive","B",7.34923082461333,3
"184","61531624b67f1ccd83e48d48","free","calibrator","Valence",1727876126776,"positive",1218,"negative","positive","negative;positive","B",7.10496544826984,4
"185","61531624b67f1ccd83e48d48","kitten","calibrator","Valence",1727876128644,"positive",1105,"negative","positive","negative;positive","B",7.00760061395185,5
"186","61531624b67f1ccd83e48d48","insecure","calibrator","Valence",1727876130916,"negative",1515,"negative","positive","negative;positive","B",7.32317071794347,6
"187","61531624b67f1ccd83e48d48","grin","calibrator","Valence",1727876132761,"positive",1086,"negative","positive","negative;positive","B",6.99025650049388,7
"188","61531624b67f1ccd83e48d48","hat","calibrator","Valence",1727876134743,"positive",1219,"negative","positive","negative;positive","B",7.10578612948127,8
"189","61531624b67f1ccd83e48d48","industry","calibrator","Valence",1727876136609,"positive",1106,"negative","positive","negative;positive","B",7.00850518208228,9
"190","61531624b67f1ccd83e48d48","invader","calibrator","Valence",1727876138295,"negative",922,"negative","positive","negative;positive","B",6.82654522355659,10
"191","655e3e2a7774911651212960","icebox","calibrator","Valence",1727876336352,"negative",660,"negative","positive","negative;positive","B",6.49223983502047,1
"192","655e3e2a7774911651212960","industry","calibrator","Valence",1727876339368,"positive",2254,"negative","positive","negative;positive","B",7.72046169459972,2
"193","655e3e2a7774911651212960","hat","calibrator","Valence",1727876341096,"positive",973,"negative","positive","negative;positive","B",6.880384082186,3
"194","655e3e2a7774911651212960","insecure","calibrator","Valence",1727876342712,"negative",858,"negative","positive","negative;positive","B",6.75460409948796,4
"195","655e3e2a7774911651212960","free","calibrator","Valence",1727876344360,"positive",896,"negative","positive","negative;positive","B",6.79794041297493,5
"196","655e3e2a7774911651212960","kitten","calibrator","Valence",1727876345656,"positive",539,"negative","positive","negative;positive","B",6.289715570909,6
"197","655e3e2a7774911651212960","grin","calibrator","Valence",1727876347200,"positive",786,"negative","positive","negative;positive","B",6.66695679242921,7
"198","655e3e2a7774911651212960","joke","calibrator","Valence",1727876348760,"positive",803,"negative","positive","negative;positive","B",6.68835471394676,8
"199","655e3e2a7774911651212960","jail","calibrator","Valence",1727876350184,"negative",669,"negative","positive","negative;positive","B",6.50578406012823,9
"200","655e3e2a7774911651212960","invader","calibrator","Valence",1727876351664,"negative",726,"negative","positive","negative;positive","B",6.5875500148248,10
"201","5c747b0f181ad300113363ed","polite","calibrator","Semantic",1727864507070,"abstract",2035,"abstract","concrete","abstract;concrete","A",7.6182510978767,1
"202","5c747b0f181ad300113363ed","marriage","calibrator","Semantic",1727864509751,"concrete",1913,"abstract","concrete","abstract;concrete","A",7.55642796944025,2
"203","5c747b0f181ad300113363ed","infinity","calibrator","Semantic",1727864512378,"abstract",1854,"abstract","concrete","abstract;concrete","A",7.5251007461258,3
"204","5c747b0f181ad300113363ed","theory","calibrator","Semantic",1727864514823,"abstract",1689,"abstract","concrete","abstract;concrete","A",7.4318919168078,4
"205","5c747b0f181ad300113363ed","shirt","calibrator","Semantic",1727864516708,"concrete",1111,"abstract","concrete","abstract;concrete","A",7.01301578963963,5
"206","5c747b0f181ad300113363ed","gas","calibrator","Semantic",1727864518378,"concrete",914,"abstract","concrete","abstract;concrete","A",6.81783057145415,6
"207","5c747b0f181ad300113363ed","grasshopper","calibrator","Semantic",1727864519909,"concrete",767,"abstract","concrete","abstract;concrete","A",6.64248680136726,7
"208","5c747b0f181ad300113363ed","whistle","calibrator","Semantic",1727864521485,"concrete",800,"abstract","concrete","abstract;concrete","A",6.68461172766793,8
"209","5c747b0f181ad300113363ed","kick","calibrator","Semantic",1727864522843,"concrete",583,"abstract","concrete","abstract;concrete","A",6.36818718635049,9
"210","5c747b0f181ad300113363ed","sugar","calibrator","Semantic",1727864524094,"concrete",492,"abstract","concrete","abstract;concrete","A",6.19847871649231,10
"211","66fc6f6b55af55ffcb484925","joke","calibrator","Valence",1727876204309,"positive",2710,"negative","positive","negative;positive","B",7.90470391387375,1
"212","66fc6f6b55af55ffcb484925","hat","calibrator","Valence",1727876206740,"positive",1672,"negative","positive","negative;positive","B",7.42177579364465,2
"213","66fc6f6b55af55ffcb484925","industry","calibrator","Valence",1727876210086,"positive",2587,"negative","positive","negative;positive","B",7.85825418218603,3
"214","66fc6f6b55af55ffcb484925","jail","calibrator","Valence",1727876211741,"negative",892,"negative","positive","negative;positive","B",6.79346613258001,4
"215","66fc6f6b55af55ffcb484925","invader","calibrator","Valence",1727876213513,"negative",1015,"negative","positive","negative;positive","B",6.92264389147589,5
"216","66fc6f6b55af55ffcb484925","icebox","calibrator","Valence",1727876215742,"positive",1471,"negative","positive","negative;positive","B",7.29369772060144,6
"217","66fc6f6b55af55ffcb484925","insecure","calibrator","Valence",1727876217407,"negative",905,"negative","positive","negative;positive","B",6.80793494369993,7
"218","66fc6f6b55af55ffcb484925","free","calibrator","Valence",1727876218982,"positive",816,"negative","positive","negative;positive","B",6.70441435496411,8
"219","66fc6f6b55af55ffcb484925","kitten","calibrator","Valence",1727876220594,"positive",854,"negative","positive","negative;positive","B",6.74993119378857,9
"220","66fc6f6b55af55ffcb484925","grin","calibrator","Valence",1727876222060,"positive",710,"negative","positive","negative;positive","B",6.56526497003536,10
"221","66eb44c15df514b90352f406","shirt","calibrator","Semantic",1727863614474,"abstract",1862,"abstract","concrete","abstract;concrete","A",7.52940645783701,1
"222","66eb44c15df514b90352f406","marriage","calibrator","Semantic",1727863616171,"abstract",912,"abstract","concrete","abstract;concrete","A",6.81563999007433,2
"223","66eb44c15df514b90352f406","infinity","calibrator","Semantic",1727863617777,"abstract",817,"abstract","concrete","abstract;concrete","A",6.70563909486,3
"224","66eb44c15df514b90352f406","grasshopper","calibrator","Semantic",1727863619364,"concrete",802,"abstract","concrete","abstract;concrete","A",6.68710860786651,4
"225","66eb44c15df514b90352f406","theory","calibrator","Semantic",1727863621059,"abstract",915,"abstract","concrete","abstract;concrete","A",6.81892406527552,5
"226","66eb44c15df514b90352f406","kick","calibrator","Semantic",1727863622847,"abstract",1001,"abstract","concrete","abstract;concrete","A",6.90875477931522,6
"227","66eb44c15df514b90352f406","polite","calibrator","Semantic",1727863624434,"abstract",801,"abstract","concrete","abstract;concrete","A",6.68586094706836,7
"228","66eb44c15df514b90352f406","sugar","calibrator","Semantic",1727863626190,"concrete",990,"abstract","concrete","abstract;concrete","A",6.89770494312864,8
"229","66eb44c15df514b90352f406","whistle","calibrator","Semantic",1727863627825,"concrete",862,"abstract","concrete","abstract;concrete","A",6.75925527066369,9
"230","66eb44c15df514b90352f406","gas","calibrator","Semantic",1727863629836,"concrete",1219,"abstract","concrete","abstract;concrete","A",7.10578612948127,10
"231","59c9c8da5535800001a8e434","shirt","calibrator","Semantic",1727861080190,"concrete",1823,"abstract","concrete","abstract;concrete","A",7.50823877467866,1
"232","59c9c8da5535800001a8e434","infinity","calibrator","Semantic",1727861082090,"abstract",1138,"abstract","concrete","abstract;concrete","A",7.03702761468628,2
"233","59c9c8da5535800001a8e434","theory","calibrator","Semantic",1727861083799,"abstract",949,"abstract","concrete","abstract;concrete","A",6.85540879860993,3
"234","59c9c8da5535800001a8e434","grasshopper","calibrator","Semantic",1727861085291,"concrete",731,"abstract","concrete","abstract;concrete","A",6.59441345974978,4
"235","59c9c8da5535800001a8e434","sugar","calibrator","Semantic",1727861087010,"concrete",960,"abstract","concrete","abstract;concrete","A",6.86693328446188,5
"236","59c9c8da5535800001a8e434","whistle","calibrator","Semantic",1727861089217,"abstract",1448,"abstract","concrete","abstract;concrete","A",7.27793857294566,6
"237","59c9c8da5535800001a8e434","marriage","calibrator","Semantic",1727861091922,"abstract",1946,"abstract","concrete","abstract;concrete","A",7.57353126274595,7
"238","59c9c8da5535800001a8e434","gas","calibrator","Semantic",1727861093756,"concrete",1073,"abstract","concrete","abstract;concrete","A",6.9782137426307,8
"239","59c9c8da5535800001a8e434","kick","calibrator","Semantic",1727861096261,"abstract",1748,"abstract","concrete","abstract;concrete","A",7.46622755621548,9
"240","59c9c8da5535800001a8e434","polite","calibrator","Semantic",1727861098082,"abstract",1059,"abstract","concrete","abstract;concrete","A",6.96508034560141,10
"241","614d465852620924f85603c8","kick","calibrator","Semantic",1727862373337,"abstract",1220,"abstract","concrete","abstract;concrete","A",7.1066061377273,1
"242","614d465852620924f85603c8","grasshopper","calibrator","Semantic",1727862375112,"abstract",1008,"abstract","concrete","abstract;concrete","A",6.91572344863131,2
"243","614d465852620924f85603c8","theory","calibrator","Semantic",1727862376483,"concrete",601,"abstract","concrete","abstract;concrete","A",6.39859493453521,3
"244","614d465852620924f85603c8","gas","calibrator","Semantic",1727862378089,"abstract",840,"abstract","concrete","abstract;concrete","A",6.73340189183736,4
"245","614d465852620924f85603c8","polite","calibrator","Semantic",1727862379866,"abstract",1001,"abstract","concrete","abstract;concrete","A",6.90875477931522,5
"246","614d465852620924f85603c8","infinity","calibrator","Semantic",1727862381930,"concrete",1291,"abstract","concrete","abstract;concrete","A",7.16317239084664,6
"247","614d465852620924f85603c8","marriage","calibrator","Semantic",1727862383644,"abstract",940,"abstract","concrete","abstract;concrete","A",6.84587987526405,7
"248","614d465852620924f85603c8","sugar","calibrator","Semantic",1727862385566,"abstract",1143,"abstract","concrete","abstract;concrete","A",7.04141166379481,8
"249","614d465852620924f85603c8","shirt","calibrator","Semantic",1727862387483,"concrete",1154,"abstract","concrete","abstract;concrete","A",7.05098944706805,9
"250","614d465852620924f85603c8","whistle","calibrator","Semantic",1727862389476,"abstract",1225,"abstract","concrete","abstract;concrete","A",7.11069612297883,10
"251","663e3bf980a1241697515b7f","joke","calibrator","Valence",1727875470649,"positive",1708,"negative","positive","negative;positive","B",7.44307837434852,1
"252","663e3bf980a1241697515b7f","free","calibrator","Valence",1727875472381,"positive",970,"negative","positive","negative;positive","B",6.87729607149743,2
"253","663e3bf980a1241697515b7f","invader","calibrator","Valence",1727875474028,"negative",883,"negative","positive","negative;positive","B",6.78332520060396,3
"254","663e3bf980a1241697515b7f","insecure","calibrator","Valence",1727875475608,"negative",817,"negative","positive","negative;positive","B",6.70563909486,4
"255","663e3bf980a1241697515b7f","industry","calibrator","Valence",1727875477399,"positive",1031,"negative","positive","negative;positive","B",6.93828448401696,5
"256","663e3bf980a1241697515b7f","icebox","calibrator","Valence",1727875479038,"positive",882,"negative","positive","negative;positive","B",6.78219205600679,6
"257","663e3bf980a1241697515b7f","kitten","calibrator","Valence",1727875480415,"positive",618,"negative","positive","negative;positive","B",6.42648845745769,7
"258","663e3bf980a1241697515b7f","jail","calibrator","Valence",1727875481910,"negative",737,"negative","positive","negative;positive","B",6.60258789218934,8
"259","663e3bf980a1241697515b7f","grin","calibrator","Valence",1727875483338,"positive",666,"negative","positive","negative;positive","B",6.50128967054039,9
"260","663e3bf980a1241697515b7f","hat","calibrator","Valence",1727875484765,"positive",672,"negative","positive","negative;positive","B",6.51025834052315,10
"261","56cc78e3ccc0e20006b82a7d","invader","calibrator","Valence",1727876304906,"negative",1006,"negative","positive","negative;positive","B",6.91373735065968,1
"262","56cc78e3ccc0e20006b82a7d","grin","calibrator","Valence",1727876306297,"positive",634,"negative","positive","negative;positive","B",6.45204895443723,2
"263","56cc78e3ccc0e20006b82a7d","hat","calibrator","Valence",1727876307889,"positive",836,"negative","positive","negative;positive","B",6.7286286130847,3
"264","56cc78e3ccc0e20006b82a7d","jail","calibrator","Valence",1727876309186,"negative",540,"negative","positive","negative;positive","B",6.29156913955832,4
"265","56cc78e3ccc0e20006b82a7d","free","calibrator","Valence",1727876310457,"positive",514,"negative","positive","negative;positive","B",6.24222326545517,5
"266","56cc78e3ccc0e20006b82a7d","icebox","calibrator","Valence",1727876311897,"positive",683,"negative","positive","negative;positive","B",6.52649485957079,6
"267","56cc78e3ccc0e20006b82a7d","joke","calibrator","Valence",1727876313657,"positive",1002,"negative","positive","negative;positive","B",6.90975328164481,7
"268","56cc78e3ccc0e20006b82a7d","insecure","calibrator","Valence",1727876315065,"negative",651,"negative","positive","negative;positive","B",6.47850964220857,8
"269","56cc78e3ccc0e20006b82a7d","industry","calibrator","Valence",1727876316489,"positive",669,"negative","positive","negative;positive","B",6.50578406012823,9
"270","56cc78e3ccc0e20006b82a7d","kitten","calibrator","Valence",1727876317881,"positive",633,"negative","positive","negative;positive","B",6.45047042214418,10
"271","5ef283718092040ec9e39ca2","kitten","calibrator","Valence",1727876165822,"positive",1816,"negative","positive","negative;positive","B",7.50439155916124,1
"272","5ef283718092040ec9e39ca2","icebox","calibrator","Valence",1727876168221,"positive",1639,"negative","positive","negative;positive","B",7.40184157874383,2
"273","5ef283718092040ec9e39ca2","industry","calibrator","Valence",1727876170920,"positive",1941,"negative","positive","negative;positive","B",7.57095858316901,3
"274","5ef283718092040ec9e39ca2","grin","calibrator","Valence",1727876173099,"positive",1426,"negative","positive","negative;positive","B",7.26262860097424,4
"275","5ef283718092040ec9e39ca2","joke","calibrator","Valence",1727876174684,"positive",822,"negative","positive","negative;positive","B",6.71174039505618,5
"276","5ef283718092040ec9e39ca2","insecure","calibrator","Valence",1727876177019,"negative",1573,"negative","positive","negative;positive","B",7.36073990305828,6
"277","5ef283718092040ec9e39ca2","jail","calibrator","Valence",1727876178901,"negative",1122,"negative","positive","negative;positive","B",7.02286808608264,7
"278","5ef283718092040ec9e39ca2","invader","calibrator","Valence",1727876180831,"negative",1172,"negative","positive","negative;positive","B",7.06646697013696,8
"279","5ef283718092040ec9e39ca2","hat","calibrator","Valence",1727876183523,"positive",1935,"negative","positive","negative;positive","B",7.56786260546388,9
"280","5ef283718092040ec9e39ca2","free","calibrator","Valence",1727876185596,"positive",1315,"negative","positive","negative;positive","B",7.18159194461187,10
"281","66a9843c53827f826e9738ed","polite","calibrator","Semantic",1727862938163,"abstract",3214,"abstract","concrete","abstract;concrete","A",8.07527154629746,1
"282","66a9843c53827f826e9738ed","theory","calibrator","Semantic",1727862944986,"abstract",6062,"abstract","concrete","abstract;concrete","A",8.70979505761775,2
"283","66a9843c53827f826e9738ed","sugar","calibrator","Semantic",1727862947181,"concrete",1429,"abstract","concrete","abstract;concrete","A",7.26473017792987,3
"284","66a9843c53827f826e9738ed","grasshopper","calibrator","Semantic",1727862948993,"concrete",1050,"abstract","concrete","abstract;concrete","A",6.95654544315157,4
"285","66a9843c53827f826e9738ed","whistle","calibrator","Semantic",1727862954006,"concrete",4246,"abstract","concrete","abstract;concrete","A",8.3537326422632,5
"286","66a9843c53827f826e9738ed","kick","calibrator","Semantic",1727862955948,"concrete",1180,"abstract","concrete","abstract;concrete","A",7.07326971745971,6
"287","66a9843c53827f826e9738ed","infinity","calibrator","Semantic",1727862960798,"abstract",4091,"abstract","concrete","abstract;concrete","A",8.3165447179294,7
"288","66a9843c53827f826e9738ed","marriage","calibrator","Semantic",1727862968716,"abstract",7157,"abstract","concrete","abstract;concrete","A",8.8758461777386,8
"289","66a9843c53827f826e9738ed","shirt","calibrator","Semantic",1727862970638,"concrete",1158,"abstract","concrete","abstract;concrete","A",7.05444965813294,9
"290","66a9843c53827f826e9738ed","gas","calibrator","Semantic",1727862972587,"concrete",1182,"abstract","concrete","abstract;concrete","A",7.07496319796604,10
"291","66fb245e0d8b295716def17c","invader","calibrator","Valence",1727878559011,"negative",1077,"negative","positive","negative;positive","B",6.98193467715639,1
"292","66fb245e0d8b295716def17c","industry","calibrator","Valence",1727878560827,"negative",1061,"negative","positive","negative;positive","B",6.96696713861398,2
"293","66fb245e0d8b295716def17c","icebox","calibrator","Valence",1727878563906,"positive",2320,"negative","positive","negative;positive","B",7.74932246466036,3
"294","66fb245e0d8b295716def17c","kitten","calibrator","Valence",1727878565338,"positive",673,"negative","positive","negative;positive","B",6.51174532964473,4
"295","66fb245e0d8b295716def17c","jail","calibrator","Valence",1727878566746,"negative",652,"negative","positive","negative;positive","B",6.48004456192665,5
"296","66fb245e0d8b295716def17c","insecure","calibrator","Valence",1727878568178,"negative",677,"negative","positive","negative;positive","B",6.51767127291227,6
"297","66fb245e0d8b295716def17c","free","calibrator","Valence",1727878569570,"positive",633,"negative","positive","negative;positive","B",6.45047042214418,7
"298","66fb245e0d8b295716def17c","grin","calibrator","Valence",1727878571122,"positive",797,"negative","positive","negative;positive","B",6.68085467879022,8
"299","66fb245e0d8b295716def17c","joke","calibrator","Valence",1727878572466,"positive",585,"negative","positive","negative;positive","B",6.37161184723186,9
"300","66fb245e0d8b295716def17c","hat","calibrator","Valence",1727878574042,"positive",821,"negative","positive","negative;positive","B",6.71052310945243,10
"301","66c495953ba22743c08a8833","icebox","calibrator","Valence",1727876099179,"positive",4537,"negative","positive","negative;positive","B",8.42002127966396,1
"302","66c495953ba22743c08a8833","insecure","calibrator","Valence",1727876101321,"negative",1374,"negative","positive","negative;positive","B",7.22548147278229,2
"303","66c495953ba22743c08a8833","joke","calibrator","Valence",1727876103016,"positive",917,"negative","positive","negative;positive","B",6.82110747225646,3
"304","66c495953ba22743c08a8833","free","calibrator","Valence",1727876104727,"positive",934,"negative","positive","negative;positive","B",6.83947643822884,4
"305","66c495953ba22743c08a8833","hat","calibrator","Valence",1727876106359,"positive",853,"negative","positive","negative;positive","B",6.74875954749168,5
"306","66c495953ba22743c08a8833","kitten","calibrator","Valence",1727876107974,"positive",856,"negative","positive","negative;positive","B",6.75227037614174,6
"307","66c495953ba22743c08a8833","invader","calibrator","Valence",1727876109628,"negative",885,"negative","positive","negative;positive","B",6.78558764500793,7
"308","66c495953ba22743c08a8833","grin","calibrator","Valence",1727876111234,"positive",849,"negative","positive","negative;positive","B",6.74405918631135,8
"309","66c495953ba22743c08a8833","jail","calibrator","Valence",1727876112728,"negative",713,"negative","positive","negative;positive","B",6.5694814204143,9
"310","66c495953ba22743c08a8833","industry","calibrator","Valence",1727876114161,"positive",665,"negative","positive","negative;positive","B",6.49978704065585,10
"311","59cf062758b71700019882d4","industry","calibrator","Valence",1727875930383,"negative",1112,"negative","positive","negative;positive","B",7.01391547481053,1
"312","59cf062758b71700019882d4","invader","calibrator","Valence",1727875931975,"negative",825,"negative","positive","negative;positive","B",6.71538338633468,2
"313","59cf062758b71700019882d4","insecure","calibrator","Valence",1727875933540,"negative",795,"negative","positive","negative;positive","B",6.67834211465433,3
"314","59cf062758b71700019882d4","joke","calibrator","Valence",1727875935245,"positive",940,"negative","positive","negative;positive","B",6.84587987526405,4
"315","59cf062758b71700019882d4","kitten","calibrator","Valence",1727875936554,"positive",551,"negative","positive","negative;positive","B",6.31173480915291,5
"316","59cf062758b71700019882d4","hat","calibrator","Valence",1727875938006,"positive",690,"negative","positive","negative;positive","B",6.5366915975913,6
"317","59cf062758b71700019882d4","grin","calibrator","Valence",1727875939370,"negative",596,"negative","positive","negative;positive","B",6.39024066706535,7
"318","59cf062758b71700019882d4","jail","calibrator","Valence",1727875940990,"negative",850,"negative","positive","negative;positive","B",6.74523634948436,8
"319","59cf062758b71700019882d4","icebox","calibrator","Valence",1727875942840,"positive",1088,"negative","positive","negative;positive","B",6.99209642741589,9
"320","59cf062758b71700019882d4","free","calibrator","Valence",1727875944433,"positive",824,"negative","positive","negative;positive","B",6.71417052990947,10
"321","61219f1896e5dd0dc3d60e69","joke","calibrator","Valence",1727875793721,"positive",1674,"negative","positive","negative;positive","B",7.42297125104942,1
"322","61219f1896e5dd0dc3d60e69","jail","calibrator","Valence",1727875795661,"negative",1178,"negative","positive","negative;positive","B",7.07157336421153,2
"323","61219f1896e5dd0dc3d60e69","invader","calibrator","Valence",1727875797361,"negative",942,"negative","positive","negative;positive","B",6.84800527457636,3
"324","61219f1896e5dd0dc3d60e69","grin","calibrator","Valence",1727875798859,"positive",736,"negative","positive","negative;positive","B",6.60123011872888,4
"325","61219f1896e5dd0dc3d60e69","kitten","calibrator","Valence",1727875800165,"positive",547,"negative","positive","negative;positive","B",6.30444880242198,5
"326","61219f1896e5dd0dc3d60e69","free","calibrator","Valence",1727875801485,"positive",562,"negative","positive","negative;positive","B",6.33150184989369,6
"327","61219f1896e5dd0dc3d60e69","industry","calibrator","Valence",1727875803012,"positive",766,"negative","positive","negative;positive","B",6.64118216974059,7
"328","61219f1896e5dd0dc3d60e69","hat","calibrator","Valence",1727875804481,"positive",710,"negative","positive","negative;positive","B",6.56526497003536,8
"329","61219f1896e5dd0dc3d60e69","icebox","calibrator","Valence",1727875805920,"positive",680,"negative","positive","negative;positive","B",6.52209279817015,9
"330","61219f1896e5dd0dc3d60e69","insecure","calibrator","Valence",1727875807523,"negative",839,"negative","positive","negative;positive","B",6.73221070646721,10
"331","64a80dd34fd0539ee3761e6a","polite","calibrator","Semantic",1727861555852,"abstract",2153,"abstract","concrete","abstract;concrete","A",7.67461749736436,1
"332","64a80dd34fd0539ee3761e6a","gas","calibrator","Semantic",1727861558062,"concrete",1452,"abstract","concrete","abstract;concrete","A",7.28069719538474,2
"333","64a80dd34fd0539ee3761e6a","kick","calibrator","Semantic",1727861559915,"concrete",1096,"abstract","concrete","abstract;concrete","A",6.99942246750796,3
"334","64a80dd34fd0539ee3761e6a","infinity","calibrator","Semantic",1727861561744,"abstract",1071,"abstract","concrete","abstract;concrete","A",6.97634807044775,4
"335","64a80dd34fd0539ee3761e6a","marriage","calibrator","Semantic",1727861563295,"concrete",795,"abstract","concrete","abstract;concrete","A",6.67834211465433,5
"336","64a80dd34fd0539ee3761e6a","sugar","calibrator","Semantic",1727861564941,"concrete",888,"abstract","concrete","abstract;concrete","A",6.78897174299217,6
"337","64a80dd34fd0539ee3761e6a","shirt","calibrator","Semantic",1727861566816,"concrete",1119,"abstract","concrete","abstract;concrete","A",7.02019070831193,7
"338","64a80dd34fd0539ee3761e6a","theory","calibrator","Semantic",1727861569142,"abstract",1568,"abstract","concrete","abstract;concrete","A",7.35755620091035,8
"339","64a80dd34fd0539ee3761e6a","grasshopper","calibrator","Semantic",1727861570935,"concrete",1040,"abstract","concrete","abstract;concrete","A",6.94697599213542,9
"340","64a80dd34fd0539ee3761e6a","whistle","calibrator","Semantic",1727861572669,"abstract",974,"abstract","concrete","abstract;concrete","A",6.88141130364254,10
"341","662940f504db87235232df72","icebox","calibrator","Valence",1727876068453,"negative",473,"negative","positive","negative;positive","B",6.15909538849193,1
"342","662940f504db87235232df72","free","calibrator","Valence",1727876069968,"negative",753,"negative","positive","negative;positive","B",6.62406522779989,2
"343","662940f504db87235232df72","joke","calibrator","Valence",1727876074589,"positive",3860,"negative","positive","negative;positive","B",8.25842246245888,3
"344","662940f504db87235232df72","hat","calibrator","Valence",1727876076876,"positive",1523,"negative","positive","negative;positive","B",7.32843735289516,4
"345","662940f504db87235232df72","jail","calibrator","Valence",1727876079101,"negative",1463,"negative","positive","negative;positive","B",7.28824440102012,5
"346","662940f504db87235232df72","grin","calibrator","Valence",1727876081217,"positive",1355,"negative","positive","negative;positive","B",7.2115567333138,6
"347","662940f504db87235232df72","invader","calibrator","Valence",1727876083457,"negative",1482,"negative","positive","negative;positive","B",7.30114780585603,7
"348","662940f504db87235232df72","industry","calibrator","Valence",1727876085520,"positive",1301,"negative","positive","negative;positive","B",7.1708884785125,8
"349","662940f504db87235232df72","kitten","calibrator","Valence",1727876087555,"positive",1277,"negative","positive","negative;positive","B",7.15226885603254,9
"350","662940f504db87235232df72","insecure","calibrator","Valence",1727876089500,"negative",1183,"negative","positive","negative;positive","B",7.07580886397839,10
"351","60ed8f50e13ce18a6d406a09","icebox","calibrator","Valence",1727878592129,"negative",1220,"negative","positive","negative;positive","B",7.1066061377273,1
"352","60ed8f50e13ce18a6d406a09","free","calibrator","Valence",1727878594095,"negative",1210,"negative","positive","negative;positive","B",7.09837563859079,2
"353","60ed8f50e13ce18a6d406a09","insecure","calibrator","Valence",1727878596363,"positive",1509,"negative","positive","negative;positive","B",7.31920245876785,3
"354","60ed8f50e13ce18a6d406a09","grin","calibrator","Valence",1727878598965,"positive",1845,"negative","positive","negative;positive","B",7.52023455647463,4
"355","60ed8f50e13ce18a6d406a09","industry","calibrator","Valence",1727878601148,"negative",1429,"negative","positive","negative;positive","B",7.26473017792987,5
"356","60ed8f50e13ce18a6d406a09","kitten","calibrator","Valence",1727878603017,"positive",1111,"negative","positive","negative;positive","B",7.01301578963963,6
"357","60ed8f50e13ce18a6d406a09","invader","calibrator","Valence",1727878604862,"negative",1089,"negative","positive","negative;positive","B",6.99301512293296,7
"358","60ed8f50e13ce18a6d406a09","hat","calibrator","Valence",1727878606724,"positive",1109,"negative","positive","negative;positive","B",7.01121398735037,8
"359","60ed8f50e13ce18a6d406a09","jail","calibrator","Valence",1727878608243,"negative",762,"negative","positive","negative;positive","B",6.63594655568665,9
"360","60ed8f50e13ce18a6d406a09","joke","calibrator","Valence",1727878610234,"positive",1235,"negative","positive","negative;positive","B",7.11882624906208,10
"361","660480647ac06fc541cfda59","grasshopper","calibrator","Semantic",1727862975126,"concrete",2421,"abstract","concrete","abstract;concrete","A",7.79193595693806,1
"362","660480647ac06fc541cfda59","whistle","calibrator","Semantic",1727862977523,"abstract",1637,"abstract","concrete","abstract;concrete","A",7.40062057737113,2
"363","660480647ac06fc541cfda59","theory","calibrator","Semantic",1727862979492,"abstract",1205,"abstract","concrete","abstract;concrete","A",7.09423484592476,3
"364","660480647ac06fc541cfda59","sugar","calibrator","Semantic",1727862981671,"concrete",1417,"abstract","concrete","abstract;concrete","A",7.25629723969068,4
"365","660480647ac06fc541cfda59","kick","calibrator","Semantic",1727862983858,"concrete",1426,"abstract","concrete","abstract;concrete","A",7.26262860097424,5
"366","660480647ac06fc541cfda59","gas","calibrator","Semantic",1727862986440,"concrete",1824,"abstract","concrete","abstract;concrete","A",7.50878717063428,6
"367","660480647ac06fc541cfda59","polite","calibrator","Semantic",1727862988445,"abstract",1245,"abstract","concrete","abstract;concrete","A",7.12689080889881,7
"368","660480647ac06fc541cfda59","marriage","calibrator","Semantic",1727862990410,"abstract",1208,"abstract","concrete","abstract;concrete","A",7.09672137849476,8
"369","660480647ac06fc541cfda59","shirt","calibrator","Semantic",1727862992336,"concrete",1164,"abstract","concrete","abstract;concrete","A",7.05961762829138,9
"370","660480647ac06fc541cfda59","infinity","calibrator","Semantic",1727862994071,"abstract",974,"abstract","concrete","abstract;concrete","A",6.88141130364254,10
"371","669aabcd5c4869b3bb6d7761","free","calibrator","Valence",1727875188500,"positive",3880,"negative","positive","negative;positive","B",8.26359043261732,1
"372","669aabcd5c4869b3bb6d7761","invader","calibrator","Valence",1727875190913,"negative",1654,"negative","positive","negative;positive","B",7.41095187558364,2
"373","669aabcd5c4869b3bb6d7761","industry","calibrator","Valence",1727875194927,"negative",3256,"negative","positive","negative;positive","B",8.08825472712243,3
"374","669aabcd5c4869b3bb6d7761","hat","calibrator","Valence",1727875196882,"positive",1198,"negative","positive","negative;positive","B",7.08840877867539,4
"375","669aabcd5c4869b3bb6d7761","grin","calibrator","Valence",1727875198627,"positive",988,"negative","positive","negative;positive","B",6.89568269774787,5
"376","669aabcd5c4869b3bb6d7761","icebox","calibrator","Valence",1727875201699,"positive",2314,"negative","positive","negative;positive","B",7.74673290775362,6
"377","669aabcd5c4869b3bb6d7761","kitten","calibrator","Valence",1727875203399,"positive",943,"negative","positive","negative;positive","B",6.84906628263346,7
"378","669aabcd5c4869b3bb6d7761","jail","calibrator","Valence",1727875205418,"negative",1266,"negative","positive","negative;positive","B",7.14361760270412,8
"379","669aabcd5c4869b3bb6d7761","joke","calibrator","Valence",1727875207058,"positive",883,"negative","positive","negative;positive","B",6.78332520060396,9
"380","669aabcd5c4869b3bb6d7761","insecure","calibrator","Valence",1727875209114,"negative",1302,"negative","positive","negative;positive","B",7.17165682276851,10
"381","66bef996f4ce588e8bfabdc1","whistle","calibrator","Semantic",1727861633114,"concrete",7702,"abstract","concrete","abstract;concrete","A",8.94923531437485,1
"382","66bef996f4ce588e8bfabdc1","grasshopper","calibrator","Semantic",1727861635758,"concrete",1872,"abstract","concrete","abstract;concrete","A",7.53476265703754,2
"383","66bef996f4ce588e8bfabdc1","infinity","calibrator","Semantic",1727861638199,"abstract",1666,"abstract","concrete","abstract;concrete","A",7.41818082272679,3
"384","66bef996f4ce588e8bfabdc1","marriage","calibrator","Semantic",1727861643229,"abstract",4257,"abstract","concrete","abstract;concrete","A",8.35631996582815,4
"385","66bef996f4ce588e8bfabdc1","gas","calibrator","Semantic",1727861646021,"concrete",2024,"abstract","concrete","abstract;concrete","A",7.61283103040736,5
"386","66bef996f4ce588e8bfabdc1","shirt","calibrator","Semantic",1727861647749,"concrete",959,"abstract","concrete","abstract;concrete","A",6.86589107488344,6
"387","66bef996f4ce588e8bfabdc1","kick","calibrator","Semantic",1727861650197,"concrete",1673,"abstract","concrete","abstract;concrete","A",7.42237370098682,7
"388","66bef996f4ce588e8bfabdc1","polite","calibrator","Semantic",1727861652170,"abstract",1203,"abstract","concrete","abstract;concrete","A",7.09257371597468,8
"389","66bef996f4ce588e8bfabdc1","theory","calibrator","Semantic",1727861653994,"abstract",1059,"abstract","concrete","abstract;concrete","A",6.96508034560141,9
"390","66bef996f4ce588e8bfabdc1","sugar","calibrator","Semantic",1727861655923,"concrete",1152,"abstract","concrete","abstract;concrete","A",7.04925484125584,10
"391","66fc915542b801f3398f5437","jail","calibrator","Valence",1727876302491,"negative",3782,"negative","positive","negative;positive","B",8.2380082492184,1
"392","66fc915542b801f3398f5437","industry","calibrator","Valence",1727876306893,"positive",3645,"negative","positive","negative;positive","B",8.20111164444276,2
"393","66fc915542b801f3398f5437","joke","calibrator","Valence",1727876308723,"positive",1073,"negative","positive","negative;positive","B",6.9782137426307,3
"394","66fc915542b801f3398f5437","free","calibrator","Valence",1727876310821,"positive",1338,"negative","positive","negative;positive","B",7.19893124068817,4
"395","66fc915542b801f3398f5437","invader","calibrator","Valence",1727876312576,"negative",995,"negative","positive","negative;positive","B",6.90274273715859,5
"396","66fc915542b801f3398f5437","hat","calibrator","Valence",1727876314732,"positive",1395,"negative","positive","negative;positive","B",7.24064969425547,6
"397","66fc915542b801f3398f5437","icebox","calibrator","Valence",1727876316240,"positive",751,"negative","positive","negative;positive","B",6.62140565176413,7
"398","66fc915542b801f3398f5437","grin","calibrator","Valence",1727876317822,"positive",823,"negative","positive","negative;positive","B",6.71295620067707,8
"399","66fc915542b801f3398f5437","insecure","calibrator","Valence",1727876319894,"positive",1316,"negative","positive","negative;positive","B",7.18235211188526,9
"400","66fc915542b801f3398f5437","kitten","calibrator","Valence",1727876323239,"positive",2585,"negative","positive","negative;positive","B",7.85748078694253,10
