"","ID.true","Word","Label","ConcValCombo","Task","Group","Response","Accuracy","EventTime","Value","RT","ReactionTime","Key_value_F","Key_value_J","Comments","LogReactionTime","LogRT","TrialNumber"
"1","5fb9eb323531776e460fe5e0","bathe","test","abstract-positive","Valence","positive","positive",1,1727876663724,"positive",2851,2083,"abstract-positive","negative","negative;positive",7.64156444126097,7.95542508891267,1
"2","5fb9eb323531776e460fe5e0","justify","test","concrete-positive","Valence","positive","negative",0,1727876666349,"negative",2623,1865,"concrete-positive","negative","negative;positive",7.53101633207792,7.87207397986687,2
"3","5fb9eb323531776e460fe5e0","disappoint","test","concrete-negative","Valence","positive","negative",1,1727876668011,"negative",1658,903,"concrete-negative","negative","negative;positive",6.80572255341699,7.41336733569524,3
"4","5fb9eb323531776e460fe5e0","fall","test","abstract-negative","Valence","positive","negative",1,1727876669891,"negative",1877,1115,"abstract-negative","negative","negative;positive",7.01660968389422,7.53743003658651,4
"5","5fb9eb323531776e460fe5e0","lick","test","abstract-positive","Valence","positive","positive",1,1727876672324,"positive",2431,1668,"abstract-positive","negative","negative;positive",7.41938058291869,7.79605797431612,5
"6","5fb9eb323531776e460fe5e0","whip","test","abstract-negative","Valence","positive","negative",1,1727876674790,"negative",2464,1693,"abstract-negative","negative","negative;positive",7.43425738213314,7.80954132465341,6
"7","5fb9eb323531776e460fe5e0","sail","test","abstract-positive","Valence","positive","positive",1,1727876677299,"positive",2507,1744,"abstract-positive","negative","negative;positive",7.46393660446893,7.82684209815829,7
"8","5fb9eb323531776e460fe5e0","snore","test","abstract-negative","Valence","positive","negative",1,1727876679118,"negative",1817,1044,"abstract-negative","negative","negative;positive",6.95081476844258,7.50494206839617,8
"9","5fb9eb323531776e460fe5e0","forgive","test","concrete-positive","Valence","positive","positive",1,1727876682155,"positive",3035,2277,"concrete-positive","negative","negative;positive",7.73061406606374,8.0179667034936,9
"10","5fb9eb323531776e460fe5e0","drool","test","abstract-negative","Valence","positive","negative",1,1727876684114,"negative",1953,1186,"abstract-negative","negative","negative;positive",7.07834157955767,7.57712193087668,10
"11","5fb9eb323531776e460fe5e0","laugh","test","abstract-positive","Valence","positive","positive",1,1727876685532,"positive",1415,658,"abstract-positive","negative","negative;positive",6.48920493132532,7.25488481007734,11
"12","5fb9eb323531776e460fe5e0","hurl","test","abstract-negative","Valence","positive","negative",1,1727876687556,"negative",2020,1254,"abstract-negative","negative","negative;positive",7.13409372119287,7.61085279039525,12
"13","5fb9eb323531776e460fe5e0","sing","test","abstract-positive","Valence","positive","positive",1,1727876689281,"positive",1721,959,"abstract-positive","negative","negative;positive",6.86589107488344,7.45066079621154,13
"14","5fb9eb323531776e460fe5e0","running","test","abstract-positive","Valence","positive","negative",0,1727876691362,"negative",2079,1310,"abstract-positive","negative","negative;positive",7.1777824161952,7.63964228785801,14
"15","5fb9eb323531776e460fe5e0","distrust","test","concrete-negative","Valence","positive","negative",1,1727876693344,"negative",1979,1220,"concrete-negative","negative","negative;positive",7.1066061377273,7.59034694560257,15
"16","5fb9eb323531776e460fe5e0","discourage","test","concrete-negative","Valence","positive","negative",1,1727876694841,"negative",1493,722,"concrete-negative","negative","negative;positive",6.58202513889283,7.30854279753919,16
"17","5fb9eb323531776e460fe5e0","talk","test","abstract-positive","Valence","positive","positive",1,1727876696425,"positive",1582,810,"abstract-positive","negative","negative;positive",6.69703424766648,7.3664451483276,17
"18","5fb9eb323531776e460fe5e0","check","test","abstract-positive","Valence","positive","positive",1,1727876698689,"positive",2260,1498,"abstract-positive","negative","negative;positive",7.31188616407716,7.72312009226633,18
"19","5fb9eb323531776e460fe5e0","wish","test","concrete-positive","Valence","positive","positive",1,1727876700714,"positive",2024,1258,"concrete-positive","negative","negative;positive",7.13727843726039,7.61283103040736,19
"20","5fb9eb323531776e460fe5e0","meth","test","abstract-negative","Valence","positive","negative",1,1727876702654,"negative",1936,1172,"abstract-negative","negative","negative;positive",7.06646697013696,7.56837926783652,20
"21","5fb9eb323531776e460fe5e0","caress","test","abstract-positive","Valence","positive","positive",1,1727876704640,"positive",1984,1220,"abstract-positive","negative","negative;positive",7.1066061377273,7.59287028784482,21
"22","5fb9eb323531776e460fe5e0","frown","test","abstract-negative","Valence","positive","negative",1,1727876706276,"negative",1634,879,"abstract-negative","negative","negative;positive",6.77878489768518,7.39878627541995,22
"23","5fb9eb323531776e460fe5e0","befall","test","concrete-negative","Valence","positive","negative",1,1727876708320,"negative",2042,1281,"concrete-negative","negative","negative;positive",7.15539630189673,7.62168499872461,23
"24","5fb9eb323531776e460fe5e0","violate","test","concrete-negative","Valence","positive","negative",1,1727876709919,"negative",1596,825,"concrete-negative","negative","negative;positive",6.71538338633468,7.37525577800975,24
"25","5fb9eb323531776e460fe5e0","envy","test","concrete-negative","Valence","positive","positive",0,1727876711482,"positive",1560,803,"concrete-negative","negative","negative;positive",6.68835471394676,7.35244110024358,25
"26","5fb9eb323531776e460fe5e0","exploit","test","concrete-negative","Valence","positive","negative",1,1727876713361,"negative",1876,1109,"concrete-negative","negative","negative;positive",7.01121398735037,7.53689712956617,26
"27","5fb9eb323531776e460fe5e0","consider","test","concrete-positive","Valence","positive","positive",1,1727876715347,"positive",1983,1228,"concrete-positive","negative","negative;positive",7.11314210870709,7.5923661285198,27
"28","5fb9eb323531776e460fe5e0","beware","test","concrete-negative","Valence","positive","negative",1,1727876716843,"negative",1494,725,"concrete-negative","negative","negative;positive",6.58617165485467,7.30921236569276,28
"29","5fb9eb323531776e460fe5e0","breathe","test","abstract-positive","Valence","positive","positive",1,1727876718425,"positive",1579,820,"abstract-positive","negative","negative;positive",6.7093043402583,7.36454701425564,29
"30","5fb9eb323531776e460fe5e0","presume","test","concrete-negative","Valence","positive","negative",1,1727876721273,"negative",2845,2083,"concrete-negative","negative","negative;positive",7.64156444126097,7.95331834656043,30
"31","5fb9eb323531776e460fe5e0","improve","test","concrete-positive","Valence","positive","positive",1,1727876722937,"positive",1661,902,"concrete-positive","negative","negative;positive",6.80461452006262,7.41517510961329,31
"32","5fb9eb323531776e460fe5e0","behold","test","concrete-positive","Valence","positive","positive",1,1727876725424,"positive",2485,1715,"concrete-positive","negative","negative;positive",7.44716835960004,7.81802793853073,32
"33","5fb9eb323531776e460fe5e0","smack","test","abstract-negative","Valence","positive","negative",1,1727876727020,"negative",1594,822,"abstract-negative","negative","negative;positive",6.71174039505618,7.37400185935016,33
"34","5fb9eb323531776e460fe5e0","impose","test","concrete-negative","Valence","positive","negative",1,1727876729286,"negative",2263,1496,"concrete-negative","negative","negative;positive",7.31055015853442,7.72444664563354,34
"35","5fb9eb323531776e460fe5e0","qualify","test","concrete-positive","Valence","positive","positive",1,1727876731252,"positive",1963,1193,"concrete-positive","negative","negative;positive",7.08422642209792,7.58222919427646,35
"36","5fb9eb323531776e460fe5e0","crank","test","abstract-negative","Valence","positive","negative",1,1727876733188,"negative",1934,1168,"abstract-negative","negative","negative;positive",7.06304816338817,7.56734567601324,36
"37","5fb9eb323531776e460fe5e0","hope","test","concrete-positive","Valence","positive","positive",1,1727876734693,"positive",1504,746,"concrete-positive","negative","negative;positive",6.61472560020376,7.31588350450979,37
"38","5fb9eb323531776e460fe5e0","specialize","test","concrete-positive","Valence","positive","positive",1,1727876736351,"positive",1656,892,"concrete-positive","negative","negative;positive",6.79346613258001,7.4121603349452,38
"39","5fb9eb323531776e460fe5e0","crushed","test","abstract-negative","Valence","positive","negative",1,1727876738614,"negative",2260,1491,"abstract-negative","negative","negative;positive",7.30720231476474,7.72312009226633,39
"40","5fb9eb323531776e460fe5e0","feeling","test","concrete-positive","Valence","positive","positive",1,1727876740457,"positive",1839,1076,"concrete-positive","negative","negative;positive",6.98100574072173,7.51697722460432,40
"41","5c205371da51990001e17313","feeling","test","concrete-positive","Valence","positive","positive",1,1727875885400,"positive",1796,1038,"concrete-positive","negative","negative;positive",6.94505106372583,7.49331724886215,1
"42","5c205371da51990001e17313","caress","test","abstract-positive","Valence","positive","positive",1,1727875886952,"positive",1546,789,"abstract-positive","negative","negative;positive",6.67076632084587,7.34342622914737,2
"43","5c205371da51990001e17313","crushed","test","abstract-negative","Valence","positive","negative",1,1727875888375,"negative",1417,658,"abstract-negative","negative","negative;positive",6.48920493132532,7.25629723969068,3
"44","5c205371da51990001e17313","drool","test","abstract-negative","Valence","positive","negative",1,1727875889719,"negative",1338,585,"abstract-negative","negative","negative;positive",6.37161184723186,7.19893124068817,4
"45","5c205371da51990001e17313","frown","test","abstract-negative","Valence","positive","negative",1,1727875890975,"negative",1250,487,"abstract-negative","negative","negative;positive",6.18826412308259,7.13089883029635,5
"46","5c205371da51990001e17313","behold","test","concrete-positive","Valence","positive","positive",1,1727875892895,"positive",1914,1149,"concrete-positive","negative","negative;positive",7.04664727784876,7.5569505720129,6
"47","5c205371da51990001e17313","consider","test","concrete-positive","Valence","positive","positive",1,1727875896204,"positive",3303,2545,"concrete-positive","negative","negative;positive",7.84188592898462,8.10258642539079,7
"48","5c205371da51990001e17313","hurl","test","abstract-negative","Valence","positive","negative",1,1727875898133,"negative",1923,1166,"abstract-negative","negative","negative;positive",7.06133436691044,7.56164174558878,8
"49","5c205371da51990001e17313","bathe","test","abstract-positive","Valence","positive","positive",1,1727875899633,"positive",1495,729,"abstract-positive","negative","negative;positive",6.59167373200866,7.30988148582479,9
"50","5c205371da51990001e17313","violate","test","concrete-negative","Valence","positive","negative",1,1727875901115,"negative",1476,711,"concrete-negative","negative","negative;positive",6.56667242980324,7.29709100516042,10
"51","5c205371da51990001e17313","lick","test","abstract-positive","Valence","positive","negative",0,1727875902677,"negative",1556,799,"abstract-positive","negative","negative;positive",6.68336094576627,7.34987370473834,11
"52","5c205371da51990001e17313","envy","test","concrete-negative","Valence","positive","negative",1,1727875904147,"negative",1462.5,699,"concrete-negative","negative","negative;positive",6.54965074223381,7.28790257910601,12
"53","5c205371da51990001e17313","disappoint","test","concrete-negative","Valence","positive","negative",1,1727875905571,"negative",1417,656,"concrete-negative","negative","negative;positive",6.48616078894409,7.25629723969068,13
"54","5c205371da51990001e17313","hope","test","concrete-positive","Valence","positive","positive",1,1727875907037,"positive",1460,703,"concrete-positive","negative","negative;positive",6.55535689181067,7.28619171470238,14
"55","5c205371da51990001e17313","befall","test","concrete-negative","Valence","positive","negative",1,1727875908525,"negative",1482,725,"concrete-negative","negative","negative;positive",6.58617165485467,7.30114780585603,15
"56","5c205371da51990001e17313","laugh","test","abstract-positive","Valence","positive","positive",1,1727875909750,"positive",1219,465,"abstract-positive","negative","negative;positive",6.14203740558736,7.10578612948127,16
"57","5c205371da51990001e17313","fall","test","abstract-negative","Valence","positive","negative",1,1727875911094,"negative",1338,582,"abstract-negative","negative","negative;positive",6.36647044773144,7.19893124068817,17
"58","5c205371da51990001e17313","check","test","abstract-positive","Valence","positive","positive",1,1727875912718,"positive",1618,856,"abstract-positive","negative","negative;positive",6.75227037614174,7.38894609761844,18
"59","5c205371da51990001e17313","beware","test","concrete-negative","Valence","positive","negative",1,1727875914059,"negative",1335,571,"concrete-negative","negative","negative;positive",6.34738920965601,7.19668657083435,19
"60","5c205371da51990001e17313","presume","test","concrete-negative","Valence","positive","negative",1,1727875915837,"negative",1772,1011,"concrete-negative","negative","negative;positive",6.91869521902047,7.47986413116503,20
"61","5c205371da51990001e17313","forgive","test","concrete-positive","Valence","positive","positive",1,1727875917495,"positive",1652,894,"concrete-positive","negative","negative;positive",6.79570577517351,7.40974195408092,21
"62","5c205371da51990001e17313","exploit","test","concrete-negative","Valence","positive","negative",1,1727875919064,"negative",1563,801,"concrete-negative","negative","negative;positive",6.68586094706836,7.35436233042148,22
"63","5c205371da51990001e17313","qualify","test","concrete-positive","Valence","positive","positive",1,1727875920696,"positive",1627,873,"concrete-positive","negative","negative;positive",6.7719355558396,7.39449310721904,23
"64","5c205371da51990001e17313","specialize","test","concrete-positive","Valence","positive","positive",1,1727875922111,"positive",1409,649,"concrete-positive","negative","negative;positive",6.47543271670409,7.25063551189868,24
"65","5c205371da51990001e17313","sing","test","abstract-positive","Valence","positive","positive",1,1727875923869,"positive",1752,987,"abstract-positive","negative","negative;positive",6.89467003943348,7.46851327149634,25
"66","5c205371da51990001e17313","meth","test","abstract-negative","Valence","positive","negative",1,1727875925974,"negative",2099,1337,"abstract-negative","negative","negative;positive",7.19818357710194,7.64921631982063,26
"67","5c205371da51990001e17313","snore","test","abstract-negative","Valence","positive","negative",1,1727875927470,"negative",1490,735,"abstract-negative","negative","negative;positive",6.59987049921284,7.30653139893951,27
"68","5c205371da51990001e17313","whip","test","abstract-negative","Valence","positive","negative",1,1727875928735,"negative",1259,496,"abstract-negative","negative","negative;positive",6.20657592672493,7.13807303404435,28
"69","5c205371da51990001e17313","improve","test","concrete-positive","Valence","positive","positive",1,1727875930195,"positive",1454,691,"concrete-positive","negative","negative;positive",6.53813982376767,7.28207365809346,29
"70","5c205371da51990001e17313","running","test","abstract-positive","Valence","positive","positive",1,1727875931635,"positive",1434,676,"abstract-positive","negative","negative;positive",6.51619307604296,7.26822302115957,30
"71","5c205371da51990001e17313","impose","test","concrete-negative","Valence","positive","negative",1,1727875933161,"negative",1520,767,"concrete-negative","negative","negative;positive",6.64248680136726,7.32646561384032,31
"72","5c205371da51990001e17313","crank","test","abstract-negative","Valence","positive","negative",1,1727875934454,"negative",1287,523,"abstract-negative","negative","negative;positive",6.25958146406492,7.16006920759613,32
"73","5c205371da51990001e17313","discourage","test","concrete-negative","Valence","positive","negative",1,1727875935720,"negative",1260,498,"concrete-negative","negative","negative;positive",6.21060007702465,7.13886699994552,33
"74","5c205371da51990001e17313","smack","test","abstract-negative","Valence","positive","negative",1,1727875937341,"negative",1615,857,"abstract-negative","negative","negative;positive",6.75343791859778,7.38709023565676,34
"75","5c205371da51990001e17313","talk","test","abstract-positive","Valence","positive","positive",1,1727875939107,"positive",1760,996,"abstract-positive","negative","negative;positive",6.9037472575846,7.4730690880322,35
"76","5c205371da51990001e17313","wish","test","concrete-positive","Valence","positive","positive",1,1727875940316,"positive",1203,447,"concrete-positive","negative","negative;positive",6.10255859461357,7.09257371597468,36
"77","5c205371da51990001e17313","distrust","test","concrete-negative","Valence","positive","negative",1,1727875941666,"negative",1344,585,"concrete-negative","negative","negative;positive",6.37161184723186,7.20340552108309,37
"78","5c205371da51990001e17313","justify","test","concrete-positive","Valence","positive","negative",0,1727875943028,"negative",1355,597,"concrete-positive","negative","negative;positive",6.3919171133926,7.2115567333138,38
"79","5c205371da51990001e17313","sail","test","abstract-positive","Valence","positive","positive",1,1727875944637,"positive",1603,839,"abstract-positive","negative","negative;positive",6.73221070646721,7.37963215260955,39
"80","5c205371da51990001e17313","breathe","test","abstract-positive","Valence","positive","positive",1,1727875946388,"positive",1745,986,"abstract-positive","negative","negative;positive",6.89365635460264,7.46450983463653,40
"81","63f779382e81070cd6f77b5e","presume","test","concrete-negative","Valence","positive","negative",1,1727879477333,"negative",2987,2228,"concrete-negative","negative","negative;positive",7.70885960104718,8.00202481821611,1
"82","63f779382e81070cd6f77b5e","qualify","test","concrete-positive","Valence","positive","positive",1,1727879478935,"positive",1598,839,"concrete-positive","negative","negative;positive",6.73221070646721,7.37650812632622,2
"83","63f779382e81070cd6f77b5e","breathe","test","abstract-positive","Valence","positive","positive",1,1727879480182,"positive",1243,489,"abstract-positive","negative","negative;positive",6.19236248947487,7.12528309151071,3
"84","63f779382e81070cd6f77b5e","crushed","test","abstract-negative","Valence","positive","negative",1,1727879481816,"negative",1630,872,"abstract-negative","negative","negative;positive",6.77078942390898,7.39633529380081,4
"85","63f779382e81070cd6f77b5e","impose","test","concrete-negative","Valence","positive","negative",1,1727879483512,"negative",1694,938,"concrete-negative","negative","negative;positive",6.84374994900622,7.434847875212,5
"86","63f779382e81070cd6f77b5e","sing","test","abstract-positive","Valence","positive","positive",1,1727879485118,"positive",1602,845,"abstract-positive","negative","negative;positive",6.73933662735717,7.3790081276283,6
"87","63f779382e81070cd6f77b5e","specialize","test","concrete-positive","Valence","positive","positive",1,1727879486481,"positive",1358,602,"concrete-positive","negative","negative;positive",6.40025744530882,7.21376830811864,7
"88","63f779382e81070cd6f77b5e","snore","test","abstract-negative","Valence","positive","negative",1,1727879487706,"negative",1223,469,"abstract-negative","negative","negative;positive",6.15060276844628,7.10906213568717,8
"89","63f779382e81070cd6f77b5e","laugh","test","abstract-positive","Valence","positive","positive",1,1727879489045,"positive",1335,579,"abstract-positive","negative","negative;positive",6.361302477573,7.19668657083435,9
"90","63f779382e81070cd6f77b5e","lick","test","abstract-positive","Valence","positive","positive",1,1727879492179,"positive",3130,2373,"abstract-positive","negative","negative;positive",7.77191025643576,8.0487882835342,10
"91","63f779382e81070cd6f77b5e","talk","test","abstract-positive","Valence","positive","positive",1,1727879493561,"positive",1380,625,"abstract-positive","negative","negative;positive",6.4377516497364,7.22983877815125,11
"92","63f779382e81070cd6f77b5e","distrust","test","concrete-negative","Valence","positive","negative",1,1727879495145,"negative",1581,828,"concrete-negative","negative","negative;positive",6.71901315438526,7.36581283720947,12
"93","63f779382e81070cd6f77b5e","hurl","test","abstract-negative","Valence","positive","negative",1,1727879497093,"negative",1944,1190,"abstract-negative","negative","negative;positive",7.08170858610557,7.57250298502038,13
"94","63f779382e81070cd6f77b5e","hope","test","concrete-positive","Valence","positive","positive",1,1727879498398,"positive",1302,547,"concrete-positive","negative","negative;positive",6.30444880242198,7.17165682276851,14
"95","63f779382e81070cd6f77b5e","envy","test","concrete-negative","Valence","positive","negative",1,1727879499834,"negative",1434,678,"concrete-negative","negative","negative;positive",6.5191472879404,7.26822302115957,15
"96","63f779382e81070cd6f77b5e","sail","test","abstract-positive","Valence","positive","positive",1,1727879501673,"positive",1837,1081,"abstract-positive","negative","negative;positive",6.98564181763921,7.51588908521513,16
"97","63f779382e81070cd6f77b5e","befall","test","concrete-negative","Valence","positive","negative",1,1727879504101,"negative",2424,1670,"concrete-negative","negative","negative;positive",7.4205789054108,7.7931743471892,17
"98","63f779382e81070cd6f77b5e","frown","test","abstract-negative","Valence","positive","negative",1,1727879505766,"negative",1661,906,"abstract-negative","negative","negative;positive",6.80903930604298,7.41517510961329,18
"99","63f779382e81070cd6f77b5e","bathe","test","abstract-positive","Valence","positive","positive",1,1727879507581,"positive",1811,1053,"abstract-positive","negative","negative;positive",6.95939851213398,7.50163445788341,19
"100","63f779382e81070cd6f77b5e","improve","test","concrete-positive","Valence","positive","positive",1,1727879509227,"positive",1641,884,"concrete-positive","negative","negative;positive",6.78445706263764,7.40306109109009,20
"101","63f779382e81070cd6f77b5e","meth","test","abstract-negative","Valence","positive","negative",1,1727879510824,"negative",1593,841,"abstract-negative","negative","negative;positive",6.73459165997295,7.37337430991005,21
"102","63f779382e81070cd6f77b5e","beware","test","concrete-negative","Valence","positive","negative",1,1727879512235,"negative",1398,636,"concrete-negative","negative","negative;positive",6.45519856334012,7.24279792279376,22
"103","63f779382e81070cd6f77b5e","violate","test","concrete-negative","Valence","positive","negative",1,1727879513480,"negative",1240,479,"concrete-negative","negative","negative;positive",6.17170059741091,7.12286665859908,23
"104","63f779382e81070cd6f77b5e","discourage","test","concrete-negative","Valence","positive","negative",1,1727879514682,"negative",1198,440,"concrete-negative","negative","negative;positive",6.08677472691231,7.08840877867539,24
"105","63f779382e81070cd6f77b5e","smack","test","abstract-negative","Valence","positive","negative",1,1727879515973,"negative",1290,530,"abstract-negative","negative","negative;positive",6.27287700654617,7.16239749735572,25
"106","63f779382e81070cd6f77b5e","whip","test","abstract-negative","Valence","positive","negative",1,1727879517398,"negative",1420,662,"abstract-negative","negative","negative;positive",6.49526555593701,7.25841215059531,26
"107","63f779382e81070cd6f77b5e","behold","test","concrete-positive","Valence","positive","positive",1,1727879519207,"positive",1804,1052,"concrete-positive","negative","negative;positive",6.95844839329766,7.49776170062257,27
"108","63f779382e81070cd6f77b5e","wish","test","concrete-positive","Valence","positive","positive",1,1727879520583,"positive",1371,612,"concrete-positive","negative","negative;positive",6.41673228251233,7.22329567956231,28
"109","63f779382e81070cd6f77b5e","check","test","abstract-positive","Valence","positive","positive",1,1727879522148,"positive",1561,801,"abstract-positive","negative","negative;positive",6.68586094706836,7.35308192051543,29
"110","63f779382e81070cd6f77b5e","running","test","abstract-positive","Valence","positive","positive",1,1727879523480,"positive",1328,573,"abstract-positive","negative","negative;positive",6.35088571671474,7.19142933003638,30
"111","63f779382e81070cd6f77b5e","caress","test","abstract-positive","Valence","positive","positive",1,1727879525042,"positive",1558,801,"abstract-positive","negative","negative;positive",6.68586094706836,7.35115822643069,31
"112","63f779382e81070cd6f77b5e","consider","test","concrete-positive","Valence","positive","positive",1,1727879526712,"positive",1666,907,"concrete-positive","negative","negative;positive",6.81014245011514,7.41818082272679,32
"113","63f779382e81070cd6f77b5e","drool","test","abstract-negative","Valence","positive","negative",1,1727879528108,"negative",1392,637,"abstract-negative","negative","negative;positive",6.45676965557216,7.23849684089437,33
"114","63f779382e81070cd6f77b5e","feeling","test","concrete-positive","Valence","positive","positive",1,1727879529977,"positive",1867,1107,"concrete-positive","negative","negative;positive",7.00940893270864,7.53208814354172,34
"115","63f779382e81070cd6f77b5e","crank","test","abstract-negative","Valence","positive","negative",1,1727879531206,"negative",1225,472,"abstract-negative","negative","negative;positive",6.15697898558556,7.11069612297883,35
"116","63f779382e81070cd6f77b5e","justify","test","concrete-positive","Valence","positive","negative",0,1727879534087,"negative",2876,2120,"concrete-positive","negative","negative;positive",7.65917136766606,7.96415571884094,36
"117","63f779382e81070cd6f77b5e","disappoint","test","concrete-negative","Valence","positive","negative",1,1727879535539,"negative",1449,694,"concrete-negative","negative","negative;positive",6.5424719605068,7.27862894232068,37
"118","63f779382e81070cd6f77b5e","exploit","test","concrete-negative","Valence","positive","negative",1,1727879536896,"negative",1353,596,"concrete-negative","negative","negative;positive",6.39024066706535,7.21007962817079,38
"119","63f779382e81070cd6f77b5e","fall","test","abstract-negative","Valence","positive","negative",1,1727879538988,"negative",2088,1330,"abstract-negative","negative","negative;positive",7.1929342212158,7.64396194900253,39
"120","63f779382e81070cd6f77b5e","forgive","test","concrete-positive","Valence","positive","positive",1,1727879540559,"positive",1567,809,"concrete-positive","negative","negative;positive",6.69579891705849,7.35691824235602,40
"121","5de985cf1be52f0a75357332","lick","test","abstract-positive","Semantic","concrete","abstract",1,1727861657129,"abstract",1766,1014,"abstract-positive","abstract","concrete;abstract",6.92165818415113,7.47647238116391,1
"122","5de985cf1be52f0a75357332","justify","test","concrete-positive","Semantic","concrete","concrete",1,1727861658726,"concrete",1596,845,"concrete-positive","abstract","concrete;abstract",6.73933662735717,7.37525577800975,2
"123","5de985cf1be52f0a75357332","consider","test","concrete-positive","Semantic","concrete","concrete",1,1727861660400,"concrete",1673,915,"concrete-positive","abstract","concrete;abstract",6.81892406527552,7.42237370098682,3
"124","5de985cf1be52f0a75357332","discourage","test","concrete-negative","Semantic","concrete","concrete",1,1727861662401,"concrete",1999,1242,"concrete-negative","abstract","concrete;abstract",7.12447826249342,7.6004023345004,4
"125","5de985cf1be52f0a75357332","disappoint","test","concrete-negative","Semantic","concrete","concrete",1,1727861664322,"concrete",1920,1166,"concrete-negative","abstract","concrete;abstract",7.06133436691044,7.56008046502183,5
"126","5de985cf1be52f0a75357332","wish","test","concrete-positive","Semantic","concrete","concrete",1,1727861666661,"concrete",2338,1581,"concrete-positive","abstract","concrete;abstract",7.36581283720947,7.75705114203201,6
"127","5de985cf1be52f0a75357332","whip","test","abstract-negative","Semantic","concrete","concrete",0,1727861669032,"concrete",2370,1615,"abstract-negative","abstract","concrete;abstract",7.38709023565676,7.77064523412918,7
"128","5de985cf1be52f0a75357332","laugh","test","abstract-positive","Semantic","concrete","abstract",1,1727861671052,"abstract",2019,1261,"abstract-positive","abstract","concrete;abstract",7.13966033596492,7.61035761831284,8
"129","5de985cf1be52f0a75357332","exploit","test","concrete-negative","Semantic","concrete","concrete",1,1727861673796,"concrete",2743,1988,"concrete-negative","abstract","concrete;abstract",7.59488438721652,7.9168074909376,9
"130","5de985cf1be52f0a75357332","crushed","test","abstract-negative","Semantic","concrete","abstract",1,1727861675675,"abstract",1877,1125,"abstract-negative","abstract","concrete;abstract",7.02553831463852,7.53743003658651,10
"131","5de985cf1be52f0a75357332","specialize","test","concrete-positive","Semantic","concrete","concrete",1,1727861677965,"concrete",2289,1537,"concrete-positive","abstract","concrete;abstract",7.3375877435386,7.73587031995257,11
"132","5de985cf1be52f0a75357332","snore","test","abstract-negative","Semantic","concrete","abstract",1,1727861679743,"abstract",1777,1020,"abstract-negative","abstract","concrete;abstract",6.92755790627832,7.48268182815465,12
"133","5de985cf1be52f0a75357332","hurl","test","abstract-negative","Semantic","concrete","abstract",1,1727861682064,"abstract",2320,1563,"abstract-negative","abstract","concrete;abstract",7.35436233042148,7.74932246466036,13
"134","5de985cf1be52f0a75357332","befall","test","concrete-negative","Semantic","concrete","abstract",0,1727861683947,"abstract",1881,1128,"concrete-negative","abstract","concrete;abstract",7.028201432058,7.53955882930103,14
"135","5de985cf1be52f0a75357332","caress","test","abstract-positive","Semantic","concrete","concrete",0,1727861685954,"concrete",2006,1251,"abstract-positive","abstract","concrete;abstract",7.13169851046691,7.60389796852188,15
"136","5de985cf1be52f0a75357332","sail","test","abstract-positive","Semantic","concrete","abstract",1,1727861687899,"abstract",1943,1188,"abstract-positive","abstract","concrete;abstract",7.08002649992259,7.57198844937744,16
"137","5de985cf1be52f0a75357332","bathe","test","abstract-positive","Semantic","concrete","abstract",1,1727861689982,"abstract",2080,1324,"abstract-positive","abstract","concrete;abstract",7.18841273649695,7.64012317269536,17
"138","5de985cf1be52f0a75357332","crank","test","abstract-negative","Semantic","concrete","abstract",1,1727861692448,"abstract",2465,1711,"abstract-negative","abstract","concrete;abstract",7.44483327389219,7.80994708647679,18
"139","5de985cf1be52f0a75357332","feeling","test","concrete-positive","Semantic","concrete","concrete",1,1727861694006,"concrete",1557,801,"concrete-positive","abstract","concrete;abstract",6.68586094706836,7.350516171834,19
"140","5de985cf1be52f0a75357332","hope","test","concrete-positive","Semantic","concrete","concrete",1,1727861695834,"concrete",1827,1072,"concrete-positive","abstract","concrete;abstract",6.97728134163075,7.51043055637801,20
"141","5de985cf1be52f0a75357332","presume","test","concrete-negative","Semantic","concrete","concrete",1,1727861697783,"concrete",1948,1194,"concrete-negative","abstract","concrete;abstract",7.08506429395255,7.57455848420248,21
"142","5de985cf1be52f0a75357332","frown","test","abstract-negative","Semantic","concrete","abstract",1,1727861699518,"abstract",1734,980,"abstract-negative","abstract","concrete;abstract",6.88755257166462,7.45818615734049,22
"143","5de985cf1be52f0a75357332","running","test","abstract-positive","Semantic","concrete","abstract",1,1727861701332,"abstract",1812,1056,"abstract-positive","abstract","concrete;abstract",6.96224346426621,7.50218648660292,23
"144","5de985cf1be52f0a75357332","drool","test","abstract-negative","Semantic","concrete","abstract",1,1727861703172,"abstract",1838,1084,"abstract-negative","abstract","concrete;abstract",6.98841318199959,7.51643330291563,24
"145","5de985cf1be52f0a75357332","violate","test","concrete-negative","Semantic","concrete","concrete",1,1727861705125,"concrete",1952,1199,"concrete-negative","abstract","concrete;abstract",7.08924315502751,7.57660976697304,25
"146","5de985cf1be52f0a75357332","beware","test","concrete-negative","Semantic","concrete","concrete",1,1727861706925,"concrete",1798,1046,"concrete-negative","abstract","concrete;abstract",6.95272864462487,7.49443021503157,26
"147","5de985cf1be52f0a75357332","behold","test","concrete-positive","Semantic","concrete","abstract",0,1727861708823,"abstract",1897,1143,"concrete-positive","abstract","concrete;abstract",7.04141166379481,7.54802896993501,27
"148","5de985cf1be52f0a75357332","impose","test","concrete-negative","Semantic","concrete","abstract",0,1727861710821,"abstract",1997,1247,"concrete-negative","abstract","concrete;abstract",7.12849594568004,7.59940133341582,28
"149","5de985cf1be52f0a75357332","forgive","test","concrete-positive","Semantic","concrete","concrete",1,1727861713448,"concrete",2625,1872,"concrete-positive","abstract","concrete;abstract",7.53476265703754,7.87283617502572,29
"150","5de985cf1be52f0a75357332","envy","test","concrete-negative","Semantic","concrete","abstract",0,1727861715652,"abstract",2203,1448,"concrete-negative","abstract","concrete;abstract",7.27793857294566,7.69757534680234,30
"151","5de985cf1be52f0a75357332","sing","test","abstract-positive","Semantic","concrete","abstract",1,1727861717142,"abstract",1488,731,"abstract-positive","abstract","concrete;abstract",6.59441345974978,7.30518821539304,31
"152","5de985cf1be52f0a75357332","meth","test","abstract-negative","Semantic","concrete","abstract",1,1727861719320,"abstract",2177,1423,"abstract-negative","abstract","concrete;abstract",7.26052259808985,7.68570306123455,32
"153","5de985cf1be52f0a75357332","distrust","test","concrete-negative","Semantic","concrete","concrete",1,1727861720949,"concrete",1628,874,"concrete-negative","abstract","concrete;abstract",6.77308037565554,7.39510754656249,33
"154","5de985cf1be52f0a75357332","qualify","test","concrete-positive","Semantic","concrete","concrete",1,1727861722693,"concrete",1743,987,"concrete-positive","abstract","concrete;abstract",6.89467003943348,7.46336304552002,34
"155","5de985cf1be52f0a75357332","check","test","abstract-positive","Semantic","concrete","abstract",1,1727861725674,"abstract",2980,2224,"abstract-positive","abstract","concrete;abstract",7.70706265537047,7.99967857949945,35
"156","5de985cf1be52f0a75357332","talk","test","abstract-positive","Semantic","concrete","abstract",1,1727861727296,"abstract",1621,865,"abstract-positive","abstract","concrete;abstract",6.76272950693188,7.39079852173568,36
"157","5de985cf1be52f0a75357332","smack","test","abstract-negative","Semantic","concrete","abstract",1,1727861729055,"abstract",1758,1002,"abstract-negative","abstract","concrete;abstract",6.90975328164481,7.47193207824512,37
"158","5de985cf1be52f0a75357332","breathe","test","abstract-positive","Semantic","concrete","concrete",0,1727861731237,"concrete",2181,1427,"abstract-positive","abstract","concrete;abstract",7.26332961747684,7.68753876620163,38
"159","5de985cf1be52f0a75357332","improve","test","concrete-positive","Semantic","concrete","concrete",1,1727861733130,"concrete",1892,1137,"concrete-positive","abstract","concrete;abstract",7.03614849375054,7.54538974961182,39
"160","5de985cf1be52f0a75357332","fall","test","abstract-negative","Semantic","concrete","abstract",1,1727861734791,"abstract",1660,903,"abstract-negative","abstract","concrete;abstract",6.80572255341699,7.41457288135059,40
"161","66c9eb78c1a775cf07bbe72c","caress","test","abstract-positive","Valence","positive","negative",0,1727876020823,"negative",1630,873,"abstract-positive","negative","negative;positive",6.7719355558396,7.39633529380081,1
"162","66c9eb78c1a775cf07bbe72c","fall","test","abstract-negative","Valence","positive","positive",0,1727876022408,"positive",1584,828,"abstract-negative","negative","negative;positive",6.71901315438526,7.36770857237437,2
"163","66c9eb78c1a775cf07bbe72c","laugh","test","abstract-positive","Valence","positive","negative",0,1727876023912,"negative",1503,749,"abstract-positive","negative","negative;positive",6.61873898351722,7.31521838975297,3
"164","66c9eb78c1a775cf07bbe72c","crushed","test","abstract-negative","Valence","positive","positive",0,1727876025574,"positive",1661,905,"abstract-negative","negative","negative;positive",6.80793494369993,7.41517510961329,4
"165","66c9eb78c1a775cf07bbe72c","envy","test","concrete-negative","Valence","positive","positive",0,1727876027007,"positive",1432,680,"concrete-negative","negative","negative;positive",6.52209279817015,7.26682734752059,5
"166","66c9eb78c1a775cf07bbe72c","drool","test","abstract-negative","Valence","positive","positive",0,1727876028551,"positive",1543,789,"abstract-negative","negative","negative;positive",6.67076632084587,7.34148385236316,6
"167","66c9eb78c1a775cf07bbe72c","wish","test","concrete-positive","Valence","positive","negative",0,1727876030136,"negative",1584,829,"concrete-positive","negative","negative;positive",6.7202201551353,7.36770857237437,7
"168","66c9eb78c1a775cf07bbe72c","beware","test","concrete-negative","Valence","positive","positive",0,1727876031671,"positive",1534,779,"concrete-negative","negative","negative;positive",6.65801104587075,7.3356339819272,8
"169","66c9eb78c1a775cf07bbe72c","presume","test","concrete-negative","Valence","positive","negative",1,1727876033759,"negative",2087,1333,"concrete-negative","negative","negative;positive",7.19518732017871,7.6434829070772,9
"170","66c9eb78c1a775cf07bbe72c","meth","test","abstract-negative","Valence","positive","positive",0,1727876035367,"positive",1607,850,"abstract-negative","negative","negative;positive",6.74523634948436,7.38212436573751,10
"171","66c9eb78c1a775cf07bbe72c","forgive","test","concrete-positive","Valence","positive","negative",0,1727876036887,"negative",1518,764,"concrete-positive","negative","negative;positive",6.63856778916652,7.32514895795557,11
"172","66c9eb78c1a775cf07bbe72c","frown","test","abstract-negative","Valence","positive","positive",0,1727876038471,"positive",1583,828,"abstract-negative","negative","negative;positive",6.71901315438526,7.36707705988101,12
"173","66c9eb78c1a775cf07bbe72c","discourage","test","concrete-negative","Valence","positive","positive",0,1727876039928,"positive",1456,700,"concrete-negative","negative","negative;positive",6.5510803350434,7.28344822875663,13
"174","66c9eb78c1a775cf07bbe72c","specialize","test","concrete-positive","Valence","positive","negative",0,1727876041360,"negative",1431,675,"concrete-positive","negative","negative;positive",6.51471269087253,7.26612877955645,14
"175","66c9eb78c1a775cf07bbe72c","hope","test","concrete-positive","Valence","positive","positive",1,1727876042872,"positive",1511,760,"concrete-positive","negative","negative;positive",6.63331843328038,7.32052696227274,15
"176","66c9eb78c1a775cf07bbe72c","sing","test","abstract-positive","Valence","positive","negative",0,1727876044927,"negative",2053,1301,"abstract-positive","negative","negative;positive",7.1708884785125,7.62705741701893,16
"177","66c9eb78c1a775cf07bbe72c","crank","test","abstract-negative","Valence","positive","positive",0,1727876046512,"positive",1584,830,"abstract-negative","negative","negative;positive",6.72142570079064,7.36770857237437,17
"178","66c9eb78c1a775cf07bbe72c","feeling","test","concrete-positive","Valence","positive","negative",0,1727876048040,"negative",1527,768,"concrete-positive","negative","negative;positive",6.64378973314767,7.33106030521863,18
"179","66c9eb78c1a775cf07bbe72c","sail","test","abstract-positive","Valence","positive","negative",0,1727876049976,"negative",1934,1182,"abstract-positive","negative","negative;positive",7.07496319796604,7.56734567601324,19
"180","66c9eb78c1a775cf07bbe72c","justify","test","concrete-positive","Valence","positive","negative",0,1727876051928,"negative",1952,1196,"concrete-positive","negative","negative;positive",7.08673793451058,7.57660976697304,20
"181","66c9eb78c1a775cf07bbe72c","impose","test","concrete-negative","Valence","positive","positive",0,1727876053537,"positive",1608,854,"concrete-negative","negative","negative;positive",6.74993119378857,7.38274644973891,21
"182","66c9eb78c1a775cf07bbe72c","check","test","abstract-positive","Valence","positive","negative",0,1727876055224,"negative",1686,931,"abstract-positive","negative","negative;positive",6.83625927727707,7.4301141385618,22
"183","66c9eb78c1a775cf07bbe72c","consider","test","concrete-positive","Valence","positive","negative",0,1727876056880,"negative",1655,901,"concrete-positive","negative","negative;positive",6.80350525760834,7.41155628781116,23
"184","66c9eb78c1a775cf07bbe72c","befall","test","concrete-negative","Valence","positive","positive",0,1727876058416,"positive",1535,779,"concrete-negative","negative","negative;positive",6.65801104587075,7.3362856600213,24
"185","66c9eb78c1a775cf07bbe72c","violate","test","concrete-negative","Valence","positive","positive",0,1727876060017,"positive",1599,843,"concrete-negative","negative","negative;positive",6.73696695800186,7.37713371283395,25
"186","66c9eb78c1a775cf07bbe72c","bathe","test","abstract-positive","Valence","positive","negative",0,1727876061537,"negative",1519,764,"abstract-positive","negative","negative;positive",6.63856778916652,7.32580750259577,26
"187","66c9eb78c1a775cf07bbe72c","qualify","test","concrete-positive","Valence","positive","negative",0,1727876063096,"negative",1558,803,"concrete-positive","negative","negative;positive",6.68835471394676,7.35115822643069,27
"188","66c9eb78c1a775cf07bbe72c","smack","test","abstract-negative","Valence","positive","positive",0,1727876064904,"positive",1807,1052,"abstract-negative","negative","negative;positive",6.95844839329766,7.49942329059223,28
"189","66c9eb78c1a775cf07bbe72c","distrust","test","concrete-negative","Valence","positive","positive",0,1727876066465,"positive",1560,807,"concrete-negative","negative","negative;positive",6.69332366826995,7.35244110024358,29
"190","66c9eb78c1a775cf07bbe72c","breathe","test","abstract-positive","Valence","positive","negative",0,1727876067952,"negative",1486,731,"abstract-positive","negative","negative;positive",6.59441345974978,7.3038432252777,30
"191","66c9eb78c1a775cf07bbe72c","snore","test","abstract-negative","Valence","positive","positive",0,1727876069464,"positive",1511,755,"abstract-negative","negative","negative;positive",6.62671774924902,7.32052696227274,31
"192","66c9eb78c1a775cf07bbe72c","improve","test","concrete-positive","Valence","positive","negative",0,1727876071168,"negative",1702,948,"concrete-positive","negative","negative;positive",6.85435450225502,7.43955930913332,32
"193","66c9eb78c1a775cf07bbe72c","exploit","test","concrete-negative","Valence","positive","positive",0,1727876072625,"positive",1455,699,"concrete-negative","negative","negative;positive",6.54965074223381,7.28276117960559,33
"194","66c9eb78c1a775cf07bbe72c","talk","test","abstract-positive","Valence","positive","negative",0,1727876074033,"negative",1407,651,"abstract-positive","negative","negative;positive",6.47850964220857,7.24921505711439,34
"195","66c9eb78c1a775cf07bbe72c","hurl","test","abstract-negative","Valence","positive","positive",0,1727876075560,"positive",1526,770,"abstract-negative","negative","negative;positive",6.64639051484773,7.3304052118444,35
"196","66c9eb78c1a775cf07bbe72c","disappoint","test","concrete-negative","Valence","positive","positive",0,1727876077025,"positive",1464,708,"concrete-negative","negative","negative;positive",6.56244409369372,7.28892769452126,36
"197","66c9eb78c1a775cf07bbe72c","whip","test","abstract-negative","Valence","positive","positive",0,1727876079273,"positive",2247,1494,"abstract-negative","negative","negative;positive",7.30921236569276,7.71735127218533,37
"198","66c9eb78c1a775cf07bbe72c","behold","test","concrete-positive","Valence","positive","negative",0,1727876080816,"negative",1542,787,"concrete-positive","negative","negative;positive",6.6682282484174,7.34083555412327,38
"199","66c9eb78c1a775cf07bbe72c","lick","test","abstract-positive","Valence","positive","negative",0,1727876083498,"negative",2681,1924,"abstract-positive","negative","negative;positive",7.56216163122565,7.89394513823596,39
"200","66c9eb78c1a775cf07bbe72c","running","test","abstract-positive","Valence","positive","negative",0,1727876085137,"negative",1638,881,"abstract-positive","negative","negative;positive",6.78105762593618,7.40123126441302,40
"201","66ec2ab8b6d500411685ac15","exploit","test","concrete-negative","Semantic","concrete","concrete",1,1727862554633,"concrete",2175,1416,"concrete-negative","abstract","concrete;abstract",7.25559127425367,7.68478394352278,1
"202","66ec2ab8b6d500411685ac15","consider","test","concrete-positive","Semantic","concrete","concrete",1,1727862556652,"concrete",2013,1257,"concrete-positive","abstract","concrete;abstract",7.13648320859025,7.60738142563979,2
"203","66ec2ab8b6d500411685ac15","violate","test","concrete-negative","Semantic","concrete","concrete",1,1727862558392,"concrete",1735,976,"concrete-negative","abstract","concrete;abstract",6.88346258641309,7.45876269238096,3
"204","66ec2ab8b6d500411685ac15","smack","test","abstract-negative","Semantic","concrete","concrete",0,1727862560381,"concrete",1985,1229,"abstract-negative","abstract","concrete;abstract",7.11395610956603,7.59337419312129,4
"205","66ec2ab8b6d500411685ac15","befall","test","concrete-negative","Semantic","concrete","concrete",1,1727862562396,"concrete",2010,1253,"concrete-negative","abstract","concrete;abstract",7.13329595489607,7.60589000105312,5
"206","66ec2ab8b6d500411685ac15","laugh","test","abstract-positive","Semantic","concrete","concrete",0,1727862564315,"concrete",1913,1151,"abstract-positive","abstract","concrete;abstract",7.04838640872188,7.55642796944025,6
"207","66ec2ab8b6d500411685ac15","sing","test","abstract-positive","Semantic","concrete","concrete",0,1727862566628,"concrete",2307,1536,"abstract-positive","abstract","concrete;abstract",7.33693691370762,7.74370325817375,7
"208","66ec2ab8b6d500411685ac15","distrust","test","concrete-negative","Semantic","concrete","concrete",1,1727862570337,"concrete",3703,2938,"concrete-negative","abstract","concrete;abstract",7.98548435673382,8.21689858091361,8
"209","66ec2ab8b6d500411685ac15","bathe","test","abstract-positive","Semantic","concrete","abstract",1,1727862576077,"abstract",5734,4949,"abstract-positive","abstract","concrete;abstract",8.50694081495189,8.65416864644332,9
"210","66ec2ab8b6d500411685ac15","hurl","test","abstract-negative","Semantic","concrete","abstract",1,1727862579163,"abstract",3082,2318,"abstract-negative","abstract","concrete;abstract",7.7484600238997,8.03333401588006,10
"211","66ec2ab8b6d500411685ac15","wish","test","concrete-positive","Semantic","concrete","concrete",1,1727862580864,"concrete",1696,925,"concrete-positive","abstract","concrete;abstract",6.82979373751242,7.43602781635185,11
"212","66ec2ab8b6d500411685ac15","talk","test","abstract-positive","Semantic","concrete","abstract",1,1727862583148,"abstract",2279,1529,"abstract-positive","abstract","concrete;abstract",7.33236920592906,7.73149202924568,12
"213","66ec2ab8b6d500411685ac15","improve","test","concrete-positive","Semantic","concrete","concrete",1,1727862585504,"concrete",2350,1576,"concrete-positive","abstract","concrete;abstract",7.36264527041782,7.7621706071382,13
"214","66ec2ab8b6d500411685ac15","crank","test","abstract-negative","Semantic","concrete","abstract",1,1727862589172,"abstract",3664,2884,"abstract-negative","abstract","concrete;abstract",7.96693349840484,8.20631072579402,14
"215","66ec2ab8b6d500411685ac15","qualify","test","concrete-positive","Semantic","concrete","concrete",1,1727862590873,"concrete",1697,943,"concrete-positive","abstract","concrete;abstract",6.84906628263346,7.43661726523423,15
"216","66ec2ab8b6d500411685ac15","behold","test","concrete-positive","Semantic","concrete","concrete",1,1727862592819,"concrete",1942,1184,"concrete-positive","abstract","concrete;abstract",7.07665381544395,7.57147364885127,16
"217","66ec2ab8b6d500411685ac15","forgive","test","concrete-positive","Semantic","concrete","concrete",1,1727862594449,"concrete",1626,871,"concrete-positive","abstract","concrete;abstract",6.7696419768525,7.39387829010776,17
"218","66ec2ab8b6d500411685ac15","crushed","test","abstract-negative","Semantic","concrete","abstract",1,1727862595989,"abstract",1534,775,"abstract-negative","abstract","concrete;abstract",6.65286302935335,7.3356339819272,18
"219","66ec2ab8b6d500411685ac15","lick","test","abstract-positive","Semantic","concrete","abstract",1,1727862598811,"abstract",2817,2060,"abstract-positive","abstract","concrete;abstract",7.63046126178363,7.94342776787637,19
"220","66ec2ab8b6d500411685ac15","impose","test","concrete-negative","Semantic","concrete","concrete",1,1727862600910,"concrete",2094,1335,"concrete-negative","abstract","concrete;abstract",7.19668657083435,7.64683139143048,20
"221","66ec2ab8b6d500411685ac15","justify","test","concrete-positive","Semantic","concrete","concrete",1,1727862602478,"concrete",1564,798,"concrete-positive","abstract","concrete;abstract",6.68210859744981,7.35500192110526,21
"222","66ec2ab8b6d500411685ac15","disappoint","test","concrete-negative","Semantic","concrete","concrete",1,1727862604017,"concrete",1535,762,"concrete-negative","abstract","concrete;abstract",6.63594655568665,7.3362856600213,22
"223","66ec2ab8b6d500411685ac15","sail","test","abstract-positive","Semantic","concrete","abstract",1,1727862606176,"abstract",2155,1387,"abstract-positive","abstract","concrete;abstract",7.23489842031483,7.67554600253785,23
"224","66ec2ab8b6d500411685ac15","running","test","abstract-positive","Semantic","concrete","abstract",1,1727862607745,"abstract",1564,794,"abstract-positive","abstract","concrete;abstract",6.67708346124714,7.35500192110526,24
"225","66ec2ab8b6d500411685ac15","frown","test","abstract-negative","Semantic","concrete","abstract",1,1727862610313,"abstract",2563,1790,"abstract-negative","abstract","concrete;abstract",7.4899708988348,7.84893372636407,25
"226","66ec2ab8b6d500411685ac15","meth","test","abstract-negative","Semantic","concrete","abstract",1,1727862612961,"abstract",2644,1884,"abstract-negative","abstract","concrete;abstract",7.54115245513631,7.88004820097158,26
"227","66ec2ab8b6d500411685ac15","envy","test","concrete-negative","Semantic","concrete","concrete",1,1727862614795,"concrete",1828,1055,"concrete-negative","abstract","concrete;abstract",6.96129604591017,7.5109777520141,27
"228","66ec2ab8b6d500411685ac15","presume","test","concrete-negative","Semantic","concrete","concrete",1,1727862616711,"concrete",1912,1153,"concrete-negative","abstract","concrete;abstract",7.05012252026906,7.55590509361135,28
"229","66ec2ab8b6d500411685ac15","hope","test","concrete-positive","Semantic","concrete","concrete",1,1727862619553,"concrete",2836,2072,"concrete-positive","abstract","concrete;abstract",7.63626960337937,7.95014988765202,29
"230","66ec2ab8b6d500411685ac15","specialize","test","concrete-positive","Semantic","concrete","concrete",1,1727862621815,"concrete",2257,1494,"concrete-positive","abstract","concrete;abstract",7.30921236569276,7.72179177681754,30
"231","66ec2ab8b6d500411685ac15","beware","test","concrete-negative","Semantic","concrete","concrete",1,1727862624633,"concrete",2813,2051,"concrete-negative","abstract","concrete;abstract",7.62608275807238,7.94200680848986,31
"232","66ec2ab8b6d500411685ac15","snore","test","abstract-negative","Semantic","concrete","abstract",1,1727862627756,"abstract",3120,2368,"abstract-negative","abstract","concrete;abstract",7.7698009960039,8.04558828080353,32
"233","66ec2ab8b6d500411685ac15","check","test","abstract-positive","Semantic","concrete","abstract",1,1727862630660,"abstract",2899,2145,"abstract-positive","abstract","concrete;abstract",7.67089483136212,7.97212112892166,33
"234","66ec2ab8b6d500411685ac15","discourage","test","concrete-negative","Semantic","concrete","concrete",1,1727862632975,"concrete",2310,1552,"concrete-negative","abstract","concrete;abstract",7.34729970074316,7.74500280351584,34
"235","66ec2ab8b6d500411685ac15","feeling","test","concrete-positive","Semantic","concrete","concrete",1,1727862634656,"concrete",1676,910,"concrete-positive","abstract","concrete;abstract",6.8134445995109,7.42416528104203,35
"236","66ec2ab8b6d500411685ac15","drool","test","abstract-negative","Semantic","concrete","abstract",1,1727862636470,"abstract",1809,1050,"abstract-negative","abstract","concrete;abstract",6.95654544315157,7.50052948539529,36
"237","66ec2ab8b6d500411685ac15","breathe","test","abstract-positive","Semantic","concrete","abstract",1,1727862639038,"abstract",2564,1797,"abstract-positive","abstract","concrete;abstract",7.49387388678356,7.84932381804056,37
"238","66ec2ab8b6d500411685ac15","whip","test","abstract-negative","Semantic","concrete","abstract",1,1727862641035,"abstract",1992,1240,"abstract-negative","abstract","concrete;abstract",7.12286665859908,7.59689443814454,38
"239","66ec2ab8b6d500411685ac15","caress","test","abstract-positive","Semantic","concrete","abstract",1,1727862643042,"abstract",2002,1241,"abstract-positive","abstract","concrete;abstract",7.12367278520461,7.60190195987517,39
"240","66ec2ab8b6d500411685ac15","fall","test","abstract-negative","Semantic","concrete","abstract",1,1727862645020,"abstract",1972,1213,"abstract-negative","abstract","concrete;abstract",7.10085190894405,7.58680353516258,40
"241","62a0294e78bac60d6f9c49df","sing","test","abstract-positive","Semantic","concrete","abstract",1,1727862630870,"abstract",2299,1546,"abstract-positive","abstract","concrete;abstract",7.34342622914737,7.74022952476318,1
"242","62a0294e78bac60d6f9c49df","lick","test","abstract-positive","Semantic","concrete","abstract",1,1727862632331,"abstract",1458,702,"abstract-positive","abstract","concrete;abstract",6.55393340402581,7.2848209125686,2
"243","62a0294e78bac60d6f9c49df","disappoint","test","concrete-negative","Semantic","concrete","concrete",1,1727862633820,"concrete",1486,727,"concrete-negative","abstract","concrete;abstract",6.58892647753352,7.3038432252777,3
"244","62a0294e78bac60d6f9c49df","drool","test","abstract-negative","Semantic","concrete","abstract",1,1727862635208,"abstract",1385,632,"abstract-negative","abstract","concrete;abstract",6.44888939414686,7.23345541862144,4
"245","62a0294e78bac60d6f9c49df","wish","test","concrete-positive","Semantic","concrete","concrete",1,1727862637488,"concrete",2278,1518,"concrete-positive","abstract","concrete;abstract",7.32514895795557,7.73105314400713,5
"246","62a0294e78bac60d6f9c49df","consider","test","concrete-positive","Semantic","concrete","concrete",1,1727862638990,"concrete",1499,735,"concrete-positive","abstract","concrete;abstract",6.59987049921284,7.3125534981026,6
"247","62a0294e78bac60d6f9c49df","caress","test","abstract-positive","Semantic","concrete","abstract",1,1727862640585,"abstract",1592,833,"abstract-positive","abstract","concrete;abstract",6.72503364216684,7.37274636640433,7
"248","62a0294e78bac60d6f9c49df","feeling","test","concrete-positive","Semantic","concrete","concrete",1,1727862641901,"concrete",1313,559,"concrete-positive","abstract","concrete;abstract",6.3261494731551,7.1800698743028,8
"249","62a0294e78bac60d6f9c49df","distrust","test","concrete-negative","Semantic","concrete","concrete",1,1727862643264,"concrete",1360,597,"concrete-negative","abstract","concrete;abstract",6.3919171133926,7.2152399787301,9
"250","62a0294e78bac60d6f9c49df","sail","test","abstract-positive","Semantic","concrete","abstract",1,1727862644622,"abstract",1355,595,"abstract-positive","abstract","concrete;abstract",6.38856140554563,7.2115567333138,10
"251","62a0294e78bac60d6f9c49df","snore","test","abstract-negative","Semantic","concrete","abstract",1,1727862646347,"abstract",1722,965,"abstract-negative","abstract","concrete;abstract",6.87212810133899,7.45124168498768,11
"252","62a0294e78bac60d6f9c49df","crushed","test","abstract-negative","Semantic","concrete","abstract",1,1727862648983,"abstract",2633,1877,"abstract-negative","abstract","concrete;abstract",7.53743003658651,7.87587915949631,12
"253","62a0294e78bac60d6f9c49df","forgive","test","concrete-positive","Semantic","concrete","concrete",1,1727862650284,"concrete",1298,539,"concrete-positive","abstract","concrete;abstract",6.289715570909,7.16857989726403,13
"254","62a0294e78bac60d6f9c49df","check","test","abstract-positive","Semantic","concrete","abstract",1,1727862651588,"abstract",1301,544,"abstract-positive","abstract","concrete;abstract",6.29894924685594,7.1708884785125,14
"255","62a0294e78bac60d6f9c49df","envy","test","concrete-negative","Semantic","concrete","concrete",1,1727862653056,"concrete",1465,701,"concrete-negative","abstract","concrete;abstract",6.55250788703459,7.28961052145117,15
"256","62a0294e78bac60d6f9c49df","violate","test","concrete-negative","Semantic","concrete","concrete",1,1727862654579,"concrete",1521,762,"concrete-negative","abstract","concrete;abstract",6.63594655568665,7.32712329225929,16
"257","62a0294e78bac60d6f9c49df","running","test","abstract-positive","Semantic","concrete","abstract",1,1727862655802,"abstract",1220,463,"abstract-positive","abstract","concrete;abstract",6.13772705408623,7.1066061377273,17
"258","62a0294e78bac60d6f9c49df","fall","test","abstract-negative","Semantic","concrete","abstract",1,1727862657821,"abstract",2016,1261,"abstract-negative","abstract","concrete;abstract",7.13966033596492,7.60887062919126,18
"259","62a0294e78bac60d6f9c49df","befall","test","concrete-negative","Semantic","concrete","concrete",1,1727862659204,"concrete",1381,625,"concrete-negative","abstract","concrete;abstract",6.4377516497364,7.23056315340929,19
"260","62a0294e78bac60d6f9c49df","crank","test","abstract-negative","Semantic","concrete","abstract",1,1727862660596,"abstract",1389,630,"abstract-negative","abstract","concrete;abstract",6.44571981938558,7.23633934275434,20
"261","62a0294e78bac60d6f9c49df","exploit","test","concrete-negative","Semantic","concrete","concrete",1,1727862661899,"concrete",1300,542,"concrete-negative","abstract","concrete;abstract",6.29526600143965,7.17011954344963,21
"262","62a0294e78bac60d6f9c49df","whip","test","abstract-negative","Semantic","concrete","abstract",1,1727862663087,"abstract",1185,426,"abstract-negative","abstract","concrete;abstract",6.05443934626937,7.07749805356923,22
"263","62a0294e78bac60d6f9c49df","laugh","test","abstract-positive","Semantic","concrete","abstract",1,1727862664940,"abstract",1850,1087,"abstract-positive","abstract","concrete;abstract",6.99117688712121,7.52294091807237,23
"264","62a0294e78bac60d6f9c49df","behold","test","concrete-positive","Semantic","concrete","concrete",1,1727862666213,"concrete",1270,516,"concrete-positive","abstract","concrete;abstract",6.24610676548156,7.14677217945264,24
"265","62a0294e78bac60d6f9c49df","improve","test","concrete-positive","Semantic","concrete","concrete",1,1727862667666,"concrete",1451,691,"concrete-positive","abstract","concrete;abstract",6.53813982376767,7.28000825288419,25
"266","62a0294e78bac60d6f9c49df","hope","test","concrete-positive","Semantic","concrete","concrete",1,1727862669121,"concrete",1451,695,"concrete-positive","abstract","concrete;abstract",6.54391184556479,7.28000825288419,26
"267","62a0294e78bac60d6f9c49df","smack","test","abstract-negative","Semantic","concrete","abstract",1,1727862670313,"abstract",1190,438,"abstract-negative","abstract","concrete;abstract",6.08221891037645,7.08170858610557,27
"268","62a0294e78bac60d6f9c49df","breathe","test","abstract-positive","Semantic","concrete","abstract",1,1727862671890,"abstract",1574,809,"abstract-positive","abstract","concrete;abstract",6.69579891705849,7.36137542897735,28
"269","62a0294e78bac60d6f9c49df","talk","test","abstract-positive","Semantic","concrete","concrete",0,1727862673665,"concrete",1772,1009,"abstract-positive","abstract","concrete;abstract",6.91671502035361,7.47986413116503,29
"270","62a0294e78bac60d6f9c49df","meth","test","abstract-negative","Semantic","concrete","abstract",1,1727862675318,"abstract",1650,898,"abstract-negative","abstract","concrete;abstract",6.8001700683022,7.40853056689463,30
"271","62a0294e78bac60d6f9c49df","hurl","test","abstract-negative","Semantic","concrete","abstract",1,1727862676752,"abstract",1432,674,"abstract-negative","abstract","concrete;abstract",6.51323011091231,7.26682734752059,31
"272","62a0294e78bac60d6f9c49df","qualify","test","concrete-positive","Semantic","concrete","concrete",1,1727862677984,"concrete",1230,475,"concrete-positive","abstract","concrete;abstract",6.16331480403464,7.11476944836646,32
"273","62a0294e78bac60d6f9c49df","specialize","test","concrete-positive","Semantic","concrete","concrete",1,1727862679203,"concrete",1216,463,"concrete-positive","abstract","concrete;abstract",6.13772705408623,7.10332206252611,33
"274","62a0294e78bac60d6f9c49df","impose","test","concrete-negative","Semantic","concrete","concrete",1,1727862680489,"concrete",1283,518,"concrete-negative","abstract","concrete;abstract",6.24997524225948,7.15695636461564,34
"275","62a0294e78bac60d6f9c49df","justify","test","concrete-positive","Semantic","concrete","concrete",1,1727862681637,"concrete",1145,393,"concrete-positive","abstract","concrete;abstract",5.97380961186926,7.04315991598834,35
"276","62a0294e78bac60d6f9c49df","beware","test","concrete-negative","Semantic","concrete","concrete",1,1727862683076,"concrete",1437,677,"concrete-negative","abstract","concrete;abstract",6.51767127291227,7.27031288607902,36
"277","62a0294e78bac60d6f9c49df","frown","test","abstract-negative","Semantic","concrete","concrete",0,1727862684292,"concrete",1214,456,"abstract-negative","abstract","concrete;abstract",6.12249280951439,7.10167597161944,37
"278","62a0294e78bac60d6f9c49df","bathe","test","abstract-positive","Semantic","concrete","abstract",1,1727862685722,"abstract",1427,665,"abstract-positive","abstract","concrete;abstract",6.49978704065585,7.26332961747684,38
"279","62a0294e78bac60d6f9c49df","presume","test","concrete-negative","Semantic","concrete","concrete",1,1727862687114,"concrete",1390,626,"concrete-negative","abstract","concrete;abstract",6.4393503711001,7.23705902612474,39
"280","62a0294e78bac60d6f9c49df","discourage","test","concrete-negative","Semantic","concrete","concrete",1,1727862688421,"concrete",1305,547,"concrete-negative","abstract","concrete;abstract",6.30444880242198,7.17395831975679,40
"281","663c8bf2f8c29a144dc191de","feeling","test","concrete-positive","Semantic","concrete","concrete",1,1727861805229,"concrete",1655,902,"concrete-positive","abstract","concrete;abstract",6.80461452006262,7.41155628781116,1
"282","663c8bf2f8c29a144dc191de","hope","test","concrete-positive","Semantic","concrete","concrete",1,1727861806644,"concrete",1414,664,"concrete-positive","abstract","concrete;abstract",6.49828214947643,7.25417784645652,2
"283","663c8bf2f8c29a144dc191de","envy","test","concrete-negative","Semantic","concrete","concrete",1,1727861808020,"concrete",1374,620,"concrete-negative","abstract","concrete;abstract",6.42971947803914,7.22548147278229,3
"284","663c8bf2f8c29a144dc191de","lick","test","abstract-positive","Semantic","concrete","abstract",1,1727861810172,"abstract",2151,1393,"abstract-positive","abstract","concrete;abstract",7.23921497377981,7.67368812926773,4
"285","663c8bf2f8c29a144dc191de","disappoint","test","concrete-negative","Semantic","concrete","concrete",1,1727861811668,"concrete",1494,740,"concrete-negative","abstract","concrete;abstract",6.60665018619822,7.30921236569276,5
"286","663c8bf2f8c29a144dc191de","consider","test","concrete-positive","Semantic","concrete","concrete",1,1727861813012,"concrete",1342,582,"concrete-positive","abstract","concrete;abstract",6.36647044773144,7.20191631753163,6
"287","663c8bf2f8c29a144dc191de","breathe","test","abstract-positive","Semantic","concrete","abstract",1,1727861815541,"abstract",2528,1771,"abstract-positive","abstract","concrete;abstract",7.47929963778283,7.83518375526675,7
"288","663c8bf2f8c29a144dc191de","crank","test","abstract-negative","Semantic","concrete","concrete",0,1727861817596,"concrete",2054,1301,"abstract-negative","abstract","concrete;abstract",7.1708884785125,7.6275443904885,8
"289","663c8bf2f8c29a144dc191de","presume","test","concrete-negative","Semantic","concrete","concrete",1,1727861819252,"concrete",1655,897,"concrete-negative","abstract","concrete;abstract",6.7990558620588,7.41155628781116,9
"290","663c8bf2f8c29a144dc191de","beware","test","concrete-negative","Semantic","concrete","concrete",1,1727861820748,"concrete",1494,741,"concrete-negative","abstract","concrete;abstract",6.60800062529609,7.30921236569276,10
"291","663c8bf2f8c29a144dc191de","exploit","test","concrete-negative","Semantic","concrete","concrete",1,1727861822084,"concrete",1335,580,"concrete-negative","abstract","concrete;abstract",6.36302810354046,7.19668657083435,11
"292","663c8bf2f8c29a144dc191de","caress","test","abstract-positive","Semantic","concrete","concrete",0,1727861823453,"concrete",1367,607,"abstract-positive","abstract","concrete;abstract",6.4085287910595,7.22037383672395,12
"293","663c8bf2f8c29a144dc191de","bathe","test","abstract-positive","Semantic","concrete","abstract",1,1727861825532,"abstract",2078,1322,"abstract-positive","abstract","concrete;abstract",7.18690102041163,7.63916117165917,13
"294","663c8bf2f8c29a144dc191de","check","test","abstract-positive","Semantic","concrete","concrete",0,1727861828652,"concrete",3119,2366,"abstract-positive","abstract","concrete;abstract",7.76895604453833,8.0452677166078,14
"295","663c8bf2f8c29a144dc191de","running","test","abstract-positive","Semantic","concrete","abstract",1,1727861830492,"abstract",1838,1087,"abstract-positive","abstract","concrete;abstract",6.99117688712121,7.51643330291563,15
"296","663c8bf2f8c29a144dc191de","whip","test","abstract-negative","Semantic","concrete","concrete",0,1727861832908,"concrete",2415,1664,"abstract-negative","abstract","concrete;abstract",7.41697962138115,7.78945456608667,16
"297","663c8bf2f8c29a144dc191de","violate","test","concrete-negative","Semantic","concrete","concrete",1,1727861834572,"concrete",1663,910,"concrete-negative","abstract","concrete;abstract",6.8134445995109,7.41637847919293,17
"298","663c8bf2f8c29a144dc191de","frown","test","abstract-negative","Semantic","concrete","abstract",1,1727861836564,"abstract",1991,1238,"abstract-negative","abstract","concrete;abstract",7.12125245324454,7.5963923040642,18
"299","663c8bf2f8c29a144dc191de","specialize","test","concrete-positive","Semantic","concrete","concrete",1,1727861838004,"concrete",1438,686,"concrete-positive","abstract","concrete;abstract",6.53087762772588,7.27100853828099,19
"300","663c8bf2f8c29a144dc191de","laugh","test","abstract-positive","Semantic","concrete","abstract",1,1727861839596,"abstract",1591,834,"abstract-positive","abstract","concrete;abstract",6.72623340235875,7.37211802833779,20
"301","663c8bf2f8c29a144dc191de","fall","test","abstract-negative","Semantic","concrete","concrete",0,1727861841644,"concrete",2046,1288,"abstract-negative","abstract","concrete;abstract",7.1608459066643,7.62364194651157,21
"302","663c8bf2f8c29a144dc191de","improve","test","concrete-positive","Semantic","concrete","concrete",1,1727861843308,"concrete",1662,911,"concrete-positive","abstract","concrete;abstract",6.81454289725996,7.41577697541539,22
"303","663c8bf2f8c29a144dc191de","sail","test","abstract-positive","Semantic","concrete","abstract",1,1727861845628,"abstract",2318,1562,"abstract-positive","abstract","concrete;abstract",7.35372233039963,7.7484600238997,23
"304","663c8bf2f8c29a144dc191de","drool","test","abstract-negative","Semantic","concrete","abstract",1,1727861847333,"abstract",1704,949,"abstract-negative","abstract","concrete;abstract",6.85540879860993,7.44073370738926,24
"305","663c8bf2f8c29a144dc191de","smack","test","abstract-negative","Semantic","concrete","abstract",1,1727861848796,"abstract",1462,708,"abstract-negative","abstract","concrete;abstract",6.56244409369372,7.28756064030972,25
"306","663c8bf2f8c29a144dc191de","wish","test","concrete-positive","Semantic","concrete","concrete",1,1727861850789,"concrete",1991,1237,"concrete-positive","abstract","concrete;abstract",7.12044437239249,7.5963923040642,26
"307","663c8bf2f8c29a144dc191de","snore","test","abstract-negative","Semantic","concrete","abstract",1,1727861852356,"abstract",1566,810,"abstract-negative","abstract","concrete;abstract",6.69703424766648,7.35627987655075,27
"308","663c8bf2f8c29a144dc191de","behold","test","concrete-positive","Semantic","concrete","concrete",1,1727861853804,"concrete",1447,692,"concrete-positive","abstract","concrete;abstract",6.53958595561767,7.27724772663148,28
"309","663c8bf2f8c29a144dc191de","justify","test","concrete-positive","Semantic","concrete","concrete",1,1727861855245,"concrete",1439,686,"concrete-positive","abstract","concrete;abstract",6.53087762772588,7.27170370688737,29
"310","663c8bf2f8c29a144dc191de","hurl","test","abstract-negative","Semantic","concrete","concrete",0,1727861857388,"concrete",2142,1384,"abstract-negative","abstract","concrete;abstract",7.23273313617761,7.66949525100769,30
"311","663c8bf2f8c29a144dc191de","sing","test","abstract-positive","Semantic","concrete","abstract",1,1727861859388,"abstract",1999,1246,"abstract-positive","abstract","concrete;abstract",7.1276936993474,7.6004023345004,31
"312","663c8bf2f8c29a144dc191de","qualify","test","concrete-positive","Semantic","concrete","concrete",1,1727861860860,"concrete",1470,716,"concrete-positive","abstract","concrete;abstract",6.57368016696065,7.29301767977278,32
"313","663c8bf2f8c29a144dc191de","meth","test","abstract-negative","Semantic","concrete","abstract",1,1727861863012,"abstract",2150,1396,"abstract-negative","abstract","concrete;abstract",7.24136628332232,7.67322312112171,33
"314","663c8bf2f8c29a144dc191de","forgive","test","concrete-positive","Semantic","concrete","concrete",1,1727861864500,"concrete",1486,729,"concrete-positive","abstract","concrete;abstract",6.59167373200866,7.3038432252777,34
"315","663c8bf2f8c29a144dc191de","crushed","test","abstract-negative","Semantic","concrete","concrete",0,1727861866509,"concrete",2007,1251,"abstract-negative","abstract","concrete;abstract",7.13169851046691,7.60439634879634,35
"316","663c8bf2f8c29a144dc191de","distrust","test","concrete-negative","Semantic","concrete","concrete",1,1727861867868,"concrete",1357,599,"concrete-negative","abstract","concrete;abstract",6.39526159811545,7.21303165983487,36
"317","663c8bf2f8c29a144dc191de","talk","test","abstract-positive","Semantic","concrete","abstract",1,1727861869340,"abstract",1471,715,"abstract-positive","abstract","concrete;abstract",6.57228254269401,7.29369772060144,37
"318","663c8bf2f8c29a144dc191de","befall","test","concrete-negative","Semantic","concrete","concrete",1,1727861870868,"concrete",1527,777,"concrete-negative","abstract","concrete;abstract",6.65544035036765,7.33106030521863,38
"319","663c8bf2f8c29a144dc191de","impose","test","concrete-negative","Semantic","concrete","concrete",1,1727861872300,"concrete",1430,679,"concrete-negative","abstract","concrete;abstract",6.5206211275587,7.26542972325395,39
"320","663c8bf2f8c29a144dc191de","discourage","test","concrete-negative","Semantic","concrete","concrete",1,1727861873805,"concrete",1504,746,"concrete-negative","abstract","concrete;abstract",6.61472560020376,7.31588350450979,40
"321","66e1a750e31b6003841c5472","violate","test","concrete-negative","Semantic","concrete","abstract",0,1727861889331,"abstract",2303,1550,"concrete-negative","abstract","concrete;abstract",7.34601020991329,7.74196789982069,1
"322","66e1a750e31b6003841c5472","fall","test","abstract-negative","Semantic","concrete","abstract",1,1727861891169,"abstract",1834,1075,"abstract-negative","abstract","concrete;abstract",6.98007594056176,7.51425465281641,2
"323","66e1a750e31b6003841c5472","presume","test","concrete-negative","Semantic","concrete","concrete",1,1727861893270,"concrete",2097,1342,"concrete-negative","abstract","concrete;abstract",7.20191631753163,7.64826303090192,3
"324","66e1a750e31b6003841c5472","meth","test","abstract-negative","Semantic","concrete","abstract",1,1727861895050,"abstract",1777,1016,"abstract-negative","abstract","concrete;abstract",6.92362862813843,7.48268182815465,4
"325","66e1a750e31b6003841c5472","behold","test","concrete-positive","Semantic","concrete","concrete",1,1727861896836,"concrete",1782,1022,"concrete-positive","abstract","concrete;abstract",6.92951677076365,7.48549160803075,5
"326","66e1a750e31b6003841c5472","talk","test","abstract-positive","Semantic","concrete","concrete",0,1727861898740,"concrete",1900,1144,"abstract-positive","abstract","concrete;abstract",7.04228617193974,7.54960916515453,6
"327","66e1a750e31b6003841c5472","smack","test","abstract-negative","Semantic","concrete","abstract",1,1727861900360,"abstract",1617,862,"abstract-negative","abstract","concrete;abstract",6.75925527066369,7.38832785957711,7
"328","66e1a750e31b6003841c5472","beware","test","concrete-negative","Semantic","concrete","concrete",1,1727861902141,"concrete",1778,1021,"concrete-negative","abstract","concrete;abstract",6.92853781816467,7.48324441607385,8
"329","66e1a750e31b6003841c5472","sing","test","abstract-positive","Semantic","concrete","abstract",1,1727861903684,"abstract",1539,782,"abstract-positive","abstract","concrete;abstract",6.66185474054531,7.33888813383888,9
"330","66e1a750e31b6003841c5472","crushed","test","abstract-negative","Semantic","concrete","abstract",1,1727861905189,"abstract",1501,747,"abstract-negative","abstract","concrete;abstract",6.61606518513282,7.31388683163346,10
"331","66e1a750e31b6003841c5472","justify","test","concrete-positive","Semantic","concrete","concrete",1,1727861906953,"concrete",1761,1004,"concrete-positive","abstract","concrete;abstract",6.91174730025167,7.47363710849621,11
"332","66e1a750e31b6003841c5472","running","test","abstract-positive","Semantic","concrete","concrete",0,1727861908931,"concrete",1975,1219,"abstract-positive","abstract","concrete;abstract",7.10578612948127,7.58832367733522,12
"333","66e1a750e31b6003841c5472","befall","test","concrete-negative","Semantic","concrete","concrete",1,1727861911770,"concrete",2836,2079,"concrete-negative","abstract","concrete;abstract",7.63964228785801,7.95014988765202,13
"334","66e1a750e31b6003841c5472","whip","test","abstract-negative","Semantic","concrete","abstract",1,1727861913556,"abstract",1782,1027,"abstract-negative","abstract","concrete;abstract",6.93439720992856,7.48549160803075,14
"335","66e1a750e31b6003841c5472","caress","test","abstract-positive","Semantic","concrete","abstract",1,1727861915735,"abstract",2176,1422,"abstract-positive","abstract","concrete;abstract",7.25981961036319,7.68524360797583,15
"336","66e1a750e31b6003841c5472","disappoint","test","concrete-negative","Semantic","concrete","concrete",1,1727861917552,"concrete",1813,1055,"concrete-negative","abstract","concrete;abstract",6.96129604591017,7.50273821075485,16
"337","66e1a750e31b6003841c5472","drool","test","abstract-negative","Semantic","concrete","concrete",0,1727861919514,"concrete",1958,1205,"abstract-negative","abstract","concrete;abstract",7.09423484592476,7.57967882309046,17
"338","66e1a750e31b6003841c5472","hope","test","concrete-positive","Semantic","concrete","concrete",1,1727861921340,"concrete",1824,1067,"concrete-positive","abstract","concrete;abstract",6.97260625130175,7.50878717063428,18
"339","66e1a750e31b6003841c5472","consider","test","concrete-positive","Semantic","concrete","concrete",1,1727861923217,"concrete",1874,1118,"concrete-positive","abstract","concrete;abstract",7.01929665371504,7.53583046279837,19
"340","66e1a750e31b6003841c5472","bathe","test","abstract-positive","Semantic","concrete","abstract",1,1727861925346,"abstract",2125,1368,"abstract-positive","abstract","concrete;abstract",7.2211050981825,7.66152708135852,20
"341","66e1a750e31b6003841c5472","exploit","test","concrete-negative","Semantic","concrete","concrete",1,1727861927197,"concrete",1847,1090,"concrete-negative","abstract","concrete;abstract",6.99393297522319,7.52131798019924,21
"342","66e1a750e31b6003841c5472","specialize","test","concrete-positive","Semantic","concrete","abstract",0,1727861929477,"abstract",2277,1521,"concrete-positive","abstract","concrete;abstract",7.32712329225929,7.73061406606374,22
"343","66e1a750e31b6003841c5472","frown","test","abstract-negative","Semantic","concrete","abstract",1,1727861931508,"abstract",2028,1274,"abstract-negative","abstract","concrete;abstract",7.14991683613211,7.61480536471107,23
"344","66e1a750e31b6003841c5472","feeling","test","concrete-positive","Semantic","concrete","abstract",0,1727861933266,"abstract",1754,997,"concrete-positive","abstract","concrete;abstract",6.90475076996184,7.46965417293213,24
"345","66e1a750e31b6003841c5472","sail","test","abstract-positive","Semantic","concrete","abstract",1,1727861935156,"abstract",1888,1131,"abstract-positive","abstract","concrete;abstract",7.03085747611612,7.54327334670545,25
"346","66e1a750e31b6003841c5472","forgive","test","concrete-positive","Semantic","concrete","concrete",1,1727861936991,"concrete",1831,1075,"concrete-positive","abstract","concrete;abstract",6.98007594056176,7.51261754467451,26
"347","66e1a750e31b6003841c5472","crank","test","abstract-negative","Semantic","concrete","abstract",1,1727861938641,"abstract",1646,889,"abstract-negative","abstract","concrete;abstract",6.7900972355139,7.40610338123702,27
"348","66e1a750e31b6003841c5472","wish","test","concrete-positive","Semantic","concrete","concrete",1,1727861940418,"concrete",1773,1017,"concrete-positive","abstract","concrete;abstract",6.92461239604856,7.48042830607421,28
"349","66e1a750e31b6003841c5472","lick","test","abstract-positive","Semantic","concrete","abstract",1,1727861942015,"abstract",1594,841,"abstract-positive","abstract","concrete;abstract",6.73459165997295,7.37400185935016,29
"350","66e1a750e31b6003841c5472","hurl","test","abstract-negative","Semantic","concrete","abstract",1,1727861943553,"abstract",1534,776,"abstract-negative","abstract","concrete;abstract",6.65415252018322,7.3356339819272,30
"351","66e1a750e31b6003841c5472","discourage","test","concrete-negative","Semantic","concrete","concrete",1,1727861945123,"concrete",1567,808,"concrete-negative","abstract","concrete;abstract",6.69456205852109,7.35691824235602,31
"352","66e1a750e31b6003841c5472","distrust","test","concrete-negative","Semantic","concrete","concrete",1,1727861946737,"concrete",1613,852,"concrete-negative","abstract","concrete;abstract",6.74758652682932,7.38585107812521,32
"353","66e1a750e31b6003841c5472","envy","test","concrete-negative","Semantic","concrete","concrete",1,1727861948663,"concrete",1923,1167,"concrete-negative","abstract","concrete;abstract",7.06219163228656,7.56164174558878,33
"354","66e1a750e31b6003841c5472","impose","test","concrete-negative","Semantic","concrete","concrete",1,1727861950295,"concrete",1630,873,"concrete-negative","abstract","concrete;abstract",6.7719355558396,7.39633529380081,34
"355","66e1a750e31b6003841c5472","improve","test","concrete-positive","Semantic","concrete","concrete",1,1727861951938,"concrete",1641,885,"concrete-positive","abstract","concrete;abstract",6.78558764500793,7.40306109109009,35
"356","66e1a750e31b6003841c5472","check","test","abstract-positive","Semantic","concrete","abstract",1,1727861953674,"abstract",1733,977,"abstract-positive","abstract","concrete;abstract",6.88448665204278,7.45760928971561,36
"357","66e1a750e31b6003841c5472","breathe","test","abstract-positive","Semantic","concrete","abstract",1,1727861955965,"abstract",2288,1535,"abstract-positive","abstract","concrete;abstract",7.3362856600213,7.73543335249969,37
"358","66e1a750e31b6003841c5472","qualify","test","concrete-positive","Semantic","concrete","concrete",1,1727861958215,"concrete",2247,1492,"concrete-positive","abstract","concrete;abstract",7.30787278076371,7.71735127218533,38
"359","66e1a750e31b6003841c5472","laugh","test","abstract-positive","Semantic","concrete","abstract",1,1727861960072,"abstract",1854,1093,"abstract-positive","abstract","concrete;abstract",6.99668148817654,7.5251007461258,39
"360","66e1a750e31b6003841c5472","snore","test","abstract-negative","Semantic","concrete","abstract",1,1727861961751,"abstract",1676,919,"abstract-negative","abstract","concrete;abstract",6.82328612235569,7.42416528104203,40
"361","66fbab0373b325bac2693590","breathe","test","abstract-positive","Semantic","concrete","abstract",1,1727861716822,"abstract",3752,2996,"abstract-positive","abstract","concrete;abstract",8.00503334463711,8.23004431012611,1
"362","66fbab0373b325bac2693590","fall","test","abstract-negative","Semantic","concrete","concrete",0,1727861720614,"concrete",3792,3036,"abstract-negative","abstract","concrete;abstract",8.01829613851552,8.24064886337491,2
"363","66fbab0373b325bac2693590","envy","test","concrete-negative","Semantic","concrete","concrete",1,1727861722190,"concrete",1576,819,"concrete-negative","abstract","concrete;abstract",6.70808408385307,7.36264527041782,3
"364","66fbab0373b325bac2693590","caress","test","abstract-positive","Semantic","concrete","concrete",0,1727861724174,"concrete",1984,1231,"abstract-positive","abstract","concrete;abstract",7.11558212618445,7.59287028784482,4
"365","66fbab0373b325bac2693590","violate","test","concrete-negative","Semantic","concrete","concrete",1,1727861726518,"concrete",2343,1590,"concrete-negative","abstract","concrete;abstract",7.37148929521428,7.7591874385078,5
"366","66fbab0373b325bac2693590","improve","test","concrete-positive","Semantic","concrete","concrete",1,1727861728518,"concrete",2000,1246,"concrete-positive","abstract","concrete;abstract",7.1276936993474,7.60090245954208,6
"367","66fbab0373b325bac2693590","presume","test","concrete-negative","Semantic","concrete","concrete",1,1727861730190,"concrete",1672,917,"concrete-negative","abstract","concrete;abstract",6.82110747225646,7.42177579364465,7
"368","66fbab0373b325bac2693590","consider","test","concrete-positive","Semantic","concrete","concrete",1,1727861732390,"concrete",2200,1444,"concrete-positive","abstract","concrete;abstract",7.27517231945277,7.69621263934641,8
"369","66fbab0373b325bac2693590","talk","test","abstract-positive","Semantic","concrete","concrete",0,1727861734062,"concrete",1672,918,"abstract-positive","abstract","concrete;abstract",6.82219739062049,7.42177579364465,9
"370","66fbab0373b325bac2693590","beware","test","concrete-negative","Semantic","concrete","concrete",1,1727861736574,"concrete",2512,1757,"concrete-negative","abstract","concrete;abstract",7.4713630881871,7.82883452758809,10
"371","66fbab0373b325bac2693590","frown","test","abstract-negative","Semantic","concrete","abstract",1,1727861739206,"abstract",2631,1878,"abstract-negative","abstract","concrete;abstract",7.53796265976821,7.87511928104029,11
"372","66fbab0373b325bac2693590","hope","test","concrete-positive","Semantic","concrete","concrete",1,1727861740950,"concrete",1744,989,"concrete-positive","abstract","concrete;abstract",6.89669433162271,7.46393660446893,12
"373","66fbab0373b325bac2693590","check","test","abstract-positive","Semantic","concrete","concrete",0,1727861743630,"concrete",2680,1927,"abstract-positive","abstract","concrete;abstract",7.56371966841437,7.8935720735049,13
"374","66fbab0373b325bac2693590","specialize","test","concrete-positive","Semantic","concrete","concrete",1,1727861745494,"concrete",1864,1110,"concrete-positive","abstract","concrete;abstract",7.01211529430638,7.53047999524554,14
"375","66fbab0373b325bac2693590","sail","test","abstract-positive","Semantic","concrete","concrete",0,1727861748654,"concrete",3159,2407,"abstract-positive","abstract","concrete;abstract",7.78613643778307,8.05801080080209,15
"376","66fbab0373b325bac2693590","forgive","test","concrete-positive","Semantic","concrete","abstract",0,1727861750166,"abstract",1512,762,"concrete-positive","abstract","concrete;abstract",6.63594655568665,7.32118855673948,16
"377","66fbab0373b325bac2693590","sing","test","abstract-positive","Semantic","concrete","abstract",1,1727861752686,"abstract",2519,1764,"abstract-positive","abstract","concrete;abstract",7.47533923656674,7.83161727635261,17
"378","66fbab0373b325bac2693590","laugh","test","abstract-positive","Semantic","concrete","abstract",1,1727861754198,"abstract",1512,755,"abstract-positive","abstract","concrete;abstract",6.62671774924902,7.32118855673948,18
"379","66fbab0373b325bac2693590","wish","test","concrete-positive","Semantic","concrete","concrete",1,1727861755798,"concrete",1600,844,"concrete-positive","abstract","concrete;abstract",6.73815249459596,7.37775890822787,19
"380","66fbab0373b325bac2693590","disappoint","test","concrete-negative","Semantic","concrete","concrete",1,1727861757270,"concrete",1472,718,"concrete-negative","abstract","concrete;abstract",6.57646956904822,7.29437729928882,20
"381","66fbab0373b325bac2693590","meth","test","abstract-negative","Semantic","concrete","concrete",0,1727861759062,"concrete",1791,1035,"abstract-negative","abstract","concrete;abstract",6.94215670569947,7.49052940206071,21
"382","66fbab0373b325bac2693590","crushed","test","abstract-negative","Semantic","concrete","concrete",0,1727861761222,"concrete",2160,1409,"abstract-negative","abstract","concrete;abstract",7.25063551189868,7.67786350067821,22
"383","66fbab0373b325bac2693590","qualify","test","concrete-positive","Semantic","concrete","concrete",1,1727861763366,"concrete",2143,1389,"concrete-positive","abstract","concrete;abstract",7.23633934275434,7.66996199547358,23
"384","66fbab0373b325bac2693590","befall","test","concrete-negative","Semantic","concrete","concrete",1,1727861764974,"concrete",1608,853,"concrete-negative","abstract","concrete;abstract",6.74875954749168,7.38274644973891,24
"385","66fbab0373b325bac2693590","running","test","abstract-positive","Semantic","concrete","abstract",1,1727861766678,"abstract",1703,951,"abstract-positive","abstract","concrete;abstract",6.85751406254539,7.44014668066269,25
"386","66fbab0373b325bac2693590","distrust","test","concrete-negative","Semantic","concrete","concrete",1,1727861768406,"concrete",1728,973,"concrete-negative","abstract","concrete;abstract",6.880384082186,7.454719949364,26
"387","66fbab0373b325bac2693590","drool","test","abstract-negative","Semantic","concrete","concrete",0,1727861769966,"concrete",1560,808,"abstract-negative","abstract","concrete;abstract",6.69456205852109,7.35244110024358,27
"388","66fbab0373b325bac2693590","snore","test","abstract-negative","Semantic","concrete","concrete",0,1727861771222,"concrete",1256,500,"abstract-negative","abstract","concrete;abstract",6.21460809842219,7.13568734702814,28
"389","66fbab0373b325bac2693590","feeling","test","concrete-positive","Semantic","concrete","abstract",0,1727861772790,"abstract",1568,813,"concrete-positive","abstract","concrete;abstract",6.70073110954781,7.35755620091035,29
"390","66fbab0373b325bac2693590","crank","test","abstract-negative","Semantic","concrete","concrete",0,1727861774342,"concrete",1552,800,"abstract-negative","abstract","concrete;abstract",6.68461172766793,7.34729970074316,30
"391","66fbab0373b325bac2693590","discourage","test","concrete-negative","Semantic","concrete","concrete",1,1727861776222,"concrete",1879,1125,"concrete-negative","abstract","concrete;abstract",7.02553831463852,7.53849499941346,31
"392","66fbab0373b325bac2693590","behold","test","concrete-positive","Semantic","concrete","concrete",1,1727861777830,"concrete",1608,858,"concrete-positive","abstract","concrete;abstract",6.75460409948796,7.38274644973891,32
"393","66fbab0373b325bac2693590","lick","test","abstract-positive","Semantic","concrete","abstract",1,1727861779558,"abstract",1728,972,"abstract-positive","abstract","concrete;abstract",6.87935580446044,7.454719949364,33
"394","66fbab0373b325bac2693590","whip","test","abstract-negative","Semantic","concrete","concrete",0,1727861780702,"concrete",1143,388,"abstract-negative","abstract","concrete;abstract",5.96100533962327,7.04141166379481,34
"395","66fbab0373b325bac2693590","bathe","test","abstract-positive","Semantic","concrete","concrete",0,1727861782422,"concrete",1719,966,"abstract-positive","abstract","concrete;abstract",6.87316383421252,7.44949800538285,35
"396","66fbab0373b325bac2693590","exploit","test","concrete-negative","Semantic","concrete","concrete",1,1727861783886,"concrete",1464,712,"concrete-negative","abstract","concrete;abstract",6.56807791141198,7.28892769452126,36
"397","66fbab0373b325bac2693590","impose","test","concrete-negative","Semantic","concrete","concrete",1,1727861785606,"concrete",1720,968,"concrete-negative","abstract","concrete;abstract",6.87523208727658,7.4500795698075,37
"398","66fbab0373b325bac2693590","hurl","test","abstract-negative","Semantic","concrete","concrete",0,1727861787294,"concrete",1688,935,"abstract-negative","abstract","concrete;abstract",6.84054652928869,7.4312996751559,38
"399","66fbab0373b325bac2693590","smack","test","abstract-negative","Semantic","concrete","abstract",1,1727861789302,"abstract",2007,1256,"abstract-negative","abstract","concrete;abstract",7.13568734702814,7.60439634879634,39
"400","66fbab0373b325bac2693590","justify","test","concrete-positive","Semantic","concrete","concrete",1,1727861791262,"concrete",1959,1206,"concrete-positive","abstract","concrete;abstract",7.09506437728713,7.58018941794454,40
"401","66fc3e8fef1797e175a11e8d","frown","test","abstract-negative","Semantic","concrete","concrete",0,1727862720005,"concrete",2160,1389,"abstract-negative","abstract","concrete;abstract",7.23633934275434,7.67786350067821,1
"402","66fc3e8fef1797e175a11e8d","running","test","abstract-positive","Semantic","concrete","abstract",1,1727862721655,"abstract",1648,887,"abstract-positive","abstract","concrete;abstract",6.78784498230958,7.40731771046942,2
"403","66fc3e8fef1797e175a11e8d","whip","test","abstract-negative","Semantic","concrete","concrete",0,1727862723724,"concrete",2066,1307,"abstract-negative","abstract","concrete;abstract",7.17548971362422,7.63336964967958,3
"404","66fc3e8fef1797e175a11e8d","consider","test","concrete-positive","Semantic","concrete","concrete",1,1727862725757,"concrete",2031,1266,"concrete-positive","abstract","concrete;abstract",7.14361760270412,7.61628356158038,4
"405","66fc3e8fef1797e175a11e8d","discourage","test","concrete-negative","Semantic","concrete","concrete",1,1727862727846,"concrete",2087,1327,"concrete-negative","abstract","concrete;abstract",7.19067603433221,7.6434829070772,5
"406","66fc3e8fef1797e175a11e8d","bathe","test","abstract-positive","Semantic","concrete","abstract",1,1727862729525,"abstract",1677,916,"abstract-positive","abstract","concrete;abstract",6.82001636467413,7.42476176182321,6
"407","66fc3e8fef1797e175a11e8d","hurl","test","abstract-negative","Semantic","concrete","abstract",1,1727862731935,"abstract",2407,1651,"abstract-negative","abstract","concrete;abstract",7.40913644392013,7.78613643778307,7
"408","66fc3e8fef1797e175a11e8d","lick","test","abstract-positive","Semantic","concrete","abstract",1,1727862733535,"abstract",1598,829,"abstract-positive","abstract","concrete;abstract",6.7202201551353,7.37650812632622,8
"409","66fc3e8fef1797e175a11e8d","impose","test","concrete-negative","Semantic","concrete","concrete",1,1727862736405,"concrete",2868,2100,"concrete-negative","abstract","concrete;abstract",7.64969262371151,7.96137020171951,9
"410","66fc3e8fef1797e175a11e8d","caress","test","abstract-positive","Semantic","concrete","abstract",1,1727862738262,"abstract",1855,1091,"abstract-positive","abstract","concrete;abstract",6.99484998583307,7.52563997504154,10
"411","66fc3e8fef1797e175a11e8d","feeling","test","concrete-positive","Semantic","concrete","concrete",1,1727862740000,"concrete",1736,982,"concrete-positive","abstract","concrete;abstract",6.88959130835447,7.4593388952203,11
"412","66fc3e8fef1797e175a11e8d","fall","test","abstract-negative","Semantic","concrete","abstract",1,1727862741910,"abstract",1908,1141,"abstract-negative","abstract","concrete;abstract",7.03966034986208,7.55381085200823,12
"413","66fc3e8fef1797e175a11e8d","befall","test","concrete-negative","Semantic","concrete","concrete",1,1727862745950,"concrete",4037,3280,"concrete-negative","abstract","concrete;abstract",8.09559870137819,8.30325712085294,13
"414","66fc3e8fef1797e175a11e8d","snore","test","abstract-negative","Semantic","concrete","abstract",1,1727862747305,"abstract",1354,585,"abstract-negative","abstract","concrete;abstract",6.37161184723186,7.21081845347222,14
"415","66fc3e8fef1797e175a11e8d","presume","test","concrete-negative","Semantic","concrete","concrete",1,1727862748916,"concrete",1608,851,"concrete-negative","abstract","concrete;abstract",6.74641212857337,7.38274644973891,15
"416","66fc3e8fef1797e175a11e8d","meth","test","abstract-negative","Semantic","concrete","abstract",1,1727862752448,"abstract",3531,2770,"abstract-negative","abstract","concrete;abstract",7.92660259918138,8.16933639592839,16
"417","66fc3e8fef1797e175a11e8d","talk","test","abstract-positive","Semantic","concrete","abstract",1,1727862755453,"abstract",3002,2235,"abstract-positive","abstract","concrete;abstract",7.71199650704767,8.00703401219341,17
"418","66fc3e8fef1797e175a11e8d","behold","test","concrete-positive","Semantic","concrete","concrete",1,1727862757035,"concrete",1580,810,"concrete-positive","abstract","concrete;abstract",6.69703424766648,7.36518012602101,18
"419","66fc3e8fef1797e175a11e8d","envy","test","concrete-negative","Semantic","concrete","concrete",1,1727862759541,"concrete",2504,1736,"concrete-negative","abstract","concrete;abstract",7.4593388952203,7.82564473221999,19
"420","66fc3e8fef1797e175a11e8d","smack","test","abstract-negative","Semantic","concrete","abstract",1,1727862760987,"abstract",1444,684,"abstract-negative","abstract","concrete;abstract",6.52795791762255,7.27517231945277,20
"421","66fc3e8fef1797e175a11e8d","specialize","test","concrete-positive","Semantic","concrete","concrete",1,1727862764308,"concrete",3318,2549,"concrete-positive","abstract","concrete;abstract",7.84345640437612,8.10711747075039,21
"422","66fc3e8fef1797e175a11e8d","violate","test","concrete-negative","Semantic","concrete","abstract",0,1727862767864,"abstract",3554,2786,"concrete-negative","abstract","concrete;abstract",7.93236215433975,8.1758290087146,22
"423","66fc3e8fef1797e175a11e8d","distrust","test","concrete-negative","Semantic","concrete","concrete",1,1727862769858,"concrete",1992,1222,"concrete-negative","abstract","concrete;abstract",7.10824413973154,7.59689443814454,23
"424","66fc3e8fef1797e175a11e8d","crank","test","abstract-negative","Semantic","concrete","abstract",1,1727862771950,"abstract",2091,1316,"abstract-negative","abstract","concrete;abstract",7.18235211188526,7.64539769942863,24
"425","66fc3e8fef1797e175a11e8d","sing","test","abstract-positive","Semantic","concrete","abstract",1,1727862773586,"abstract",1634,870,"abstract-positive","abstract","concrete;abstract",6.76849321164863,7.39878627541995,25
"426","66fc3e8fef1797e175a11e8d","wish","test","concrete-positive","Semantic","concrete","concrete",1,1727862775813,"concrete",2224,1467,"concrete-positive","abstract","concrete;abstract",7.29097477814298,7.70706265537047,26
"427","66fc3e8fef1797e175a11e8d","improve","test","concrete-positive","Semantic","concrete","abstract",0,1727862777944,"abstract",2129,1368,"concrete-positive","abstract","concrete;abstract",7.2211050981825,7.66340766489348,27
"428","66fc3e8fef1797e175a11e8d","crushed","test","abstract-negative","Semantic","concrete","abstract",1,1727862780530,"abstract",2584,1815,"abstract-negative","abstract","concrete;abstract",7.50384074669895,7.85709386490249,28
"429","66fc3e8fef1797e175a11e8d","forgive","test","concrete-positive","Semantic","concrete","abstract",0,1727862782939,"abstract",2407,1636,"concrete-positive","abstract","concrete;abstract",7.40000951716269,7.78613643778307,29
"430","66fc3e8fef1797e175a11e8d","drool","test","abstract-negative","Semantic","concrete","abstract",1,1727862784638,"abstract",1697,939,"abstract-negative","abstract","concrete;abstract",6.84481547920826,7.43661726523423,30
"431","66fc3e8fef1797e175a11e8d","disappoint","test","concrete-negative","Semantic","concrete","abstract",0,1727862787259,"abstract",2619,1850,"concrete-negative","abstract","concrete;abstract",7.52294091807237,7.87054784450771,31
"432","66fc3e8fef1797e175a11e8d","qualify","test","concrete-positive","Semantic","concrete","concrete",1,1727862790688,"concrete",3427,2659,"concrete-positive","abstract","concrete;abstract",7.88570539124302,8.13944052187461,32
"433","66fc3e8fef1797e175a11e8d","exploit","test","concrete-negative","Semantic","concrete","abstract",0,1727862792818,"abstract",2129,1365,"concrete-negative","abstract","concrete;abstract",7.21890970761906,7.66340766489348,33
"434","66fc3e8fef1797e175a11e8d","laugh","test","abstract-positive","Semantic","concrete","abstract",1,1727862794217,"abstract",1397,641,"abstract-positive","abstract","concrete;abstract",6.46302945692067,7.24208235925696,34
"435","66fc3e8fef1797e175a11e8d","beware","test","concrete-negative","Semantic","concrete","concrete",1,1727862796112,"concrete",1893,1127,"concrete-negative","abstract","concrete;abstract",7.02731451403978,7.54591815120932,35
"436","66fc3e8fef1797e175a11e8d","justify","test","concrete-positive","Semantic","concrete","concrete",1,1727862798187,"concrete",2073,1305,"concrete-positive","abstract","concrete;abstract",7.17395831975679,7.63675211243578,36
"437","66fc3e8fef1797e175a11e8d","check","test","abstract-positive","Semantic","concrete","abstract",1,1727862799928,"abstract",1739,970,"abstract-positive","abstract","concrete;abstract",6.87729607149743,7.46106551435428,37
"438","66fc3e8fef1797e175a11e8d","sail","test","abstract-positive","Semantic","concrete","abstract",1,1727862801835,"abstract",1906,1137,"abstract-positive","abstract","concrete;abstract",7.03614849375054,7.55276208421415,38
"439","66fc3e8fef1797e175a11e8d","hope","test","concrete-positive","Semantic","concrete","concrete",1,1727862803766,"concrete",1929,1170,"concrete-positive","abstract","concrete;abstract",7.0647590277918,7.56475701290573,39
"440","66fc3e8fef1797e175a11e8d","breathe","test","abstract-positive","Semantic","concrete","abstract",1,1727862805179,"abstract",1411,656,"abstract-positive","abstract","concrete;abstract",6.48616078894409,7.25205395185281,40
"441","570bc1ffb9b52b00102db939","impose","test","concrete-negative","Semantic","concrete","concrete",1,1727861841726,"concrete",1796,1038,"concrete-negative","abstract","concrete;abstract",6.94505106372583,7.49331724886215,1
"442","570bc1ffb9b52b00102db939","befall","test","concrete-negative","Semantic","concrete","concrete",1,1727861843519,"concrete",1791,1037,"concrete-negative","abstract","concrete;abstract",6.94408720822953,7.49052940206071,2
