#
# Results on Tue, 01 Oct 2024 11:19:42 GMT
# USER AGENT: Mozilla/5.0 (Macintosh; Intel Mac OS X 10.15; rv:130.0) Gecko/20100101 Firefox/130.0
# Design number was non-random = 0
#
# Columns below this comment are as follows:
# 1. Results reception time.
# 2. MD5 hash of participant's IP address.
# 3. Controller name.
# 4. Order number of item.
# 5. Inner element number.
# 6. Label.
# 7. Latin Square Group.
# 8. PennElementType.
# 9. PennElementName.
# 10. Parameter.
# 11. Value.
# 12. EventTime.
# 13. Comments.
1727781582,25a532c9b46ab53d1edb3c631ab11742,PennController,1,0,welcome,NULL,PennController,0,_Trial_,Start,1727781486212,NULL
1727781582,25a532c9b46ab53d1edb3c631ab11742,PennController,1,0,welcome,NULL,PennController,0,_Header_,Start,1727781486212,NULL
1727781582,25a532c9b46ab53d1edb3c631ab11742,PennController,1,0,welcome,NULL,PennController,0,_Header_,End,1727781486464,NULL
1727781582,25a532c9b46ab53d1edb3c631ab11742,PennController,1,0,welcome,NULL,PennController,0,_Trial_,End,1727781489390,NULL
# 13. ID.
# 14. Comments.
1727781582,25a532c9b46ab53d1edb3c631ab11742,PennController,55,0,consent,NULL,PennController,3,_Trial_,Start,1727781489398,Morgan,NULL
1727781582,25a532c9b46ab53d1edb3c631ab11742,PennController,55,0,consent,NULL,PennController,3,_Header_,Start,1727781489398,Morgan,NULL
1727781582,25a532c9b46ab53d1edb3c631ab11742,PennController,55,0,consent,NULL,PennController,3,_Header_,End,1727781489651,Morgan,NULL
1727781582,25a532c9b46ab53d1edb3c631ab11742,PennController,55,0,consent,NULL,TextInput,ID,First,,1727781493070,Morgan,Shift
1727781582,25a532c9b46ab53d1edb3c631ab11742,PennController,55,0,consent,NULL,TextInput,ID,Final,Morgan,1727781494252,Morgan,NULL
1727781582,25a532c9b46ab53d1edb3c631ab11742,PennController,55,0,consent,NULL,PennController,3,_Trial_,End,1727781494252,Morgan,NULL
# 13. Comments.
1727781582,25a532c9b46ab53d1edb3c631ab11742,PennController,57,0,instructions1,NULL,PennController,5,_Trial_,Start,1727781494257,NULL
1727781582,25a532c9b46ab53d1edb3c631ab11742,PennController,57,0,instructions1,NULL,PennController,5,_Header_,Start,1727781494257,NULL
1727781582,25a532c9b46ab53d1edb3c631ab11742,PennController,57,0,instructions1,NULL,PennController,5,_Header_,End,1727781494510,NULL
1727781582,25a532c9b46ab53d1edb3c631ab11742,PennController,57,0,instructions1,NULL,PennController,5,_Trial_,End,1727781495874,NULL
1727781582,25a532c9b46ab53d1edb3c631ab11742,PennController,58,0,instructions2,NULL,PennController,6,_Trial_,Start,1727781495879,NULL
1727781582,25a532c9b46ab53d1edb3c631ab11742,PennController,58,0,instructions2,NULL,PennController,6,_Header_,Start,1727781495879,NULL
1727781582,25a532c9b46ab53d1edb3c631ab11742,PennController,58,0,instructions2,NULL,PennController,6,_Header_,End,1727781496129,NULL
1727781582,25a532c9b46ab53d1edb3c631ab11742,PennController,58,0,instructions2,NULL,PennController,6,_Trial_,End,1727781498685,NULL
1727781582,25a532c9b46ab53d1edb3c631ab11742,PennController,59,0,instructions3,NULL,PennController,7,_Trial_,Start,1727781498688,NULL
1727781582,25a532c9b46ab53d1edb3c631ab11742,PennController,59,0,instructions3,NULL,PennController,7,_Header_,Start,1727781498688,NULL
1727781582,25a532c9b46ab53d1edb3c631ab11742,PennController,59,0,instructions3,NULL,PennController,7,_Header_,End,1727781498942,NULL
1727781582,25a532c9b46ab53d1edb3c631ab11742,PennController,59,0,instructions3,NULL,PennController,7,_Trial_,End,1727781500947,NULL
1727781582,25a532c9b46ab53d1edb3c631ab11742,PennController,44,0,practice_intro,NULL,PennController,2,_Trial_,Start,1727781500951,NULL
1727781582,25a532c9b46ab53d1edb3c631ab11742,PennController,44,0,practice_intro,NULL,PennController,2,_Header_,Start,1727781500951,NULL
1727781582,25a532c9b46ab53d1edb3c631ab11742,PennController,44,0,practice_intro,NULL,PennController,2,_Header_,End,1727781501205,NULL
1727781582,25a532c9b46ab53d1edb3c631ab11742,PennController,44,0,practice_intro,NULL,PennController,2,_Trial_,End,1727781502726,NULL
# 13. ID.
# 14. ReactionTime.
# 15. Word.
# 16. Key_value_F.
# 17. Key_value_J.
# 18. Group.
# 19. Comments.
1727781582,25a532c9b46ab53d1edb3c631ab11742,PennController,48,0,calibrator,NULL,PennController,52,_Trial_,Start,1727781502730,undefined,1125,grasshopper,abstract,concrete,A,NULL
1727781582,25a532c9b46ab53d1edb3c631ab11742,PennController,48,0,calibrator,NULL,PennController,52,_Header_,Start,1727781502730,undefined,1125,grasshopper,abstract,concrete,A,NULL
1727781582,25a532c9b46ab53d1edb3c631ab11742,PennController,48,0,calibrator,NULL,PennController,52,_Header_,End,1727781502981,undefined,1125,grasshopper,abstract,concrete,A,NULL
1727781582,25a532c9b46ab53d1edb3c631ab11742,PennController,48,0,calibrator,NULL,Selector,unnamed-Selector,Selection,abstract,1727781504613,undefined,1125,grasshopper,abstract,concrete,A,abstract;concrete
1727781582,25a532c9b46ab53d1edb3c631ab11742,PennController,48,0,calibrator,NULL,PennController,52,_Trial_,End,1727781504615,undefined,1125,grasshopper,abstract,concrete,A,NULL
1727781582,25a532c9b46ab53d1edb3c631ab11742,PennController,46,0,calibrator,NULL,PennController,50,_Trial_,Start,1727781504619,undefined,609,infinity,abstract,concrete,A,NULL
1727781582,25a532c9b46ab53d1edb3c631ab11742,PennController,46,0,calibrator,NULL,PennController,50,_Header_,Start,1727781504619,undefined,609,infinity,abstract,concrete,A,NULL
1727781582,25a532c9b46ab53d1edb3c631ab11742,PennController,46,0,calibrator,NULL,PennController,50,_Header_,End,1727781504869,undefined,609,infinity,abstract,concrete,A,NULL
1727781582,25a532c9b46ab53d1edb3c631ab11742,PennController,46,0,calibrator,NULL,Selector,unnamed-Selector,Selection,concrete,1727781505983,undefined,609,infinity,abstract,concrete,A,abstract;concrete
1727781582,25a532c9b46ab53d1edb3c631ab11742,PennController,46,0,calibrator,NULL,PennController,50,_Trial_,End,1727781505984,undefined,609,infinity,abstract,concrete,A,NULL
1727781582,25a532c9b46ab53d1edb3c631ab11742,PennController,49,0,calibrator,NULL,PennController,53,_Trial_,Start,1727781505988,undefined,436,marriage,abstract,concrete,A,NULL
1727781582,25a532c9b46ab53d1edb3c631ab11742,PennController,49,0,calibrator,NULL,PennController,53,_Header_,Start,1727781505988,undefined,436,marriage,abstract,concrete,A,NULL
1727781582,25a532c9b46ab53d1edb3c631ab11742,PennController,49,0,calibrator,NULL,PennController,53,_Header_,End,1727781506240,undefined,436,marriage,abstract,concrete,A,NULL
1727781582,25a532c9b46ab53d1edb3c631ab11742,PennController,49,0,calibrator,NULL,Selector,unnamed-Selector,Selection,abstract,1727781507181,undefined,436,marriage,abstract,concrete,A,abstract;concrete
1727781582,25a532c9b46ab53d1edb3c631ab11742,PennController,49,0,calibrator,NULL,PennController,53,_Trial_,End,1727781507183,undefined,436,marriage,abstract,concrete,A,NULL
1727781582,25a532c9b46ab53d1edb3c631ab11742,PennController,54,0,calibrator,NULL,PennController,58,_Trial_,Start,1727781507186,undefined,442,sugar,abstract,concrete,A,NULL
1727781582,25a532c9b46ab53d1edb3c631ab11742,PennController,54,0,calibrator,NULL,PennController,58,_Header_,Start,1727781507186,undefined,442,sugar,abstract,concrete,A,NULL
1727781582,25a532c9b46ab53d1edb3c631ab11742,PennController,54,0,calibrator,NULL,PennController,58,_Header_,End,1727781507439,undefined,442,sugar,abstract,concrete,A,NULL
1727781582,25a532c9b46ab53d1edb3c631ab11742,PennController,54,0,calibrator,NULL,Selector,unnamed-Selector,Selection,concrete,1727781508385,undefined,442,sugar,abstract,concrete,A,abstract;concrete
1727781582,25a532c9b46ab53d1edb3c631ab11742,PennController,54,0,calibrator,NULL,PennController,58,_Trial_,End,1727781508387,undefined,442,sugar,abstract,concrete,A,NULL
1727781582,25a532c9b46ab53d1edb3c631ab11742,PennController,47,0,calibrator,NULL,PennController,51,_Trial_,Start,1727781508391,undefined,493,gas,abstract,concrete,A,NULL
1727781582,25a532c9b46ab53d1edb3c631ab11742,PennController,47,0,calibrator,NULL,PennController,51,_Header_,Start,1727781508391,undefined,493,gas,abstract,concrete,A,NULL
1727781582,25a532c9b46ab53d1edb3c631ab11742,PennController,47,0,calibrator,NULL,PennController,51,_Header_,End,1727781508644,undefined,493,gas,abstract,concrete,A,NULL
1727781582,25a532c9b46ab53d1edb3c631ab11742,PennController,47,0,calibrator,NULL,Selector,unnamed-Selector,Selection,abstract,1727781509642,undefined,493,gas,abstract,concrete,A,abstract;concrete
1727781582,25a532c9b46ab53d1edb3c631ab11742,PennController,47,0,calibrator,NULL,PennController,51,_Trial_,End,1727781509643,undefined,493,gas,abstract,concrete,A,NULL
1727781582,25a532c9b46ab53d1edb3c631ab11742,PennController,52,0,calibrator,NULL,PennController,56,_Trial_,Start,1727781509647,undefined,452,whistle,abstract,concrete,A,NULL
1727781582,25a532c9b46ab53d1edb3c631ab11742,PennController,52,0,calibrator,NULL,PennController,56,_Header_,Start,1727781509647,undefined,452,whistle,abstract,concrete,A,NULL
1727781582,25a532c9b46ab53d1edb3c631ab11742,PennController,52,0,calibrator,NULL,PennController,56,_Header_,End,1727781509901,undefined,452,whistle,abstract,concrete,A,NULL
1727781582,25a532c9b46ab53d1edb3c631ab11742,PennController,52,0,calibrator,NULL,Selector,unnamed-Selector,Selection,concrete,1727781510858,undefined,452,whistle,abstract,concrete,A,abstract;concrete
1727781582,25a532c9b46ab53d1edb3c631ab11742,PennController,52,0,calibrator,NULL,PennController,56,_Trial_,End,1727781510859,undefined,452,whistle,abstract,concrete,A,NULL
1727781582,25a532c9b46ab53d1edb3c631ab11742,PennController,51,0,calibrator,NULL,PennController,55,_Trial_,Start,1727781510862,undefined,387,polite,abstract,concrete,A,NULL
1727781582,25a532c9b46ab53d1edb3c631ab11742,PennController,51,0,calibrator,NULL,PennController,55,_Header_,Start,1727781510862,undefined,387,polite,abstract,concrete,A,NULL
1727781582,25a532c9b46ab53d1edb3c631ab11742,PennController,51,0,calibrator,NULL,PennController,55,_Header_,End,1727781511114,undefined,387,polite,abstract,concrete,A,NULL
1727781582,25a532c9b46ab53d1edb3c631ab11742,PennController,51,0,calibrator,NULL,Selector,unnamed-Selector,Selection,abstract,1727781512007,undefined,387,polite,abstract,concrete,A,abstract;concrete
1727781582,25a532c9b46ab53d1edb3c631ab11742,PennController,51,0,calibrator,NULL,PennController,55,_Trial_,End,1727781512008,undefined,387,polite,abstract,concrete,A,NULL
1727781582,25a532c9b46ab53d1edb3c631ab11742,PennController,53,0,calibrator,NULL,PennController,57,_Trial_,Start,1727781512010,undefined,389,theory,abstract,concrete,A,NULL
1727781582,25a532c9b46ab53d1edb3c631ab11742,PennController,53,0,calibrator,NULL,PennController,57,_Header_,Start,1727781512010,undefined,389,theory,abstract,concrete,A,NULL
1727781582,25a532c9b46ab53d1edb3c631ab11742,PennController,53,0,calibrator,NULL,PennController,57,_Header_,End,1727781512261,undefined,389,theory,abstract,concrete,A,NULL
1727781582,25a532c9b46ab53d1edb3c631ab11742,PennController,53,0,calibrator,NULL,Selector,unnamed-Selector,Selection,concrete,1727781513154,undefined,389,theory,abstract,concrete,A,abstract;concrete
1727781582,25a532c9b46ab53d1edb3c631ab11742,PennController,53,0,calibrator,NULL,PennController,57,_Trial_,End,1727781513156,undefined,389,theory,abstract,concrete,A,NULL
1727781582,25a532c9b46ab53d1edb3c631ab11742,PennController,50,0,calibrator,NULL,PennController,54,_Trial_,Start,1727781513159,undefined,547,kick,abstract,concrete,A,NULL
1727781582,25a532c9b46ab53d1edb3c631ab11742,PennController,50,0,calibrator,NULL,PennController,54,_Header_,Start,1727781513159,undefined,547,kick,abstract,concrete,A,NULL
1727781582,25a532c9b46ab53d1edb3c631ab11742,PennController,50,0,calibrator,NULL,PennController,54,_Header_,End,1727781513411,undefined,547,kick,abstract,concrete,A,NULL
1727781582,25a532c9b46ab53d1edb3c631ab11742,PennController,50,0,calibrator,NULL,Selector,unnamed-Selector,Selection,abstract,1727781514461,undefined,547,kick,abstract,concrete,A,abstract;concrete
1727781582,25a532c9b46ab53d1edb3c631ab11742,PennController,50,0,calibrator,NULL,PennController,54,_Trial_,End,1727781514463,undefined,547,kick,abstract,concrete,A,NULL
1727781582,25a532c9b46ab53d1edb3c631ab11742,PennController,45,0,calibrator,NULL,PennController,49,_Trial_,Start,1727781514466,undefined,473,shirt,abstract,concrete,A,NULL
1727781582,25a532c9b46ab53d1edb3c631ab11742,PennController,45,0,calibrator,NULL,PennController,49,_Header_,Start,1727781514466,undefined,473,shirt,abstract,concrete,A,NULL
1727781582,25a532c9b46ab53d1edb3c631ab11742,PennController,45,0,calibrator,NULL,PennController,49,_Header_,End,1727781514718,undefined,473,shirt,abstract,concrete,A,NULL
1727781582,25a532c9b46ab53d1edb3c631ab11742,PennController,45,0,calibrator,NULL,Selector,unnamed-Selector,Selection,concrete,1727781515697,undefined,473,shirt,abstract,concrete,A,abstract;concrete
1727781582,25a532c9b46ab53d1edb3c631ab11742,PennController,45,0,calibrator,NULL,PennController,49,_Trial_,End,1727781515698,undefined,473,shirt,abstract,concrete,A,NULL
# 13. Comments.
1727781582,25a532c9b46ab53d1edb3c631ab11742,PennController,60,0,endinstructions,NULL,PennController,8,_Trial_,Start,1727781515702,NULL
1727781582,25a532c9b46ab53d1edb3c631ab11742,PennController,60,0,endinstructions,NULL,PennController,8,_Header_,Start,1727781515702,NULL
1727781582,25a532c9b46ab53d1edb3c631ab11742,PennController,60,0,endinstructions,NULL,PennController,8,_Header_,End,1727781515955,NULL
1727781582,25a532c9b46ab53d1edb3c631ab11742,PennController,60,0,endinstructions,NULL,PennController,8,_Trial_,End,1727781520299,NULL
# 13. ID.
# 14. ReactionTime.
# 15. Word.
# 16. ConcValCombo.
# 17. Key_value_F.
# 18. Key_value_J.
# 19. Comments.
1727781582,25a532c9b46ab53d1edb3c631ab11742,PennController,11,0,test,NULL,PennController,16,_Trial_,Start,1727781520302,undefined,551,crank,abstract-negative,abstract,concrete,NULL
1727781582,25a532c9b46ab53d1edb3c631ab11742,PennController,11,0,test,NULL,PennController,16,_Header_,Start,1727781520302,undefined,551,crank,abstract-negative,abstract,concrete,NULL
1727781582,25a532c9b46ab53d1edb3c631ab11742,PennController,11,0,test,NULL,PennController,16,_Header_,End,1727781520556,undefined,551,crank,abstract-negative,abstract,concrete,NULL
1727781582,25a532c9b46ab53d1edb3c631ab11742,PennController,11,0,test,NULL,Selector,unnamed-Selector,Selection,abstract,1727781521612,undefined,551,crank,abstract-negative,abstract,concrete,concrete;abstract
1727781582,25a532c9b46ab53d1edb3c631ab11742,PennController,11,0,test,NULL,PennController,16,_Trial_,End,1727781521615,undefined,551,crank,abstract-negative,abstract,concrete,NULL
1727781582,25a532c9b46ab53d1edb3c631ab11742,PennController,21,0,test,NULL,PennController,26,_Trial_,Start,1727781521618,undefined,423,sail,abstract-positive,abstract,concrete,NULL
1727781582,25a532c9b46ab53d1edb3c631ab11742,PennController,21,0,test,NULL,PennController,26,_Header_,Start,1727781521618,undefined,423,sail,abstract-positive,abstract,concrete,NULL
1727781582,25a532c9b46ab53d1edb3c631ab11742,PennController,21,0,test,NULL,PennController,26,_Header_,End,1727781521869,undefined,423,sail,abstract-positive,abstract,concrete,NULL
1727781582,25a532c9b46ab53d1edb3c631ab11742,PennController,21,0,test,NULL,Selector,unnamed-Selector,Selection,concrete,1727781522795,undefined,423,sail,abstract-positive,abstract,concrete,concrete;abstract
1727781582,25a532c9b46ab53d1edb3c631ab11742,PennController,21,0,test,NULL,PennController,26,_Trial_,End,1727781522796,undefined,423,sail,abstract-positive,abstract,concrete,NULL
1727781582,25a532c9b46ab53d1edb3c631ab11742,PennController,28,0,test,NULL,PennController,33,_Trial_,Start,1727781522799,undefined,367,exploit,concrete-negative,abstract,concrete,NULL
1727781582,25a532c9b46ab53d1edb3c631ab11742,PennController,28,0,test,NULL,PennController,33,_Header_,Start,1727781522799,undefined,367,exploit,concrete-negative,abstract,concrete,NULL
1727781582,25a532c9b46ab53d1edb3c631ab11742,PennController,28,0,test,NULL,PennController,33,_Header_,End,1727781523051,undefined,367,exploit,concrete-negative,abstract,concrete,NULL
1727781582,25a532c9b46ab53d1edb3c631ab11742,PennController,28,0,test,NULL,Selector,unnamed-Selector,Selection,abstract,1727781523920,undefined,367,exploit,concrete-negative,abstract,concrete,concrete;abstract
1727781582,25a532c9b46ab53d1edb3c631ab11742,PennController,28,0,test,NULL,PennController,33,_Trial_,End,1727781523925,undefined,367,exploit,concrete-negative,abstract,concrete,NULL
1727781582,25a532c9b46ab53d1edb3c631ab11742,PennController,18,0,test,NULL,PennController,23,_Trial_,Start,1727781523932,undefined,331,breathe,abstract-positive,abstract,concrete,NULL
1727781582,25a532c9b46ab53d1edb3c631ab11742,PennController,18,0,test,NULL,PennController,23,_Header_,Start,1727781523932,undefined,331,breathe,abstract-positive,abstract,concrete,NULL
1727781582,25a532c9b46ab53d1edb3c631ab11742,PennController,18,0,test,NULL,PennController,23,_Header_,End,1727781524184,undefined,331,breathe,abstract-positive,abstract,concrete,NULL
1727781582,25a532c9b46ab53d1edb3c631ab11742,PennController,18,0,test,NULL,Selector,unnamed-Selector,Selection,concrete,1727781525021,undefined,331,breathe,abstract-positive,abstract,concrete,concrete;abstract
1727781582,25a532c9b46ab53d1edb3c631ab11742,PennController,18,0,test,NULL,PennController,23,_Trial_,End,1727781525023,undefined,331,breathe,abstract-positive,abstract,concrete,NULL
1727781582,25a532c9b46ab53d1edb3c631ab11742,PennController,5,0,test,NULL,PennController,10,_Trial_,Start,1727781525027,undefined,615,snore,abstract-negative,abstract,concrete,NULL
1727781582,25a532c9b46ab53d1edb3c631ab11742,PennController,5,0,test,NULL,PennController,10,_Header_,Start,1727781525027,undefined,615,snore,abstract-negative,abstract,concrete,NULL
1727781582,25a532c9b46ab53d1edb3c631ab11742,PennController,5,0,test,NULL,PennController,10,_Header_,End,1727781525278,undefined,615,snore,abstract-negative,abstract,concrete,NULL
1727781582,25a532c9b46ab53d1edb3c631ab11742,PennController,5,0,test,NULL,Selector,unnamed-Selector,Selection,abstract,1727781526395,undefined,615,snore,abstract-negative,abstract,concrete,concrete;abstract
1727781582,25a532c9b46ab53d1edb3c631ab11742,PennController,5,0,test,NULL,PennController,10,_Trial_,End,1727781526397,undefined,615,snore,abstract-negative,abstract,concrete,NULL
1727781582,25a532c9b46ab53d1edb3c631ab11742,PennController,41,0,test,NULL,PennController,46,_Trial_,Start,1727781526401,undefined,498,improve,concrete-positive,abstract,concrete,NULL
1727781582,25a532c9b46ab53d1edb3c631ab11742,PennController,41,0,test,NULL,PennController,46,_Header_,Start,1727781526401,undefined,498,improve,concrete-positive,abstract,concrete,NULL
1727781582,25a532c9b46ab53d1edb3c631ab11742,PennController,41,0,test,NULL,PennController,46,_Header_,End,1727781526654,undefined,498,improve,concrete-positive,abstract,concrete,NULL
1727781582,25a532c9b46ab53d1edb3c631ab11742,PennController,41,0,test,NULL,Selector,unnamed-Selector,Selection,abstract,1727781527656,undefined,498,improve,concrete-positive,abstract,concrete,concrete;abstract
1727781582,25a532c9b46ab53d1edb3c631ab11742,PennController,41,0,test,NULL,PennController,46,_Trial_,End,1727781527657,undefined,498,improve,concrete-positive,abstract,concrete,NULL
1727781582,25a532c9b46ab53d1edb3c631ab11742,PennController,20,0,test,NULL,PennController,25,_Trial_,Start,1727781527659,undefined,381,caress,abstract-positive,abstract,concrete,NULL
1727781582,25a532c9b46ab53d1edb3c631ab11742,PennController,20,0,test,NULL,PennController,25,_Header_,Start,1727781527659,undefined,381,caress,abstract-positive,abstract,concrete,NULL
1727781582,25a532c9b46ab53d1edb3c631ab11742,PennController,20,0,test,NULL,PennController,25,_Header_,End,1727781527914,undefined,381,caress,abstract-positive,abstract,concrete,NULL
1727781582,25a532c9b46ab53d1edb3c631ab11742,PennController,20,0,test,NULL,Selector,unnamed-Selector,Selection,abstract,1727781528802,undefined,381,caress,abstract-positive,abstract,concrete,concrete;abstract
1727781582,25a532c9b46ab53d1edb3c631ab11742,PennController,20,0,test,NULL,PennController,25,_Trial_,End,1727781528804,undefined,381,caress,abstract-positive,abstract,concrete,NULL
1727781582,25a532c9b46ab53d1edb3c631ab11742,PennController,6,0,test,NULL,PennController,11,_Trial_,Start,1727781528808,undefined,549,hurl,abstract-negative,abstract,concrete,NULL
1727781582,25a532c9b46ab53d1edb3c631ab11742,PennController,6,0,test,NULL,PennController,11,_Header_,Start,1727781528808,undefined,549,hurl,abstract-negative,abstract,concrete,NULL
1727781582,25a532c9b46ab53d1edb3c631ab11742,PennController,6,0,test,NULL,PennController,11,_Header_,End,1727781529061,undefined,549,hurl,abstract-negative,abstract,concrete,NULL
1727781582,25a532c9b46ab53d1edb3c631ab11742,PennController,6,0,test,NULL,Selector,unnamed-Selector,Selection,concrete,1727781530112,undefined,549,hurl,abstract-negative,abstract,concrete,concrete;abstract
1727781582,25a532c9b46ab53d1edb3c631ab11742,PennController,6,0,test,NULL,PennController,11,_Trial_,End,1727781530114,undefined,549,hurl,abstract-negative,abstract,concrete,NULL
1727781582,25a532c9b46ab53d1edb3c631ab11742,PennController,36,0,test,NULL,PennController,41,_Trial_,Start,1727781530117,undefined,573,feeling,concrete-positive,abstract,concrete,NULL
1727781582,25a532c9b46ab53d1edb3c631ab11742,PennController,36,0,test,NULL,PennController,41,_Header_,Start,1727781530117,undefined,573,feeling,concrete-positive,abstract,concrete,NULL
1727781582,25a532c9b46ab53d1edb3c631ab11742,PennController,36,0,test,NULL,PennController,41,_Header_,End,1727781530371,undefined,573,feeling,concrete-positive,abstract,concrete,NULL
1727781582,25a532c9b46ab53d1edb3c631ab11742,PennController,36,0,test,NULL,Selector,unnamed-Selector,Selection,abstract,1727781531446,undefined,573,feeling,concrete-positive,abstract,concrete,concrete;abstract
1727781582,25a532c9b46ab53d1edb3c631ab11742,PennController,36,0,test,NULL,PennController,41,_Trial_,End,1727781531448,undefined,573,feeling,concrete-positive,abstract,concrete,NULL
1727781582,25a532c9b46ab53d1edb3c631ab11742,PennController,37,0,test,NULL,PennController,42,_Trial_,Start,1727781531451,undefined,535,specialize,concrete-positive,abstract,concrete,NULL
1727781582,25a532c9b46ab53d1edb3c631ab11742,PennController,37,0,test,NULL,PennController,42,_Header_,Start,1727781531451,undefined,535,specialize,concrete-positive,abstract,concrete,NULL
1727781582,25a532c9b46ab53d1edb3c631ab11742,PennController,37,0,test,NULL,PennController,42,_Header_,End,1727781531704,undefined,535,specialize,concrete-positive,abstract,concrete,NULL
1727781582,25a532c9b46ab53d1edb3c631ab11742,PennController,37,0,test,NULL,Selector,unnamed-Selector,Selection,concrete,1727781532746,undefined,535,specialize,concrete-positive,abstract,concrete,concrete;abstract
1727781582,25a532c9b46ab53d1edb3c631ab11742,PennController,37,0,test,NULL,PennController,42,_Trial_,End,1727781532748,undefined,535,specialize,concrete-positive,abstract,concrete,NULL
1727781582,25a532c9b46ab53d1edb3c631ab11742,PennController,13,0,test,NULL,PennController,18,_Trial_,Start,1727781532752,undefined,312,smack,abstract-negative,abstract,concrete,NULL
1727781582,25a532c9b46ab53d1edb3c631ab11742,PennController,13,0,test,NULL,PennController,18,_Header_,Start,1727781532752,undefined,312,smack,abstract-negative,abstract,concrete,NULL
1727781582,25a532c9b46ab53d1edb3c631ab11742,PennController,13,0,test,NULL,PennController,18,_Header_,End,1727781533003,undefined,312,smack,abstract-negative,abstract,concrete,NULL
1727781582,25a532c9b46ab53d1edb3c631ab11742,PennController,13,0,test,NULL,Selector,unnamed-Selector,Selection,abstract,1727781533820,undefined,312,smack,abstract-negative,abstract,concrete,concrete;abstract
1727781582,25a532c9b46ab53d1edb3c631ab11742,PennController,13,0,test,NULL,PennController,18,_Trial_,End,1727781533821,undefined,312,smack,abstract-negative,abstract,concrete,NULL
1727781582,25a532c9b46ab53d1edb3c631ab11742,PennController,15,0,test,NULL,PennController,20,_Trial_,Start,1727781533824,undefined,595,bathe,abstract-positive,abstract,concrete,NULL
1727781582,25a532c9b46ab53d1edb3c631ab11742,PennController,15,0,test,NULL,PennController,20,_Header_,Start,1727781533824,undefined,595,bathe,abstract-positive,abstract,concrete,NULL
1727781582,25a532c9b46ab53d1edb3c631ab11742,PennController,15,0,test,NULL,PennController,20,_Header_,End,1727781534078,undefined,595,bathe,abstract-positive,abstract,concrete,NULL
1727781582,25a532c9b46ab53d1edb3c631ab11742,PennController,15,0,test,NULL,Selector,unnamed-Selector,Selection,concrete,1727781535180,undefined,595,bathe,abstract-positive,abstract,concrete,concrete;abstract
1727781582,25a532c9b46ab53d1edb3c631ab11742,PennController,15,0,test,NULL,PennController,20,_Trial_,End,1727781535181,undefined,595,bathe,abstract-positive,abstract,concrete,NULL
1727781582,25a532c9b46ab53d1edb3c631ab11742,PennController,38,0,test,NULL,PennController,43,_Trial_,Start,1727781535185,undefined,605,behold,concrete-positive,abstract,concrete,NULL
1727781582,25a532c9b46ab53d1edb3c631ab11742,PennController,38,0,test,NULL,PennController,43,_Header_,Start,1727781535185,undefined,605,behold,concrete-positive,abstract,concrete,NULL
1727781582,25a532c9b46ab53d1edb3c631ab11742,PennController,38,0,test,NULL,PennController,43,_Header_,End,1727781535435,undefined,605,behold,concrete-positive,abstract,concrete,NULL
1727781582,25a532c9b46ab53d1edb3c631ab11742,PennController,38,0,test,NULL,Selector,unnamed-Selector,Selection,abstract,1727781536546,undefined,605,behold,concrete-positive,abstract,concrete,concrete;abstract
1727781582,25a532c9b46ab53d1edb3c631ab11742,PennController,38,0,test,NULL,PennController,43,_Trial_,End,1727781536547,undefined,605,behold,concrete-positive,abstract,concrete,NULL
1727781582,25a532c9b46ab53d1edb3c631ab11742,PennController,10,0,test,NULL,PennController,15,_Trial_,Start,1727781536551,undefined,424,crushed,abstract-negative,abstract,concrete,NULL
1727781582,25a532c9b46ab53d1edb3c631ab11742,PennController,10,0,test,NULL,PennController,15,_Header_,Start,1727781536551,undefined,424,crushed,abstract-negative,abstract,concrete,NULL
1727781582,25a532c9b46ab53d1edb3c631ab11742,PennController,10,0,test,NULL,PennController,15,_Header_,End,1727781536806,undefined,424,crushed,abstract-negative,abstract,concrete,NULL
1727781582,25a532c9b46ab53d1edb3c631ab11742,PennController,10,0,test,NULL,Selector,unnamed-Selector,Selection,concrete,1727781537736,undefined,424,crushed,abstract-negative,abstract,concrete,concrete;abstract
1727781582,25a532c9b46ab53d1edb3c631ab11742,PennController,10,0,test,NULL,PennController,15,_Trial_,End,1727781537737,undefined,424,crushed,abstract-negative,abstract,concrete,NULL
1727781582,25a532c9b46ab53d1edb3c631ab11742,PennController,9,0,test,NULL,PennController,14,_Trial_,Start,1727781537741,undefined,451,drool,abstract-negative,abstract,concrete,NULL
1727781582,25a532c9b46ab53d1edb3c631ab11742,PennController,9,0,test,NULL,PennController,14,_Header_,Start,1727781537741,undefined,451,drool,abstract-negative,abstract,concrete,NULL
1727781582,25a532c9b46ab53d1edb3c631ab11742,PennController,9,0,test,NULL,PennController,14,_Header_,End,1727781537994,undefined,451,drool,abstract-negative,abstract,concrete,NULL
1727781582,25a532c9b46ab53d1edb3c631ab11742,PennController,9,0,test,NULL,Selector,unnamed-Selector,Selection,abstract,1727781538950,undefined,451,drool,abstract-negative,abstract,concrete,concrete;abstract
1727781582,25a532c9b46ab53d1edb3c631ab11742,PennController,9,0,test,NULL,PennController,14,_Trial_,End,1727781538951,undefined,451,drool,abstract-negative,abstract,concrete,NULL
1727781582,25a532c9b46ab53d1edb3c631ab11742,PennController,23,0,test,NULL,PennController,28,_Trial_,Start,1727781538954,undefined,404,sing,abstract-positive,abstract,concrete,NULL
1727781582,25a532c9b46ab53d1edb3c631ab11742,PennController,23,0,test,NULL,PennController,28,_Header_,Start,1727781538954,undefined,404,sing,abstract-positive,abstract,concrete,NULL
1727781582,25a532c9b46ab53d1edb3c631ab11742,PennController,23,0,test,NULL,PennController,28,_Header_,End,1727781539208,undefined,404,sing,abstract-positive,abstract,concrete,NULL
1727781582,25a532c9b46ab53d1edb3c631ab11742,PennController,23,0,test,NULL,Selector,unnamed-Selector,Selection,concrete,1727781540120,undefined,404,sing,abstract-positive,abstract,concrete,concrete;abstract
1727781582,25a532c9b46ab53d1edb3c631ab11742,PennController,23,0,test,NULL,PennController,28,_Trial_,End,1727781540121,undefined,404,sing,abstract-positive,abstract,concrete,NULL
1727781582,25a532c9b46ab53d1edb3c631ab11742,PennController,30,0,test,NULL,PennController,35,_Trial_,Start,1727781540125,undefined,532,envy,concrete-negative,abstract,concrete,NULL
1727781582,25a532c9b46ab53d1edb3c631ab11742,PennController,30,0,test,NULL,PennController,35,_Header_,Start,1727781540125,undefined,532,envy,concrete-negative,abstract,concrete,NULL
1727781582,25a532c9b46ab53d1edb3c631ab11742,PennController,30,0,test,NULL,PennController,35,_Header_,End,1727781540376,undefined,532,envy,concrete-negative,abstract,concrete,NULL
1727781582,25a532c9b46ab53d1edb3c631ab11742,PennController,30,0,test,NULL,Selector,unnamed-Selector,Selection,abstract,1727781541413,undefined,532,envy,concrete-negative,abstract,concrete,concrete;abstract
1727781582,25a532c9b46ab53d1edb3c631ab11742,PennController,30,0,test,NULL,PennController,35,_Trial_,End,1727781541415,undefined,532,envy,concrete-negative,abstract,concrete,NULL
1727781582,25a532c9b46ab53d1edb3c631ab11742,PennController,22,0,test,NULL,PennController,27,_Trial_,Start,1727781541418,undefined,575,talk,abstract-positive,abstract,concrete,NULL
1727781582,25a532c9b46ab53d1edb3c631ab11742,PennController,22,0,test,NULL,PennController,27,_Header_,Start,1727781541418,undefined,575,talk,abstract-positive,abstract,concrete,NULL
1727781582,25a532c9b46ab53d1edb3c631ab11742,PennController,22,0,test,NULL,PennController,27,_Header_,End,1727781541671,undefined,575,talk,abstract-positive,abstract,concrete,NULL
1727781582,25a532c9b46ab53d1edb3c631ab11742,PennController,22,0,test,NULL,Selector,unnamed-Selector,Selection,concrete,1727781542749,undefined,575,talk,abstract-positive,abstract,concrete,concrete;abstract
1727781582,25a532c9b46ab53d1edb3c631ab11742,PennController,22,0,test,NULL,PennController,27,_Trial_,End,1727781542751,undefined,575,talk,abstract-positive,abstract,concrete,NULL
1727781582,25a532c9b46ab53d1edb3c631ab11742,PennController,16,0,test,NULL,PennController,21,_Trial_,Start,1727781542754,undefined,1085,lick,abstract-positive,abstract,concrete,NULL
1727781582,25a532c9b46ab53d1edb3c631ab11742,PennController,16,0,test,NULL,PennController,21,_Header_,Start,1727781542754,undefined,1085,lick,abstract-positive,abstract,concrete,NULL
1727781582,25a532c9b46ab53d1edb3c631ab11742,PennController,16,0,test,NULL,PennController,21,_Header_,End,1727781543007,undefined,1085,lick,abstract-positive,abstract,concrete,NULL
1727781582,25a532c9b46ab53d1edb3c631ab11742,PennController,16,0,test,NULL,Selector,unnamed-Selector,Selection,abstract,1727781544598,undefined,1085,lick,abstract-positive,abstract,concrete,concrete;abstract
1727781582,25a532c9b46ab53d1edb3c631ab11742,PennController,16,0,test,NULL,PennController,21,_Trial_,End,1727781544599,undefined,1085,lick,abstract-positive,abstract,concrete,NULL
1727781582,25a532c9b46ab53d1edb3c631ab11742,PennController,26,0,test,NULL,PennController,31,_Trial_,Start,1727781544602,undefined,451,befall,concrete-negative,abstract,concrete,NULL
1727781582,25a532c9b46ab53d1edb3c631ab11742,PennController,26,0,test,NULL,PennController,31,_Header_,Start,1727781544602,undefined,451,befall,concrete-negative,abstract,concrete,NULL
1727781582,25a532c9b46ab53d1edb3c631ab11742,PennController,26,0,test,NULL,PennController,31,_Header_,End,1727781544856,undefined,451,befall,concrete-negative,abstract,concrete,NULL
1727781582,25a532c9b46ab53d1edb3c631ab11742,PennController,26,0,test,NULL,Selector,unnamed-Selector,Selection,concrete,1727781545813,undefined,451,befall,concrete-negative,abstract,concrete,concrete;abstract
1727781582,25a532c9b46ab53d1edb3c631ab11742,PennController,26,0,test,NULL,PennController,31,_Trial_,End,1727781545815,undefined,451,befall,concrete-negative,abstract,concrete,NULL
1727781582,25a532c9b46ab53d1edb3c631ab11742,PennController,24,0,test,NULL,PennController,29,_Trial_,Start,1727781545817,undefined,407,disappoint,concrete-negative,abstract,concrete,NULL
1727781582,25a532c9b46ab53d1edb3c631ab11742,PennController,24,0,test,NULL,PennController,29,_Header_,Start,1727781545817,undefined,407,disappoint,concrete-negative,abstract,concrete,NULL
1727781582,25a532c9b46ab53d1edb3c631ab11742,PennController,24,0,test,NULL,PennController,29,_Header_,End,1727781546071,undefined,407,disappoint,concrete-negative,abstract,concrete,NULL
1727781582,25a532c9b46ab53d1edb3c631ab11742,PennController,24,0,test,NULL,Selector,unnamed-Selector,Selection,abstract,1727781546981,undefined,407,disappoint,concrete-negative,abstract,concrete,concrete;abstract
1727781582,25a532c9b46ab53d1edb3c631ab11742,PennController,24,0,test,NULL,PennController,29,_Trial_,End,1727781546983,undefined,407,disappoint,concrete-negative,abstract,concrete,NULL
1727781582,25a532c9b46ab53d1edb3c631ab11742,PennController,33,0,test,NULL,PennController,38,_Trial_,Start,1727781546986,undefined,459,beware,concrete-negative,abstract,concrete,NULL
1727781582,25a532c9b46ab53d1edb3c631ab11742,PennController,33,0,test,NULL,PennController,38,_Header_,Start,1727781546986,undefined,459,beware,concrete-negative,abstract,concrete,NULL
1727781582,25a532c9b46ab53d1edb3c631ab11742,PennController,33,0,test,NULL,PennController,38,_Header_,End,1727781547236,undefined,459,beware,concrete-negative,abstract,concrete,NULL
1727781582,25a532c9b46ab53d1edb3c631ab11742,PennController,33,0,test,NULL,Selector,unnamed-Selector,Selection,abstract,1727781548198,undefined,459,beware,concrete-negative,abstract,concrete,concrete;abstract
1727781582,25a532c9b46ab53d1edb3c631ab11742,PennController,33,0,test,NULL,PennController,38,_Trial_,End,1727781548200,undefined,459,beware,concrete-negative,abstract,concrete,NULL
1727781582,25a532c9b46ab53d1edb3c631ab11742,PennController,39,0,test,NULL,PennController,44,_Trial_,Start,1727781548203,undefined,430,consider,concrete-positive,abstract,concrete,NULL
1727781582,25a532c9b46ab53d1edb3c631ab11742,PennController,39,0,test,NULL,PennController,44,_Header_,Start,1727781548203,undefined,430,consider,concrete-positive,abstract,concrete,NULL
1727781582,25a532c9b46ab53d1edb3c631ab11742,PennController,39,0,test,NULL,PennController,44,_Header_,End,1727781548454,undefined,430,consider,concrete-positive,abstract,concrete,NULL
1727781582,25a532c9b46ab53d1edb3c631ab11742,PennController,39,0,test,NULL,Selector,unnamed-Selector,Selection,concrete,1727781549390,undefined,430,consider,concrete-positive,abstract,concrete,concrete;abstract
1727781582,25a532c9b46ab53d1edb3c631ab11742,PennController,39,0,test,NULL,PennController,44,_Trial_,End,1727781549391,undefined,430,consider,concrete-positive,abstract,concrete,NULL
1727781582,25a532c9b46ab53d1edb3c631ab11742,PennController,40,0,test,NULL,PennController,45,_Trial_,Start,1727781549394,undefined,385,justify,concrete-positive,abstract,concrete,NULL
1727781582,25a532c9b46ab53d1edb3c631ab11742,PennController,40,0,test,NULL,PennController,45,_Header_,Start,1727781549394,undefined,385,justify,concrete-positive,abstract,concrete,NULL
1727781582,25a532c9b46ab53d1edb3c631ab11742,PennController,40,0,test,NULL,PennController,45,_Header_,End,1727781549644,undefined,385,justify,concrete-positive,abstract,concrete,NULL
1727781582,25a532c9b46ab53d1edb3c631ab11742,PennController,40,0,test,NULL,Selector,unnamed-Selector,Selection,concrete,1727781550538,undefined,385,justify,concrete-positive,abstract,concrete,concrete;abstract
1727781582,25a532c9b46ab53d1edb3c631ab11742,PennController,40,0,test,NULL,PennController,45,_Trial_,End,1727781550539,undefined,385,justify,concrete-positive,abstract,concrete,NULL
1727781582,25a532c9b46ab53d1edb3c631ab11742,PennController,8,0,test,NULL,PennController,13,_Trial_,Start,1727781550542,undefined,451,meth,abstract-negative,abstract,concrete,NULL
1727781582,25a532c9b46ab53d1edb3c631ab11742,PennController,8,0,test,NULL,PennController,13,_Header_,Start,1727781550542,undefined,451,meth,abstract-negative,abstract,concrete,NULL
1727781582,25a532c9b46ab53d1edb3c631ab11742,PennController,8,0,test,NULL,PennController,13,_Header_,End,1727781550797,undefined,451,meth,abstract-negative,abstract,concrete,NULL
1727781582,25a532c9b46ab53d1edb3c631ab11742,PennController,8,0,test,NULL,Selector,unnamed-Selector,Selection,abstract,1727781551753,undefined,451,meth,abstract-negative,abstract,concrete,concrete;abstract
1727781582,25a532c9b46ab53d1edb3c631ab11742,PennController,8,0,test,NULL,PennController,13,_Trial_,End,1727781551754,undefined,451,meth,abstract-negative,abstract,concrete,NULL
1727781582,25a532c9b46ab53d1edb3c631ab11742,PennController,35,0,test,NULL,PennController,40,_Trial_,Start,1727781551757,undefined,458,hope,concrete-positive,abstract,concrete,NULL
1727781582,25a532c9b46ab53d1edb3c631ab11742,PennController,35,0,test,NULL,PennController,40,_Header_,Start,1727781551757,undefined,458,hope,concrete-positive,abstract,concrete,NULL
1727781582,25a532c9b46ab53d1edb3c631ab11742,PennController,35,0,test,NULL,PennController,40,_Header_,End,1727781552008,undefined,458,hope,concrete-positive,abstract,concrete,NULL
1727781582,25a532c9b46ab53d1edb3c631ab11742,PennController,35,0,test,NULL,Selector,unnamed-Selector,Selection,concrete,1727781552970,undefined,458,hope,concrete-positive,abstract,concrete,concrete;abstract
1727781582,25a532c9b46ab53d1edb3c631ab11742,PennController,35,0,test,NULL,PennController,40,_Trial_,End,1727781552972,undefined,458,hope,concrete-positive,abstract,concrete,NULL
1727781582,25a532c9b46ab53d1edb3c631ab11742,PennController,25,0,test,NULL,PennController,30,_Trial_,Start,1727781552974,undefined,634,discourage,concrete-negative,abstract,concrete,NULL
1727781582,25a532c9b46ab53d1edb3c631ab11742,PennController,25,0,test,NULL,PennController,30,_Header_,Start,1727781552974,undefined,634,discourage,concrete-negative,abstract,concrete,NULL
1727781582,25a532c9b46ab53d1edb3c631ab11742,PennController,25,0,test,NULL,PennController,30,_Header_,End,1727781553225,undefined,634,discourage,concrete-negative,abstract,concrete,NULL
1727781582,25a532c9b46ab53d1edb3c631ab11742,PennController,25,0,test,NULL,Selector,unnamed-Selector,Selection,abstract,1727781554363,undefined,634,discourage,concrete-negative,abstract,concrete,concrete;abstract
1727781582,25a532c9b46ab53d1edb3c631ab11742,PennController,25,0,test,NULL,PennController,30,_Trial_,End,1727781554364,undefined,634,discourage,concrete-negative,abstract,concrete,NULL
1727781582,25a532c9b46ab53d1edb3c631ab11742,PennController,32,0,test,NULL,PennController,37,_Trial_,Start,1727781554367,undefined,486,violate,concrete-negative,abstract,concrete,NULL
1727781582,25a532c9b46ab53d1edb3c631ab11742,PennController,32,0,test,NULL,PennController,37,_Header_,Start,1727781554367,undefined,486,violate,concrete-negative,abstract,concrete,NULL
1727781582,25a532c9b46ab53d1edb3c631ab11742,PennController,32,0,test,NULL,PennController,37,_Header_,End,1727781554618,undefined,486,violate,concrete-negative,abstract,concrete,NULL
1727781582,25a532c9b46ab53d1edb3c631ab11742,PennController,32,0,test,NULL,Selector,unnamed-Selector,Selection,concrete,1727781555611,undefined,486,violate,concrete-negative,abstract,concrete,concrete;abstract
1727781582,25a532c9b46ab53d1edb3c631ab11742,PennController,32,0,test,NULL,PennController,37,_Trial_,End,1727781555611,undefined,486,violate,concrete-negative,abstract,concrete,NULL
1727781582,25a532c9b46ab53d1edb3c631ab11742,PennController,4,0,test,NULL,PennController,9,_Trial_,Start,1727781555614,undefined,527,whip,abstract-negative,abstract,concrete,NULL
1727781582,25a532c9b46ab53d1edb3c631ab11742,PennController,4,0,test,NULL,PennController,9,_Header_,Start,1727781555614,undefined,527,whip,abstract-negative,abstract,concrete,NULL
1727781582,25a532c9b46ab53d1edb3c631ab11742,PennController,4,0,test,NULL,PennController,9,_Header_,End,1727781555865,undefined,527,whip,abstract-negative,abstract,concrete,NULL
1727781582,25a532c9b46ab53d1edb3c631ab11742,PennController,4,0,test,NULL,Selector,unnamed-Selector,Selection,abstract,1727781556897,undefined,527,whip,abstract-negative,abstract,concrete,concrete;abstract
1727781582,25a532c9b46ab53d1edb3c631ab11742,PennController,4,0,test,NULL,PennController,9,_Trial_,End,1727781556898,undefined,527,whip,abstract-negative,abstract,concrete,NULL
1727781582,25a532c9b46ab53d1edb3c631ab11742,PennController,19,0,test,NULL,PennController,24,_Trial_,Start,1727781556901,undefined,589,running,abstract-positive,abstract,concrete,NULL
1727781582,25a532c9b46ab53d1edb3c631ab11742,PennController,19,0,test,NULL,PennController,24,_Header_,Start,1727781556901,undefined,589,running,abstract-positive,abstract,concrete,NULL
1727781582,25a532c9b46ab53d1edb3c631ab11742,PennController,19,0,test,NULL,PennController,24,_Header_,End,1727781557152,undefined,589,running,abstract-positive,abstract,concrete,NULL
1727781582,25a532c9b46ab53d1edb3c631ab11742,PennController,19,0,test,NULL,Selector,unnamed-Selector,Selection,concrete,1727781558248,undefined,589,running,abstract-positive,abstract,concrete,concrete;abstract
1727781582,25a532c9b46ab53d1edb3c631ab11742,PennController,19,0,test,NULL,PennController,24,_Trial_,End,1727781558248,undefined,589,running,abstract-positive,abstract,concrete,NULL
1727781582,25a532c9b46ab53d1edb3c631ab11742,PennController,12,0,test,NULL,PennController,17,_Trial_,Start,1727781558251,undefined,430,frown,abstract-negative,abstract,concrete,NULL
1727781582,25a532c9b46ab53d1edb3c631ab11742,PennController,12,0,test,NULL,PennController,17,_Header_,Start,1727781558251,undefined,430,frown,abstract-negative,abstract,concrete,NULL
1727781582,25a532c9b46ab53d1edb3c631ab11742,PennController,12,0,test,NULL,PennController,17,_Header_,End,1727781558502,undefined,430,frown,abstract-negative,abstract,concrete,NULL
1727781582,25a532c9b46ab53d1edb3c631ab11742,PennController,12,0,test,NULL,Selector,unnamed-Selector,Selection,abstract,1727781559437,undefined,430,frown,abstract-negative,abstract,concrete,concrete;abstract
1727781582,25a532c9b46ab53d1edb3c631ab11742,PennController,12,0,test,NULL,PennController,17,_Trial_,End,1727781559438,undefined,430,frown,abstract-negative,abstract,concrete,NULL
1727781582,25a532c9b46ab53d1edb3c631ab11742,PennController,7,0,test,NULL,PennController,12,_Trial_,Start,1727781559441,undefined,388,fall,abstract-negative,abstract,concrete,NULL
1727781582,25a532c9b46ab53d1edb3c631ab11742,PennController,7,0,test,NULL,PennController,12,_Header_,Start,1727781559441,undefined,388,fall,abstract-negative,abstract,concrete,NULL
1727781582,25a532c9b46ab53d1edb3c631ab11742,PennController,7,0,test,NULL,PennController,12,_Header_,End,1727781559692,undefined,388,fall,abstract-negative,abstract,concrete,NULL
1727781582,25a532c9b46ab53d1edb3c631ab11742,PennController,7,0,test,NULL,Selector,unnamed-Selector,Selection,concrete,1727781560584,undefined,388,fall,abstract-negative,abstract,concrete,concrete;abstract
1727781582,25a532c9b46ab53d1edb3c631ab11742,PennController,7,0,test,NULL,PennController,12,_Trial_,End,1727781560586,undefined,388,fall,abstract-negative,abstract,concrete,NULL
1727781582,25a532c9b46ab53d1edb3c631ab11742,PennController,17,0,test,NULL,PennController,22,_Trial_,Start,1727781560589,undefined,537,laugh,abstract-positive,abstract,concrete,NULL
1727781582,25a532c9b46ab53d1edb3c631ab11742,PennController,17,0,test,NULL,PennController,22,_Header_,Start,1727781560589,undefined,537,laugh,abstract-positive,abstract,concrete,NULL
1727781582,25a532c9b46ab53d1edb3c631ab11742,PennController,17,0,test,NULL,PennController,22,_Header_,End,1727781560840,undefined,537,laugh,abstract-positive,abstract,concrete,NULL
1727781582,25a532c9b46ab53d1edb3c631ab11742,PennController,17,0,test,NULL,Selector,unnamed-Selector,Selection,abstract,1727781561881,undefined,537,laugh,abstract-positive,abstract,concrete,concrete;abstract
1727781582,25a532c9b46ab53d1edb3c631ab11742,PennController,17,0,test,NULL,PennController,22,_Trial_,End,1727781561882,undefined,537,laugh,abstract-positive,abstract,concrete,NULL
1727781582,25a532c9b46ab53d1edb3c631ab11742,PennController,29,0,test,NULL,PennController,34,_Trial_,Start,1727781561885,undefined,464,distrust,concrete-negative,abstract,concrete,NULL
1727781582,25a532c9b46ab53d1edb3c631ab11742,PennController,29,0,test,NULL,PennController,34,_Header_,Start,1727781561885,undefined,464,distrust,concrete-negative,abstract,concrete,NULL
1727781582,25a532c9b46ab53d1edb3c631ab11742,PennController,29,0,test,NULL,PennController,34,_Header_,End,1727781562137,undefined,464,distrust,concrete-negative,abstract,concrete,NULL
1727781582,25a532c9b46ab53d1edb3c631ab11742,PennController,29,0,test,NULL,Selector,unnamed-Selector,Selection,concrete,1727781563104,undefined,464,distrust,concrete-negative,abstract,concrete,concrete;abstract
1727781582,25a532c9b46ab53d1edb3c631ab11742,PennController,29,0,test,NULL,PennController,34,_Trial_,End,1727781563106,undefined,464,distrust,concrete-negative,abstract,concrete,NULL
1727781582,25a532c9b46ab53d1edb3c631ab11742,PennController,42,0,test,NULL,PennController,47,_Trial_,Start,1727781563109,undefined,497,wish,concrete-positive,abstract,concrete,NULL
1727781582,25a532c9b46ab53d1edb3c631ab11742,PennController,42,0,test,NULL,PennController,47,_Header_,Start,1727781563109,undefined,497,wish,concrete-positive,abstract,concrete,NULL
1727781582,25a532c9b46ab53d1edb3c631ab11742,PennController,42,0,test,NULL,PennController,47,_Header_,End,1727781563360,undefined,497,wish,concrete-positive,abstract,concrete,NULL
1727781582,25a532c9b46ab53d1edb3c631ab11742,PennController,42,0,test,NULL,Selector,unnamed-Selector,Selection,abstract,1727781564363,undefined,497,wish,concrete-positive,abstract,concrete,concrete;abstract
1727781582,25a532c9b46ab53d1edb3c631ab11742,PennController,42,0,test,NULL,PennController,47,_Trial_,End,1727781564363,undefined,497,wish,concrete-positive,abstract,concrete,NULL
1727781582,25a532c9b46ab53d1edb3c631ab11742,PennController,14,0,test,NULL,PennController,19,_Trial_,Start,1727781564365,undefined,434,check,abstract-positive,abstract,concrete,NULL
1727781582,25a532c9b46ab53d1edb3c631ab11742,PennController,14,0,test,NULL,PennController,19,_Header_,Start,1727781564365,undefined,434,check,abstract-positive,abstract,concrete,NULL
1727781582,25a532c9b46ab53d1edb3c631ab11742,PennController,14,0,test,NULL,PennController,19,_Header_,End,1727781564617,undefined,434,check,abstract-positive,abstract,concrete,NULL
1727781582,25a532c9b46ab53d1edb3c631ab11742,PennController,14,0,test,NULL,Selector,unnamed-Selector,Selection,concrete,1727781565556,undefined,434,check,abstract-positive,abstract,concrete,concrete;abstract
1727781582,25a532c9b46ab53d1edb3c631ab11742,PennController,14,0,test,NULL,PennController,19,_Trial_,End,1727781565557,undefined,434,check,abstract-positive,abstract,concrete,NULL
1727781582,25a532c9b46ab53d1edb3c631ab11742,PennController,34,0,test,NULL,PennController,39,_Trial_,Start,1727781565559,undefined,491,qualify,concrete-positive,abstract,concrete,NULL
1727781582,25a532c9b46ab53d1edb3c631ab11742,PennController,34,0,test,NULL,PennController,39,_Header_,Start,1727781565559,undefined,491,qualify,concrete-positive,abstract,concrete,NULL
1727781582,25a532c9b46ab53d1edb3c631ab11742,PennController,34,0,test,NULL,PennController,39,_Header_,End,1727781565811,undefined,491,qualify,concrete-positive,abstract,concrete,NULL
1727781582,25a532c9b46ab53d1edb3c631ab11742,PennController,34,0,test,NULL,Selector,unnamed-Selector,Selection,abstract,1727781566805,undefined,491,qualify,concrete-positive,abstract,concrete,concrete;abstract
1727781582,25a532c9b46ab53d1edb3c631ab11742,PennController,34,0,test,NULL,PennController,39,_Trial_,End,1727781566807,undefined,491,qualify,concrete-positive,abstract,concrete,NULL
1727781582,25a532c9b46ab53d1edb3c631ab11742,PennController,43,0,test,NULL,PennController,48,_Trial_,Start,1727781566809,undefined,318,forgive,concrete-positive,abstract,concrete,NULL
1727781582,25a532c9b46ab53d1edb3c631ab11742,PennController,43,0,test,NULL,PennController,48,_Header_,Start,1727781566809,undefined,318,forgive,concrete-positive,abstract,concrete,NULL
1727781582,25a532c9b46ab53d1edb3c631ab11742,PennController,43,0,test,NULL,PennController,48,_Header_,End,1727781567063,undefined,318,forgive,concrete-positive,abstract,concrete,NULL
1727781582,25a532c9b46ab53d1edb3c631ab11742,PennController,43,0,test,NULL,Selector,unnamed-Selector,Selection,concrete,1727781567888,undefined,318,forgive,concrete-positive,abstract,concrete,concrete;abstract
1727781582,25a532c9b46ab53d1edb3c631ab11742,PennController,43,0,test,NULL,PennController,48,_Trial_,End,1727781567889,undefined,318,forgive,concrete-positive,abstract,concrete,NULL
1727781582,25a532c9b46ab53d1edb3c631ab11742,PennController,31,0,test,NULL,PennController,36,_Trial_,Start,1727781567891,undefined,317,presume,concrete-negative,abstract,concrete,NULL
1727781582,25a532c9b46ab53d1edb3c631ab11742,PennController,31,0,test,NULL,PennController,36,_Header_,Start,1727781567891,undefined,317,presume,concrete-negative,abstract,concrete,NULL
1727781582,25a532c9b46ab53d1edb3c631ab11742,PennController,31,0,test,NULL,PennController,36,_Header_,End,1727781568143,undefined,317,presume,concrete-negative,abstract,concrete,NULL
1727781582,25a532c9b46ab53d1edb3c631ab11742,PennController,31,0,test,NULL,Selector,unnamed-Selector,Selection,abstract,1727781568964,undefined,317,presume,concrete-negative,abstract,concrete,concrete;abstract
1727781582,25a532c9b46ab53d1edb3c631ab11742,PennController,31,0,test,NULL,PennController,36,_Trial_,End,1727781568965,undefined,317,presume,concrete-negative,abstract,concrete,NULL
1727781582,25a532c9b46ab53d1edb3c631ab11742,PennController,27,0,test,NULL,PennController,32,_Trial_,Start,1727781568968,undefined,191,impose,concrete-negative,abstract,concrete,NULL
1727781582,25a532c9b46ab53d1edb3c631ab11742,PennController,27,0,test,NULL,PennController,32,_Header_,Start,1727781568968,undefined,191,impose,concrete-negative,abstract,concrete,NULL
1727781582,25a532c9b46ab53d1edb3c631ab11742,PennController,27,0,test,NULL,PennController,32,_Header_,End,1727781569219,undefined,191,impose,concrete-negative,abstract,concrete,NULL
1727781582,25a532c9b46ab53d1edb3c631ab11742,PennController,27,0,test,NULL,Selector,unnamed-Selector,Selection,abstract,1727781569915,undefined,191,impose,concrete-negative,abstract,concrete,concrete;abstract
1727781582,25a532c9b46ab53d1edb3c631ab11742,PennController,27,0,test,NULL,PennController,32,_Trial_,End,1727781569916,undefined,191,impose,concrete-negative,abstract,concrete,NULL
# 13. NativeLang.
# 14. OtherLangs.
# 15. Gender.
# 16. Education.
# 17. Comments.
# 18. Comments.
1727781582,25a532c9b46ab53d1edb3c631ab11742,PennController,56,0,demo,NULL,PennController,4,_Trial_,Start,1727781569919,eng,,undefined,undefined,undefined,NULL
1727781582,25a532c9b46ab53d1edb3c631ab11742,PennController,56,0,demo,NULL,PennController,4,_Header_,Start,1727781569919,eng,,undefined,undefined,undefined,NULL
1727781582,25a532c9b46ab53d1edb3c631ab11742,PennController,56,0,demo,NULL,PennController,4,_Header_,End,1727781570171,eng,,undefined,undefined,undefined,NULL
1727781582,25a532c9b46ab53d1edb3c631ab11742,PennController,56,0,demo,NULL,TextInput,NativeLang,First,,1727781578936,eng,,undefined,undefined,undefined,e
1727781582,25a532c9b46ab53d1edb3c631ab11742,PennController,56,0,demo,NULL,TextInput,Gender,Final,,1727781582241,eng,,undefined,undefined,undefined,NULL
1727781582,25a532c9b46ab53d1edb3c631ab11742,PennController,56,0,demo,NULL,TextInput,Education,Final,,1727781582241,eng,,undefined,undefined,undefined,NULL
1727781582,25a532c9b46ab53d1edb3c631ab11742,PennController,56,0,demo,NULL,TextInput,NativeLang,Final,eng,1727781582241,eng,,undefined,undefined,undefined,NULL
1727781582,25a532c9b46ab53d1edb3c631ab11742,PennController,56,0,demo,NULL,PennController,4,_Trial_,End,1727781582241,eng,,undefined,undefined,undefined,NULL