#
# Results on Mon, 14 Oct 2024 13:36:55 GMT
# USER AGENT: Mozilla/5.0 (Macintosh; Intel Mac OS X 10_15_7) AppleWebKit/537.36 (KHTML, like Gecko) Chrome/129.0.0.0 Safari/537.36
# Design number was non-random = 0
#
# Columns below this comment are as follows:
# 1. Results reception time.
# 2. MD5 hash of participant's IP address.
# 3. Controller name.
# 4. Order number of item.
# 5. Inner element number.
# 6. Label.
# 7. Latin Square Group.
# 8. PennElementType.
# 9. PennElementName.
# 10. Parameter.
# 11. Value.
# 12. EventTime.
# 13. Comments.
1728913015,177522ee9c9160201e898c03674ce4f7,PennController,1,0,welcome,NULL,PennController,0,_Trial_,Start,1728912833007,NULL
1728913015,177522ee9c9160201e898c03674ce4f7,PennController,1,0,welcome,NULL,PennController,0,_Header_,Start,1728912833008,NULL
1728913015,177522ee9c9160201e898c03674ce4f7,PennController,1,0,welcome,NULL,PennController,0,_Header_,End,1728912833260,NULL
1728913015,177522ee9c9160201e898c03674ce4f7,PennController,1,0,welcome,NULL,PennController,0,_Trial_,End,1728912834639,NULL
# 13. ID.
# 14. Comments.
1728913015,177522ee9c9160201e898c03674ce4f7,PennController,105,0,consent,NULL,PennController,3,_Trial_,Start,1728912834643,610508c09d61c098f072605b,NULL
1728913015,177522ee9c9160201e898c03674ce4f7,PennController,105,0,consent,NULL,PennController,3,_Header_,Start,1728912834643,610508c09d61c098f072605b,NULL
1728913015,177522ee9c9160201e898c03674ce4f7,PennController,105,0,consent,NULL,PennController,3,_Header_,End,1728912834895,610508c09d61c098f072605b,NULL
1728913015,177522ee9c9160201e898c03674ce4f7,PennController,105,0,consent,NULL,TextInput,ID,First,,1728912837070,610508c09d61c098f072605b,Meta
1728913015,177522ee9c9160201e898c03674ce4f7,PennController,105,0,consent,NULL,TextInput,ID,Final,610508c09d61c098f072605b,1728912840949,610508c09d61c098f072605b,NULL
1728913015,177522ee9c9160201e898c03674ce4f7,PennController,105,0,consent,NULL,PennController,3,_Trial_,End,1728912840949,610508c09d61c098f072605b,NULL
# 13. Comments.
1728913015,177522ee9c9160201e898c03674ce4f7,PennController,107,0,instructions1_conc,NULL,PennController,5,_Trial_,Start,1728912840951,NULL
1728913015,177522ee9c9160201e898c03674ce4f7,PennController,107,0,instructions1_conc,NULL,PennController,5,_Header_,Start,1728912840951,NULL
1728913015,177522ee9c9160201e898c03674ce4f7,PennController,107,0,instructions1_conc,NULL,PennController,5,_Header_,End,1728912841204,NULL
1728913015,177522ee9c9160201e898c03674ce4f7,PennController,107,0,instructions1_conc,NULL,PennController,5,_Trial_,End,1728912847199,NULL
1728913015,177522ee9c9160201e898c03674ce4f7,PennController,108,0,instructions2_conc,NULL,PennController,6,_Trial_,Start,1728912847200,NULL
1728913015,177522ee9c9160201e898c03674ce4f7,PennController,108,0,instructions2_conc,NULL,PennController,6,_Header_,Start,1728912847200,NULL
1728913015,177522ee9c9160201e898c03674ce4f7,PennController,108,0,instructions2_conc,NULL,PennController,6,_Header_,End,1728912847452,NULL
1728913015,177522ee9c9160201e898c03674ce4f7,PennController,108,0,instructions2_conc,NULL,PennController,6,_Trial_,End,1728912854330,NULL
1728913015,177522ee9c9160201e898c03674ce4f7,PennController,114,0,instructions3_hands,NULL,PennController,12,_Trial_,Start,1728912854331,NULL
1728913015,177522ee9c9160201e898c03674ce4f7,PennController,114,0,instructions3_hands,NULL,PennController,12,_Header_,Start,1728912854331,NULL
1728913015,177522ee9c9160201e898c03674ce4f7,PennController,114,0,instructions3_hands,NULL,PennController,12,_Header_,End,1728912854581,NULL
1728913015,177522ee9c9160201e898c03674ce4f7,PennController,114,0,instructions3_hands,NULL,PennController,12,_Trial_,End,1728912857113,NULL
1728913015,177522ee9c9160201e898c03674ce4f7,PennController,84,0,practice_intro,NULL,PennController,2,_Trial_,Start,1728912857114,NULL
1728913015,177522ee9c9160201e898c03674ce4f7,PennController,84,0,practice_intro,NULL,PennController,2,_Header_,Start,1728912857114,NULL
1728913015,177522ee9c9160201e898c03674ce4f7,PennController,84,0,practice_intro,NULL,PennController,2,_Header_,End,1728912857365,NULL
1728913015,177522ee9c9160201e898c03674ce4f7,PennController,84,0,practice_intro,NULL,PennController,2,_Trial_,End,1728912858767,NULL
# 13. ID.
# 14. ReactionTime.
# 15. Word.
# 16. Key_value_F.
# 17. Key_value_J.
# 18. Group.
# 19. Comments.
1728913015,177522ee9c9160201e898c03674ce4f7,PennController,92,0,calibrator_conc,NULL,PennController,101,_Trial_,Start,1728912858768,undefined,1259,whistle,abstract,concrete,A,NULL
1728913015,177522ee9c9160201e898c03674ce4f7,PennController,92,0,calibrator_conc,NULL,PennController,101,_Header_,Start,1728912858768,undefined,1259,whistle,abstract,concrete,A,NULL
1728913015,177522ee9c9160201e898c03674ce4f7,PennController,92,0,calibrator_conc,NULL,PennController,101,_Header_,End,1728912859020,undefined,1259,whistle,abstract,concrete,A,NULL
1728913015,177522ee9c9160201e898c03674ce4f7,PennController,92,0,calibrator_conc,NULL,Selector,unnamed-Selector,Selection,concrete,1728912860782,undefined,1259,whistle,abstract,concrete,A,abstract;concrete
1728913015,177522ee9c9160201e898c03674ce4f7,PennController,92,0,calibrator_conc,NULL,PennController,101,_Trial_,End,1728912860784,undefined,1259,whistle,abstract,concrete,A,NULL
1728913015,177522ee9c9160201e898c03674ce4f7,PennController,86,0,calibrator_conc,NULL,PennController,95,_Trial_,Start,1728912860785,undefined,912,infinity,abstract,concrete,A,NULL
1728913015,177522ee9c9160201e898c03674ce4f7,PennController,86,0,calibrator_conc,NULL,PennController,95,_Header_,Start,1728912860785,undefined,912,infinity,abstract,concrete,A,NULL
1728913015,177522ee9c9160201e898c03674ce4f7,PennController,86,0,calibrator_conc,NULL,PennController,95,_Header_,End,1728912861038,undefined,912,infinity,abstract,concrete,A,NULL
1728913015,177522ee9c9160201e898c03674ce4f7,PennController,86,0,calibrator_conc,NULL,Selector,unnamed-Selector,Selection,abstract,1728912862451,undefined,912,infinity,abstract,concrete,A,abstract;concrete
1728913015,177522ee9c9160201e898c03674ce4f7,PennController,86,0,calibrator_conc,NULL,PennController,95,_Trial_,End,1728912862452,undefined,912,infinity,abstract,concrete,A,NULL
1728913015,177522ee9c9160201e898c03674ce4f7,PennController,90,0,calibrator_conc,NULL,PennController,99,_Trial_,Start,1728912862453,undefined,668,kick,abstract,concrete,A,NULL
1728913015,177522ee9c9160201e898c03674ce4f7,PennController,90,0,calibrator_conc,NULL,PennController,99,_Header_,Start,1728912862453,undefined,668,kick,abstract,concrete,A,NULL
1728913015,177522ee9c9160201e898c03674ce4f7,PennController,90,0,calibrator_conc,NULL,PennController,99,_Header_,End,1728912862706,undefined,668,kick,abstract,concrete,A,NULL
1728913015,177522ee9c9160201e898c03674ce4f7,PennController,90,0,calibrator_conc,NULL,Selector,unnamed-Selector,Selection,concrete,1728912863877,undefined,668,kick,abstract,concrete,A,abstract;concrete
1728913015,177522ee9c9160201e898c03674ce4f7,PennController,90,0,calibrator_conc,NULL,PennController,99,_Trial_,End,1728912863878,undefined,668,kick,abstract,concrete,A,NULL
1728913015,177522ee9c9160201e898c03674ce4f7,PennController,93,0,calibrator_conc,NULL,PennController,102,_Trial_,Start,1728912863879,undefined,672,theory,abstract,concrete,A,NULL
1728913015,177522ee9c9160201e898c03674ce4f7,PennController,93,0,calibrator_conc,NULL,PennController,102,_Header_,Start,1728912863879,undefined,672,theory,abstract,concrete,A,NULL
1728913015,177522ee9c9160201e898c03674ce4f7,PennController,93,0,calibrator_conc,NULL,PennController,102,_Header_,End,1728912864133,undefined,672,theory,abstract,concrete,A,NULL
1728913015,177522ee9c9160201e898c03674ce4f7,PennController,93,0,calibrator_conc,NULL,Selector,unnamed-Selector,Selection,abstract,1728912865310,undefined,672,theory,abstract,concrete,A,abstract;concrete
1728913015,177522ee9c9160201e898c03674ce4f7,PennController,93,0,calibrator_conc,NULL,PennController,102,_Trial_,End,1728912865312,undefined,672,theory,abstract,concrete,A,NULL
1728913015,177522ee9c9160201e898c03674ce4f7,PennController,88,0,calibrator_conc,NULL,PennController,97,_Trial_,Start,1728912865312,undefined,797,grasshopper,abstract,concrete,A,NULL
1728913015,177522ee9c9160201e898c03674ce4f7,PennController,88,0,calibrator_conc,NULL,PennController,97,_Header_,Start,1728912865312,undefined,797,grasshopper,abstract,concrete,A,NULL
1728913015,177522ee9c9160201e898c03674ce4f7,PennController,88,0,calibrator_conc,NULL,PennController,97,_Header_,End,1728912865563,undefined,797,grasshopper,abstract,concrete,A,NULL
1728913015,177522ee9c9160201e898c03674ce4f7,PennController,88,0,calibrator_conc,NULL,Selector,unnamed-Selector,Selection,concrete,1728912866865,undefined,797,grasshopper,abstract,concrete,A,abstract;concrete
1728913015,177522ee9c9160201e898c03674ce4f7,PennController,88,0,calibrator_conc,NULL,PennController,97,_Trial_,End,1728912866866,undefined,797,grasshopper,abstract,concrete,A,NULL
1728913015,177522ee9c9160201e898c03674ce4f7,PennController,89,0,calibrator_conc,NULL,PennController,98,_Trial_,Start,1728912866868,undefined,988,marriage,abstract,concrete,A,NULL
1728913015,177522ee9c9160201e898c03674ce4f7,PennController,89,0,calibrator_conc,NULL,PennController,98,_Header_,Start,1728912866868,undefined,988,marriage,abstract,concrete,A,NULL
1728913015,177522ee9c9160201e898c03674ce4f7,PennController,89,0,calibrator_conc,NULL,PennController,98,_Header_,End,1728912867118,undefined,988,marriage,abstract,concrete,A,NULL
1728913015,177522ee9c9160201e898c03674ce4f7,PennController,89,0,calibrator_conc,NULL,Selector,unnamed-Selector,Selection,abstract,1728912868612,undefined,988,marriage,abstract,concrete,A,abstract;concrete
1728913015,177522ee9c9160201e898c03674ce4f7,PennController,89,0,calibrator_conc,NULL,PennController,98,_Trial_,End,1728912868613,undefined,988,marriage,abstract,concrete,A,NULL
1728913015,177522ee9c9160201e898c03674ce4f7,PennController,85,0,calibrator_conc,NULL,PennController,94,_Trial_,Start,1728912868614,undefined,1255,shirt,abstract,concrete,A,NULL
1728913015,177522ee9c9160201e898c03674ce4f7,PennController,85,0,calibrator_conc,NULL,PennController,94,_Header_,Start,1728912868614,undefined,1255,shirt,abstract,concrete,A,NULL
1728913015,177522ee9c9160201e898c03674ce4f7,PennController,85,0,calibrator_conc,NULL,PennController,94,_Header_,End,1728912868866,undefined,1255,shirt,abstract,concrete,A,NULL
1728913015,177522ee9c9160201e898c03674ce4f7,PennController,85,0,calibrator_conc,NULL,Selector,unnamed-Selector,Selection,concrete,1728912870623,undefined,1255,shirt,abstract,concrete,A,abstract;concrete
1728913015,177522ee9c9160201e898c03674ce4f7,PennController,85,0,calibrator_conc,NULL,PennController,94,_Trial_,End,1728912870625,undefined,1255,shirt,abstract,concrete,A,NULL
1728913015,177522ee9c9160201e898c03674ce4f7,PennController,87,0,calibrator_conc,NULL,PennController,96,_Trial_,Start,1728912870626,undefined,1064,gas,abstract,concrete,A,NULL
1728913015,177522ee9c9160201e898c03674ce4f7,PennController,87,0,calibrator_conc,NULL,PennController,96,_Header_,Start,1728912870626,undefined,1064,gas,abstract,concrete,A,NULL
1728913015,177522ee9c9160201e898c03674ce4f7,PennController,87,0,calibrator_conc,NULL,PennController,96,_Header_,End,1728912870878,undefined,1064,gas,abstract,concrete,A,NULL
1728913015,177522ee9c9160201e898c03674ce4f7,PennController,87,0,calibrator_conc,NULL,Selector,unnamed-Selector,Selection,concrete,1728912872445,undefined,1064,gas,abstract,concrete,A,abstract;concrete
1728913015,177522ee9c9160201e898c03674ce4f7,PennController,87,0,calibrator_conc,NULL,PennController,96,_Trial_,End,1728912872446,undefined,1064,gas,abstract,concrete,A,NULL
1728913015,177522ee9c9160201e898c03674ce4f7,PennController,94,0,calibrator_conc,NULL,PennController,103,_Trial_,Start,1728912872447,undefined,617,sugar,abstract,concrete,A,NULL
1728913015,177522ee9c9160201e898c03674ce4f7,PennController,94,0,calibrator_conc,NULL,PennController,103,_Header_,Start,1728912872447,undefined,617,sugar,abstract,concrete,A,NULL
1728913015,177522ee9c9160201e898c03674ce4f7,PennController,94,0,calibrator_conc,NULL,PennController,103,_Header_,End,1728912872697,undefined,617,sugar,abstract,concrete,A,NULL
1728913015,177522ee9c9160201e898c03674ce4f7,PennController,94,0,calibrator_conc,NULL,Selector,unnamed-Selector,Selection,concrete,1728912873818,undefined,617,sugar,abstract,concrete,A,abstract;concrete
1728913015,177522ee9c9160201e898c03674ce4f7,PennController,94,0,calibrator_conc,NULL,PennController,103,_Trial_,End,1728912873819,undefined,617,sugar,abstract,concrete,A,NULL
1728913015,177522ee9c9160201e898c03674ce4f7,PennController,91,0,calibrator_conc,NULL,PennController,100,_Trial_,Start,1728912873821,undefined,618,polite,abstract,concrete,A,NULL
1728913015,177522ee9c9160201e898c03674ce4f7,PennController,91,0,calibrator_conc,NULL,PennController,100,_Header_,Start,1728912873821,undefined,618,polite,abstract,concrete,A,NULL
1728913015,177522ee9c9160201e898c03674ce4f7,PennController,91,0,calibrator_conc,NULL,PennController,100,_Header_,End,1728912874075,undefined,618,polite,abstract,concrete,A,NULL
1728913015,177522ee9c9160201e898c03674ce4f7,PennController,91,0,calibrator_conc,NULL,Selector,unnamed-Selector,Selection,abstract,1728912875194,undefined,618,polite,abstract,concrete,A,abstract;concrete
1728913015,177522ee9c9160201e898c03674ce4f7,PennController,91,0,calibrator_conc,NULL,PennController,100,_Trial_,End,1728912875195,undefined,618,polite,abstract,concrete,A,NULL
# 13. Comments.
1728913015,177522ee9c9160201e898c03674ce4f7,PennController,111,0,mid_task_instructions,NULL,PennController,9,_Trial_,Start,1728912875196,NULL
1728913015,177522ee9c9160201e898c03674ce4f7,PennController,111,0,mid_task_instructions,NULL,PennController,9,_Header_,Start,1728912875196,NULL
1728913015,177522ee9c9160201e898c03674ce4f7,PennController,111,0,mid_task_instructions,NULL,PennController,9,_Header_,End,1728912875448,NULL
1728913015,177522ee9c9160201e898c03674ce4f7,PennController,111,0,mid_task_instructions,NULL,PennController,9,_Trial_,End,1728912880858,NULL
1728913015,177522ee9c9160201e898c03674ce4f7,PennController,112,0,instructions1_val,NULL,PennController,10,_Trial_,Start,1728912880860,NULL
1728913015,177522ee9c9160201e898c03674ce4f7,PennController,112,0,instructions1_val,NULL,PennController,10,_Header_,Start,1728912880860,NULL
1728913015,177522ee9c9160201e898c03674ce4f7,PennController,112,0,instructions1_val,NULL,PennController,10,_Header_,End,1728912881112,NULL
1728913015,177522ee9c9160201e898c03674ce4f7,PennController,112,0,instructions1_val,NULL,PennController,10,_Trial_,End,1728912886506,NULL
1728913015,177522ee9c9160201e898c03674ce4f7,PennController,113,0,instructions2_val,NULL,PennController,11,_Trial_,Start,1728912886507,NULL
1728913015,177522ee9c9160201e898c03674ce4f7,PennController,113,0,instructions2_val,NULL,PennController,11,_Header_,Start,1728912886507,NULL
1728913015,177522ee9c9160201e898c03674ce4f7,PennController,113,0,instructions2_val,NULL,PennController,11,_Header_,End,1728912886757,NULL
1728913015,177522ee9c9160201e898c03674ce4f7,PennController,113,0,instructions2_val,NULL,PennController,11,_Trial_,End,1728912889509,NULL
1728913015,177522ee9c9160201e898c03674ce4f7,PennController,114,0,instructions3_hands,NULL,PennController,12,_Trial_,Start,1728912889511,NULL
1728913015,177522ee9c9160201e898c03674ce4f7,PennController,114,0,instructions3_hands,NULL,PennController,12,_Header_,Start,1728912889511,NULL
1728913015,177522ee9c9160201e898c03674ce4f7,PennController,114,0,instructions3_hands,NULL,PennController,12,_Header_,End,1728912889762,NULL
1728913015,177522ee9c9160201e898c03674ce4f7,PennController,114,0,instructions3_hands,NULL,PennController,12,_Trial_,End,1728912891642,NULL
1728913015,177522ee9c9160201e898c03674ce4f7,PennController,84,0,practice_intro,NULL,PennController,2,_Trial_,Start,1728912891643,NULL
1728913015,177522ee9c9160201e898c03674ce4f7,PennController,84,0,practice_intro,NULL,PennController,2,_Header_,Start,1728912891643,NULL
1728913015,177522ee9c9160201e898c03674ce4f7,PennController,84,0,practice_intro,NULL,PennController,2,_Header_,End,1728912891896,NULL
1728913015,177522ee9c9160201e898c03674ce4f7,PennController,84,0,practice_intro,NULL,PennController,2,_Trial_,End,1728912893551,NULL
# 13. ID.
# 14. ReactionTime.
# 15. Word.
# 16. Key_value_F.
# 17. Key_value_J.
# 18. Group.
# 19. Comments.
1728913015,177522ee9c9160201e898c03674ce4f7,PennController,102,0,calibrator_val,NULL,PennController,111,_Trial_,Start,1728912893552,undefined,1069,kitten,negative,positive,B,NULL
1728913015,177522ee9c9160201e898c03674ce4f7,PennController,102,0,calibrator_val,NULL,PennController,111,_Header_,Start,1728912893552,undefined,1069,kitten,negative,positive,B,NULL
1728913015,177522ee9c9160201e898c03674ce4f7,PennController,102,0,calibrator_val,NULL,PennController,111,_Header_,End,1728912893802,undefined,1069,kitten,negative,positive,B,NULL
1728913015,177522ee9c9160201e898c03674ce4f7,PennController,102,0,calibrator_val,NULL,Selector,unnamed-Selector,Selection,positive,1728912895374,undefined,1069,kitten,negative,positive,B,negative;positive
1728913015,177522ee9c9160201e898c03674ce4f7,PennController,102,0,calibrator_val,NULL,PennController,111,_Trial_,End,1728912895375,undefined,1069,kitten,negative,positive,B,NULL
1728913015,177522ee9c9160201e898c03674ce4f7,PennController,103,0,calibrator_val,NULL,PennController,112,_Trial_,Start,1728912895376,undefined,1149,joke,negative,positive,B,NULL
1728913015,177522ee9c9160201e898c03674ce4f7,PennController,103,0,calibrator_val,NULL,PennController,112,_Header_,Start,1728912895376,undefined,1149,joke,negative,positive,B,NULL
1728913015,177522ee9c9160201e898c03674ce4f7,PennController,103,0,calibrator_val,NULL,PennController,112,_Header_,End,1728912895628,undefined,1149,joke,negative,positive,B,NULL
1728913015,177522ee9c9160201e898c03674ce4f7,PennController,103,0,calibrator_val,NULL,Selector,unnamed-Selector,Selection,positive,1728912897279,undefined,1149,joke,negative,positive,B,negative;positive
1728913015,177522ee9c9160201e898c03674ce4f7,PennController,103,0,calibrator_val,NULL,PennController,112,_Trial_,End,1728912897280,undefined,1149,joke,negative,positive,B,NULL
1728913015,177522ee9c9160201e898c03674ce4f7,PennController,98,0,calibrator_val,NULL,PennController,107,_Trial_,Start,1728912897281,undefined,1234,industry,negative,positive,B,NULL
1728913015,177522ee9c9160201e898c03674ce4f7,PennController,98,0,calibrator_val,NULL,PennController,107,_Header_,Start,1728912897281,undefined,1234,industry,negative,positive,B,NULL
1728913015,177522ee9c9160201e898c03674ce4f7,PennController,98,0,calibrator_val,NULL,PennController,107,_Header_,End,1728912897532,undefined,1234,industry,negative,positive,B,NULL
1728913015,177522ee9c9160201e898c03674ce4f7,PennController,98,0,calibrator_val,NULL,Selector,unnamed-Selector,Selection,positive,1728912899270,undefined,1234,industry,negative,positive,B,negative;positive
1728913015,177522ee9c9160201e898c03674ce4f7,PennController,98,0,calibrator_val,NULL,PennController,107,_Trial_,End,1728912899270,undefined,1234,industry,negative,positive,B,NULL
1728913015,177522ee9c9160201e898c03674ce4f7,PennController,99,0,calibrator_val,NULL,PennController,108,_Trial_,Start,1728912899271,undefined,1387,icebox,negative,positive,B,NULL
1728913015,177522ee9c9160201e898c03674ce4f7,PennController,99,0,calibrator_val,NULL,PennController,108,_Header_,Start,1728912899271,undefined,1387,icebox,negative,positive,B,NULL
1728913015,177522ee9c9160201e898c03674ce4f7,PennController,99,0,calibrator_val,NULL,PennController,108,_Header_,End,1728912899524,undefined,1387,icebox,negative,positive,B,NULL
1728913015,177522ee9c9160201e898c03674ce4f7,PennController,99,0,calibrator_val,NULL,Selector,unnamed-Selector,Selection,negative,1728912901417,undefined,1387,icebox,negative,positive,B,negative;positive
1728913015,177522ee9c9160201e898c03674ce4f7,PennController,99,0,calibrator_val,NULL,PennController,108,_Trial_,End,1728912901418,undefined,1387,icebox,negative,positive,B,NULL
1728913015,177522ee9c9160201e898c03674ce4f7,PennController,104,0,calibrator_val,NULL,PennController,113,_Trial_,Start,1728912901419,undefined,1282,free,negative,positive,B,NULL
1728913015,177522ee9c9160201e898c03674ce4f7,PennController,104,0,calibrator_val,NULL,PennController,113,_Header_,Start,1728912901419,undefined,1282,free,negative,positive,B,NULL
1728913015,177522ee9c9160201e898c03674ce4f7,PennController,104,0,calibrator_val,NULL,PennController,113,_Header_,End,1728912901671,undefined,1282,free,negative,positive,B,NULL
1728913015,177522ee9c9160201e898c03674ce4f7,PennController,104,0,calibrator_val,NULL,Selector,unnamed-Selector,Selection,positive,1728912903454,undefined,1282,free,negative,positive,B,negative;positive
1728913015,177522ee9c9160201e898c03674ce4f7,PennController,104,0,calibrator_val,NULL,PennController,113,_Trial_,End,1728912903455,undefined,1282,free,negative,positive,B,NULL
1728913015,177522ee9c9160201e898c03674ce4f7,PennController,97,0,calibrator_val,NULL,PennController,106,_Trial_,Start,1728912903456,undefined,699,insecure,negative,positive,B,NULL
1728913015,177522ee9c9160201e898c03674ce4f7,PennController,97,0,calibrator_val,NULL,PennController,106,_Header_,Start,1728912903456,undefined,699,insecure,negative,positive,B,NULL
1728913015,177522ee9c9160201e898c03674ce4f7,PennController,97,0,calibrator_val,NULL,PennController,106,_Header_,End,1728912903709,undefined,699,insecure,negative,positive,B,NULL
1728913015,177522ee9c9160201e898c03674ce4f7,PennController,97,0,calibrator_val,NULL,Selector,unnamed-Selector,Selection,negative,1728912904913,undefined,699,insecure,negative,positive,B,negative;positive
1728913015,177522ee9c9160201e898c03674ce4f7,PennController,97,0,calibrator_val,NULL,PennController,106,_Trial_,End,1728912904914,undefined,699,insecure,negative,positive,B,NULL
1728913015,177522ee9c9160201e898c03674ce4f7,PennController,100,0,calibrator_val,NULL,PennController,109,_Trial_,Start,1728912904915,undefined,1062,hat,negative,positive,B,NULL
1728913015,177522ee9c9160201e898c03674ce4f7,PennController,100,0,calibrator_val,NULL,PennController,109,_Header_,Start,1728912904915,undefined,1062,hat,negative,positive,B,NULL
1728913015,177522ee9c9160201e898c03674ce4f7,PennController,100,0,calibrator_val,NULL,PennController,109,_Header_,End,1728912905165,undefined,1062,hat,negative,positive,B,NULL
1728913015,177522ee9c9160201e898c03674ce4f7,PennController,100,0,calibrator_val,NULL,Selector,unnamed-Selector,Selection,positive,1728912906729,undefined,1062,hat,negative,positive,B,negative;positive
1728913015,177522ee9c9160201e898c03674ce4f7,PennController,100,0,calibrator_val,NULL,PennController,109,_Trial_,End,1728912906730,undefined,1062,hat,negative,positive,B,NULL
1728913015,177522ee9c9160201e898c03674ce4f7,PennController,95,0,calibrator_val,NULL,PennController,104,_Trial_,Start,1728912906730,undefined,622,jail,negative,positive,B,NULL
1728913015,177522ee9c9160201e898c03674ce4f7,PennController,95,0,calibrator_val,NULL,PennController,104,_Header_,Start,1728912906730,undefined,622,jail,negative,positive,B,NULL
1728913015,177522ee9c9160201e898c03674ce4f7,PennController,95,0,calibrator_val,NULL,PennController,104,_Header_,End,1728912906983,undefined,622,jail,negative,positive,B,NULL
1728913015,177522ee9c9160201e898c03674ce4f7,PennController,95,0,calibrator_val,NULL,Selector,unnamed-Selector,Selection,negative,1728912908108,undefined,622,jail,negative,positive,B,negative;positive
1728913015,177522ee9c9160201e898c03674ce4f7,PennController,95,0,calibrator_val,NULL,PennController,104,_Trial_,End,1728912908109,undefined,622,jail,negative,positive,B,NULL
1728913015,177522ee9c9160201e898c03674ce4f7,PennController,96,0,calibrator_val,NULL,PennController,105,_Trial_,Start,1728912908110,undefined,525,invader,negative,positive,B,NULL
1728913015,177522ee9c9160201e898c03674ce4f7,PennController,96,0,calibrator_val,NULL,PennController,105,_Header_,Start,1728912908110,undefined,525,invader,negative,positive,B,NULL
1728913015,177522ee9c9160201e898c03674ce4f7,PennController,96,0,calibrator_val,NULL,PennController,105,_Header_,End,1728912908361,undefined,525,invader,negative,positive,B,NULL
1728913015,177522ee9c9160201e898c03674ce4f7,PennController,96,0,calibrator_val,NULL,Selector,unnamed-Selector,Selection,negative,1728912909390,undefined,525,invader,negative,positive,B,negative;positive
1728913015,177522ee9c9160201e898c03674ce4f7,PennController,96,0,calibrator_val,NULL,PennController,105,_Trial_,End,1728912909391,undefined,525,invader,negative,positive,B,NULL
1728913015,177522ee9c9160201e898c03674ce4f7,PennController,101,0,calibrator_val,NULL,PennController,110,_Trial_,Start,1728912909392,undefined,629,grin,negative,positive,B,NULL
1728913015,177522ee9c9160201e898c03674ce4f7,PennController,101,0,calibrator_val,NULL,PennController,110,_Header_,Start,1728912909392,undefined,629,grin,negative,positive,B,NULL
1728913015,177522ee9c9160201e898c03674ce4f7,PennController,101,0,calibrator_val,NULL,PennController,110,_Header_,End,1728912909646,undefined,629,grin,negative,positive,B,NULL
1728913015,177522ee9c9160201e898c03674ce4f7,PennController,101,0,calibrator_val,NULL,Selector,unnamed-Selector,Selection,positive,1728912910776,undefined,629,grin,negative,positive,B,negative;positive
1728913015,177522ee9c9160201e898c03674ce4f7,PennController,101,0,calibrator_val,NULL,PennController,110,_Trial_,End,1728912910776,undefined,629,grin,negative,positive,B,NULL
1728913015,177522ee9c9160201e898c03674ce4f7,PennController,80,0,test_val,NULL,PennController,90,_Trial_,Start,1728912910777,undefined,738,convict,positive,negative,A,NULL
1728913015,177522ee9c9160201e898c03674ce4f7,PennController,80,0,test_val,NULL,PennController,90,_Header_,Start,1728912910777,undefined,738,convict,positive,negative,A,NULL
1728913015,177522ee9c9160201e898c03674ce4f7,PennController,80,0,test_val,NULL,PennController,90,_Header_,End,1728912911028,undefined,738,convict,positive,negative,A,NULL
1728913015,177522ee9c9160201e898c03674ce4f7,PennController,80,0,test_val,NULL,Selector,unnamed-Selector,Selection,positive,1728912912270,undefined,738,convict,positive,negative,A,positive;negative
1728913015,177522ee9c9160201e898c03674ce4f7,PennController,80,0,test_val,NULL,PennController,90,_Trial_,End,1728912912271,undefined,738,convict,positive,negative,A,NULL
1728913015,177522ee9c9160201e898c03674ce4f7,PennController,48,0,test_val,NULL,PennController,58,_Trial_,Start,1728912912272,undefined,668,displease,positive,negative,A,NULL
1728913015,177522ee9c9160201e898c03674ce4f7,PennController,48,0,test_val,NULL,PennController,58,_Header_,Start,1728912912272,undefined,668,displease,positive,negative,A,NULL
1728913015,177522ee9c9160201e898c03674ce4f7,PennController,48,0,test_val,NULL,PennController,58,_Header_,End,1728912912523,undefined,668,displease,positive,negative,A,NULL
1728913015,177522ee9c9160201e898c03674ce4f7,PennController,48,0,test_val,NULL,Selector,unnamed-Selector,Selection,positive,1728912913693,undefined,668,displease,positive,negative,A,positive;negative
1728913015,177522ee9c9160201e898c03674ce4f7,PennController,48,0,test_val,NULL,PennController,58,_Trial_,End,1728912913693,undefined,668,displease,positive,negative,A,NULL
1728913015,177522ee9c9160201e898c03674ce4f7,PennController,57,0,test_val,NULL,PennController,67,_Trial_,Start,1728912913694,undefined,654,bathe,positive,negative,A,NULL
1728913015,177522ee9c9160201e898c03674ce4f7,PennController,57,0,test_val,NULL,PennController,67,_Header_,Start,1728912913694,undefined,654,bathe,positive,negative,A,NULL
1728913015,177522ee9c9160201e898c03674ce4f7,PennController,57,0,test_val,NULL,PennController,67,_Header_,End,1728912913948,undefined,654,bathe,positive,negative,A,NULL
1728913015,177522ee9c9160201e898c03674ce4f7,PennController,57,0,test_val,NULL,Selector,unnamed-Selector,Selection,negative,1728912915103,undefined,654,bathe,positive,negative,A,positive;negative
1728913015,177522ee9c9160201e898c03674ce4f7,PennController,57,0,test_val,NULL,PennController,67,_Trial_,End,1728912915103,undefined,654,bathe,positive,negative,A,NULL
1728913015,177522ee9c9160201e898c03674ce4f7,PennController,46,0,test_val,NULL,PennController,56,_Trial_,Start,1728912915104,undefined,1676,profane,positive,negative,A,NULL
1728913015,177522ee9c9160201e898c03674ce4f7,PennController,46,0,test_val,NULL,PennController,56,_Header_,Start,1728912915104,undefined,1676,profane,positive,negative,A,NULL
1728913015,177522ee9c9160201e898c03674ce4f7,PennController,46,0,test_val,NULL,PennController,56,_Header_,End,1728912915356,undefined,1676,profane,positive,negative,A,NULL
1728913015,177522ee9c9160201e898c03674ce4f7,PennController,46,0,test_val,NULL,Selector,unnamed-Selector,Selection,negative,1728912917535,undefined,1676,profane,positive,negative,A,positive;negative
1728913015,177522ee9c9160201e898c03674ce4f7,PennController,46,0,test_val,NULL,PennController,56,_Trial_,End,1728912917535,undefined,1676,profane,positive,negative,A,NULL
1728913015,177522ee9c9160201e898c03674ce4f7,PennController,61,0,test_val,NULL,PennController,71,_Trial_,Start,1728912917536,undefined,2105,eat,positive,negative,A,NULL
1728913015,177522ee9c9160201e898c03674ce4f7,PennController,61,0,test_val,NULL,PennController,71,_Header_,Start,1728912917536,undefined,2105,eat,positive,negative,A,NULL
1728913015,177522ee9c9160201e898c03674ce4f7,PennController,61,0,test_val,NULL,PennController,71,_Header_,End,1728912917788,undefined,2105,eat,positive,negative,A,NULL
1728913015,177522ee9c9160201e898c03674ce4f7,PennController,61,0,test_val,NULL,Selector,unnamed-Selector,Selection,positive,1728912920396,undefined,2105,eat,positive,negative,A,positive;negative
1728913015,177522ee9c9160201e898c03674ce4f7,PennController,61,0,test_val,NULL,PennController,71,_Trial_,End,1728912920396,undefined,2105,eat,positive,negative,A,NULL
1728913015,177522ee9c9160201e898c03674ce4f7,PennController,59,0,test_val,NULL,PennController,69,_Trial_,Start,1728912920397,undefined,804,dance,positive,negative,A,NULL
1728913015,177522ee9c9160201e898c03674ce4f7,PennController,59,0,test_val,NULL,PennController,69,_Header_,Start,1728912920397,undefined,804,dance,positive,negative,A,NULL
1728913015,177522ee9c9160201e898c03674ce4f7,PennController,59,0,test_val,NULL,PennController,69,_Header_,End,1728912920651,undefined,804,dance,positive,negative,A,NULL
1728913015,177522ee9c9160201e898c03674ce4f7,PennController,59,0,test_val,NULL,Selector,unnamed-Selector,Selection,positive,1728912921959,undefined,804,dance,positive,negative,A,positive;negative
1728913015,177522ee9c9160201e898c03674ce4f7,PennController,59,0,test_val,NULL,PennController,69,_Trial_,End,1728912921960,undefined,804,dance,positive,negative,A,NULL
1728913015,177522ee9c9160201e898c03674ce4f7,PennController,68,0,test_val,NULL,PennController,78,_Trial_,Start,1728912921961,undefined,770,inspire,positive,negative,A,NULL
1728913015,177522ee9c9160201e898c03674ce4f7,PennController,68,0,test_val,NULL,PennController,78,_Header_,Start,1728912921961,undefined,770,inspire,positive,negative,A,NULL
1728913015,177522ee9c9160201e898c03674ce4f7,PennController,68,0,test_val,NULL,PennController,78,_Header_,End,1728912922213,undefined,770,inspire,positive,negative,A,NULL
1728913015,177522ee9c9160201e898c03674ce4f7,PennController,68,0,test_val,NULL,Selector,unnamed-Selector,Selection,positive,1728912923483,undefined,770,inspire,positive,negative,A,positive;negative
1728913015,177522ee9c9160201e898c03674ce4f7,PennController,68,0,test_val,NULL,PennController,78,_Trial_,End,1728912923484,undefined,770,inspire,positive,negative,A,NULL
1728913015,177522ee9c9160201e898c03674ce4f7,PennController,65,0,test_val,NULL,PennController,75,_Trial_,Start,1728912923485,undefined,570,enlighten,positive,negative,A,NULL
1728913015,177522ee9c9160201e898c03674ce4f7,PennController,65,0,test_val,NULL,PennController,75,_Header_,Start,1728912923485,undefined,570,enlighten,positive,negative,A,NULL
1728913015,177522ee9c9160201e898c03674ce4f7,PennController,65,0,test_val,NULL,PennController,75,_Header_,End,1728912923736,undefined,570,enlighten,positive,negative,A,NULL
1728913015,177522ee9c9160201e898c03674ce4f7,PennController,65,0,test_val,NULL,Selector,unnamed-Selector,Selection,positive,1728912924811,undefined,570,enlighten,positive,negative,A,positive;negative
1728913015,177522ee9c9160201e898c03674ce4f7,PennController,65,0,test_val,NULL,PennController,75,_Trial_,End,1728912924812,undefined,570,enlighten,positive,negative,A,NULL
1728913015,177522ee9c9160201e898c03674ce4f7,PennController,77,0,test_val,NULL,PennController,87,_Trial_,Start,1728912924813,undefined,721,carjack,positive,negative,A,NULL
1728913015,177522ee9c9160201e898c03674ce4f7,PennController,77,0,test_val,NULL,PennController,87,_Header_,Start,1728912924813,undefined,721,carjack,positive,negative,A,NULL
1728913015,177522ee9c9160201e898c03674ce4f7,PennController,77,0,test_val,NULL,PennController,87,_Header_,End,1728912925064,undefined,721,carjack,positive,negative,A,NULL
1728913015,177522ee9c9160201e898c03674ce4f7,PennController,77,0,test_val,NULL,Selector,unnamed-Selector,Selection,negative,1728912926288,undefined,721,carjack,positive,negative,A,positive;negative
1728913015,177522ee9c9160201e898c03674ce4f7,PennController,77,0,test_val,NULL,PennController,87,_Trial_,End,1728912926289,undefined,721,carjack,positive,negative,A,NULL
1728913015,177522ee9c9160201e898c03674ce4f7,PennController,54,0,test_val,NULL,PennController,64,_Trial_,Start,1728912926290,undefined,801,kiss,positive,negative,A,NULL
1728913015,177522ee9c9160201e898c03674ce4f7,PennController,54,0,test_val,NULL,PennController,64,_Header_,Start,1728912926290,undefined,801,kiss,positive,negative,A,NULL
1728913015,177522ee9c9160201e898c03674ce4f7,PennController,54,0,test_val,NULL,PennController,64,_Header_,End,1728912926541,undefined,801,kiss,positive,negative,A,NULL
1728913015,177522ee9c9160201e898c03674ce4f7,PennController,54,0,test_val,NULL,Selector,unnamed-Selector,Selection,positive,1728912927848,undefined,801,kiss,positive,negative,A,positive;negative
1728913015,177522ee9c9160201e898c03674ce4f7,PennController,54,0,test_val,NULL,PennController,64,_Trial_,End,1728912927849,undefined,801,kiss,positive,negative,A,NULL
1728913015,177522ee9c9160201e898c03674ce4f7,PennController,69,0,test_val,NULL,PennController,79,_Trial_,Start,1728912927849,undefined,862,imagine,positive,negative,A,NULL
1728913015,177522ee9c9160201e898c03674ce4f7,PennController,69,0,test_val,NULL,PennController,79,_Header_,Start,1728912927849,undefined,862,imagine,positive,negative,A,NULL
1728913015,177522ee9c9160201e898c03674ce4f7,PennController,69,0,test_val,NULL,PennController,79,_Header_,End,1728912928099,undefined,862,imagine,positive,negative,A,NULL
1728913015,177522ee9c9160201e898c03674ce4f7,PennController,69,0,test_val,NULL,Selector,unnamed-Selector,Selection,positive,1728912929462,undefined,862,imagine,positive,negative,A,positive;negative
1728913015,177522ee9c9160201e898c03674ce4f7,PennController,69,0,test_val,NULL,PennController,79,_Trial_,End,1728912929463,undefined,862,imagine,positive,negative,A,NULL
1728913015,177522ee9c9160201e898c03674ce4f7,PennController,66,0,test_val,NULL,PennController,76,_Trial_,Start,1728912929464,undefined,479,excite,positive,negative,A,NULL
1728913015,177522ee9c9160201e898c03674ce4f7,PennController,66,0,test_val,NULL,PennController,76,_Header_,Start,1728912929464,undefined,479,excite,positive,negative,A,NULL
1728913015,177522ee9c9160201e898c03674ce4f7,PennController,66,0,test_val,NULL,PennController,76,_Header_,End,1728912929715,undefined,479,excite,positive,negative,A,NULL
1728913015,177522ee9c9160201e898c03674ce4f7,PennController,66,0,test_val,NULL,Selector,unnamed-Selector,Selection,positive,1728912930697,undefined,479,excite,positive,negative,A,positive;negative
1728913015,177522ee9c9160201e898c03674ce4f7,PennController,66,0,test_val,NULL,PennController,76,_Trial_,End,1728912930698,undefined,479,excite,positive,negative,A,NULL
1728913015,177522ee9c9160201e898c03674ce4f7,PennController,82,0,test_val,NULL,PennController,92,_Trial_,Start,1728912930699,undefined,733,spit,positive,negative,A,NULL
1728913015,177522ee9c9160201e898c03674ce4f7,PennController,82,0,test_val,NULL,PennController,92,_Header_,Start,1728912930699,undefined,733,spit,positive,negative,A,NULL
1728913015,177522ee9c9160201e898c03674ce4f7,PennController,82,0,test_val,NULL,PennController,92,_Header_,End,1728912930949,undefined,733,spit,positive,negative,A,NULL
1728913015,177522ee9c9160201e898c03674ce4f7,PennController,82,0,test_val,NULL,Selector,unnamed-Selector,Selection,negative,1728912932187,undefined,733,spit,positive,negative,A,positive;negative
1728913015,177522ee9c9160201e898c03674ce4f7,PennController,82,0,test_val,NULL,PennController,92,_Trial_,End,1728912932188,undefined,733,spit,positive,negative,A,NULL
1728913015,177522ee9c9160201e898c03674ce4f7,PennController,78,0,test_val,NULL,PennController,88,_Trial_,Start,1728912932189,undefined,816,piss,positive,negative,A,NULL
1728913015,177522ee9c9160201e898c03674ce4f7,PennController,78,0,test_val,NULL,PennController,88,_Header_,Start,1728912932189,undefined,816,piss,positive,negative,A,NULL
1728913015,177522ee9c9160201e898c03674ce4f7,PennController,78,0,test_val,NULL,PennController,88,_Header_,End,1728912932443,undefined,816,piss,positive,negative,A,NULL
1728913015,177522ee9c9160201e898c03674ce4f7,PennController,78,0,test_val,NULL,Selector,unnamed-Selector,Selection,negative,1728912933764,undefined,816,piss,positive,negative,A,positive;negative
1728913015,177522ee9c9160201e898c03674ce4f7,PennController,78,0,test_val,NULL,PennController,88,_Trial_,End,1728912933765,undefined,816,piss,positive,negative,A,NULL
1728913015,177522ee9c9160201e898c03674ce4f7,PennController,79,0,test_val,NULL,PennController,89,_Trial_,Start,1728912933766,undefined,835,bleed,positive,negative,A,NULL
1728913015,177522ee9c9160201e898c03674ce4f7,PennController,79,0,test_val,NULL,PennController,89,_Header_,Start,1728912933766,undefined,835,bleed,positive,negative,A,NULL
1728913015,177522ee9c9160201e898c03674ce4f7,PennController,79,0,test_val,NULL,PennController,89,_Header_,End,1728912934019,undefined,835,bleed,positive,negative,A,NULL
1728913015,177522ee9c9160201e898c03674ce4f7,PennController,79,0,test_val,NULL,Selector,unnamed-Selector,Selection,negative,1728912935357,undefined,835,bleed,positive,negative,A,positive;negative
1728913015,177522ee9c9160201e898c03674ce4f7,PennController,79,0,test_val,NULL,PennController,89,_Trial_,End,1728912935358,undefined,835,bleed,positive,negative,A,NULL
1728913015,177522ee9c9160201e898c03674ce4f7,PennController,81,0,test_val,NULL,PennController,91,_Trial_,Start,1728912935359,undefined,620,slap,positive,negative,A,NULL
1728913015,177522ee9c9160201e898c03674ce4f7,PennController,81,0,test_val,NULL,PennController,91,_Header_,Start,1728912935359,undefined,620,slap,positive,negative,A,NULL
1728913015,177522ee9c9160201e898c03674ce4f7,PennController,81,0,test_val,NULL,PennController,91,_Header_,End,1728912935609,undefined,620,slap,positive,negative,A,NULL
1728913015,177522ee9c9160201e898c03674ce4f7,PennController,81,0,test_val,NULL,Selector,unnamed-Selector,Selection,negative,1728912936732,undefined,620,slap,positive,negative,A,positive;negative
1728913015,177522ee9c9160201e898c03674ce4f7,PennController,81,0,test_val,NULL,PennController,91,_Trial_,End,1728912936732,undefined,620,slap,positive,negative,A,NULL
1728913015,177522ee9c9160201e898c03674ce4f7,PennController,52,0,test_val,NULL,PennController,62,_Trial_,Start,1728912936733,undefined,779,condemn,positive,negative,A,NULL
1728913015,177522ee9c9160201e898c03674ce4f7,PennController,52,0,test_val,NULL,PennController,62,_Header_,Start,1728912936733,undefined,779,condemn,positive,negative,A,NULL
1728913015,177522ee9c9160201e898c03674ce4f7,PennController,52,0,test_val,NULL,PennController,62,_Header_,End,1728912936983,undefined,779,condemn,positive,negative,A,NULL
1728913015,177522ee9c9160201e898c03674ce4f7,PennController,52,0,test_val,NULL,Selector,unnamed-Selector,Selection,positive,1728912938266,undefined,779,condemn,positive,negative,A,positive;negative
1728913015,177522ee9c9160201e898c03674ce4f7,PennController,52,0,test_val,NULL,PennController,62,_Trial_,End,1728912938267,undefined,779,condemn,positive,negative,A,NULL
1728913015,177522ee9c9160201e898c03674ce4f7,PennController,53,0,test_val,NULL,PennController,63,_Trial_,Start,1728912938268,undefined,928,intimidate,positive,negative,A,NULL
1728913015,177522ee9c9160201e898c03674ce4f7,PennController,53,0,test_val,NULL,PennController,63,_Header_,Start,1728912938268,undefined,928,intimidate,positive,negative,A,NULL
1728913015,177522ee9c9160201e898c03674ce4f7,PennController,53,0,test_val,NULL,PennController,63,_Header_,End,1728912938519,undefined,928,intimidate,positive,negative,A,NULL
1728913015,177522ee9c9160201e898c03674ce4f7,PennController,53,0,test_val,NULL,Selector,unnamed-Selector,Selection,negative,1728912939948,undefined,928,intimidate,positive,negative,A,positive;negative
1728913015,177522ee9c9160201e898c03674ce4f7,PennController,53,0,test_val,NULL,PennController,63,_Trial_,End,1728912939949,undefined,928,intimidate,positive,negative,A,NULL
1728913015,177522ee9c9160201e898c03674ce4f7,PennController,58,0,test_val,NULL,PennController,68,_Trial_,Start,1728912939949,undefined,791,sleep,positive,negative,A,NULL
1728913015,177522ee9c9160201e898c03674ce4f7,PennController,58,0,test_val,NULL,PennController,68,_Header_,Start,1728912939949,undefined,791,sleep,positive,negative,A,NULL
1728913015,177522ee9c9160201e898c03674ce4f7,PennController,58,0,test_val,NULL,PennController,68,_Header_,End,1728912940201,undefined,791,sleep,positive,negative,A,NULL
1728913015,177522ee9c9160201e898c03674ce4f7,PennController,58,0,test_val,NULL,Selector,unnamed-Selector,Selection,positive,1728912941496,undefined,791,sleep,positive,negative,A,positive;negative
1728913015,177522ee9c9160201e898c03674ce4f7,PennController,58,0,test_val,NULL,PennController,68,_Trial_,End,1728912941497,undefined,791,sleep,positive,negative,A,NULL
1728913015,177522ee9c9160201e898c03674ce4f7,PennController,74,0,test_val,NULL,PennController,84,_Trial_,Start,1728912941498,undefined,748,vomit,positive,negative,A,NULL
1728913015,177522ee9c9160201e898c03674ce4f7,PennController,74,0,test_val,NULL,PennController,84,_Header_,Start,1728912941498,undefined,748,vomit,positive,negative,A,NULL
1728913015,177522ee9c9160201e898c03674ce4f7,PennController,74,0,test_val,NULL,PennController,84,_Header_,End,1728912941751,undefined,748,vomit,positive,negative,A,NULL
1728913015,177522ee9c9160201e898c03674ce4f7,PennController,74,0,test_val,NULL,Selector,unnamed-Selector,Selection,negative,1728912943003,undefined,748,vomit,positive,negative,A,positive;negative
1728913015,177522ee9c9160201e898c03674ce4f7,PennController,74,0,test_val,NULL,PennController,84,_Trial_,End,1728912943004,undefined,748,vomit,positive,negative,A,NULL
1728913015,177522ee9c9160201e898c03674ce4f7,PennController,70,0,test_val,NULL,PennController,80,_Trial_,Start,1728912943005,undefined,785,fulfill,positive,negative,A,NULL
1728913015,177522ee9c9160201e898c03674ce4f7,PennController,70,0,test_val,NULL,PennController,80,_Header_,Start,1728912943005,undefined,785,fulfill,positive,negative,A,NULL
1728913015,177522ee9c9160201e898c03674ce4f7,PennController,70,0,test_val,NULL,PennController,80,_Header_,End,1728912943256,undefined,785,fulfill,positive,negative,A,NULL
1728913015,177522ee9c9160201e898c03674ce4f7,PennController,70,0,test_val,NULL,Selector,unnamed-Selector,Selection,positive,1728912944543,undefined,785,fulfill,positive,negative,A,positive;negative
1728913015,177522ee9c9160201e898c03674ce4f7,PennController,70,0,test_val,NULL,PennController,80,_Trial_,End,1728912944544,undefined,785,fulfill,positive,negative,A,NULL
1728913015,177522ee9c9160201e898c03674ce4f7,PennController,76,0,test_val,NULL,PennController,86,_Trial_,Start,1728912944545,undefined,800,barf,positive,negative,A,NULL
1728913015,177522ee9c9160201e898c03674ce4f7,PennController,76,0,test_val,NULL,PennController,86,_Header_,Start,1728912944545,undefined,800,barf,positive,negative,A,NULL
1728913015,177522ee9c9160201e898c03674ce4f7,PennController,76,0,test_val,NULL,PennController,86,_Header_,End,1728912944799,undefined,800,barf,positive,negative,A,NULL
1728913015,177522ee9c9160201e898c03674ce4f7,PennController,76,0,test_val,NULL,Selector,unnamed-Selector,Selection,negative,1728912946102,undefined,800,barf,positive,negative,A,positive;negative
1728913015,177522ee9c9160201e898c03674ce4f7,PennController,76,0,test_val,NULL,PennController,86,_Trial_,End,1728912946103,undefined,800,barf,positive,negative,A,NULL
1728913015,177522ee9c9160201e898c03674ce4f7,PennController,63,0,test_val,NULL,PennController,73,_Trial_,Start,1728912946104,undefined,1428,cook,positive,negative,A,NULL
1728913015,177522ee9c9160201e898c03674ce4f7,PennController,63,0,test_val,NULL,PennController,73,_Header_,Start,1728912946104,undefined,1428,cook,positive,negative,A,NULL
1728913015,177522ee9c9160201e898c03674ce4f7,PennController,63,0,test_val,NULL,PennController,73,_Header_,End,1728912946356,undefined,1428,cook,positive,negative,A,NULL
1728913015,177522ee9c9160201e898c03674ce4f7,PennController,63,0,test_val,NULL,Selector,unnamed-Selector,Selection,negative,1728912948287,undefined,1428,cook,positive,negative,A,positive;negative
1728913015,177522ee9c9160201e898c03674ce4f7,PennController,63,0,test_val,NULL,PennController,73,_Trial_,End,1728912948287,undefined,1428,cook,positive,negative,A,NULL
1728913015,177522ee9c9160201e898c03674ce4f7,PennController,62,0,test_val,NULL,PennController,72,_Trial_,Start,1728912948288,undefined,860,swing,positive,negative,A,NULL
1728913015,177522ee9c9160201e898c03674ce4f7,PennController,62,0,test_val,NULL,PennController,72,_Header_,Start,1728912948288,undefined,860,swing,positive,negative,A,NULL
1728913015,177522ee9c9160201e898c03674ce4f7,PennController,62,0,test_val,NULL,PennController,72,_Header_,End,1728912948539,undefined,860,swing,positive,negative,A,NULL
1728913015,177522ee9c9160201e898c03674ce4f7,PennController,62,0,test_val,NULL,Selector,unnamed-Selector,Selection,negative,1728912949903,undefined,860,swing,positive,negative,A,positive;negative
1728913015,177522ee9c9160201e898c03674ce4f7,PennController,62,0,test_val,NULL,PennController,72,_Trial_,End,1728912949904,undefined,860,swing,positive,negative,A,NULL
1728913015,177522ee9c9160201e898c03674ce4f7,PennController,71,0,test_val,NULL,PennController,81,_Trial_,Start,1728912949905,undefined,983,believe,positive,negative,A,NULL
1728913015,177522ee9c9160201e898c03674ce4f7,PennController,71,0,test_val,NULL,PennController,81,_Header_,Start,1728912949905,undefined,983,believe,positive,negative,A,NULL
1728913015,177522ee9c9160201e898c03674ce4f7,PennController,71,0,test_val,NULL,PennController,81,_Header_,End,1728912950155,undefined,983,believe,positive,negative,A,NULL
1728913015,177522ee9c9160201e898c03674ce4f7,PennController,71,0,test_val,NULL,Selector,unnamed-Selector,Selection,positive,1728912951640,undefined,983,believe,positive,negative,A,positive;negative
1728913015,177522ee9c9160201e898c03674ce4f7,PennController,71,0,test_val,NULL,PennController,81,_Trial_,End,1728912951641,undefined,983,believe,positive,negative,A,NULL
1728913015,177522ee9c9160201e898c03674ce4f7,PennController,83,0,test_val,NULL,PennController,93,_Trial_,Start,1728912951642,undefined,925,weep,positive,negative,A,NULL
1728913015,177522ee9c9160201e898c03674ce4f7,PennController,83,0,test_val,NULL,PennController,93,_Header_,Start,1728912951642,undefined,925,weep,positive,negative,A,NULL
1728913015,177522ee9c9160201e898c03674ce4f7,PennController,83,0,test_val,NULL,PennController,93,_Header_,End,1728912951896,undefined,925,weep,positive,negative,A,NULL
1728913015,177522ee9c9160201e898c03674ce4f7,PennController,83,0,test_val,NULL,Selector,unnamed-Selector,Selection,negative,1728912953323,undefined,925,weep,positive,negative,A,positive;negative
1728913015,177522ee9c9160201e898c03674ce4f7,PennController,83,0,test_val,NULL,PennController,93,_Trial_,End,1728912953323,undefined,925,weep,positive,negative,A,NULL
1728913015,177522ee9c9160201e898c03674ce4f7,PennController,55,0,test_val,NULL,PennController,65,_Trial_,Start,1728912953324,undefined,1676,sing,positive,negative,A,NULL
1728913015,177522ee9c9160201e898c03674ce4f7,PennController,55,0,test_val,NULL,PennController,65,_Header_,Start,1728912953324,undefined,1676,sing,positive,negative,A,NULL
1728913015,177522ee9c9160201e898c03674ce4f7,PennController,55,0,test_val,NULL,PennController,65,_Header_,End,1728912953575,undefined,1676,sing,positive,negative,A,NULL
1728913015,177522ee9c9160201e898c03674ce4f7,PennController,55,0,test_val,NULL,Selector,unnamed-Selector,Selection,positive,1728912955756,undefined,1676,sing,positive,negative,A,positive;negative
1728913015,177522ee9c9160201e898c03674ce4f7,PennController,55,0,test_val,NULL,PennController,65,_Trial_,End,1728912955757,undefined,1676,sing,positive,negative,A,NULL
1728913015,177522ee9c9160201e898c03674ce4f7,PennController,45,0,test_val,NULL,PennController,55,_Trial_,Start,1728912955757,undefined,1992,hate,positive,negative,A,NULL
1728913015,177522ee9c9160201e898c03674ce4f7,PennController,45,0,test_val,NULL,PennController,55,_Header_,Start,1728912955757,undefined,1992,hate,positive,negative,A,NULL
1728913015,177522ee9c9160201e898c03674ce4f7,PennController,45,0,test_val,NULL,PennController,55,_Header_,End,1728912956009,undefined,1992,hate,positive,negative,A,NULL
1728913015,177522ee9c9160201e898c03674ce4f7,PennController,45,0,test_val,NULL,Selector,unnamed-Selector,Selection,negative,1728912958507,undefined,1992,hate,positive,negative,A,positive;negative
1728913015,177522ee9c9160201e898c03674ce4f7,PennController,45,0,test_val,NULL,PennController,55,_Trial_,End,1728912958508,undefined,1992,hate,positive,negative,A,NULL
1728913015,177522ee9c9160201e898c03674ce4f7,PennController,60,0,test_val,NULL,PennController,70,_Trial_,Start,1728912958509,undefined,1023,smooch,positive,negative,A,NULL
1728913015,177522ee9c9160201e898c03674ce4f7,PennController,60,0,test_val,NULL,PennController,70,_Header_,Start,1728912958509,undefined,1023,smooch,positive,negative,A,NULL
1728913015,177522ee9c9160201e898c03674ce4f7,PennController,60,0,test_val,NULL,PennController,70,_Header_,End,1728912958762,undefined,1023,smooch,positive,negative,A,NULL
1728913015,177522ee9c9160201e898c03674ce4f7,PennController,60,0,test_val,NULL,Selector,unnamed-Selector,Selection,positive,1728912960289,undefined,1023,smooch,positive,negative,A,positive;negative
1728913015,177522ee9c9160201e898c03674ce4f7,PennController,60,0,test_val,NULL,PennController,70,_Trial_,End,1728912960290,undefined,1023,smooch,positive,negative,A,NULL
1728913015,177522ee9c9160201e898c03674ce4f7,PennController,56,0,test_val,NULL,PennController,66,_Trial_,Start,1728912960291,undefined,1628,laugh,positive,negative,A,NULL
1728913015,177522ee9c9160201e898c03674ce4f7,PennController,56,0,test_val,NULL,PennController,66,_Header_,Start,1728912960291,undefined,1628,laugh,positive,negative,A,NULL
1728913015,177522ee9c9160201e898c03674ce4f7,PennController,56,0,test_val,NULL,PennController,66,_Header_,End,1728912960544,undefined,1628,laugh,positive,negative,A,NULL
1728913015,177522ee9c9160201e898c03674ce4f7,PennController,56,0,test_val,NULL,Selector,unnamed-Selector,Selection,positive,1728912962676,undefined,1628,laugh,positive,negative,A,positive;negative
1728913015,177522ee9c9160201e898c03674ce4f7,PennController,56,0,test_val,NULL,PennController,66,_Trial_,End,1728912962677,undefined,1628,laugh,positive,negative,A,NULL
1728913015,177522ee9c9160201e898c03674ce4f7,PennController,75,0,test_val,NULL,PennController,85,_Trial_,Start,1728912962678,undefined,659,puke,positive,negative,A,NULL
1728913015,177522ee9c9160201e898c03674ce4f7,PennController,75,0,test_val,NULL,PennController,85,_Header_,Start,1728912962678,undefined,659,puke,positive,negative,A,NULL
1728913015,177522ee9c9160201e898c03674ce4f7,PennController,75,0,test_val,NULL,PennController,85,_Header_,End,1728912962929,undefined,659,puke,positive,negative,A,NULL
1728913015,177522ee9c9160201e898c03674ce4f7,PennController,75,0,test_val,NULL,Selector,unnamed-Selector,Selection,negative,1728912964091,undefined,659,puke,positive,negative,A,positive;negative
1728913015,177522ee9c9160201e898c03674ce4f7,PennController,75,0,test_val,NULL,PennController,85,_Trial_,End,1728912964092,undefined,659,puke,positive,negative,A,NULL
1728913015,177522ee9c9160201e898c03674ce4f7,PennController,51,0,test_val,NULL,PennController,61,_Trial_,Start,1728912964093,undefined,719,violate,positive,negative,A,NULL
1728913015,177522ee9c9160201e898c03674ce4f7,PennController,51,0,test_val,NULL,PennController,61,_Header_,Start,1728912964093,undefined,719,violate,positive,negative,A,NULL
1728913015,177522ee9c9160201e898c03674ce4f7,PennController,51,0,test_val,NULL,PennController,61,_Header_,End,1728912964346,undefined,719,violate,positive,negative,A,NULL
1728913015,177522ee9c9160201e898c03674ce4f7,PennController,51,0,test_val,NULL,Selector,unnamed-Selector,Selection,negative,1728912965568,undefined,719,violate,positive,negative,A,positive;negative
1728913015,177522ee9c9160201e898c03674ce4f7,PennController,51,0,test_val,NULL,PennController,61,_Trial_,End,1728912965569,undefined,719,violate,positive,negative,A,NULL
1728913015,177522ee9c9160201e898c03674ce4f7,PennController,64,0,test_val,NULL,PennController,74,_Trial_,Start,1728912965570,undefined,515,hope,positive,negative,A,NULL
1728913015,177522ee9c9160201e898c03674ce4f7,PennController,64,0,test_val,NULL,PennController,74,_Header_,Start,1728912965570,undefined,515,hope,positive,negative,A,NULL
1728913015,177522ee9c9160201e898c03674ce4f7,PennController,64,0,test_val,NULL,PennController,74,_Header_,End,1728912965822,undefined,515,hope,positive,negative,A,NULL
1728913015,177522ee9c9160201e898c03674ce4f7,PennController,64,0,test_val,NULL,Selector,unnamed-Selector,Selection,positive,1728912966841,undefined,515,hope,positive,negative,A,positive;negative
1728913015,177522ee9c9160201e898c03674ce4f7,PennController,64,0,test_val,NULL,PennController,74,_Trial_,End,1728912966842,undefined,515,hope,positive,negative,A,NULL
1728913015,177522ee9c9160201e898c03674ce4f7,PennController,73,0,test_val,NULL,PennController,83,_Trial_,Start,1728912966843,undefined,783,wish,positive,negative,A,NULL
1728913015,177522ee9c9160201e898c03674ce4f7,PennController,73,0,test_val,NULL,PennController,83,_Header_,Start,1728912966843,undefined,783,wish,positive,negative,A,NULL
1728913015,177522ee9c9160201e898c03674ce4f7,PennController,73,0,test_val,NULL,PennController,83,_Header_,End,1728912967094,undefined,783,wish,positive,negative,A,NULL
1728913015,177522ee9c9160201e898c03674ce4f7,PennController,73,0,test_val,NULL,Selector,unnamed-Selector,Selection,positive,1728912968382,undefined,783,wish,positive,negative,A,positive;negative
1728913015,177522ee9c9160201e898c03674ce4f7,PennController,73,0,test_val,NULL,PennController,83,_Trial_,End,1728912968383,undefined,783,wish,positive,negative,A,NULL
1728913015,177522ee9c9160201e898c03674ce4f7,PennController,72,0,test_val,NULL,PennController,82,_Trial_,Start,1728912968384,undefined,594,admired,positive,negative,A,NULL
1728913015,177522ee9c9160201e898c03674ce4f7,PennController,72,0,test_val,NULL,PennController,82,_Header_,Start,1728912968384,undefined,594,admired,positive,negative,A,NULL
1728913015,177522ee9c9160201e898c03674ce4f7,PennController,72,0,test_val,NULL,PennController,82,_Header_,End,1728912968636,undefined,594,admired,positive,negative,A,NULL
1728913015,177522ee9c9160201e898c03674ce4f7,PennController,72,0,test_val,NULL,Selector,unnamed-Selector,Selection,positive,1728912969733,undefined,594,admired,positive,negative,A,positive;negative
1728913015,177522ee9c9160201e898c03674ce4f7,PennController,72,0,test_val,NULL,PennController,82,_Trial_,End,1728912969734,undefined,594,admired,positive,negative,A,NULL
1728913015,177522ee9c9160201e898c03674ce4f7,PennController,44,0,test_val,NULL,PennController,54,_Trial_,Start,1728912969735,undefined,551,disown,positive,negative,A,NULL
1728913015,177522ee9c9160201e898c03674ce4f7,PennController,44,0,test_val,NULL,PennController,54,_Header_,Start,1728912969735,undefined,551,disown,positive,negative,A,NULL
1728913015,177522ee9c9160201e898c03674ce4f7,PennController,44,0,test_val,NULL,PennController,54,_Header_,End,1728912969985,undefined,551,disown,positive,negative,A,NULL
1728913015,177522ee9c9160201e898c03674ce4f7,PennController,44,0,test_val,NULL,Selector,unnamed-Selector,Selection,negative,1728912971040,undefined,551,disown,positive,negative,A,positive;negative
1728913015,177522ee9c9160201e898c03674ce4f7,PennController,44,0,test_val,NULL,PennController,54,_Trial_,End,1728912971041,undefined,551,disown,positive,negative,A,NULL
1728913015,177522ee9c9160201e898c03674ce4f7,PennController,50,0,test_val,NULL,PennController,60,_Trial_,Start,1728912971041,undefined,1011,annoy,positive,negative,A,NULL
1728913015,177522ee9c9160201e898c03674ce4f7,PennController,50,0,test_val,NULL,PennController,60,_Header_,Start,1728912971041,undefined,1011,annoy,positive,negative,A,NULL
1728913015,177522ee9c9160201e898c03674ce4f7,PennController,50,0,test_val,NULL,PennController,60,_Header_,End,1728912971293,undefined,1011,annoy,positive,negative,A,NULL
1728913015,177522ee9c9160201e898c03674ce4f7,PennController,50,0,test_val,NULL,Selector,unnamed-Selector,Selection,negative,1728912972807,undefined,1011,annoy,positive,negative,A,positive;negative
1728913015,177522ee9c9160201e898c03674ce4f7,PennController,50,0,test_val,NULL,PennController,60,_Trial_,End,1728912972808,undefined,1011,annoy,positive,negative,A,NULL
1728913015,177522ee9c9160201e898c03674ce4f7,PennController,49,0,test_val,NULL,PennController,59,_Trial_,Start,1728912972809,undefined,864,distrust,positive,negative,A,NULL
1728913015,177522ee9c9160201e898c03674ce4f7,PennController,49,0,test_val,NULL,PennController,59,_Header_,Start,1728912972809,undefined,864,distrust,positive,negative,A,NULL
1728913015,177522ee9c9160201e898c03674ce4f7,PennController,49,0,test_val,NULL,PennController,59,_Header_,End,1728912973060,undefined,864,distrust,positive,negative,A,NULL
1728913015,177522ee9c9160201e898c03674ce4f7,PennController,49,0,test_val,NULL,Selector,unnamed-Selector,Selection,negative,1728912974427,undefined,864,distrust,positive,negative,A,positive;negative
1728913015,177522ee9c9160201e898c03674ce4f7,PennController,49,0,test_val,NULL,PennController,59,_Trial_,End,1728912974427,undefined,864,distrust,positive,negative,A,NULL
1728913015,177522ee9c9160201e898c03674ce4f7,PennController,47,0,test_val,NULL,PennController,57,_Trial_,Start,1728912974428,undefined,605,degrade,positive,negative,A,NULL
1728913015,177522ee9c9160201e898c03674ce4f7,PennController,47,0,test_val,NULL,PennController,57,_Header_,Start,1728912974428,undefined,605,degrade,positive,negative,A,NULL
1728913015,177522ee9c9160201e898c03674ce4f7,PennController,47,0,test_val,NULL,PennController,57,_Header_,End,1728912974681,undefined,605,degrade,positive,negative,A,NULL
1728913015,177522ee9c9160201e898c03674ce4f7,PennController,47,0,test_val,NULL,Selector,unnamed-Selector,Selection,negative,1728912975788,undefined,605,degrade,positive,negative,A,positive;negative
1728913015,177522ee9c9160201e898c03674ce4f7,PennController,47,0,test_val,NULL,PennController,57,_Trial_,End,1728912975789,undefined,605,degrade,positive,negative,A,NULL
1728913015,177522ee9c9160201e898c03674ce4f7,PennController,67,0,test_val,NULL,PennController,77,_Trial_,Start,1728912975789,undefined,1145,zing,positive,negative,A,NULL
1728913015,177522ee9c9160201e898c03674ce4f7,PennController,67,0,test_val,NULL,PennController,77,_Header_,Start,1728912975789,undefined,1145,zing,positive,negative,A,NULL
1728913015,177522ee9c9160201e898c03674ce4f7,PennController,67,0,test_val,NULL,PennController,77,_Header_,End,1728912976041,undefined,1145,zing,positive,negative,A,NULL
1728913015,177522ee9c9160201e898c03674ce4f7,PennController,67,0,test_val,NULL,Selector,unnamed-Selector,Selection,negative,1728912977688,undefined,1145,zing,positive,negative,A,positive;negative
1728913015,177522ee9c9160201e898c03674ce4f7,PennController,67,0,test_val,NULL,PennController,77,_Trial_,End,1728912977689,undefined,1145,zing,positive,negative,A,NULL
# 13. NativeLang.
# 14. OtherLangs.
# 15. Gender.
# 16. Education.
# 17. Comments.
# 18. Comments.
1728913015,177522ee9c9160201e898c03674ce4f7,PennController,106,0,demo,NULL,PennController,4,_Trial_,Start,1728912977690,English,None,undefined,undefined,undefined,NULL
1728913015,177522ee9c9160201e898c03674ce4f7,PennController,106,0,demo,NULL,PennController,4,_Header_,Start,1728912977690,English,None,undefined,undefined,undefined,NULL
1728913015,177522ee9c9160201e898c03674ce4f7,PennController,106,0,demo,NULL,PennController,4,_Header_,End,1728912977941,English,None,undefined,undefined,undefined,NULL
1728913015,177522ee9c9160201e898c03674ce4f7,PennController,106,0,demo,NULL,TextInput,Gender,First,,1728912980315,English,None,undefined,undefined,undefined,Shift
1728913015,177522ee9c9160201e898c03674ce4f7,PennController,106,0,demo,NULL,TextInput,Education,First,,1728912984128,English,None,undefined,undefined,undefined,Shift
1728913015,177522ee9c9160201e898c03674ce4f7,PennController,106,0,demo,NULL,TextInput,NativeLang,First,,1728912994096,English,None,undefined,undefined,undefined,Shift
1728913015,177522ee9c9160201e898c03674ce4f7,PennController,106,0,demo,NULL,TextInput,Gender,Final,Female,1728913015129,English,None,undefined,undefined,undefined,NULL
1728913015,177522ee9c9160201e898c03674ce4f7,PennController,106,0,demo,NULL,TextInput,Education,Final,Bachelors Degree,1728913015129,English,None,undefined,undefined,undefined,NULL
1728913015,177522ee9c9160201e898c03674ce4f7,PennController,106,0,demo,NULL,TextInput,NativeLang,Final,English,1728913015129,English,None,undefined,undefined,undefined,NULL
1728913015,177522ee9c9160201e898c03674ce4f7,PennController,106,0,demo,NULL,PennController,4,_Trial_,End,1728913015129,English,None,undefined,undefined,undefined,NULL
#
# Results on Mon, 14 Oct 2024 13:43:08 GMT
# USER AGENT: Mozilla/5.0 (Windows NT 10.0; Win64; x64) AppleWebKit/537.36 (KHTML, like Gecko) Chrome/109.0.0.0 Safari/537.36
# Design number was non-random = 1
#
# Columns below this comment are as follows:
# 1. Results reception time.
# 2. MD5 hash of participant's IP address.
# 3. Controller name.
# 4. Order number of item.
# 5. Inner element number.
# 6. Label.
# 7. Latin Square Group.
# 8. PennElementType.
# 9. PennElementName.
# 10. Parameter.
# 11. Value.
# 12. EventTime.
# 13. Comments.
1728913388,8579e430da5c6b755c99a7788b561ef4,PennController,1,0,welcome,NULL,PennController,0,_Trial_,Start,1728913056582,NULL
1728913388,8579e430da5c6b755c99a7788b561ef4,PennController,1,0,welcome,NULL,PennController,0,_Header_,Start,1728913056582,NULL
1728913388,8579e430da5c6b755c99a7788b561ef4,PennController,1,0,welcome,NULL,PennController,0,_Header_,End,1728913056844,NULL
1728913388,8579e430da5c6b755c99a7788b561ef4,PennController,1,0,welcome,NULL,PennController,0,_Trial_,End,1728913102578,NULL
# 13. ID.
# 14. Comments.
1728913388,8579e430da5c6b755c99a7788b561ef4,PennController,105,0,consent,NULL,PennController,3,_Trial_,Start,1728913102590,58295846e41098000132a1f9,NULL
1728913388,8579e430da5c6b755c99a7788b561ef4,PennController,105,0,consent,NULL,PennController,3,_Header_,Start,1728913102590,58295846e41098000132a1f9,NULL
1728913388,8579e430da5c6b755c99a7788b561ef4,PennController,105,0,consent,NULL,PennController,3,_Header_,End,1728913102842,58295846e41098000132a1f9,NULL
1728913388,8579e430da5c6b755c99a7788b561ef4,PennController,105,0,consent,NULL,TextInput,ID,Final,58295846e41098000132a1f9,1728913146669,58295846e41098000132a1f9,NULL
1728913388,8579e430da5c6b755c99a7788b561ef4,PennController,105,0,consent,NULL,PennController,3,_Trial_,End,1728913146670,58295846e41098000132a1f9,NULL
# 13. Comments.
1728913388,8579e430da5c6b755c99a7788b561ef4,PennController,107,0,instructions1_conc,NULL,PennController,5,_Trial_,Start,1728913146675,NULL
1728913388,8579e430da5c6b755c99a7788b561ef4,PennController,107,0,instructions1_conc,NULL,PennController,5,_Header_,Start,1728913146675,NULL
1728913388,8579e430da5c6b755c99a7788b561ef4,PennController,107,0,instructions1_conc,NULL,PennController,5,_Header_,End,1728913146926,NULL
1728913388,8579e430da5c6b755c99a7788b561ef4,PennController,107,0,instructions1_conc,NULL,PennController,5,_Trial_,End,1728913158546,NULL
1728913388,8579e430da5c6b755c99a7788b561ef4,PennController,108,0,instructions2_conc,NULL,PennController,6,_Trial_,Start,1728913158550,NULL
1728913388,8579e430da5c6b755c99a7788b561ef4,PennController,108,0,instructions2_conc,NULL,PennController,6,_Header_,Start,1728913158550,NULL
1728913388,8579e430da5c6b755c99a7788b561ef4,PennController,108,0,instructions2_conc,NULL,PennController,6,_Header_,End,1728913158804,NULL
1728913388,8579e430da5c6b755c99a7788b561ef4,PennController,108,0,instructions2_conc,NULL,PennController,6,_Trial_,End,1728913214229,NULL
1728913388,8579e430da5c6b755c99a7788b561ef4,PennController,114,0,instructions3_hands,NULL,PennController,12,_Trial_,Start,1728913214233,NULL
1728913388,8579e430da5c6b755c99a7788b561ef4,PennController,114,0,instructions3_hands,NULL,PennController,12,_Header_,Start,1728913214233,NULL
1728913388,8579e430da5c6b755c99a7788b561ef4,PennController,114,0,instructions3_hands,NULL,PennController,12,_Header_,End,1728913214486,NULL
1728913388,8579e430da5c6b755c99a7788b561ef4,PennController,114,0,instructions3_hands,NULL,PennController,12,_Trial_,End,1728913224464,NULL
1728913388,8579e430da5c6b755c99a7788b561ef4,PennController,84,0,practice_intro,NULL,PennController,2,_Trial_,Start,1728913224468,NULL
1728913388,8579e430da5c6b755c99a7788b561ef4,PennController,84,0,practice_intro,NULL,PennController,2,_Header_,Start,1728913224468,NULL
1728913388,8579e430da5c6b755c99a7788b561ef4,PennController,84,0,practice_intro,NULL,PennController,2,_Header_,End,1728913224720,NULL
1728913388,8579e430da5c6b755c99a7788b561ef4,PennController,84,0,practice_intro,NULL,PennController,2,_Trial_,End,1728913226534,NULL
# 13. ID.
# 14. ReactionTime.
# 15. Word.
# 16. Key_value_F.
# 17. Key_value_J.
# 18. Group.
# 19. Comments.
1728913388,8579e430da5c6b755c99a7788b561ef4,PennController,92,0,calibrator_conc,NULL,PennController,101,_Trial_,Start,1728913226538,undefined,3581,whistle,abstract,concrete,A,NULL
1728913388,8579e430da5c6b755c99a7788b561ef4,PennController,92,0,calibrator_conc,NULL,PennController,101,_Header_,Start,1728913226539,undefined,3581,whistle,abstract,concrete,A,NULL
1728913388,8579e430da5c6b755c99a7788b561ef4,PennController,92,0,calibrator_conc,NULL,PennController,101,_Header_,End,1728913226791,undefined,3581,whistle,abstract,concrete,A,NULL
1728913388,8579e430da5c6b755c99a7788b561ef4,PennController,92,0,calibrator_conc,NULL,Selector,unnamed-Selector,Selection,concrete,1728913230880,undefined,3581,whistle,abstract,concrete,A,abstract;concrete
1728913388,8579e430da5c6b755c99a7788b561ef4,PennController,92,0,calibrator_conc,NULL,PennController,101,_Trial_,End,1728913230888,undefined,3581,whistle,abstract,concrete,A,NULL
1728913388,8579e430da5c6b755c99a7788b561ef4,PennController,87,0,calibrator_conc,NULL,PennController,96,_Trial_,Start,1728913230892,undefined,1697,gas,abstract,concrete,A,NULL
1728913388,8579e430da5c6b755c99a7788b561ef4,PennController,87,0,calibrator_conc,NULL,PennController,96,_Header_,Start,1728913230892,undefined,1697,gas,abstract,concrete,A,NULL
1728913388,8579e430da5c6b755c99a7788b561ef4,PennController,87,0,calibrator_conc,NULL,PennController,96,_Header_,End,1728913231146,undefined,1697,gas,abstract,concrete,A,NULL
1728913388,8579e430da5c6b755c99a7788b561ef4,PennController,87,0,calibrator_conc,NULL,Selector,unnamed-Selector,Selection,abstract,1728913233350,undefined,1697,gas,abstract,concrete,A,abstract;concrete
1728913388,8579e430da5c6b755c99a7788b561ef4,PennController,87,0,calibrator_conc,NULL,PennController,96,_Trial_,End,1728913233355,undefined,1697,gas,abstract,concrete,A,NULL
1728913388,8579e430da5c6b755c99a7788b561ef4,PennController,85,0,calibrator_conc,NULL,PennController,94,_Trial_,Start,1728913233359,undefined,954,shirt,abstract,concrete,A,NULL
1728913388,8579e430da5c6b755c99a7788b561ef4,PennController,85,0,calibrator_conc,NULL,PennController,94,_Header_,Start,1728913233359,undefined,954,shirt,abstract,concrete,A,NULL
1728913388,8579e430da5c6b755c99a7788b561ef4,PennController,85,0,calibrator_conc,NULL,PennController,94,_Header_,End,1728913233611,undefined,954,shirt,abstract,concrete,A,NULL
1728913388,8579e430da5c6b755c99a7788b561ef4,PennController,85,0,calibrator_conc,NULL,Selector,unnamed-Selector,Selection,concrete,1728913235073,undefined,954,shirt,abstract,concrete,A,abstract;concrete
1728913388,8579e430da5c6b755c99a7788b561ef4,PennController,85,0,calibrator_conc,NULL,PennController,94,_Trial_,End,1728913235078,undefined,954,shirt,abstract,concrete,A,NULL
1728913388,8579e430da5c6b755c99a7788b561ef4,PennController,93,0,calibrator_conc,NULL,PennController,102,_Trial_,Start,1728913235082,undefined,888,theory,abstract,concrete,A,NULL
1728913388,8579e430da5c6b755c99a7788b561ef4,PennController,93,0,calibrator_conc,NULL,PennController,102,_Header_,Start,1728913235082,undefined,888,theory,abstract,concrete,A,NULL
1728913388,8579e430da5c6b755c99a7788b561ef4,PennController,93,0,calibrator_conc,NULL,PennController,102,_Header_,End,1728913235336,undefined,888,theory,abstract,concrete,A,NULL
1728913388,8579e430da5c6b755c99a7788b561ef4,PennController,93,0,calibrator_conc,NULL,Selector,unnamed-Selector,Selection,abstract,1728913236734,undefined,888,theory,abstract,concrete,A,abstract;concrete
1728913388,8579e430da5c6b755c99a7788b561ef4,PennController,93,0,calibrator_conc,NULL,PennController,102,_Trial_,End,1728913236739,undefined,888,theory,abstract,concrete,A,NULL
1728913388,8579e430da5c6b755c99a7788b561ef4,PennController,91,0,calibrator_conc,NULL,PennController,100,_Trial_,Start,1728913236744,undefined,1064,polite,abstract,concrete,A,NULL
1728913388,8579e430da5c6b755c99a7788b561ef4,PennController,91,0,calibrator_conc,NULL,PennController,100,_Header_,Start,1728913236744,undefined,1064,polite,abstract,concrete,A,NULL
1728913388,8579e430da5c6b755c99a7788b561ef4,PennController,91,0,calibrator_conc,NULL,PennController,100,_Header_,End,1728913236995,undefined,1064,polite,abstract,concrete,A,NULL
1728913388,8579e430da5c6b755c99a7788b561ef4,PennController,91,0,calibrator_conc,NULL,Selector,unnamed-Selector,Selection,abstract,1728913238567,undefined,1064,polite,abstract,concrete,A,abstract;concrete
1728913388,8579e430da5c6b755c99a7788b561ef4,PennController,91,0,calibrator_conc,NULL,PennController,100,_Trial_,End,1728913238572,undefined,1064,polite,abstract,concrete,A,NULL
1728913388,8579e430da5c6b755c99a7788b561ef4,PennController,88,0,calibrator_conc,NULL,PennController,97,_Trial_,Start,1728913238577,undefined,827,grasshopper,abstract,concrete,A,NULL
1728913388,8579e430da5c6b755c99a7788b561ef4,PennController,88,0,calibrator_conc,NULL,PennController,97,_Header_,Start,1728913238577,undefined,827,grasshopper,abstract,concrete,A,NULL
1728913388,8579e430da5c6b755c99a7788b561ef4,PennController,88,0,calibrator_conc,NULL,PennController,97,_Header_,End,1728913238831,undefined,827,grasshopper,abstract,concrete,A,NULL
1728913388,8579e430da5c6b755c99a7788b561ef4,PennController,88,0,calibrator_conc,NULL,Selector,unnamed-Selector,Selection,concrete,1728913240167,undefined,827,grasshopper,abstract,concrete,A,abstract;concrete
1728913388,8579e430da5c6b755c99a7788b561ef4,PennController,88,0,calibrator_conc,NULL,PennController,97,_Trial_,End,1728913240173,undefined,827,grasshopper,abstract,concrete,A,NULL
1728913388,8579e430da5c6b755c99a7788b561ef4,PennController,86,0,calibrator_conc,NULL,PennController,95,_Trial_,Start,1728913240178,undefined,1215,infinity,abstract,concrete,A,NULL
1728913388,8579e430da5c6b755c99a7788b561ef4,PennController,86,0,calibrator_conc,NULL,PennController,95,_Header_,Start,1728913240178,undefined,1215,infinity,abstract,concrete,A,NULL
1728913388,8579e430da5c6b755c99a7788b561ef4,PennController,86,0,calibrator_conc,NULL,PennController,95,_Header_,End,1728913240428,undefined,1215,infinity,abstract,concrete,A,NULL
1728913388,8579e430da5c6b755c99a7788b561ef4,PennController,86,0,calibrator_conc,NULL,Selector,unnamed-Selector,Selection,abstract,1728913242148,undefined,1215,infinity,abstract,concrete,A,abstract;concrete
1728913388,8579e430da5c6b755c99a7788b561ef4,PennController,86,0,calibrator_conc,NULL,PennController,95,_Trial_,End,1728913242153,undefined,1215,infinity,abstract,concrete,A,NULL
1728913388,8579e430da5c6b755c99a7788b561ef4,PennController,90,0,calibrator_conc,NULL,PennController,99,_Trial_,Start,1728913242157,undefined,1129,kick,abstract,concrete,A,NULL
1728913388,8579e430da5c6b755c99a7788b561ef4,PennController,90,0,calibrator_conc,NULL,PennController,99,_Header_,Start,1728913242157,undefined,1129,kick,abstract,concrete,A,NULL
1728913388,8579e430da5c6b755c99a7788b561ef4,PennController,90,0,calibrator_conc,NULL,PennController,99,_Header_,End,1728913242412,undefined,1129,kick,abstract,concrete,A,NULL
1728913388,8579e430da5c6b755c99a7788b561ef4,PennController,90,0,calibrator_conc,NULL,Selector,unnamed-Selector,Selection,concrete,1728913244048,undefined,1129,kick,abstract,concrete,A,abstract;concrete
1728913388,8579e430da5c6b755c99a7788b561ef4,PennController,90,0,calibrator_conc,NULL,PennController,99,_Trial_,End,1728913244053,undefined,1129,kick,abstract,concrete,A,NULL
1728913388,8579e430da5c6b755c99a7788b561ef4,PennController,89,0,calibrator_conc,NULL,PennController,98,_Trial_,Start,1728913244058,undefined,1740,marriage,abstract,concrete,A,NULL
1728913388,8579e430da5c6b755c99a7788b561ef4,PennController,89,0,calibrator_conc,NULL,PennController,98,_Header_,Start,1728913244058,undefined,1740,marriage,abstract,concrete,A,NULL
1728913388,8579e430da5c6b755c99a7788b561ef4,PennController,89,0,calibrator_conc,NULL,PennController,98,_Header_,End,1728913244311,undefined,1740,marriage,abstract,concrete,A,NULL
1728913388,8579e430da5c6b755c99a7788b561ef4,PennController,89,0,calibrator_conc,NULL,Selector,unnamed-Selector,Selection,abstract,1728913246557,undefined,1740,marriage,abstract,concrete,A,abstract;concrete
1728913388,8579e430da5c6b755c99a7788b561ef4,PennController,89,0,calibrator_conc,NULL,PennController,98,_Trial_,End,1728913246563,undefined,1740,marriage,abstract,concrete,A,NULL
1728913388,8579e430da5c6b755c99a7788b561ef4,PennController,94,0,calibrator_conc,NULL,PennController,103,_Trial_,Start,1728913246568,undefined,869,sugar,abstract,concrete,A,NULL
1728913388,8579e430da5c6b755c99a7788b561ef4,PennController,94,0,calibrator_conc,NULL,PennController,103,_Header_,Start,1728913246568,undefined,869,sugar,abstract,concrete,A,NULL
1728913388,8579e430da5c6b755c99a7788b561ef4,PennController,94,0,calibrator_conc,NULL,PennController,103,_Header_,End,1728913246820,undefined,869,sugar,abstract,concrete,A,NULL
1728913388,8579e430da5c6b755c99a7788b561ef4,PennController,94,0,calibrator_conc,NULL,Selector,unnamed-Selector,Selection,concrete,1728913248193,undefined,869,sugar,abstract,concrete,A,abstract;concrete
1728913388,8579e430da5c6b755c99a7788b561ef4,PennController,94,0,calibrator_conc,NULL,PennController,103,_Trial_,End,1728913248197,undefined,869,sugar,abstract,concrete,A,NULL
# 13. Comments.
1728913388,8579e430da5c6b755c99a7788b561ef4,PennController,111,0,mid_task_instructions,NULL,PennController,9,_Trial_,Start,1728913248201,NULL
1728913388,8579e430da5c6b755c99a7788b561ef4,PennController,111,0,mid_task_instructions,NULL,PennController,9,_Header_,Start,1728913248201,NULL
1728913388,8579e430da5c6b755c99a7788b561ef4,PennController,111,0,mid_task_instructions,NULL,PennController,9,_Header_,End,1728913248455,NULL
1728913388,8579e430da5c6b755c99a7788b561ef4,PennController,111,0,mid_task_instructions,NULL,PennController,9,_Trial_,End,1728913256402,NULL
1728913388,8579e430da5c6b755c99a7788b561ef4,PennController,112,0,instructions1_val,NULL,PennController,10,_Trial_,Start,1728913256405,NULL
1728913388,8579e430da5c6b755c99a7788b561ef4,PennController,112,0,instructions1_val,NULL,PennController,10,_Header_,Start,1728913256405,NULL
1728913388,8579e430da5c6b755c99a7788b561ef4,PennController,112,0,instructions1_val,NULL,PennController,10,_Header_,End,1728913256657,NULL
1728913388,8579e430da5c6b755c99a7788b561ef4,PennController,112,0,instructions1_val,NULL,PennController,10,_Trial_,End,1728913262834,NULL
1728913388,8579e430da5c6b755c99a7788b561ef4,PennController,113,0,instructions2_val,NULL,PennController,11,_Trial_,Start,1728913262837,NULL
1728913388,8579e430da5c6b755c99a7788b561ef4,PennController,113,0,instructions2_val,NULL,PennController,11,_Header_,Start,1728913262837,NULL
1728913388,8579e430da5c6b755c99a7788b561ef4,PennController,113,0,instructions2_val,NULL,PennController,11,_Header_,End,1728913263090,NULL
1728913388,8579e430da5c6b755c99a7788b561ef4,PennController,113,0,instructions2_val,NULL,PennController,11,_Trial_,End,1728913269290,NULL
1728913388,8579e430da5c6b755c99a7788b561ef4,PennController,114,0,instructions3_hands,NULL,PennController,12,_Trial_,Start,1728913269293,NULL
1728913388,8579e430da5c6b755c99a7788b561ef4,PennController,114,0,instructions3_hands,NULL,PennController,12,_Header_,Start,1728913269293,NULL
1728913388,8579e430da5c6b755c99a7788b561ef4,PennController,114,0,instructions3_hands,NULL,PennController,12,_Header_,End,1728913269545,NULL
1728913388,8579e430da5c6b755c99a7788b561ef4,PennController,114,0,instructions3_hands,NULL,PennController,12,_Trial_,End,1728913274591,NULL
1728913388,8579e430da5c6b755c99a7788b561ef4,PennController,84,0,practice_intro,NULL,PennController,2,_Trial_,Start,1728913274594,NULL
1728913388,8579e430da5c6b755c99a7788b561ef4,PennController,84,0,practice_intro,NULL,PennController,2,_Header_,Start,1728913274594,NULL
1728913388,8579e430da5c6b755c99a7788b561ef4,PennController,84,0,practice_intro,NULL,PennController,2,_Header_,End,1728913274848,NULL
1728913388,8579e430da5c6b755c99a7788b561ef4,PennController,84,0,practice_intro,NULL,PennController,2,_Trial_,End,1728913276272,NULL
# 13. ID.
# 14. ReactionTime.
# 15. Word.
# 16. Key_value_F.
# 17. Key_value_J.
# 18. Group.
# 19. Comments.
1728913388,8579e430da5c6b755c99a7788b561ef4,PennController,96,0,calibrator_val,NULL,PennController,105,_Trial_,Start,1728913276276,undefined,1915,invader,negative,positive,B,NULL
1728913388,8579e430da5c6b755c99a7788b561ef4,PennController,96,0,calibrator_val,NULL,PennController,105,_Header_,Start,1728913276276,undefined,1915,invader,negative,positive,B,NULL
1728913388,8579e430da5c6b755c99a7788b561ef4,PennController,96,0,calibrator_val,NULL,PennController,105,_Header_,End,1728913276526,undefined,1915,invader,negative,positive,B,NULL
1728913388,8579e430da5c6b755c99a7788b561ef4,PennController,96,0,calibrator_val,NULL,Selector,unnamed-Selector,Selection,negative,1728913278949,undefined,1915,invader,negative,positive,B,negative;positive
1728913388,8579e430da5c6b755c99a7788b561ef4,PennController,96,0,calibrator_val,NULL,PennController,105,_Trial_,End,1728913278953,undefined,1915,invader,negative,positive,B,NULL
1728913388,8579e430da5c6b755c99a7788b561ef4,PennController,104,0,calibrator_val,NULL,PennController,113,_Trial_,Start,1728913278956,undefined,887,free,negative,positive,B,NULL
1728913388,8579e430da5c6b755c99a7788b561ef4,PennController,104,0,calibrator_val,NULL,PennController,113,_Header_,Start,1728913278957,undefined,887,free,negative,positive,B,NULL
1728913388,8579e430da5c6b755c99a7788b561ef4,PennController,104,0,calibrator_val,NULL,PennController,113,_Header_,End,1728913279207,undefined,887,free,negative,positive,B,NULL
1728913388,8579e430da5c6b755c99a7788b561ef4,PennController,104,0,calibrator_val,NULL,Selector,unnamed-Selector,Selection,positive,1728913280600,undefined,887,free,negative,positive,B,negative;positive
1728913388,8579e430da5c6b755c99a7788b561ef4,PennController,104,0,calibrator_val,NULL,PennController,113,_Trial_,End,1728913280604,undefined,887,free,negative,positive,B,NULL
1728913388,8579e430da5c6b755c99a7788b561ef4,PennController,99,0,calibrator_val,NULL,PennController,108,_Trial_,Start,1728913280608,undefined,1066,icebox,negative,positive,B,NULL
1728913388,8579e430da5c6b755c99a7788b561ef4,PennController,99,0,calibrator_val,NULL,PennController,108,_Header_,Start,1728913280608,undefined,1066,icebox,negative,positive,B,NULL
1728913388,8579e430da5c6b755c99a7788b561ef4,PennController,99,0,calibrator_val,NULL,PennController,108,_Header_,End,1728913280861,undefined,1066,icebox,negative,positive,B,NULL
1728913388,8579e430da5c6b755c99a7788b561ef4,PennController,99,0,calibrator_val,NULL,Selector,unnamed-Selector,Selection,positive,1728913282433,undefined,1066,icebox,negative,positive,B,negative;positive
1728913388,8579e430da5c6b755c99a7788b561ef4,PennController,99,0,calibrator_val,NULL,PennController,108,_Trial_,End,1728913282437,undefined,1066,icebox,negative,positive,B,NULL
1728913388,8579e430da5c6b755c99a7788b561ef4,PennController,103,0,calibrator_val,NULL,PennController,112,_Trial_,Start,1728913282441,undefined,1281,joke,negative,positive,B,NULL
1728913388,8579e430da5c6b755c99a7788b561ef4,PennController,103,0,calibrator_val,NULL,PennController,112,_Header_,Start,1728913282441,undefined,1281,joke,negative,positive,B,NULL
1728913388,8579e430da5c6b755c99a7788b561ef4,PennController,103,0,calibrator_val,NULL,PennController,112,_Header_,End,1728913282694,undefined,1281,joke,negative,positive,B,NULL
1728913388,8579e430da5c6b755c99a7788b561ef4,PennController,103,0,calibrator_val,NULL,Selector,unnamed-Selector,Selection,negative,1728913284482,undefined,1281,joke,negative,positive,B,negative;positive
1728913388,8579e430da5c6b755c99a7788b561ef4,PennController,103,0,calibrator_val,NULL,PennController,112,_Trial_,End,1728913284486,undefined,1281,joke,negative,positive,B,NULL
1728913388,8579e430da5c6b755c99a7788b561ef4,PennController,100,0,calibrator_val,NULL,PennController,109,_Trial_,Start,1728913284489,undefined,766,hat,negative,positive,B,NULL
1728913388,8579e430da5c6b755c99a7788b561ef4,PennController,100,0,calibrator_val,NULL,PennController,109,_Header_,Start,1728913284489,undefined,766,hat,negative,positive,B,NULL
1728913388,8579e430da5c6b755c99a7788b561ef4,PennController,100,0,calibrator_val,NULL,PennController,109,_Header_,End,1728913284743,undefined,766,hat,negative,positive,B,NULL
1728913388,8579e430da5c6b755c99a7788b561ef4,PennController,100,0,calibrator_val,NULL,Selector,unnamed-Selector,Selection,positive,1728913286016,undefined,766,hat,negative,positive,B,negative;positive
1728913388,8579e430da5c6b755c99a7788b561ef4,PennController,100,0,calibrator_val,NULL,PennController,109,_Trial_,End,1728913286020,undefined,766,hat,negative,positive,B,NULL
1728913388,8579e430da5c6b755c99a7788b561ef4,PennController,98,0,calibrator_val,NULL,PennController,107,_Trial_,Start,1728913286024,undefined,710,industry,negative,positive,B,NULL
1728913388,8579e430da5c6b755c99a7788b561ef4,PennController,98,0,calibrator_val,NULL,PennController,107,_Header_,Start,1728913286024,undefined,710,industry,negative,positive,B,NULL
1728913388,8579e430da5c6b755c99a7788b561ef4,PennController,98,0,calibrator_val,NULL,PennController,107,_Header_,End,1728913286275,undefined,710,industry,negative,positive,B,NULL
1728913388,8579e430da5c6b755c99a7788b561ef4,PennController,98,0,calibrator_val,NULL,Selector,unnamed-Selector,Selection,positive,1728913287494,undefined,710,industry,negative,positive,B,negative;positive
1728913388,8579e430da5c6b755c99a7788b561ef4,PennController,98,0,calibrator_val,NULL,PennController,107,_Trial_,End,1728913287498,undefined,710,industry,negative,positive,B,NULL
1728913388,8579e430da5c6b755c99a7788b561ef4,PennController,101,0,calibrator_val,NULL,PennController,110,_Trial_,Start,1728913287503,undefined,700,grin,negative,positive,B,NULL
1728913388,8579e430da5c6b755c99a7788b561ef4,PennController,101,0,calibrator_val,NULL,PennController,110,_Header_,Start,1728913287503,undefined,700,grin,negative,positive,B,NULL
1728913388,8579e430da5c6b755c99a7788b561ef4,PennController,101,0,calibrator_val,NULL,PennController,110,_Header_,End,1728913287754,undefined,700,grin,negative,positive,B,NULL
1728913388,8579e430da5c6b755c99a7788b561ef4,PennController,101,0,calibrator_val,NULL,Selector,unnamed-Selector,Selection,positive,1728913288962,undefined,700,grin,negative,positive,B,negative;positive
1728913388,8579e430da5c6b755c99a7788b561ef4,PennController,101,0,calibrator_val,NULL,PennController,110,_Trial_,End,1728913288967,undefined,700,grin,negative,positive,B,NULL
1728913388,8579e430da5c6b755c99a7788b561ef4,PennController,95,0,calibrator_val,NULL,PennController,104,_Trial_,Start,1728913288971,undefined,759,jail,negative,positive,B,NULL
1728913388,8579e430da5c6b755c99a7788b561ef4,PennController,95,0,calibrator_val,NULL,PennController,104,_Header_,Start,1728913288971,undefined,759,jail,negative,positive,B,NULL
1728913388,8579e430da5c6b755c99a7788b561ef4,PennController,95,0,calibrator_val,NULL,PennController,104,_Header_,End,1728913289222,undefined,759,jail,negative,positive,B,NULL
1728913388,8579e430da5c6b755c99a7788b561ef4,PennController,95,0,calibrator_val,NULL,Selector,unnamed-Selector,Selection,negative,1728913290485,undefined,759,jail,negative,positive,B,negative;positive
1728913388,8579e430da5c6b755c99a7788b561ef4,PennController,95,0,calibrator_val,NULL,PennController,104,_Trial_,End,1728913290489,undefined,759,jail,negative,positive,B,NULL
1728913388,8579e430da5c6b755c99a7788b561ef4,PennController,102,0,calibrator_val,NULL,PennController,111,_Trial_,Start,1728913290493,undefined,718,kitten,negative,positive,B,NULL
1728913388,8579e430da5c6b755c99a7788b561ef4,PennController,102,0,calibrator_val,NULL,PennController,111,_Header_,Start,1728913290493,undefined,718,kitten,negative,positive,B,NULL
1728913388,8579e430da5c6b755c99a7788b561ef4,PennController,102,0,calibrator_val,NULL,PennController,111,_Header_,End,1728913290747,undefined,718,kitten,negative,positive,B,NULL
1728913388,8579e430da5c6b755c99a7788b561ef4,PennController,102,0,calibrator_val,NULL,Selector,unnamed-Selector,Selection,positive,1728913291974,undefined,718,kitten,negative,positive,B,negative;positive
1728913388,8579e430da5c6b755c99a7788b561ef4,PennController,102,0,calibrator_val,NULL,PennController,111,_Trial_,End,1728913291979,undefined,718,kitten,negative,positive,B,NULL
1728913388,8579e430da5c6b755c99a7788b561ef4,PennController,97,0,calibrator_val,NULL,PennController,106,_Trial_,Start,1728913291983,undefined,817,insecure,negative,positive,B,NULL
1728913388,8579e430da5c6b755c99a7788b561ef4,PennController,97,0,calibrator_val,NULL,PennController,106,_Header_,Start,1728913291983,undefined,817,insecure,negative,positive,B,NULL
1728913388,8579e430da5c6b755c99a7788b561ef4,PennController,97,0,calibrator_val,NULL,PennController,106,_Header_,End,1728913292238,undefined,817,insecure,negative,positive,B,NULL
1728913388,8579e430da5c6b755c99a7788b561ef4,PennController,97,0,calibrator_val,NULL,Selector,unnamed-Selector,Selection,negative,1728913293563,undefined,817,insecure,negative,positive,B,negative;positive
1728913388,8579e430da5c6b755c99a7788b561ef4,PennController,97,0,calibrator_val,NULL,PennController,106,_Trial_,End,1728913293568,undefined,817,insecure,negative,positive,B,NULL
1728913388,8579e430da5c6b755c99a7788b561ef4,PennController,53,0,test_val,NULL,PennController,63,_Trial_,Start,1728913293572,undefined,922,intimidate,negative,positive,B,NULL
1728913388,8579e430da5c6b755c99a7788b561ef4,PennController,53,0,test_val,NULL,PennController,63,_Header_,Start,1728913293572,undefined,922,intimidate,negative,positive,B,NULL
1728913388,8579e430da5c6b755c99a7788b561ef4,PennController,53,0,test_val,NULL,PennController,63,_Header_,End,1728913293825,undefined,922,intimidate,negative,positive,B,NULL
1728913388,8579e430da5c6b755c99a7788b561ef4,PennController,53,0,test_val,NULL,Selector,unnamed-Selector,Selection,negative,1728913295254,undefined,922,intimidate,negative,positive,B,negative;positive
1728913388,8579e430da5c6b755c99a7788b561ef4,PennController,53,0,test_val,NULL,PennController,63,_Trial_,End,1728913295262,undefined,922,intimidate,negative,positive,B,NULL
1728913388,8579e430da5c6b755c99a7788b561ef4,PennController,81,0,test_val,NULL,PennController,91,_Trial_,Start,1728913295266,undefined,1012,slap,negative,positive,B,NULL
1728913388,8579e430da5c6b755c99a7788b561ef4,PennController,81,0,test_val,NULL,PennController,91,_Header_,Start,1728913295266,undefined,1012,slap,negative,positive,B,NULL
1728913388,8579e430da5c6b755c99a7788b561ef4,PennController,81,0,test_val,NULL,PennController,91,_Header_,End,1728913295516,undefined,1012,slap,negative,positive,B,NULL
1728913388,8579e430da5c6b755c99a7788b561ef4,PennController,81,0,test_val,NULL,Selector,unnamed-Selector,Selection,negative,1728913297036,undefined,1012,slap,negative,positive,B,negative;positive
1728913388,8579e430da5c6b755c99a7788b561ef4,PennController,81,0,test_val,NULL,PennController,91,_Trial_,End,1728913297044,undefined,1012,slap,negative,positive,B,NULL
1728913388,8579e430da5c6b755c99a7788b561ef4,PennController,64,0,test_val,NULL,PennController,74,_Trial_,Start,1728913297051,undefined,741,hope,negative,positive,B,NULL
1728913388,8579e430da5c6b755c99a7788b561ef4,PennController,64,0,test_val,NULL,PennController,74,_Header_,Start,1728913297051,undefined,741,hope,negative,positive,B,NULL
1728913388,8579e430da5c6b755c99a7788b561ef4,PennController,64,0,test_val,NULL,PennController,74,_Header_,End,1728913297303,undefined,741,hope,negative,positive,B,NULL
1728913388,8579e430da5c6b755c99a7788b561ef4,PennController,64,0,test_val,NULL,Selector,unnamed-Selector,Selection,positive,1728913298550,undefined,741,hope,negative,positive,B,negative;positive
1728913388,8579e430da5c6b755c99a7788b561ef4,PennController,64,0,test_val,NULL,PennController,74,_Trial_,End,1728913298556,undefined,741,hope,negative,positive,B,NULL
1728913388,8579e430da5c6b755c99a7788b561ef4,PennController,65,0,test_val,NULL,PennController,75,_Trial_,Start,1728913298560,undefined,642,enlighten,negative,positive,B,NULL
1728913388,8579e430da5c6b755c99a7788b561ef4,PennController,65,0,test_val,NULL,PennController,75,_Header_,Start,1728913298560,undefined,642,enlighten,negative,positive,B,NULL
1728913388,8579e430da5c6b755c99a7788b561ef4,PennController,65,0,test_val,NULL,PennController,75,_Header_,End,1728913298813,undefined,642,enlighten,negative,positive,B,NULL
1728913388,8579e430da5c6b755c99a7788b561ef4,PennController,65,0,test_val,NULL,Selector,unnamed-Selector,Selection,positive,1728913299963,undefined,642,enlighten,negative,positive,B,negative;positive
1728913388,8579e430da5c6b755c99a7788b561ef4,PennController,65,0,test_val,NULL,PennController,75,_Trial_,End,1728913299969,undefined,642,enlighten,negative,positive,B,NULL
1728913388,8579e430da5c6b755c99a7788b561ef4,PennController,48,0,test_val,NULL,PennController,58,_Trial_,Start,1728913299973,undefined,880,displease,negative,positive,B,NULL
1728913388,8579e430da5c6b755c99a7788b561ef4,PennController,48,0,test_val,NULL,PennController,58,_Header_,Start,1728913299973,undefined,880,displease,negative,positive,B,NULL
1728913388,8579e430da5c6b755c99a7788b561ef4,PennController,48,0,test_val,NULL,PennController,58,_Header_,End,1728913300225,undefined,880,displease,negative,positive,B,NULL
1728913388,8579e430da5c6b755c99a7788b561ef4,PennController,48,0,test_val,NULL,Selector,unnamed-Selector,Selection,negative,1728913301613,undefined,880,displease,negative,positive,B,negative;positive
1728913388,8579e430da5c6b755c99a7788b561ef4,PennController,48,0,test_val,NULL,PennController,58,_Trial_,End,1728913301619,undefined,880,displease,negative,positive,B,NULL
1728913388,8579e430da5c6b755c99a7788b561ef4,PennController,58,0,test_val,NULL,PennController,68,_Trial_,Start,1728913301623,undefined,912,sleep,negative,positive,B,NULL
1728913388,8579e430da5c6b755c99a7788b561ef4,PennController,58,0,test_val,NULL,PennController,68,_Header_,Start,1728913301623,undefined,912,sleep,negative,positive,B,NULL
1728913388,8579e430da5c6b755c99a7788b561ef4,PennController,58,0,test_val,NULL,PennController,68,_Header_,End,1728913301877,undefined,912,sleep,negative,positive,B,NULL
1728913388,8579e430da5c6b755c99a7788b561ef4,PennController,58,0,test_val,NULL,Selector,unnamed-Selector,Selection,positive,1728913303293,undefined,912,sleep,negative,positive,B,negative;positive
1728913388,8579e430da5c6b755c99a7788b561ef4,PennController,58,0,test_val,NULL,PennController,68,_Trial_,End,1728913303299,undefined,912,sleep,negative,positive,B,NULL
1728913388,8579e430da5c6b755c99a7788b561ef4,PennController,61,0,test_val,NULL,PennController,71,_Trial_,Start,1728913303304,undefined,670,eat,negative,positive,B,NULL
1728913388,8579e430da5c6b755c99a7788b561ef4,PennController,61,0,test_val,NULL,PennController,71,_Header_,Start,1728913303304,undefined,670,eat,negative,positive,B,NULL
1728913388,8579e430da5c6b755c99a7788b561ef4,PennController,61,0,test_val,NULL,PennController,71,_Header_,End,1728913303555,undefined,670,eat,negative,positive,B,NULL
1728913388,8579e430da5c6b755c99a7788b561ef4,PennController,61,0,test_val,NULL,Selector,unnamed-Selector,Selection,positive,1728913304735,undefined,670,eat,negative,positive,B,negative;positive
1728913388,8579e430da5c6b755c99a7788b561ef4,PennController,61,0,test_val,NULL,PennController,71,_Trial_,End,1728913304740,undefined,670,eat,negative,positive,B,NULL
1728913388,8579e430da5c6b755c99a7788b561ef4,PennController,45,0,test_val,NULL,PennController,55,_Trial_,Start,1728913304744,undefined,782,hate,negative,positive,B,NULL
1728913388,8579e430da5c6b755c99a7788b561ef4,PennController,45,0,test_val,NULL,PennController,55,_Header_,Start,1728913304745,undefined,782,hate,negative,positive,B,NULL
1728913388,8579e430da5c6b755c99a7788b561ef4,PennController,45,0,test_val,NULL,PennController,55,_Header_,End,1728913304996,undefined,782,hate,negative,positive,B,NULL
1728913388,8579e430da5c6b755c99a7788b561ef4,PennController,45,0,test_val,NULL,Selector,unnamed-Selector,Selection,negative,1728913306288,undefined,782,hate,negative,positive,B,negative;positive
1728913388,8579e430da5c6b755c99a7788b561ef4,PennController,45,0,test_val,NULL,PennController,55,_Trial_,End,1728913306294,undefined,782,hate,negative,positive,B,NULL
1728913388,8579e430da5c6b755c99a7788b561ef4,PennController,59,0,test_val,NULL,PennController,69,_Trial_,Start,1728913306299,undefined,721,dance,negative,positive,B,NULL
1728913388,8579e430da5c6b755c99a7788b561ef4,PennController,59,0,test_val,NULL,PennController,69,_Header_,Start,1728913306299,undefined,721,dance,negative,positive,B,NULL
1728913388,8579e430da5c6b755c99a7788b561ef4,PennController,59,0,test_val,NULL,PennController,69,_Header_,End,1728913306550,undefined,721,dance,negative,positive,B,NULL
1728913388,8579e430da5c6b755c99a7788b561ef4,PennController,59,0,test_val,NULL,Selector,unnamed-Selector,Selection,positive,1728913307780,undefined,721,dance,negative,positive,B,negative;positive
1728913388,8579e430da5c6b755c99a7788b561ef4,PennController,59,0,test_val,NULL,PennController,69,_Trial_,End,1728913307786,undefined,721,dance,negative,positive,B,NULL
1728913388,8579e430da5c6b755c99a7788b561ef4,PennController,55,0,test_val,NULL,PennController,65,_Trial_,Start,1728913307791,undefined,533,sing,negative,positive,B,NULL
1728913388,8579e430da5c6b755c99a7788b561ef4,PennController,55,0,test_val,NULL,PennController,65,_Header_,Start,1728913307791,undefined,533,sing,negative,positive,B,NULL
1728913388,8579e430da5c6b755c99a7788b561ef4,PennController,55,0,test_val,NULL,PennController,65,_Header_,End,1728913308043,undefined,533,sing,negative,positive,B,NULL
1728913388,8579e430da5c6b755c99a7788b561ef4,PennController,55,0,test_val,NULL,Selector,unnamed-Selector,Selection,positive,1728913309086,undefined,533,sing,negative,positive,B,negative;positive
1728913388,8579e430da5c6b755c99a7788b561ef4,PennController,55,0,test_val,NULL,PennController,65,_Trial_,End,1728913309092,undefined,533,sing,negative,positive,B,NULL
1728913388,8579e430da5c6b755c99a7788b561ef4,PennController,49,0,test_val,NULL,PennController,59,_Trial_,Start,1728913309096,undefined,727,distrust,negative,positive,B,NULL
1728913388,8579e430da5c6b755c99a7788b561ef4,PennController,49,0,test_val,NULL,PennController,59,_Header_,Start,1728913309096,undefined,727,distrust,negative,positive,B,NULL
1728913388,8579e430da5c6b755c99a7788b561ef4,PennController,49,0,test_val,NULL,PennController,59,_Header_,End,1728913309347,undefined,727,distrust,negative,positive,B,NULL
1728913388,8579e430da5c6b755c99a7788b561ef4,PennController,49,0,test_val,NULL,Selector,unnamed-Selector,Selection,negative,1728913310580,undefined,727,distrust,negative,positive,B,negative;positive
1728913388,8579e430da5c6b755c99a7788b561ef4,PennController,49,0,test_val,NULL,PennController,59,_Trial_,End,1728913310584,undefined,727,distrust,negative,positive,B,NULL
1728913388,8579e430da5c6b755c99a7788b561ef4,PennController,74,0,test_val,NULL,PennController,84,_Trial_,Start,1728913310588,undefined,806,vomit,negative,positive,B,NULL
1728913388,8579e430da5c6b755c99a7788b561ef4,PennController,74,0,test_val,NULL,PennController,84,_Header_,Start,1728913310589,undefined,806,vomit,negative,positive,B,NULL
1728913388,8579e430da5c6b755c99a7788b561ef4,PennController,74,0,test_val,NULL,PennController,84,_Header_,End,1728913310843,undefined,806,vomit,negative,positive,B,NULL
1728913388,8579e430da5c6b755c99a7788b561ef4,PennController,74,0,test_val,NULL,Selector,unnamed-Selector,Selection,negative,1728913312155,undefined,806,vomit,negative,positive,B,negative;positive
1728913388,8579e430da5c6b755c99a7788b561ef4,PennController,74,0,test_val,NULL,PennController,84,_Trial_,End,1728913312160,undefined,806,vomit,negative,positive,B,NULL
1728913388,8579e430da5c6b755c99a7788b561ef4,PennController,76,0,test_val,NULL,PennController,86,_Trial_,Start,1728913312163,undefined,628,barf,negative,positive,B,NULL
1728913388,8579e430da5c6b755c99a7788b561ef4,PennController,76,0,test_val,NULL,PennController,86,_Header_,Start,1728913312163,undefined,628,barf,negative,positive,B,NULL
1728913388,8579e430da5c6b755c99a7788b561ef4,PennController,76,0,test_val,NULL,PennController,86,_Header_,End,1728913312414,undefined,628,barf,negative,positive,B,NULL
1728913388,8579e430da5c6b755c99a7788b561ef4,PennController,76,0,test_val,NULL,Selector,unnamed-Selector,Selection,negative,1728913313549,undefined,628,barf,negative,positive,B,negative;positive
1728913388,8579e430da5c6b755c99a7788b561ef4,PennController,76,0,test_val,NULL,PennController,86,_Trial_,End,1728913313552,undefined,628,barf,negative,positive,B,NULL
1728913388,8579e430da5c6b755c99a7788b561ef4,PennController,78,0,test_val,NULL,PennController,88,_Trial_,Start,1728913313556,undefined,689,piss,negative,positive,B,NULL
1728913388,8579e430da5c6b755c99a7788b561ef4,PennController,78,0,test_val,NULL,PennController,88,_Header_,Start,1728913313556,undefined,689,piss,negative,positive,B,NULL
1728913388,8579e430da5c6b755c99a7788b561ef4,PennController,78,0,test_val,NULL,PennController,88,_Header_,End,1728913313810,undefined,689,piss,negative,positive,B,NULL
1728913388,8579e430da5c6b755c99a7788b561ef4,PennController,78,0,test_val,NULL,Selector,unnamed-Selector,Selection,negative,1728913315006,undefined,689,piss,negative,positive,B,negative;positive
1728913388,8579e430da5c6b755c99a7788b561ef4,PennController,78,0,test_val,NULL,PennController,88,_Trial_,End,1728913315010,undefined,689,piss,negative,positive,B,NULL
1728913388,8579e430da5c6b755c99a7788b561ef4,PennController,56,0,test_val,NULL,PennController,66,_Trial_,Start,1728913315013,undefined,695,laugh,negative,positive,B,NULL
