#
# Results on Mon, 14 Oct 2024 15:26:09 GMT
# USER AGENT: Mozilla/5.0 (Windows NT 10.0; Win64; x64) AppleWebKit/537.36 (KHTML, like Gecko) Chrome/129.0.0.0 Safari/537.36
# Design number was non-random = 0
#
# Columns below this comment are as follows:
# 1. Results reception time.
# 2. MD5 hash of participant's IP address.
# 3. Controller name.
# 4. Order number of item.
# 5. Inner element number.
# 6. Label.
# 7. Latin Square Group.
# 8. PennElementType.
# 9. PennElementName.
# 10. Parameter.
# 11. Value.
# 12. EventTime.
# 13. Comments.
1728919569,2c7e7b51a40a347954143c2ae5acd4de,PennController,1,0,welcome,NULL,PennController,0,_Trial_,Start,1728919263764,NULL
1728919569,2c7e7b51a40a347954143c2ae5acd4de,PennController,1,0,welcome,NULL,PennController,0,_Header_,Start,1728919263764,NULL
1728919569,2c7e7b51a40a347954143c2ae5acd4de,PennController,1,0,welcome,NULL,PennController,0,_Header_,End,1728919264019,NULL
1728919569,2c7e7b51a40a347954143c2ae5acd4de,PennController,1,0,welcome,NULL,PennController,0,_Trial_,End,1728919268711,NULL
# 13. ID.
# 14. Comments.
1728919569,2c7e7b51a40a347954143c2ae5acd4de,PennController,105,0,consent,NULL,PennController,3,_Trial_,Start,1728919268712,5e13b020f9e7509f89dbd793,NULL
1728919569,2c7e7b51a40a347954143c2ae5acd4de,PennController,105,0,consent,NULL,PennController,3,_Header_,Start,1728919268712,5e13b020f9e7509f89dbd793,NULL
1728919569,2c7e7b51a40a347954143c2ae5acd4de,PennController,105,0,consent,NULL,PennController,3,_Header_,End,1728919268964,5e13b020f9e7509f89dbd793,NULL
1728919569,2c7e7b51a40a347954143c2ae5acd4de,PennController,105,0,consent,NULL,TextInput,ID,Final,5e13b020f9e7509f89dbd793,1728919276933,5e13b020f9e7509f89dbd793,NULL
1728919569,2c7e7b51a40a347954143c2ae5acd4de,PennController,105,0,consent,NULL,PennController,3,_Trial_,End,1728919276933,5e13b020f9e7509f89dbd793,NULL
# 13. Comments.
1728919569,2c7e7b51a40a347954143c2ae5acd4de,PennController,107,0,instructions1_val,NULL,PennController,5,_Trial_,Start,1728919276934,NULL
1728919569,2c7e7b51a40a347954143c2ae5acd4de,PennController,107,0,instructions1_val,NULL,PennController,5,_Header_,Start,1728919276934,NULL
1728919569,2c7e7b51a40a347954143c2ae5acd4de,PennController,107,0,instructions1_val,NULL,PennController,5,_Header_,End,1728919277187,NULL
1728919569,2c7e7b51a40a347954143c2ae5acd4de,PennController,107,0,instructions1_val,NULL,PennController,5,_Trial_,End,1728919295291,NULL
1728919569,2c7e7b51a40a347954143c2ae5acd4de,PennController,108,0,instructions2_val,NULL,PennController,6,_Trial_,Start,1728919295292,NULL
1728919569,2c7e7b51a40a347954143c2ae5acd4de,PennController,108,0,instructions2_val,NULL,PennController,6,_Header_,Start,1728919295292,NULL
1728919569,2c7e7b51a40a347954143c2ae5acd4de,PennController,108,0,instructions2_val,NULL,PennController,6,_Header_,End,1728919295543,NULL
1728919569,2c7e7b51a40a347954143c2ae5acd4de,PennController,108,0,instructions2_val,NULL,PennController,6,_Trial_,End,1728919304816,NULL
1728919569,2c7e7b51a40a347954143c2ae5acd4de,PennController,109,0,instructions3_hands,NULL,PennController,7,_Trial_,Start,1728919304817,NULL
1728919569,2c7e7b51a40a347954143c2ae5acd4de,PennController,109,0,instructions3_hands,NULL,PennController,7,_Header_,Start,1728919304817,NULL
1728919569,2c7e7b51a40a347954143c2ae5acd4de,PennController,109,0,instructions3_hands,NULL,PennController,7,_Header_,End,1728919305070,NULL
1728919569,2c7e7b51a40a347954143c2ae5acd4de,PennController,109,0,instructions3_hands,NULL,PennController,7,_Trial_,End,1728919310368,NULL
1728919569,2c7e7b51a40a347954143c2ae5acd4de,PennController,84,0,practice_intro,NULL,PennController,2,_Trial_,Start,1728919310368,NULL
1728919569,2c7e7b51a40a347954143c2ae5acd4de,PennController,84,0,practice_intro,NULL,PennController,2,_Header_,Start,1728919310368,NULL
1728919569,2c7e7b51a40a347954143c2ae5acd4de,PennController,84,0,practice_intro,NULL,PennController,2,_Header_,End,1728919310620,NULL
1728919569,2c7e7b51a40a347954143c2ae5acd4de,PennController,84,0,practice_intro,NULL,PennController,2,_Trial_,End,1728919312906,NULL
# 13. ID.
# 14. ReactionTime.
# 15. Word.
# 16. Key_value_F.
# 17. Key_value_J.
# 18. Group.
# 19. Comments.
1728919569,2c7e7b51a40a347954143c2ae5acd4de,PennController,92,0,calibrator_val,NULL,PennController,101,_Trial_,Start,1728919312907,undefined,3499,kitten,negative,positive,B,NULL
1728919569,2c7e7b51a40a347954143c2ae5acd4de,PennController,92,0,calibrator_val,NULL,PennController,101,_Header_,Start,1728919312907,undefined,3499,kitten,negative,positive,B,NULL
1728919569,2c7e7b51a40a347954143c2ae5acd4de,PennController,92,0,calibrator_val,NULL,PennController,101,_Header_,End,1728919313157,undefined,3499,kitten,negative,positive,B,NULL
1728919569,2c7e7b51a40a347954143c2ae5acd4de,PennController,92,0,calibrator_val,NULL,Selector,unnamed-Selector,Selection,positive,1728919317157,undefined,3499,kitten,negative,positive,B,negative;positive
1728919569,2c7e7b51a40a347954143c2ae5acd4de,PennController,92,0,calibrator_val,NULL,PennController,101,_Trial_,End,1728919317159,undefined,3499,kitten,negative,positive,B,NULL
1728919569,2c7e7b51a40a347954143c2ae5acd4de,PennController,91,0,calibrator_val,NULL,PennController,100,_Trial_,Start,1728919317159,undefined,1534,grin,negative,positive,B,NULL
1728919569,2c7e7b51a40a347954143c2ae5acd4de,PennController,91,0,calibrator_val,NULL,PennController,100,_Header_,Start,1728919317159,undefined,1534,grin,negative,positive,B,NULL
1728919569,2c7e7b51a40a347954143c2ae5acd4de,PennController,91,0,calibrator_val,NULL,PennController,100,_Header_,End,1728919317413,undefined,1534,grin,negative,positive,B,NULL
1728919569,2c7e7b51a40a347954143c2ae5acd4de,PennController,91,0,calibrator_val,NULL,Selector,unnamed-Selector,Selection,positive,1728919319452,undefined,1534,grin,negative,positive,B,negative;positive
1728919569,2c7e7b51a40a347954143c2ae5acd4de,PennController,91,0,calibrator_val,NULL,PennController,100,_Trial_,End,1728919319453,undefined,1534,grin,negative,positive,B,NULL
1728919569,2c7e7b51a40a347954143c2ae5acd4de,PennController,93,0,calibrator_val,NULL,PennController,102,_Trial_,Start,1728919319454,undefined,1468,joke,negative,positive,B,NULL
1728919569,2c7e7b51a40a347954143c2ae5acd4de,PennController,93,0,calibrator_val,NULL,PennController,102,_Header_,Start,1728919319454,undefined,1468,joke,negative,positive,B,NULL
1728919569,2c7e7b51a40a347954143c2ae5acd4de,PennController,93,0,calibrator_val,NULL,PennController,102,_Header_,End,1728919319706,undefined,1468,joke,negative,positive,B,NULL
1728919569,2c7e7b51a40a347954143c2ae5acd4de,PennController,93,0,calibrator_val,NULL,Selector,unnamed-Selector,Selection,positive,1728919321679,undefined,1468,joke,negative,positive,B,negative;positive
1728919569,2c7e7b51a40a347954143c2ae5acd4de,PennController,93,0,calibrator_val,NULL,PennController,102,_Trial_,End,1728919321680,undefined,1468,joke,negative,positive,B,NULL
1728919569,2c7e7b51a40a347954143c2ae5acd4de,PennController,88,0,calibrator_val,NULL,PennController,97,_Trial_,Start,1728919321680,undefined,1139,industry,negative,positive,B,NULL
1728919569,2c7e7b51a40a347954143c2ae5acd4de,PennController,88,0,calibrator_val,NULL,PennController,97,_Header_,Start,1728919321680,undefined,1139,industry,negative,positive,B,NULL
1728919569,2c7e7b51a40a347954143c2ae5acd4de,PennController,88,0,calibrator_val,NULL,PennController,97,_Header_,End,1728919321932,undefined,1139,industry,negative,positive,B,NULL
1728919569,2c7e7b51a40a347954143c2ae5acd4de,PennController,88,0,calibrator_val,NULL,Selector,unnamed-Selector,Selection,positive,1728919323575,undefined,1139,industry,negative,positive,B,negative;positive
1728919569,2c7e7b51a40a347954143c2ae5acd4de,PennController,88,0,calibrator_val,NULL,PennController,97,_Trial_,End,1728919323576,undefined,1139,industry,negative,positive,B,NULL
1728919569,2c7e7b51a40a347954143c2ae5acd4de,PennController,87,0,calibrator_val,NULL,PennController,96,_Trial_,Start,1728919323577,undefined,1537,insecure,negative,positive,B,NULL
1728919569,2c7e7b51a40a347954143c2ae5acd4de,PennController,87,0,calibrator_val,NULL,PennController,96,_Header_,Start,1728919323577,undefined,1537,insecure,negative,positive,B,NULL
1728919569,2c7e7b51a40a347954143c2ae5acd4de,PennController,87,0,calibrator_val,NULL,PennController,96,_Header_,End,1728919323827,undefined,1537,insecure,negative,positive,B,NULL
1728919569,2c7e7b51a40a347954143c2ae5acd4de,PennController,87,0,calibrator_val,NULL,Selector,unnamed-Selector,Selection,negative,1728919325866,undefined,1537,insecure,negative,positive,B,negative;positive
1728919569,2c7e7b51a40a347954143c2ae5acd4de,PennController,87,0,calibrator_val,NULL,PennController,96,_Trial_,End,1728919325867,undefined,1537,insecure,negative,positive,B,NULL
1728919569,2c7e7b51a40a347954143c2ae5acd4de,PennController,94,0,calibrator_val,NULL,PennController,103,_Trial_,Start,1728919325867,undefined,1450,free,negative,positive,B,NULL
1728919569,2c7e7b51a40a347954143c2ae5acd4de,PennController,94,0,calibrator_val,NULL,PennController,103,_Header_,Start,1728919325867,undefined,1450,free,negative,positive,B,NULL
1728919569,2c7e7b51a40a347954143c2ae5acd4de,PennController,94,0,calibrator_val,NULL,PennController,103,_Header_,End,1728919326119,undefined,1450,free,negative,positive,B,NULL
1728919569,2c7e7b51a40a347954143c2ae5acd4de,PennController,94,0,calibrator_val,NULL,Selector,unnamed-Selector,Selection,positive,1728919328071,undefined,1450,free,negative,positive,B,negative;positive
1728919569,2c7e7b51a40a347954143c2ae5acd4de,PennController,94,0,calibrator_val,NULL,PennController,103,_Trial_,End,1728919328072,undefined,1450,free,negative,positive,B,NULL
1728919569,2c7e7b51a40a347954143c2ae5acd4de,PennController,89,0,calibrator_val,NULL,PennController,98,_Trial_,Start,1728919328073,undefined,1401,icebox,negative,positive,B,NULL
1728919569,2c7e7b51a40a347954143c2ae5acd4de,PennController,89,0,calibrator_val,NULL,PennController,98,_Header_,Start,1728919328073,undefined,1401,icebox,negative,positive,B,NULL
1728919569,2c7e7b51a40a347954143c2ae5acd4de,PennController,89,0,calibrator_val,NULL,PennController,98,_Header_,End,1728919328326,undefined,1401,icebox,negative,positive,B,NULL
1728919569,2c7e7b51a40a347954143c2ae5acd4de,PennController,89,0,calibrator_val,NULL,Selector,unnamed-Selector,Selection,positive,1728919330230,undefined,1401,icebox,negative,positive,B,negative;positive
1728919569,2c7e7b51a40a347954143c2ae5acd4de,PennController,89,0,calibrator_val,NULL,PennController,98,_Trial_,End,1728919330231,undefined,1401,icebox,negative,positive,B,NULL
1728919569,2c7e7b51a40a347954143c2ae5acd4de,PennController,85,0,calibrator_val,NULL,PennController,94,_Trial_,Start,1728919330232,undefined,893,jail,negative,positive,B,NULL
1728919569,2c7e7b51a40a347954143c2ae5acd4de,PennController,85,0,calibrator_val,NULL,PennController,94,_Header_,Start,1728919330232,undefined,893,jail,negative,positive,B,NULL
1728919569,2c7e7b51a40a347954143c2ae5acd4de,PennController,85,0,calibrator_val,NULL,PennController,94,_Header_,End,1728919330482,undefined,893,jail,negative,positive,B,NULL
1728919569,2c7e7b51a40a347954143c2ae5acd4de,PennController,85,0,calibrator_val,NULL,Selector,unnamed-Selector,Selection,negative,1728919331878,undefined,893,jail,negative,positive,B,negative;positive
1728919569,2c7e7b51a40a347954143c2ae5acd4de,PennController,85,0,calibrator_val,NULL,PennController,94,_Trial_,End,1728919331879,undefined,893,jail,negative,positive,B,NULL
1728919569,2c7e7b51a40a347954143c2ae5acd4de,PennController,90,0,calibrator_val,NULL,PennController,99,_Trial_,Start,1728919331880,undefined,934,hat,negative,positive,B,NULL
1728919569,2c7e7b51a40a347954143c2ae5acd4de,PennController,90,0,calibrator_val,NULL,PennController,99,_Header_,Start,1728919331880,undefined,934,hat,negative,positive,B,NULL
1728919569,2c7e7b51a40a347954143c2ae5acd4de,PennController,90,0,calibrator_val,NULL,PennController,99,_Header_,End,1728919332130,undefined,934,hat,negative,positive,B,NULL
1728919569,2c7e7b51a40a347954143c2ae5acd4de,PennController,90,0,calibrator_val,NULL,Selector,unnamed-Selector,Selection,positive,1728919333565,undefined,934,hat,negative,positive,B,negative;positive
1728919569,2c7e7b51a40a347954143c2ae5acd4de,PennController,90,0,calibrator_val,NULL,PennController,99,_Trial_,End,1728919333567,undefined,934,hat,negative,positive,B,NULL
1728919569,2c7e7b51a40a347954143c2ae5acd4de,PennController,86,0,calibrator_val,NULL,PennController,95,_Trial_,Start,1728919333567,undefined,980,invader,negative,positive,B,NULL
1728919569,2c7e7b51a40a347954143c2ae5acd4de,PennController,86,0,calibrator_val,NULL,PennController,95,_Header_,Start,1728919333567,undefined,980,invader,negative,positive,B,NULL
1728919569,2c7e7b51a40a347954143c2ae5acd4de,PennController,86,0,calibrator_val,NULL,PennController,95,_Header_,End,1728919333817,undefined,980,invader,negative,positive,B,NULL
1728919569,2c7e7b51a40a347954143c2ae5acd4de,PennController,86,0,calibrator_val,NULL,Selector,unnamed-Selector,Selection,negative,1728919335298,undefined,980,invader,negative,positive,B,negative;positive
1728919569,2c7e7b51a40a347954143c2ae5acd4de,PennController,86,0,calibrator_val,NULL,PennController,95,_Trial_,End,1728919335299,undefined,980,invader,negative,positive,B,NULL
1728919569,2c7e7b51a40a347954143c2ae5acd4de,PennController,29,0,test_val,NULL,PennController,39,_Trial_,Start,1728919335299,undefined,794,imagine,positive,negative,A,NULL
1728919569,2c7e7b51a40a347954143c2ae5acd4de,PennController,29,0,test_val,NULL,PennController,39,_Header_,Start,1728919335299,undefined,794,imagine,positive,negative,A,NULL
1728919569,2c7e7b51a40a347954143c2ae5acd4de,PennController,29,0,test_val,NULL,PennController,39,_Header_,End,1728919335552,undefined,794,imagine,positive,negative,A,NULL
1728919569,2c7e7b51a40a347954143c2ae5acd4de,PennController,29,0,test_val,NULL,Selector,unnamed-Selector,Selection,negative,1728919336849,undefined,794,imagine,positive,negative,A,positive;negative
1728919569,2c7e7b51a40a347954143c2ae5acd4de,PennController,29,0,test_val,NULL,PennController,39,_Trial_,End,1728919336850,undefined,794,imagine,positive,negative,A,NULL
1728919569,2c7e7b51a40a347954143c2ae5acd4de,PennController,11,0,test_val,NULL,PennController,21,_Trial_,Start,1728919336851,undefined,3197,violate,positive,negative,A,NULL
1728919569,2c7e7b51a40a347954143c2ae5acd4de,PennController,11,0,test_val,NULL,PennController,21,_Header_,Start,1728919336851,undefined,3197,violate,positive,negative,A,NULL
1728919569,2c7e7b51a40a347954143c2ae5acd4de,PennController,11,0,test_val,NULL,PennController,21,_Header_,End,1728919337104,undefined,3197,violate,positive,negative,A,NULL
1728919569,2c7e7b51a40a347954143c2ae5acd4de,PennController,11,0,test_val,NULL,Selector,unnamed-Selector,Selection,negative,1728919340806,undefined,3197,violate,positive,negative,A,positive;negative
1728919569,2c7e7b51a40a347954143c2ae5acd4de,PennController,11,0,test_val,NULL,PennController,21,_Trial_,End,1728919340807,undefined,3197,violate,positive,negative,A,NULL
1728919569,2c7e7b51a40a347954143c2ae5acd4de,PennController,28,0,test_val,NULL,PennController,38,_Trial_,Start,1728919340808,undefined,1206,inspire,positive,negative,A,NULL
1728919569,2c7e7b51a40a347954143c2ae5acd4de,PennController,28,0,test_val,NULL,PennController,38,_Header_,Start,1728919340808,undefined,1206,inspire,positive,negative,A,NULL
1728919569,2c7e7b51a40a347954143c2ae5acd4de,PennController,28,0,test_val,NULL,PennController,38,_Header_,End,1728919341059,undefined,1206,inspire,positive,negative,A,NULL
1728919569,2c7e7b51a40a347954143c2ae5acd4de,PennController,28,0,test_val,NULL,Selector,unnamed-Selector,Selection,positive,1728919342768,undefined,1206,inspire,positive,negative,A,positive;negative
1728919569,2c7e7b51a40a347954143c2ae5acd4de,PennController,28,0,test_val,NULL,PennController,38,_Trial_,End,1728919342769,undefined,1206,inspire,positive,negative,A,NULL
1728919569,2c7e7b51a40a347954143c2ae5acd4de,PennController,43,0,test_val,NULL,PennController,53,_Trial_,Start,1728919342770,undefined,1552,weep,positive,negative,A,NULL
1728919569,2c7e7b51a40a347954143c2ae5acd4de,PennController,43,0,test_val,NULL,PennController,53,_Header_,Start,1728919342770,undefined,1552,weep,positive,negative,A,NULL
1728919569,2c7e7b51a40a347954143c2ae5acd4de,PennController,43,0,test_val,NULL,PennController,53,_Header_,End,1728919343023,undefined,1552,weep,positive,negative,A,NULL
1728919569,2c7e7b51a40a347954143c2ae5acd4de,PennController,43,0,test_val,NULL,Selector,unnamed-Selector,Selection,negative,1728919345080,undefined,1552,weep,positive,negative,A,positive;negative
1728919569,2c7e7b51a40a347954143c2ae5acd4de,PennController,43,0,test_val,NULL,PennController,53,_Trial_,End,1728919345081,undefined,1552,weep,positive,negative,A,NULL
1728919569,2c7e7b51a40a347954143c2ae5acd4de,PennController,4,0,test_val,NULL,PennController,14,_Trial_,Start,1728919345081,undefined,3404,disown,positive,negative,A,NULL
1728919569,2c7e7b51a40a347954143c2ae5acd4de,PennController,4,0,test_val,NULL,PennController,14,_Header_,Start,1728919345081,undefined,3404,disown,positive,negative,A,NULL
1728919569,2c7e7b51a40a347954143c2ae5acd4de,PennController,4,0,test_val,NULL,PennController,14,_Header_,End,1728919345335,undefined,3404,disown,positive,negative,A,NULL
1728919569,2c7e7b51a40a347954143c2ae5acd4de,PennController,4,0,test_val,NULL,Selector,unnamed-Selector,Selection,negative,1728919349242,undefined,3404,disown,positive,negative,A,positive;negative
1728919569,2c7e7b51a40a347954143c2ae5acd4de,PennController,4,0,test_val,NULL,PennController,14,_Trial_,End,1728919349242,undefined,3404,disown,positive,negative,A,NULL
1728919569,2c7e7b51a40a347954143c2ae5acd4de,PennController,18,0,test_val,NULL,PennController,28,_Trial_,Start,1728919349243,undefined,1429,sleep,positive,negative,A,NULL
1728919569,2c7e7b51a40a347954143c2ae5acd4de,PennController,18,0,test_val,NULL,PennController,28,_Header_,Start,1728919349243,undefined,1429,sleep,positive,negative,A,NULL
1728919569,2c7e7b51a40a347954143c2ae5acd4de,PennController,18,0,test_val,NULL,PennController,28,_Header_,End,1728919349494,undefined,1429,sleep,positive,negative,A,NULL
1728919569,2c7e7b51a40a347954143c2ae5acd4de,PennController,18,0,test_val,NULL,Selector,unnamed-Selector,Selection,positive,1728919351425,undefined,1429,sleep,positive,negative,A,positive;negative
1728919569,2c7e7b51a40a347954143c2ae5acd4de,PennController,18,0,test_val,NULL,PennController,28,_Trial_,End,1728919351426,undefined,1429,sleep,positive,negative,A,NULL
1728919569,2c7e7b51a40a347954143c2ae5acd4de,PennController,12,0,test_val,NULL,PennController,22,_Trial_,Start,1728919351426,undefined,1272,condemn,positive,negative,A,NULL
1728919569,2c7e7b51a40a347954143c2ae5acd4de,PennController,12,0,test_val,NULL,PennController,22,_Header_,Start,1728919351426,undefined,1272,condemn,positive,negative,A,NULL
1728919569,2c7e7b51a40a347954143c2ae5acd4de,PennController,12,0,test_val,NULL,PennController,22,_Header_,End,1728919351677,undefined,1272,condemn,positive,negative,A,NULL
1728919569,2c7e7b51a40a347954143c2ae5acd4de,PennController,12,0,test_val,NULL,Selector,unnamed-Selector,Selection,negative,1728919353454,undefined,1272,condemn,positive,negative,A,positive;negative
1728919569,2c7e7b51a40a347954143c2ae5acd4de,PennController,12,0,test_val,NULL,PennController,22,_Trial_,End,1728919353455,undefined,1272,condemn,positive,negative,A,NULL
1728919569,2c7e7b51a40a347954143c2ae5acd4de,PennController,27,0,test_val,NULL,PennController,37,_Trial_,Start,1728919353456,undefined,2638,zing,positive,negative,A,NULL
1728919569,2c7e7b51a40a347954143c2ae5acd4de,PennController,27,0,test_val,NULL,PennController,37,_Header_,Start,1728919353456,undefined,2638,zing,positive,negative,A,NULL
1728919569,2c7e7b51a40a347954143c2ae5acd4de,PennController,27,0,test_val,NULL,PennController,37,_Header_,End,1728919353707,undefined,2638,zing,positive,negative,A,NULL
1728919569,2c7e7b51a40a347954143c2ae5acd4de,PennController,27,0,test_val,NULL,Selector,unnamed-Selector,Selection,positive,1728919356848,undefined,2638,zing,positive,negative,A,positive;negative
1728919569,2c7e7b51a40a347954143c2ae5acd4de,PennController,27,0,test_val,NULL,PennController,37,_Trial_,End,1728919356849,undefined,2638,zing,positive,negative,A,NULL
1728919569,2c7e7b51a40a347954143c2ae5acd4de,PennController,36,0,test_val,NULL,PennController,46,_Trial_,Start,1728919356850,undefined,1206,barf,positive,negative,A,NULL
1728919569,2c7e7b51a40a347954143c2ae5acd4de,PennController,36,0,test_val,NULL,PennController,46,_Header_,Start,1728919356850,undefined,1206,barf,positive,negative,A,NULL
1728919569,2c7e7b51a40a347954143c2ae5acd4de,PennController,36,0,test_val,NULL,PennController,46,_Header_,End,1728919357100,undefined,1206,barf,positive,negative,A,NULL
1728919569,2c7e7b51a40a347954143c2ae5acd4de,PennController,36,0,test_val,NULL,Selector,unnamed-Selector,Selection,negative,1728919358810,undefined,1206,barf,positive,negative,A,positive;negative
1728919569,2c7e7b51a40a347954143c2ae5acd4de,PennController,36,0,test_val,NULL,PennController,46,_Trial_,End,1728919358810,undefined,1206,barf,positive,negative,A,NULL
1728919569,2c7e7b51a40a347954143c2ae5acd4de,PennController,8,0,test_val,NULL,PennController,18,_Trial_,Start,1728919358811,undefined,2636,displease,positive,negative,A,NULL
1728919569,2c7e7b51a40a347954143c2ae5acd4de,PennController,8,0,test_val,NULL,PennController,18,_Header_,Start,1728919358811,undefined,2636,displease,positive,negative,A,NULL
1728919569,2c7e7b51a40a347954143c2ae5acd4de,PennController,8,0,test_val,NULL,PennController,18,_Header_,End,1728919359064,undefined,2636,displease,positive,negative,A,NULL
1728919569,2c7e7b51a40a347954143c2ae5acd4de,PennController,8,0,test_val,NULL,Selector,unnamed-Selector,Selection,negative,1728919362203,undefined,2636,displease,positive,negative,A,positive;negative
1728919569,2c7e7b51a40a347954143c2ae5acd4de,PennController,8,0,test_val,NULL,PennController,18,_Trial_,End,1728919362203,undefined,2636,displease,positive,negative,A,NULL
1728919569,2c7e7b51a40a347954143c2ae5acd4de,PennController,38,0,test_val,NULL,PennController,48,_Trial_,Start,1728919362204,undefined,1426,piss,positive,negative,A,NULL
1728919569,2c7e7b51a40a347954143c2ae5acd4de,PennController,38,0,test_val,NULL,PennController,48,_Header_,Start,1728919362204,undefined,1426,piss,positive,negative,A,NULL
1728919569,2c7e7b51a40a347954143c2ae5acd4de,PennController,38,0,test_val,NULL,PennController,48,_Header_,End,1728919362456,undefined,1426,piss,positive,negative,A,NULL
1728919569,2c7e7b51a40a347954143c2ae5acd4de,PennController,38,0,test_val,NULL,Selector,unnamed-Selector,Selection,negative,1728919364385,undefined,1426,piss,positive,negative,A,positive;negative
1728919569,2c7e7b51a40a347954143c2ae5acd4de,PennController,38,0,test_val,NULL,PennController,48,_Trial_,End,1728919364386,undefined,1426,piss,positive,negative,A,NULL
1728919569,2c7e7b51a40a347954143c2ae5acd4de,PennController,35,0,test_val,NULL,PennController,45,_Trial_,Start,1728919364387,undefined,824,puke,positive,negative,A,NULL
1728919569,2c7e7b51a40a347954143c2ae5acd4de,PennController,35,0,test_val,NULL,PennController,45,_Header_,Start,1728919364387,undefined,824,puke,positive,negative,A,NULL
1728919569,2c7e7b51a40a347954143c2ae5acd4de,PennController,35,0,test_val,NULL,PennController,45,_Header_,End,1728919364639,undefined,824,puke,positive,negative,A,NULL
1728919569,2c7e7b51a40a347954143c2ae5acd4de,PennController,35,0,test_val,NULL,Selector,unnamed-Selector,Selection,negative,1728919365965,undefined,824,puke,positive,negative,A,positive;negative
1728919569,2c7e7b51a40a347954143c2ae5acd4de,PennController,35,0,test_val,NULL,PennController,45,_Trial_,End,1728919365966,undefined,824,puke,positive,negative,A,NULL
1728919569,2c7e7b51a40a347954143c2ae5acd4de,PennController,20,0,test_val,NULL,PennController,30,_Trial_,Start,1728919365967,undefined,1488,smooch,positive,negative,A,NULL
1728919569,2c7e7b51a40a347954143c2ae5acd4de,PennController,20,0,test_val,NULL,PennController,30,_Header_,Start,1728919365967,undefined,1488,smooch,positive,negative,A,NULL
1728919569,2c7e7b51a40a347954143c2ae5acd4de,PennController,20,0,test_val,NULL,PennController,30,_Header_,End,1728919366218,undefined,1488,smooch,positive,negative,A,NULL
1728919569,2c7e7b51a40a347954143c2ae5acd4de,PennController,20,0,test_val,NULL,Selector,unnamed-Selector,Selection,positive,1728919368211,undefined,1488,smooch,positive,negative,A,positive;negative
1728919569,2c7e7b51a40a347954143c2ae5acd4de,PennController,20,0,test_val,NULL,PennController,30,_Trial_,End,1728919368212,undefined,1488,smooch,positive,negative,A,NULL
1728919569,2c7e7b51a40a347954143c2ae5acd4de,PennController,19,0,test_val,NULL,PennController,29,_Trial_,Start,1728919368212,undefined,1113,dance,positive,negative,A,NULL
1728919569,2c7e7b51a40a347954143c2ae5acd4de,PennController,19,0,test_val,NULL,PennController,29,_Header_,Start,1728919368212,undefined,1113,dance,positive,negative,A,NULL
1728919569,2c7e7b51a40a347954143c2ae5acd4de,PennController,19,0,test_val,NULL,PennController,29,_Header_,End,1728919368465,undefined,1113,dance,positive,negative,A,NULL
1728919569,2c7e7b51a40a347954143c2ae5acd4de,PennController,19,0,test_val,NULL,Selector,unnamed-Selector,Selection,positive,1728919370083,undefined,1113,dance,positive,negative,A,positive;negative
1728919569,2c7e7b51a40a347954143c2ae5acd4de,PennController,19,0,test_val,NULL,PennController,29,_Trial_,End,1728919370084,undefined,1113,dance,positive,negative,A,NULL
1728919569,2c7e7b51a40a347954143c2ae5acd4de,PennController,34,0,test_val,NULL,PennController,44,_Trial_,Start,1728919370085,undefined,1531,vomit,positive,negative,A,NULL
1728919569,2c7e7b51a40a347954143c2ae5acd4de,PennController,34,0,test_val,NULL,PennController,44,_Header_,Start,1728919370085,undefined,1531,vomit,positive,negative,A,NULL
1728919569,2c7e7b51a40a347954143c2ae5acd4de,PennController,34,0,test_val,NULL,PennController,44,_Header_,End,1728919370337,undefined,1531,vomit,positive,negative,A,NULL
1728919569,2c7e7b51a40a347954143c2ae5acd4de,PennController,34,0,test_val,NULL,Selector,unnamed-Selector,Selection,negative,1728919372373,undefined,1531,vomit,positive,negative,A,positive;negative
1728919569,2c7e7b51a40a347954143c2ae5acd4de,PennController,34,0,test_val,NULL,PennController,44,_Trial_,End,1728919372374,undefined,1531,vomit,positive,negative,A,NULL
1728919569,2c7e7b51a40a347954143c2ae5acd4de,PennController,21,0,test_val,NULL,PennController,31,_Trial_,Start,1728919372375,undefined,2824,eat,positive,negative,A,NULL
1728919569,2c7e7b51a40a347954143c2ae5acd4de,PennController,21,0,test_val,NULL,PennController,31,_Header_,Start,1728919372375,undefined,2824,eat,positive,negative,A,NULL
1728919569,2c7e7b51a40a347954143c2ae5acd4de,PennController,21,0,test_val,NULL,PennController,31,_Header_,End,1728919372625,undefined,2824,eat,positive,negative,A,NULL
1728919569,2c7e7b51a40a347954143c2ae5acd4de,PennController,21,0,test_val,NULL,Selector,unnamed-Selector,Selection,positive,1728919375951,undefined,2824,eat,positive,negative,A,positive;negative
1728919569,2c7e7b51a40a347954143c2ae5acd4de,PennController,21,0,test_val,NULL,PennController,31,_Trial_,End,1728919375952,undefined,2824,eat,positive,negative,A,NULL
1728919569,2c7e7b51a40a347954143c2ae5acd4de,PennController,9,0,test_val,NULL,PennController,19,_Trial_,Start,1728919375952,undefined,1469,distrust,positive,negative,A,NULL
1728919569,2c7e7b51a40a347954143c2ae5acd4de,PennController,9,0,test_val,NULL,PennController,19,_Header_,Start,1728919375952,undefined,1469,distrust,positive,negative,A,NULL
1728919569,2c7e7b51a40a347954143c2ae5acd4de,PennController,9,0,test_val,NULL,PennController,19,_Header_,End,1728919376205,undefined,1469,distrust,positive,negative,A,NULL
1728919569,2c7e7b51a40a347954143c2ae5acd4de,PennController,9,0,test_val,NULL,Selector,unnamed-Selector,Selection,negative,1728919378179,undefined,1469,distrust,positive,negative,A,positive;negative
1728919569,2c7e7b51a40a347954143c2ae5acd4de,PennController,9,0,test_val,NULL,PennController,19,_Trial_,End,1728919378180,undefined,1469,distrust,positive,negative,A,NULL
1728919569,2c7e7b51a40a347954143c2ae5acd4de,PennController,17,0,test_val,NULL,PennController,27,_Trial_,Start,1728919378181,undefined,1181,bathe,positive,negative,A,NULL
1728919569,2c7e7b51a40a347954143c2ae5acd4de,PennController,17,0,test_val,NULL,PennController,27,_Header_,Start,1728919378181,undefined,1181,bathe,positive,negative,A,NULL
1728919569,2c7e7b51a40a347954143c2ae5acd4de,PennController,17,0,test_val,NULL,PennController,27,_Header_,End,1728919378433,undefined,1181,bathe,positive,negative,A,NULL
1728919569,2c7e7b51a40a347954143c2ae5acd4de,PennController,17,0,test_val,NULL,Selector,unnamed-Selector,Selection,positive,1728919380118,undefined,1181,bathe,positive,negative,A,positive;negative
1728919569,2c7e7b51a40a347954143c2ae5acd4de,PennController,17,0,test_val,NULL,PennController,27,_Trial_,End,1728919380119,undefined,1181,bathe,positive,negative,A,NULL
1728919569,2c7e7b51a40a347954143c2ae5acd4de,PennController,31,0,test_val,NULL,PennController,41,_Trial_,Start,1728919380119,undefined,1222,believe,positive,negative,A,NULL
1728919569,2c7e7b51a40a347954143c2ae5acd4de,PennController,31,0,test_val,NULL,PennController,41,_Header_,Start,1728919380119,undefined,1222,believe,positive,negative,A,NULL
1728919569,2c7e7b51a40a347954143c2ae5acd4de,PennController,31,0,test_val,NULL,PennController,41,_Header_,End,1728919380371,undefined,1222,believe,positive,negative,A,NULL
1728919569,2c7e7b51a40a347954143c2ae5acd4de,PennController,31,0,test_val,NULL,Selector,unnamed-Selector,Selection,positive,1728919382098,undefined,1222,believe,positive,negative,A,positive;negative
1728919569,2c7e7b51a40a347954143c2ae5acd4de,PennController,31,0,test_val,NULL,PennController,41,_Trial_,End,1728919382099,undefined,1222,believe,positive,negative,A,NULL
1728919569,2c7e7b51a40a347954143c2ae5acd4de,PennController,6,0,test_val,NULL,PennController,16,_Trial_,Start,1728919382100,undefined,1510,profane,positive,negative,A,NULL
1728919569,2c7e7b51a40a347954143c2ae5acd4de,PennController,6,0,test_val,NULL,PennController,16,_Header_,Start,1728919382100,undefined,1510,profane,positive,negative,A,NULL
1728919569,2c7e7b51a40a347954143c2ae5acd4de,PennController,6,0,test_val,NULL,PennController,16,_Header_,End,1728919382353,undefined,1510,profane,positive,negative,A,NULL
1728919569,2c7e7b51a40a347954143c2ae5acd4de,PennController,6,0,test_val,NULL,Selector,unnamed-Selector,Selection,negative,1728919384366,undefined,1510,profane,positive,negative,A,positive;negative
1728919569,2c7e7b51a40a347954143c2ae5acd4de,PennController,6,0,test_val,NULL,PennController,16,_Trial_,End,1728919384366,undefined,1510,profane,positive,negative,A,NULL
1728919569,2c7e7b51a40a347954143c2ae5acd4de,PennController,22,0,test_val,NULL,PennController,32,_Trial_,Start,1728919384367,undefined,2531,swing,positive,negative,A,NULL
1728919569,2c7e7b51a40a347954143c2ae5acd4de,PennController,22,0,test_val,NULL,PennController,32,_Header_,Start,1728919384367,undefined,2531,swing,positive,negative,A,NULL
1728919569,2c7e7b51a40a347954143c2ae5acd4de,PennController,22,0,test_val,NULL,PennController,32,_Header_,End,1728919384617,undefined,2531,swing,positive,negative,A,NULL
1728919569,2c7e7b51a40a347954143c2ae5acd4de,PennController,22,0,test_val,NULL,Selector,unnamed-Selector,Selection,positive,1728919387652,undefined,2531,swing,positive,negative,A,positive;negative
1728919569,2c7e7b51a40a347954143c2ae5acd4de,PennController,22,0,test_val,NULL,PennController,32,_Trial_,End,1728919387652,undefined,2531,swing,positive,negative,A,NULL
1728919569,2c7e7b51a40a347954143c2ae5acd4de,PennController,40,0,test_val,NULL,PennController,50,_Trial_,Start,1728919387653,undefined,1320,convict,positive,negative,A,NULL
1728919569,2c7e7b51a40a347954143c2ae5acd4de,PennController,40,0,test_val,NULL,PennController,50,_Header_,Start,1728919387653,undefined,1320,convict,positive,negative,A,NULL
1728919569,2c7e7b51a40a347954143c2ae5acd4de,PennController,40,0,test_val,NULL,PennController,50,_Header_,End,1728919387904,undefined,1320,convict,positive,negative,A,NULL
1728919569,2c7e7b51a40a347954143c2ae5acd4de,PennController,40,0,test_val,NULL,Selector,unnamed-Selector,Selection,negative,1728919389725,undefined,1320,convict,positive,negative,A,positive;negative
1728919569,2c7e7b51a40a347954143c2ae5acd4de,PennController,40,0,test_val,NULL,PennController,50,_Trial_,End,1728919389726,undefined,1320,convict,positive,negative,A,NULL
1728919569,2c7e7b51a40a347954143c2ae5acd4de,PennController,30,0,test_val,NULL,PennController,40,_Trial_,Start,1728919389727,undefined,1487,fulfill,positive,negative,A,NULL
1728919569,2c7e7b51a40a347954143c2ae5acd4de,PennController,30,0,test_val,NULL,PennController,40,_Header_,Start,1728919389727,undefined,1487,fulfill,positive,negative,A,NULL
1728919569,2c7e7b51a40a347954143c2ae5acd4de,PennController,30,0,test_val,NULL,PennController,40,_Header_,End,1728919389981,undefined,1487,fulfill,positive,negative,A,NULL
1728919569,2c7e7b51a40a347954143c2ae5acd4de,PennController,30,0,test_val,NULL,Selector,unnamed-Selector,Selection,positive,1728919391970,undefined,1487,fulfill,positive,negative,A,positive;negative
1728919569,2c7e7b51a40a347954143c2ae5acd4de,PennController,30,0,test_val,NULL,PennController,40,_Trial_,End,1728919391971,undefined,1487,fulfill,positive,negative,A,NULL
1728919569,2c7e7b51a40a347954143c2ae5acd4de,PennController,37,0,test_val,NULL,PennController,47,_Trial_,Start,1728919391971,undefined,1206,carjack,positive,negative,A,NULL
1728919569,2c7e7b51a40a347954143c2ae5acd4de,PennController,37,0,test_val,NULL,PennController,47,_Header_,Start,1728919391971,undefined,1206,carjack,positive,negative,A,NULL
1728919569,2c7e7b51a40a347954143c2ae5acd4de,PennController,37,0,test_val,NULL,PennController,47,_Header_,End,1728919392223,undefined,1206,carjack,positive,negative,A,NULL
1728919569,2c7e7b51a40a347954143c2ae5acd4de,PennController,37,0,test_val,NULL,Selector,unnamed-Selector,Selection,negative,1728919393932,undefined,1206,carjack,positive,negative,A,positive;negative
1728919569,2c7e7b51a40a347954143c2ae5acd4de,PennController,37,0,test_val,NULL,PennController,47,_Trial_,End,1728919393933,undefined,1206,carjack,positive,negative,A,NULL
1728919569,2c7e7b51a40a347954143c2ae5acd4de,PennController,24,0,test_val,NULL,PennController,34,_Trial_,Start,1728919393934,undefined,888,hope,positive,negative,A,NULL
1728919569,2c7e7b51a40a347954143c2ae5acd4de,PennController,24,0,test_val,NULL,PennController,34,_Header_,Start,1728919393934,undefined,888,hope,positive,negative,A,NULL
1728919569,2c7e7b51a40a347954143c2ae5acd4de,PennController,24,0,test_val,NULL,PennController,34,_Header_,End,1728919394184,undefined,888,hope,positive,negative,A,NULL
1728919569,2c7e7b51a40a347954143c2ae5acd4de,PennController,24,0,test_val,NULL,Selector,unnamed-Selector,Selection,positive,1728919395575,undefined,888,hope,positive,negative,A,positive;negative
1728919569,2c7e7b51a40a347954143c2ae5acd4de,PennController,24,0,test_val,NULL,PennController,34,_Trial_,End,1728919395576,undefined,888,hope,positive,negative,A,NULL
1728919569,2c7e7b51a40a347954143c2ae5acd4de,PennController,26,0,test_val,NULL,PennController,36,_Trial_,Start,1728919395576,undefined,1986,excite,positive,negative,A,NULL
1728919569,2c7e7b51a40a347954143c2ae5acd4de,PennController,26,0,test_val,NULL,PennController,36,_Header_,Start,1728919395576,undefined,1986,excite,positive,negative,A,NULL
1728919569,2c7e7b51a40a347954143c2ae5acd4de,PennController,26,0,test_val,NULL,PennController,36,_Header_,End,1728919395828,undefined,1986,excite,positive,negative,A,NULL
1728919569,2c7e7b51a40a347954143c2ae5acd4de,PennController,26,0,test_val,NULL,Selector,unnamed-Selector,Selection,positive,1728919398317,undefined,1986,excite,positive,negative,A,positive;negative
1728919569,2c7e7b51a40a347954143c2ae5acd4de,PennController,26,0,test_val,NULL,PennController,36,_Trial_,End,1728919398317,undefined,1986,excite,positive,negative,A,NULL
1728919569,2c7e7b51a40a347954143c2ae5acd4de,PennController,25,0,test_val,NULL,PennController,35,_Trial_,Start,1728919398318,undefined,1807,enlighten,positive,negative,A,NULL
1728919569,2c7e7b51a40a347954143c2ae5acd4de,PennController,25,0,test_val,NULL,PennController,35,_Header_,Start,1728919398318,undefined,1807,enlighten,positive,negative,A,NULL
1728919569,2c7e7b51a40a347954143c2ae5acd4de,PennController,25,0,test_val,NULL,PennController,35,_Header_,End,1728919398568,undefined,1807,enlighten,positive,negative,A,NULL
1728919569,2c7e7b51a40a347954143c2ae5acd4de,PennController,25,0,test_val,NULL,Selector,unnamed-Selector,Selection,positive,1728919400880,undefined,1807,enlighten,positive,negative,A,positive;negative
1728919569,2c7e7b51a40a347954143c2ae5acd4de,PennController,25,0,test_val,NULL,PennController,35,_Trial_,End,1728919400881,undefined,1807,enlighten,positive,negative,A,NULL
1728919569,2c7e7b51a40a347954143c2ae5acd4de,PennController,13,0,test_val,NULL,PennController,23,_Trial_,Start,1728919400881,undefined,1252,intimidate,positive,negative,A,NULL
1728919569,2c7e7b51a40a347954143c2ae5acd4de,PennController,13,0,test_val,NULL,PennController,23,_Header_,Start,1728919400881,undefined,1252,intimidate,positive,negative,A,NULL
1728919569,2c7e7b51a40a347954143c2ae5acd4de,PennController,13,0,test_val,NULL,PennController,23,_Header_,End,1728919401132,undefined,1252,intimidate,positive,negative,A,NULL
1728919569,2c7e7b51a40a347954143c2ae5acd4de,PennController,13,0,test_val,NULL,Selector,unnamed-Selector,Selection,negative,1728919402888,undefined,1252,intimidate,positive,negative,A,positive;negative
1728919569,2c7e7b51a40a347954143c2ae5acd4de,PennController,13,0,test_val,NULL,PennController,23,_Trial_,End,1728919402889,undefined,1252,intimidate,positive,negative,A,NULL
1728919569,2c7e7b51a40a347954143c2ae5acd4de,PennController,10,0,test_val,NULL,PennController,20,_Trial_,Start,1728919402890,undefined,1803,annoy,positive,negative,A,NULL
1728919569,2c7e7b51a40a347954143c2ae5acd4de,PennController,10,0,test_val,NULL,PennController,20,_Header_,Start,1728919402890,undefined,1803,annoy,positive,negative,A,NULL
1728919569,2c7e7b51a40a347954143c2ae5acd4de,PennController,10,0,test_val,NULL,PennController,20,_Header_,End,1728919403142,undefined,1803,annoy,positive,negative,A,NULL
1728919569,2c7e7b51a40a347954143c2ae5acd4de,PennController,10,0,test_val,NULL,Selector,unnamed-Selector,Selection,negative,1728919405449,undefined,1803,annoy,positive,negative,A,positive;negative
1728919569,2c7e7b51a40a347954143c2ae5acd4de,PennController,10,0,test_val,NULL,PennController,20,_Trial_,End,1728919405449,undefined,1803,annoy,positive,negative,A,NULL
1728919569,2c7e7b51a40a347954143c2ae5acd4de,PennController,5,0,test_val,NULL,PennController,15,_Trial_,Start,1728919405450,undefined,1248,hate,positive,negative,A,NULL
1728919569,2c7e7b51a40a347954143c2ae5acd4de,PennController,5,0,test_val,NULL,PennController,15,_Header_,Start,1728919405450,undefined,1248,hate,positive,negative,A,NULL
1728919569,2c7e7b51a40a347954143c2ae5acd4de,PennController,5,0,test_val,NULL,PennController,15,_Header_,End,1728919405703,undefined,1248,hate,positive,negative,A,NULL
1728919569,2c7e7b51a40a347954143c2ae5acd4de,PennController,5,0,test_val,NULL,Selector,unnamed-Selector,Selection,negative,1728919407455,undefined,1248,hate,positive,negative,A,positive;negative
1728919569,2c7e7b51a40a347954143c2ae5acd4de,PennController,5,0,test_val,NULL,PennController,15,_Trial_,End,1728919407456,undefined,1248,hate,positive,negative,A,NULL
1728919569,2c7e7b51a40a347954143c2ae5acd4de,PennController,15,0,test_val,NULL,PennController,25,_Trial_,Start,1728919407456,undefined,1047,sing,positive,negative,A,NULL
1728919569,2c7e7b51a40a347954143c2ae5acd4de,PennController,15,0,test_val,NULL,PennController,25,_Header_,Start,1728919407456,undefined,1047,sing,positive,negative,A,NULL
1728919569,2c7e7b51a40a347954143c2ae5acd4de,PennController,15,0,test_val,NULL,PennController,25,_Header_,End,1728919407706,undefined,1047,sing,positive,negative,A,NULL
1728919569,2c7e7b51a40a347954143c2ae5acd4de,PennController,15,0,test_val,NULL,Selector,unnamed-Selector,Selection,positive,1728919409255,undefined,1047,sing,positive,negative,A,positive;negative
1728919569,2c7e7b51a40a347954143c2ae5acd4de,PennController,15,0,test_val,NULL,PennController,25,_Trial_,End,1728919409255,undefined,1047,sing,positive,negative,A,NULL
1728919569,2c7e7b51a40a347954143c2ae5acd4de,PennController,39,0,test_val,NULL,PennController,49,_Trial_,Start,1728919409256,undefined,1492,bleed,positive,negative,A,NULL
1728919569,2c7e7b51a40a347954143c2ae5acd4de,PennController,39,0,test_val,NULL,PennController,49,_Header_,Start,1728919409256,undefined,1492,bleed,positive,negative,A,NULL
1728919569,2c7e7b51a40a347954143c2ae5acd4de,PennController,39,0,test_val,NULL,PennController,49,_Header_,End,1728919409507,undefined,1492,bleed,positive,negative,A,NULL
1728919569,2c7e7b51a40a347954143c2ae5acd4de,PennController,39,0,test_val,NULL,Selector,unnamed-Selector,Selection,negative,1728919411501,undefined,1492,bleed,positive,negative,A,positive;negative
1728919569,2c7e7b51a40a347954143c2ae5acd4de,PennController,39,0,test_val,NULL,PennController,49,_Trial_,End,1728919411502,undefined,1492,bleed,positive,negative,A,NULL
1728919569,2c7e7b51a40a347954143c2ae5acd4de,PennController,7,0,test_val,NULL,PennController,17,_Trial_,Start,1728919411502,undefined,956,degrade,positive,negative,A,NULL
1728919569,2c7e7b51a40a347954143c2ae5acd4de,PennController,7,0,test_val,NULL,PennController,17,_Header_,Start,1728919411502,undefined,956,degrade,positive,negative,A,NULL
1728919569,2c7e7b51a40a347954143c2ae5acd4de,PennController,7,0,test_val,NULL,PennController,17,_Header_,End,1728919411754,undefined,956,degrade,positive,negative,A,NULL
1728919569,2c7e7b51a40a347954143c2ae5acd4de,PennController,7,0,test_val,NULL,Selector,unnamed-Selector,Selection,negative,1728919413215,undefined,956,degrade,positive,negative,A,positive;negative
1728919569,2c7e7b51a40a347954143c2ae5acd4de,PennController,7,0,test_val,NULL,PennController,17,_Trial_,End,1728919413216,undefined,956,degrade,positive,negative,A,NULL
1728919569,2c7e7b51a40a347954143c2ae5acd4de,PennController,32,0,test_val,NULL,PennController,42,_Trial_,Start,1728919413216,undefined,953,admired,positive,negative,A,NULL
1728919569,2c7e7b51a40a347954143c2ae5acd4de,PennController,32,0,test_val,NULL,PennController,42,_Header_,Start,1728919413216,undefined,953,admired,positive,negative,A,NULL
1728919569,2c7e7b51a40a347954143c2ae5acd4de,PennController,32,0,test_val,NULL,PennController,42,_Header_,End,1728919413470,undefined,953,admired,positive,negative,A,NULL
1728919569,2c7e7b51a40a347954143c2ae5acd4de,PennController,32,0,test_val,NULL,Selector,unnamed-Selector,Selection,positive,1728919414926,undefined,953,admired,positive,negative,A,positive;negative
1728919569,2c7e7b51a40a347954143c2ae5acd4de,PennController,32,0,test_val,NULL,PennController,42,_Trial_,End,1728919414927,undefined,953,admired,positive,negative,A,NULL
1728919569,2c7e7b51a40a347954143c2ae5acd4de,PennController,23,0,test_val,NULL,PennController,33,_Trial_,Start,1728919414927,undefined,1021,cook,positive,negative,A,NULL
1728919569,2c7e7b51a40a347954143c2ae5acd4de,PennController,23,0,test_val,NULL,PennController,33,_Header_,Start,1728919414927,undefined,1021,cook,positive,negative,A,NULL
1728919569,2c7e7b51a40a347954143c2ae5acd4de,PennController,23,0,test_val,NULL,PennController,33,_Header_,End,1728919415177,undefined,1021,cook,positive,negative,A,NULL
1728919569,2c7e7b51a40a347954143c2ae5acd4de,PennController,23,0,test_val,NULL,Selector,unnamed-Selector,Selection,positive,1728919416703,undefined,1021,cook,positive,negative,A,positive;negative
1728919569,2c7e7b51a40a347954143c2ae5acd4de,PennController,23,0,test_val,NULL,PennController,33,_Trial_,End,1728919416703,undefined,1021,cook,positive,negative,A,NULL
1728919569,2c7e7b51a40a347954143c2ae5acd4de,PennController,42,0,test_val,NULL,PennController,52,_Trial_,Start,1728919416704,undefined,884,spit,positive,negative,A,NULL
1728919569,2c7e7b51a40a347954143c2ae5acd4de,PennController,42,0,test_val,NULL,PennController,52,_Header_,Start,1728919416704,undefined,884,spit,positive,negative,A,NULL
1728919569,2c7e7b51a40a347954143c2ae5acd4de,PennController,42,0,test_val,NULL,PennController,52,_Header_,End,1728919416956,undefined,884,spit,positive,negative,A,NULL
1728919569,2c7e7b51a40a347954143c2ae5acd4de,PennController,42,0,test_val,NULL,Selector,unnamed-Selector,Selection,negative,1728919418345,undefined,884,spit,positive,negative,A,positive;negative
1728919569,2c7e7b51a40a347954143c2ae5acd4de,PennController,42,0,test_val,NULL,PennController,52,_Trial_,End,1728919418346,undefined,884,spit,positive,negative,A,NULL
1728919569,2c7e7b51a40a347954143c2ae5acd4de,PennController,41,0,test_val,NULL,PennController,51,_Trial_,Start,1728919418347,undefined,1161,slap,positive,negative,A,NULL
1728919569,2c7e7b51a40a347954143c2ae5acd4de,PennController,41,0,test_val,NULL,PennController,51,_Header_,Start,1728919418347,undefined,1161,slap,positive,negative,A,NULL
1728919569,2c7e7b51a40a347954143c2ae5acd4de,PennController,41,0,test_val,NULL,PennController,51,_Header_,End,1728919418598,undefined,1161,slap,positive,negative,A,NULL
1728919569,2c7e7b51a40a347954143c2ae5acd4de,PennController,41,0,test_val,NULL,Selector,unnamed-Selector,Selection,negative,1728919420259,undefined,1161,slap,positive,negative,A,positive;negative
1728919569,2c7e7b51a40a347954143c2ae5acd4de,PennController,41,0,test_val,NULL,PennController,51,_Trial_,End,1728919420260,undefined,1161,slap,positive,negative,A,NULL
1728919569,2c7e7b51a40a347954143c2ae5acd4de,PennController,33,0,test_val,NULL,PennController,43,_Trial_,Start,1728919420261,undefined,1293,wish,positive,negative,A,NULL
1728919569,2c7e7b51a40a347954143c2ae5acd4de,PennController,33,0,test_val,NULL,PennController,43,_Header_,Start,1728919420261,undefined,1293,wish,positive,negative,A,NULL
1728919569,2c7e7b51a40a347954143c2ae5acd4de,PennController,33,0,test_val,NULL,PennController,43,_Header_,End,1728919420511,undefined,1293,wish,positive,negative,A,NULL
1728919569,2c7e7b51a40a347954143c2ae5acd4de,PennController,33,0,test_val,NULL,Selector,unnamed-Selector,Selection,positive,1728919422306,undefined,1293,wish,positive,negative,A,positive;negative
1728919569,2c7e7b51a40a347954143c2ae5acd4de,PennController,33,0,test_val,NULL,PennController,43,_Trial_,End,1728919422306,undefined,1293,wish,positive,negative,A,NULL
1728919569,2c7e7b51a40a347954143c2ae5acd4de,PennController,16,0,test_val,NULL,PennController,26,_Trial_,Start,1728919422307,undefined,1024,laugh,positive,negative,A,NULL
1728919569,2c7e7b51a40a347954143c2ae5acd4de,PennController,16,0,test_val,NULL,PennController,26,_Header_,Start,1728919422307,undefined,1024,laugh,positive,negative,A,NULL
1728919569,2c7e7b51a40a347954143c2ae5acd4de,PennController,16,0,test_val,NULL,PennController,26,_Header_,End,1728919422559,undefined,1024,laugh,positive,negative,A,NULL
1728919569,2c7e7b51a40a347954143c2ae5acd4de,PennController,16,0,test_val,NULL,Selector,unnamed-Selector,Selection,positive,1728919424084,undefined,1024,laugh,positive,negative,A,positive;negative
1728919569,2c7e7b51a40a347954143c2ae5acd4de,PennController,16,0,test_val,NULL,PennController,26,_Trial_,End,1728919424084,undefined,1024,laugh,positive,negative,A,NULL
1728919569,2c7e7b51a40a347954143c2ae5acd4de,PennController,14,0,test_val,NULL,PennController,24,_Trial_,Start,1728919424085,undefined,885,kiss,positive,negative,A,NULL
1728919569,2c7e7b51a40a347954143c2ae5acd4de,PennController,14,0,test_val,NULL,PennController,24,_Header_,Start,1728919424085,undefined,885,kiss,positive,negative,A,NULL
1728919569,2c7e7b51a40a347954143c2ae5acd4de,PennController,14,0,test_val,NULL,PennController,24,_Header_,End,1728919424338,undefined,885,kiss,positive,negative,A,NULL
1728919569,2c7e7b51a40a347954143c2ae5acd4de,PennController,14,0,test_val,NULL,Selector,unnamed-Selector,Selection,positive,1728919425726,undefined,885,kiss,positive,negative,A,positive;negative
1728919569,2c7e7b51a40a347954143c2ae5acd4de,PennController,14,0,test_val,NULL,PennController,24,_Trial_,End,1728919425727,undefined,885,kiss,positive,negative,A,NULL
# 13. Comments.
1728919569,2c7e7b51a40a347954143c2ae5acd4de,PennController,111,0,mid_task_instructions,NULL,PennController,9,_Trial_,Start,1728919425727,NULL
1728919569,2c7e7b51a40a347954143c2ae5acd4de,PennController,111,0,mid_task_instructions,NULL,PennController,9,_Header_,Start,1728919425727,NULL
1728919569,2c7e7b51a40a347954143c2ae5acd4de,PennController,111,0,mid_task_instructions,NULL,PennController,9,_Header_,End,1728919425978,NULL
1728919569,2c7e7b51a40a347954143c2ae5acd4de,PennController,111,0,mid_task_instructions,NULL,PennController,9,_Trial_,End,1728919428709,NULL
1728919569,2c7e7b51a40a347954143c2ae5acd4de,PennController,112,0,instructions1_conc,NULL,PennController,10,_Trial_,Start,1728919428710,NULL
1728919569,2c7e7b51a40a347954143c2ae5acd4de,PennController,112,0,instructions1_conc,NULL,PennController,10,_Header_,Start,1728919428710,NULL
1728919569,2c7e7b51a40a347954143c2ae5acd4de,PennController,112,0,instructions1_conc,NULL,PennController,10,_Header_,End,1728919428965,NULL
1728919569,2c7e7b51a40a347954143c2ae5acd4de,PennController,112,0,instructions1_conc,NULL,PennController,10,_Trial_,End,1728919433615,NULL
1728919569,2c7e7b51a40a347954143c2ae5acd4de,PennController,113,0,instructions2_conc,NULL,PennController,11,_Trial_,Start,1728919433616,NULL
1728919569,2c7e7b51a40a347954143c2ae5acd4de,PennController,113,0,instructions2_conc,NULL,PennController,11,_Header_,Start,1728919433616,NULL
1728919569,2c7e7b51a40a347954143c2ae5acd4de,PennController,113,0,instructions2_conc,NULL,PennController,11,_Header_,End,1728919433869,NULL
1728919569,2c7e7b51a40a347954143c2ae5acd4de,PennController,113,0,instructions2_conc,NULL,PennController,11,_Trial_,End,1728919438969,NULL
1728919569,2c7e7b51a40a347954143c2ae5acd4de,PennController,109,0,instructions3_hands,NULL,PennController,7,_Trial_,Start,1728919438970,NULL
1728919569,2c7e7b51a40a347954143c2ae5acd4de,PennController,109,0,instructions3_hands,NULL,PennController,7,_Header_,Start,1728919438970,NULL
1728919569,2c7e7b51a40a347954143c2ae5acd4de,PennController,109,0,instructions3_hands,NULL,PennController,7,_Header_,End,1728919439221,NULL
1728919569,2c7e7b51a40a347954143c2ae5acd4de,PennController,109,0,instructions3_hands,NULL,PennController,7,_Trial_,End,1728919441612,NULL
1728919569,2c7e7b51a40a347954143c2ae5acd4de,PennController,84,0,practice_intro,NULL,PennController,2,_Trial_,Start,1728919441612,NULL
1728919569,2c7e7b51a40a347954143c2ae5acd4de,PennController,84,0,practice_intro,NULL,PennController,2,_Header_,Start,1728919441612,NULL
1728919569,2c7e7b51a40a347954143c2ae5acd4de,PennController,84,0,practice_intro,NULL,PennController,2,_Header_,End,1728919441864,NULL
1728919569,2c7e7b51a40a347954143c2ae5acd4de,PennController,84,0,practice_intro,NULL,PennController,2,_Trial_,End,1728919443141,NULL
# 13. ID.
# 14. ReactionTime.
# 15. Word.
# 16. Key_value_F.
# 17. Key_value_J.
# 18. Group.
# 19. Comments.
1728919569,2c7e7b51a40a347954143c2ae5acd4de,PennController,95,0,calibrator_conc,NULL,PennController,104,_Trial_,Start,1728919443142,undefined,1674,shirt,abstract,concrete,A,NULL
1728919569,2c7e7b51a40a347954143c2ae5acd4de,PennController,95,0,calibrator_conc,NULL,PennController,104,_Header_,Start,1728919443142,undefined,1674,shirt,abstract,concrete,A,NULL
1728919569,2c7e7b51a40a347954143c2ae5acd4de,PennController,95,0,calibrator_conc,NULL,PennController,104,_Header_,End,1728919443392,undefined,1674,shirt,abstract,concrete,A,NULL
1728919569,2c7e7b51a40a347954143c2ae5acd4de,PennController,95,0,calibrator_conc,NULL,Selector,unnamed-Selector,Selection,concrete,1728919445567,undefined,1674,shirt,abstract,concrete,A,abstract;concrete
1728919569,2c7e7b51a40a347954143c2ae5acd4de,PennController,95,0,calibrator_conc,NULL,PennController,104,_Trial_,End,1728919445567,undefined,1674,shirt,abstract,concrete,A,NULL
1728919569,2c7e7b51a40a347954143c2ae5acd4de,PennController,102,0,calibrator_conc,NULL,PennController,111,_Trial_,Start,1728919445568,undefined,1608,whistle,abstract,concrete,A,NULL
1728919569,2c7e7b51a40a347954143c2ae5acd4de,PennController,102,0,calibrator_conc,NULL,PennController,111,_Header_,Start,1728919445568,undefined,1608,whistle,abstract,concrete,A,NULL
1728919569,2c7e7b51a40a347954143c2ae5acd4de,PennController,102,0,calibrator_conc,NULL,PennController,111,_Header_,End,1728919445818,undefined,1608,whistle,abstract,concrete,A,NULL
1728919569,2c7e7b51a40a347954143c2ae5acd4de,PennController,102,0,calibrator_conc,NULL,Selector,unnamed-Selector,Selection,concrete,1728919447928,undefined,1608,whistle,abstract,concrete,A,abstract;concrete
1728919569,2c7e7b51a40a347954143c2ae5acd4de,PennController,102,0,calibrator_conc,NULL,PennController,111,_Trial_,End,1728919447929,undefined,1608,whistle,abstract,concrete,A,NULL
1728919569,2c7e7b51a40a347954143c2ae5acd4de,PennController,99,0,calibrator_conc,NULL,PennController,108,_Trial_,Start,1728919447929,undefined,2689,marriage,abstract,concrete,A,NULL
1728919569,2c7e7b51a40a347954143c2ae5acd4de,PennController,99,0,calibrator_conc,NULL,PennController,108,_Header_,Start,1728919447929,undefined,2689,marriage,abstract,concrete,A,NULL
1728919569,2c7e7b51a40a347954143c2ae5acd4de,PennController,99,0,calibrator_conc,NULL,PennController,108,_Header_,End,1728919448181,undefined,2689,marriage,abstract,concrete,A,NULL
1728919569,2c7e7b51a40a347954143c2ae5acd4de,PennController,99,0,calibrator_conc,NULL,Selector,unnamed-Selector,Selection,concrete,1728919451372,undefined,2689,marriage,abstract,concrete,A,abstract;concrete
1728919569,2c7e7b51a40a347954143c2ae5acd4de,PennController,99,0,calibrator_conc,NULL,PennController,108,_Trial_,End,1728919451373,undefined,2689,marriage,abstract,concrete,A,NULL
1728919569,2c7e7b51a40a347954143c2ae5acd4de,PennController,103,0,calibrator_conc,NULL,PennController,112,_Trial_,Start,1728919451374,undefined,1448,theory,abstract,concrete,A,NULL
1728919569,2c7e7b51a40a347954143c2ae5acd4de,PennController,103,0,calibrator_conc,NULL,PennController,112,_Header_,Start,1728919451374,undefined,1448,theory,abstract,concrete,A,NULL
1728919569,2c7e7b51a40a347954143c2ae5acd4de,PennController,103,0,calibrator_conc,NULL,PennController,112,_Header_,End,1728919451624,undefined,1448,theory,abstract,concrete,A,NULL
1728919569,2c7e7b51a40a347954143c2ae5acd4de,PennController,103,0,calibrator_conc,NULL,Selector,unnamed-Selector,Selection,abstract,1728919453577,undefined,1448,theory,abstract,concrete,A,abstract;concrete
1728919569,2c7e7b51a40a347954143c2ae5acd4de,PennController,103,0,calibrator_conc,NULL,PennController,112,_Trial_,End,1728919453577,undefined,1448,theory,abstract,concrete,A,NULL
1728919569,2c7e7b51a40a347954143c2ae5acd4de,PennController,98,0,calibrator_conc,NULL,PennController,107,_Trial_,Start,1728919453578,undefined,887,grasshopper,abstract,concrete,A,NULL
1728919569,2c7e7b51a40a347954143c2ae5acd4de,PennController,98,0,calibrator_conc,NULL,PennController,107,_Header_,Start,1728919453578,undefined,887,grasshopper,abstract,concrete,A,NULL
1728919569,2c7e7b51a40a347954143c2ae5acd4de,PennController,98,0,calibrator_conc,NULL,PennController,107,_Header_,End,1728919453831,undefined,887,grasshopper,abstract,concrete,A,NULL
1728919569,2c7e7b51a40a347954143c2ae5acd4de,PennController,98,0,calibrator_conc,NULL,Selector,unnamed-Selector,Selection,concrete,1728919455224,undefined,887,grasshopper,abstract,concrete,A,abstract;concrete
1728919569,2c7e7b51a40a347954143c2ae5acd4de,PennController,98,0,calibrator_conc,NULL,PennController,107,_Trial_,End,1728919455225,undefined,887,grasshopper,abstract,concrete,A,NULL
1728919569,2c7e7b51a40a347954143c2ae5acd4de,PennController,101,0,calibrator_conc,NULL,PennController,110,_Trial_,Start,1728919455226,undefined,2408,polite,abstract,concrete,A,NULL
1728919569,2c7e7b51a40a347954143c2ae5acd4de,PennController,101,0,calibrator_conc,NULL,PennController,110,_Header_,Start,1728919455226,undefined,2408,polite,abstract,concrete,A,NULL
1728919569,2c7e7b51a40a347954143c2ae5acd4de,PennController,101,0,calibrator_conc,NULL,PennController,110,_Header_,End,1728919455478,undefined,2408,polite,abstract,concrete,A,NULL
1728919569,2c7e7b51a40a347954143c2ae5acd4de,PennController,101,0,calibrator_conc,NULL,Selector,unnamed-Selector,Selection,abstract,1728919458392,undefined,2408,polite,abstract,concrete,A,abstract;concrete
1728919569,2c7e7b51a40a347954143c2ae5acd4de,PennController,101,0,calibrator_conc,NULL,PennController,110,_Trial_,End,1728919458393,undefined,2408,polite,abstract,concrete,A,NULL
1728919569,2c7e7b51a40a347954143c2ae5acd4de,PennController,100,0,calibrator_conc,NULL,PennController,109,_Trial_,Start,1728919458393,undefined,1044,kick,abstract,concrete,A,NULL
1728919569,2c7e7b51a40a347954143c2ae5acd4de,PennController,100,0,calibrator_conc,NULL,PennController,109,_Header_,Start,1728919458393,undefined,1044,kick,abstract,concrete,A,NULL
1728919569,2c7e7b51a40a347954143c2ae5acd4de,PennController,100,0,calibrator_conc,NULL,PennController,109,_Header_,End,1728919458647,undefined,1044,kick,abstract,concrete,A,NULL
1728919569,2c7e7b51a40a347954143c2ae5acd4de,PennController,100,0,calibrator_conc,NULL,Selector,unnamed-Selector,Selection,concrete,1728919460196,undefined,1044,kick,abstract,concrete,A,abstract;concrete
1728919569,2c7e7b51a40a347954143c2ae5acd4de,PennController,100,0,calibrator_conc,NULL,PennController,109,_Trial_,End,1728919460197,undefined,1044,kick,abstract,concrete,A,NULL
1728919569,2c7e7b51a40a347954143c2ae5acd4de,PennController,96,0,calibrator_conc,NULL,PennController,105,_Trial_,Start,1728919460198,undefined,1041,infinity,abstract,concrete,A,NULL
1728919569,2c7e7b51a40a347954143c2ae5acd4de,PennController,96,0,calibrator_conc,NULL,PennController,105,_Header_,Start,1728919460198,undefined,1041,infinity,abstract,concrete,A,NULL
1728919569,2c7e7b51a40a347954143c2ae5acd4de,PennController,96,0,calibrator_conc,NULL,PennController,105,_Header_,End,1728919460451,undefined,1041,infinity,abstract,concrete,A,NULL
1728919569,2c7e7b51a40a347954143c2ae5acd4de,PennController,96,0,calibrator_conc,NULL,Selector,unnamed-Selector,Selection,abstract,1728919461996,undefined,1041,infinity,abstract,concrete,A,abstract;concrete
1728919569,2c7e7b51a40a347954143c2ae5acd4de,PennController,96,0,calibrator_conc,NULL,PennController,105,_Trial_,End,1728919461997,undefined,1041,infinity,abstract,concrete,A,NULL
1728919569,2c7e7b51a40a347954143c2ae5acd4de,PennController,97,0,calibrator_conc,NULL,PennController,106,_Trial_,Start,1728919461997,undefined,1361,gas,abstract,concrete,A,NULL
1728919569,2c7e7b51a40a347954143c2ae5acd4de,PennController,97,0,calibrator_conc,NULL,PennController,106,_Header_,Start,1728919461997,undefined,1361,gas,abstract,concrete,A,NULL
1728919569,2c7e7b51a40a347954143c2ae5acd4de,PennController,97,0,calibrator_conc,NULL,PennController,106,_Header_,End,1728919462247,undefined,1361,gas,abstract,concrete,A,NULL
1728919569,2c7e7b51a40a347954143c2ae5acd4de,PennController,97,0,calibrator_conc,NULL,Selector,unnamed-Selector,Selection,concrete,1728919464111,undefined,1361,gas,abstract,concrete,A,abstract;concrete
1728919569,2c7e7b51a40a347954143c2ae5acd4de,PennController,97,0,calibrator_conc,NULL,PennController,106,_Trial_,End,1728919464111,undefined,1361,gas,abstract,concrete,A,NULL
1728919569,2c7e7b51a40a347954143c2ae5acd4de,PennController,104,0,calibrator_conc,NULL,PennController,113,_Trial_,Start,1728919464112,undefined,886,sugar,abstract,concrete,A,NULL
1728919569,2c7e7b51a40a347954143c2ae5acd4de,PennController,104,0,calibrator_conc,NULL,PennController,113,_Header_,Start,1728919464112,undefined,886,sugar,abstract,concrete,A,NULL
1728919569,2c7e7b51a40a347954143c2ae5acd4de,PennController,104,0,calibrator_conc,NULL,PennController,113,_Header_,End,1728919464363,undefined,886,sugar,abstract,concrete,A,NULL
1728919569,2c7e7b51a40a347954143c2ae5acd4de,PennController,104,0,calibrator_conc,NULL,Selector,unnamed-Selector,Selection,concrete,1728919465754,undefined,886,sugar,abstract,concrete,A,abstract;concrete
1728919569,2c7e7b51a40a347954143c2ae5acd4de,PennController,104,0,calibrator_conc,NULL,PennController,113,_Trial_,End,1728919465755,undefined,886,sugar,abstract,concrete,A,NULL
1728919569,2c7e7b51a40a347954143c2ae5acd4de,PennController,77,0,test_conc,NULL,PennController,87,_Trial_,Start,1728919465755,undefined,1226,carjack,abstract,concrete,A,NULL
1728919569,2c7e7b51a40a347954143c2ae5acd4de,PennController,77,0,test_conc,NULL,PennController,87,_Header_,Start,1728919465755,undefined,1226,carjack,abstract,concrete,A,NULL
1728919569,2c7e7b51a40a347954143c2ae5acd4de,PennController,77,0,test_conc,NULL,PennController,87,_Header_,End,1728919466007,undefined,1226,carjack,abstract,concrete,A,NULL
1728919569,2c7e7b51a40a347954143c2ae5acd4de,PennController,77,0,test_conc,NULL,Selector,unnamed-Selector,Selection,abstract,1728919467734,undefined,1226,carjack,abstract,concrete,A,concrete;abstract
1728919569,2c7e7b51a40a347954143c2ae5acd4de,PennController,77,0,test_conc,NULL,PennController,87,_Trial_,End,1728919467735,undefined,1226,carjack,abstract,concrete,A,NULL
1728919569,2c7e7b51a40a347954143c2ae5acd4de,PennController,80,0,test_conc,NULL,PennController,90,_Trial_,Start,1728919467735,undefined,3088,convict,abstract,concrete,A,NULL
1728919569,2c7e7b51a40a347954143c2ae5acd4de,PennController,80,0,test_conc,NULL,PennController,90,_Header_,Start,1728919467735,undefined,3088,convict,abstract,concrete,A,NULL
1728919569,2c7e7b51a40a347954143c2ae5acd4de,PennController,80,0,test_conc,NULL,PennController,90,_Header_,End,1728919467985,undefined,3088,convict,abstract,concrete,A,NULL
1728919569,2c7e7b51a40a347954143c2ae5acd4de,PennController,80,0,test_conc,NULL,Selector,unnamed-Selector,Selection,abstract,1728919471577,undefined,3088,convict,abstract,concrete,A,concrete;abstract
1728919569,2c7e7b51a40a347954143c2ae5acd4de,PennController,80,0,test_conc,NULL,PennController,90,_Trial_,End,1728919471577,undefined,3088,convict,abstract,concrete,A,NULL
1728919569,2c7e7b51a40a347954143c2ae5acd4de,PennController,65,0,test_conc,NULL,PennController,75,_Trial_,Start,1728919471578,undefined,1051,enlighten,abstract,concrete,A,NULL
1728919569,2c7e7b51a40a347954143c2ae5acd4de,PennController,65,0,test_conc,NULL,PennController,75,_Header_,Start,1728919471578,undefined,1051,enlighten,abstract,concrete,A,NULL
1728919569,2c7e7b51a40a347954143c2ae5acd4de,PennController,65,0,test_conc,NULL,PennController,75,_Header_,End,1728919471828,undefined,1051,enlighten,abstract,concrete,A,NULL
1728919569,2c7e7b51a40a347954143c2ae5acd4de,PennController,65,0,test_conc,NULL,Selector,unnamed-Selector,Selection,concrete,1728919473381,undefined,1051,enlighten,abstract,concrete,A,concrete;abstract
1728919569,2c7e7b51a40a347954143c2ae5acd4de,PennController,65,0,test_conc,NULL,PennController,75,_Trial_,End,1728919473382,undefined,1051,enlighten,abstract,concrete,A,NULL
1728919569,2c7e7b51a40a347954143c2ae5acd4de,PennController,64,0,test_conc,NULL,PennController,74,_Trial_,Start,1728919473383,undefined,1739,hope,abstract,concrete,A,NULL
1728919569,2c7e7b51a40a347954143c2ae5acd4de,PennController,64,0,test_conc,NULL,PennController,74,_Header_,Start,1728919473383,undefined,1739,hope,abstract,concrete,A,NULL
1728919569,2c7e7b51a40a347954143c2ae5acd4de,PennController,64,0,test_conc,NULL,PennController,74,_Header_,End,1728919473633,undefined,1739,hope,abstract,concrete,A,NULL
1728919569,2c7e7b51a40a347954143c2ae5acd4de,PennController,64,0,test_conc,NULL,Selector,unnamed-Selector,Selection,concrete,1728919475875,undefined,1739,hope,abstract,concrete,A,concrete;abstract
1728919569,2c7e7b51a40a347954143c2ae5acd4de,PennController,64,0,test_conc,NULL,PennController,74,_Trial_,End,1728919475875,undefined,1739,hope,abstract,concrete,A,NULL
1728919569,2c7e7b51a40a347954143c2ae5acd4de,PennController,75,0,test_conc,NULL,PennController,85,_Trial_,Start,1728919475876,undefined,1181,puke,abstract,concrete,A,NULL
1728919569,2c7e7b51a40a347954143c2ae5acd4de,PennController,75,0,test_conc,NULL,PennController,85,_Header_,Start,1728919475876,undefined,1181,puke,abstract,concrete,A,NULL
1728919569,2c7e7b51a40a347954143c2ae5acd4de,PennController,75,0,test_conc,NULL,PennController,85,_Header_,End,1728919476130,undefined,1181,puke,abstract,concrete,A,NULL
1728919569,2c7e7b51a40a347954143c2ae5acd4de,PennController,75,0,test_conc,NULL,Selector,unnamed-Selector,Selection,abstract,1728919477814,undefined,1181,puke,abstract,concrete,A,concrete;abstract
1728919569,2c7e7b51a40a347954143c2ae5acd4de,PennController,75,0,test_conc,NULL,PennController,85,_Trial_,End,1728919477815,undefined,1181,puke,abstract,concrete,A,NULL
1728919569,2c7e7b51a40a347954143c2ae5acd4de,PennController,59,0,test_conc,NULL,PennController,69,_Trial_,Start,1728919477815,undefined,955,dance,abstract,concrete,A,NULL
1728919569,2c7e7b51a40a347954143c2ae5acd4de,PennController,59,0,test_conc,NULL,PennController,69,_Header_,Start,1728919477815,undefined,955,dance,abstract,concrete,A,NULL
1728919569,2c7e7b51a40a347954143c2ae5acd4de,PennController,59,0,test_conc,NULL,PennController,69,_Header_,End,1728919478066,undefined,955,dance,abstract,concrete,A,NULL
1728919569,2c7e7b51a40a347954143c2ae5acd4de,PennController,59,0,test_conc,NULL,Selector,unnamed-Selector,Selection,abstract,1728919479524,undefined,955,dance,abstract,concrete,A,concrete;abstract
1728919569,2c7e7b51a40a347954143c2ae5acd4de,PennController,59,0,test_conc,NULL,PennController,69,_Trial_,End,1728919479525,undefined,955,dance,abstract,concrete,A,NULL
1728919569,2c7e7b51a40a347954143c2ae5acd4de,PennController,78,0,test_conc,NULL,PennController,88,_Trial_,Start,1728919479525,undefined,4191,piss,abstract,concrete,A,NULL
1728919569,2c7e7b51a40a347954143c2ae5acd4de,PennController,78,0,test_conc,NULL,PennController,88,_Header_,Start,1728919479525,undefined,4191,piss,abstract,concrete,A,NULL
1728919569,2c7e7b51a40a347954143c2ae5acd4de,PennController,78,0,test_conc,NULL,PennController,88,_Header_,End,1728919479778,undefined,4191,piss,abstract,concrete,A,NULL
1728919569,2c7e7b51a40a347954143c2ae5acd4de,PennController,78,0,test_conc,NULL,Selector,unnamed-Selector,Selection,abstract,1728919484473,undefined,4191,piss,abstract,concrete,A,concrete;abstract
1728919569,2c7e7b51a40a347954143c2ae5acd4de,PennController,78,0,test_conc,NULL,PennController,88,_Trial_,End,1728919484474,undefined,4191,piss,abstract,concrete,A,NULL
1728919569,2c7e7b51a40a347954143c2ae5acd4de,PennController,51,0,test_conc,NULL,PennController,61,_Trial_,Start,1728919484474,undefined,1600,violate,abstract,concrete,A,NULL
1728919569,2c7e7b51a40a347954143c2ae5acd4de,PennController,51,0,test_conc,NULL,PennController,61,_Header_,Start,1728919484474,undefined,1600,violate,abstract,concrete,A,NULL
1728919569,2c7e7b51a40a347954143c2ae5acd4de,PennController,51,0,test_conc,NULL,PennController,61,_Header_,End,1728919484728,undefined,1600,violate,abstract,concrete,A,NULL
1728919569,2c7e7b51a40a347954143c2ae5acd4de,PennController,51,0,test_conc,NULL,Selector,unnamed-Selector,Selection,concrete,1728919486831,undefined,1600,violate,abstract,concrete,A,concrete;abstract
1728919569,2c7e7b51a40a347954143c2ae5acd4de,PennController,51,0,test_conc,NULL,PennController,61,_Trial_,End,1728919486832,undefined,1600,violate,abstract,concrete,A,NULL
1728919569,2c7e7b51a40a347954143c2ae5acd4de,PennController,44,0,test_conc,NULL,PennController,54,_Trial_,Start,1728919486832,undefined,2102,disown,abstract,concrete,A,NULL
1728919569,2c7e7b51a40a347954143c2ae5acd4de,PennController,44,0,test_conc,NULL,PennController,54,_Header_,Start,1728919486832,undefined,2102,disown,abstract,concrete,A,NULL
1728919569,2c7e7b51a40a347954143c2ae5acd4de,PennController,44,0,test_conc,NULL,PennController,54,_Header_,End,1728919487082,undefined,2102,disown,abstract,concrete,A,NULL
1728919569,2c7e7b51a40a347954143c2ae5acd4de,PennController,44,0,test_conc,NULL,Selector,unnamed-Selector,Selection,concrete,1728919489688,undefined,2102,disown,abstract,concrete,A,concrete;abstract
1728919569,2c7e7b51a40a347954143c2ae5acd4de,PennController,44,0,test_conc,NULL,PennController,54,_Trial_,End,1728919489689,undefined,2102,disown,abstract,concrete,A,NULL
1728919569,2c7e7b51a40a347954143c2ae5acd4de,PennController,72,0,test_conc,NULL,PennController,82,_Trial_,Start,1728919489689,undefined,1141,admired,abstract,concrete,A,NULL
1728919569,2c7e7b51a40a347954143c2ae5acd4de,PennController,72,0,test_conc,NULL,PennController,82,_Header_,Start,1728919489689,undefined,1141,admired,abstract,concrete,A,NULL
1728919569,2c7e7b51a40a347954143c2ae5acd4de,PennController,72,0,test_conc,NULL,PennController,82,_Header_,End,1728919489940,undefined,1141,admired,abstract,concrete,A,NULL
1728919569,2c7e7b51a40a347954143c2ae5acd4de,PennController,72,0,test_conc,NULL,Selector,unnamed-Selector,Selection,concrete,1728919491584,undefined,1141,admired,abstract,concrete,A,concrete;abstract
1728919569,2c7e7b51a40a347954143c2ae5acd4de,PennController,72,0,test_conc,NULL,PennController,82,_Trial_,End,1728919491585,undefined,1141,admired,abstract,concrete,A,NULL
1728919569,2c7e7b51a40a347954143c2ae5acd4de,PennController,46,0,test_conc,NULL,PennController,56,_Trial_,Start,1728919491585,undefined,1785,profane,abstract,concrete,A,NULL
1728919569,2c7e7b51a40a347954143c2ae5acd4de,PennController,46,0,test_conc,NULL,PennController,56,_Header_,Start,1728919491585,undefined,1785,profane,abstract,concrete,A,NULL
1728919569,2c7e7b51a40a347954143c2ae5acd4de,PennController,46,0,test_conc,NULL,PennController,56,_Header_,End,1728919491836,undefined,1785,profane,abstract,concrete,A,NULL
1728919569,2c7e7b51a40a347954143c2ae5acd4de,PennController,46,0,test_conc,NULL,Selector,unnamed-Selector,Selection,concrete,1728919494121,undefined,1785,profane,abstract,concrete,A,concrete;abstract
1728919569,2c7e7b51a40a347954143c2ae5acd4de,PennController,46,0,test_conc,NULL,PennController,56,_Trial_,End,1728919494122,undefined,1785,profane,abstract,concrete,A,NULL
1728919569,2c7e7b51a40a347954143c2ae5acd4de,PennController,58,0,test_conc,NULL,PennController,68,_Trial_,Start,1728919494123,undefined,1654,sleep,abstract,concrete,A,NULL
1728919569,2c7e7b51a40a347954143c2ae5acd4de,PennController,58,0,test_conc,NULL,PennController,68,_Header_,Start,1728919494123,undefined,1654,sleep,abstract,concrete,A,NULL
1728919569,2c7e7b51a40a347954143c2ae5acd4de,PennController,58,0,test_conc,NULL,PennController,68,_Header_,End,1728919494373,undefined,1654,sleep,abstract,concrete,A,NULL
1728919569,2c7e7b51a40a347954143c2ae5acd4de,PennController,58,0,test_conc,NULL,Selector,unnamed-Selector,Selection,abstract,1728919496529,undefined,1654,sleep,abstract,concrete,A,concrete;abstract
1728919569,2c7e7b51a40a347954143c2ae5acd4de,PennController,58,0,test_conc,NULL,PennController,68,_Trial_,End,1728919496530,undefined,1654,sleep,abstract,concrete,A,NULL
1728919569,2c7e7b51a40a347954143c2ae5acd4de,PennController,47,0,test_conc,NULL,PennController,57,_Trial_,Start,1728919496530,undefined,1427,degrade,abstract,concrete,A,NULL
1728919569,2c7e7b51a40a347954143c2ae5acd4de,PennController,47,0,test_conc,NULL,PennController,57,_Header_,Start,1728919496530,undefined,1427,degrade,abstract,concrete,A,NULL
1728919569,2c7e7b51a40a347954143c2ae5acd4de,PennController,47,0,test_conc,NULL,PennController,57,_Header_,End,1728919496784,undefined,1427,degrade,abstract,concrete,A,NULL
1728919569,2c7e7b51a40a347954143c2ae5acd4de,PennController,47,0,test_conc,NULL,Selector,unnamed-Selector,Selection,abstract,1728919498711,undefined,1427,degrade,abstract,concrete,A,concrete;abstract
1728919569,2c7e7b51a40a347954143c2ae5acd4de,PennController,47,0,test_conc,NULL,PennController,57,_Trial_,End,1728919498712,undefined,1427,degrade,abstract,concrete,A,NULL
1728919569,2c7e7b51a40a347954143c2ae5acd4de,PennController,52,0,test_conc,NULL,PennController,62,_Trial_,Start,1728919498713,undefined,1428,condemn,abstract,concrete,A,NULL
1728919569,2c7e7b51a40a347954143c2ae5acd4de,PennController,52,0,test_conc,NULL,PennController,62,_Header_,Start,1728919498713,undefined,1428,condemn,abstract,concrete,A,NULL
1728919569,2c7e7b51a40a347954143c2ae5acd4de,PennController,52,0,test_conc,NULL,PennController,62,_Header_,End,1728919498965,undefined,1428,condemn,abstract,concrete,A,NULL
1728919569,2c7e7b51a40a347954143c2ae5acd4de,PennController,52,0,test_conc,NULL,Selector,unnamed-Selector,Selection,concrete,1728919500894,undefined,1428,condemn,abstract,concrete,A,concrete;abstract
1728919569,2c7e7b51a40a347954143c2ae5acd4de,PennController,52,0,test_conc,NULL,PennController,62,_Trial_,End,1728919500895,undefined,1428,condemn,abstract,concrete,A,NULL
1728919569,2c7e7b51a40a347954143c2ae5acd4de,PennController,83,0,test_conc,NULL,PennController,93,_Trial_,Start,1728919500896,undefined,1115,weep,abstract,concrete,A,NULL
1728919569,2c7e7b51a40a347954143c2ae5acd4de,PennController,83,0,test_conc,NULL,PennController,93,_Header_,Start,1728919500896,undefined,1115,weep,abstract,concrete,A,NULL
1728919569,2c7e7b51a40a347954143c2ae5acd4de,PennController,83,0,test_conc,NULL,PennController,93,_Header_,End,1728919501149,undefined,1115,weep,abstract,concrete,A,NULL
1728919569,2c7e7b51a40a347954143c2ae5acd4de,PennController,83,0,test_conc,NULL,Selector,unnamed-Selector,Selection,abstract,1728919502766,undefined,1115,weep,abstract,concrete,A,concrete;abstract
1728919569,2c7e7b51a40a347954143c2ae5acd4de,PennController,83,0,test_conc,NULL,PennController,93,_Trial_,End,1728919502766,undefined,1115,weep,abstract,concrete,A,NULL
1728919569,2c7e7b51a40a347954143c2ae5acd4de,PennController,71,0,test_conc,NULL,PennController,81,_Trial_,Start,1728919502767,undefined,974,believe,abstract,concrete,A,NULL
1728919569,2c7e7b51a40a347954143c2ae5acd4de,PennController,71,0,test_conc,NULL,PennController,81,_Header_,Start,1728919502767,undefined,974,believe,abstract,concrete,A,NULL
1728919569,2c7e7b51a40a347954143c2ae5acd4de,PennController,71,0,test_conc,NULL,PennController,81,_Header_,End,1728919503023,undefined,974,believe,abstract,concrete,A,NULL
1728919569,2c7e7b51a40a347954143c2ae5acd4de,PennController,71,0,test_conc,NULL,Selector,unnamed-Selector,Selection,concrete,1728919504499,undefined,974,believe,abstract,concrete,A,concrete;abstract
1728919569,2c7e7b51a40a347954143c2ae5acd4de,PennController,71,0,test_conc,NULL,PennController,81,_Trial_,End,1728919504499,undefined,974,believe,abstract,concrete,A,NULL
1728919569,2c7e7b51a40a347954143c2ae5acd4de,PennController,54,0,test_conc,NULL,PennController,64,_Trial_,Start,1728919504500,undefined,1379,kiss,abstract,concrete,A,NULL
1728919569,2c7e7b51a40a347954143c2ae5acd4de,PennController,54,0,test_conc,NULL,PennController,64,_Header_,Start,1728919504500,undefined,1379,kiss,abstract,concrete,A,NULL
1728919569,2c7e7b51a40a347954143c2ae5acd4de,PennController,54,0,test_conc,NULL,PennController,64,_Header_,End,1728919504752,undefined,1379,kiss,abstract,concrete,A,NULL
1728919569,2c7e7b51a40a347954143c2ae5acd4de,PennController,54,0,test_conc,NULL,Selector,unnamed-Selector,Selection,abstract,1728919506637,undefined,1379,kiss,abstract,concrete,A,concrete;abstract
1728919569,2c7e7b51a40a347954143c2ae5acd4de,PennController,54,0,test_conc,NULL,PennController,64,_Trial_,End,1728919506638,undefined,1379,kiss,abstract,concrete,A,NULL
1728919569,2c7e7b51a40a347954143c2ae5acd4de,PennController,45,0,test_conc,NULL,PennController,55,_Trial_,Start,1728919506639,undefined,1043,hate,abstract,concrete,A,NULL
1728919569,2c7e7b51a40a347954143c2ae5acd4de,PennController,45,0,test_conc,NULL,PennController,55,_Header_,Start,1728919506639,undefined,1043,hate,abstract,concrete,A,NULL
1728919569,2c7e7b51a40a347954143c2ae5acd4de,PennController,45,0,test_conc,NULL,PennController,55,_Header_,End,1728919506890,undefined,1043,hate,abstract,concrete,A,NULL
1728919569,2c7e7b51a40a347954143c2ae5acd4de,PennController,45,0,test_conc,NULL,Selector,unnamed-Selector,Selection,concrete,1728919508436,undefined,1043,hate,abstract,concrete,A,concrete;abstract
1728919569,2c7e7b51a40a347954143c2ae5acd4de,PennController,45,0,test_conc,NULL,PennController,55,_Trial_,End,1728919508437,undefined,1043,hate,abstract,concrete,A,NULL
1728919569,2c7e7b51a40a347954143c2ae5acd4de,PennController,60,0,test_conc,NULL,PennController,70,_Trial_,Start,1728919508438,undefined,978,smooch,abstract,concrete,A,NULL
1728919569,2c7e7b51a40a347954143c2ae5acd4de,PennController,60,0,test_conc,NULL,PennController,70,_Header_,Start,1728919508438,undefined,978,smooch,abstract,concrete,A,NULL
1728919569,2c7e7b51a40a347954143c2ae5acd4de,PennController,60,0,test_conc,NULL,PennController,70,_Header_,End,1728919508688,undefined,978,smooch,abstract,concrete,A,NULL
1728919569,2c7e7b51a40a347954143c2ae5acd4de,PennController,60,0,test_conc,NULL,Selector,unnamed-Selector,Selection,abstract,1728919510169,undefined,978,smooch,abstract,concrete,A,concrete;abstract
1728919569,2c7e7b51a40a347954143c2ae5acd4de,PennController,60,0,test_conc,NULL,PennController,70,_Trial_,End,1728919510169,undefined,978,smooch,abstract,concrete,A,NULL
1728919569,2c7e7b51a40a347954143c2ae5acd4de,PennController,61,0,test_conc,NULL,PennController,71,_Trial_,Start,1728919510170,undefined,1068,eat,abstract,concrete,A,NULL
1728919569,2c7e7b51a40a347954143c2ae5acd4de,PennController,61,0,test_conc,NULL,PennController,71,_Header_,Start,1728919510170,undefined,1068,eat,abstract,concrete,A,NULL
1728919569,2c7e7b51a40a347954143c2ae5acd4de,PennController,61,0,test_conc,NULL,PennController,71,_Header_,End,1728919510421,undefined,1068,eat,abstract,concrete,A,NULL
1728919569,2c7e7b51a40a347954143c2ae5acd4de,PennController,61,0,test_conc,NULL,Selector,unnamed-Selector,Selection,abstract,1728919511991,undefined,1068,eat,abstract,concrete,A,concrete;abstract
1728919569,2c7e7b51a40a347954143c2ae5acd4de,PennController,61,0,test_conc,NULL,PennController,71,_Trial_,End,1728919511991,undefined,1068,eat,abstract,concrete,A,NULL
1728919569,2c7e7b51a40a347954143c2ae5acd4de,PennController,62,0,test_conc,NULL,PennController,72,_Trial_,Start,1728919511992,undefined,2140,swing,abstract,concrete,A,NULL
1728919569,2c7e7b51a40a347954143c2ae5acd4de,PennController,62,0,test_conc,NULL,PennController,72,_Header_,Start,1728919511992,undefined,2140,swing,abstract,concrete,A,NULL
1728919569,2c7e7b51a40a347954143c2ae5acd4de,PennController,62,0,test_conc,NULL,PennController,72,_Header_,End,1728919512246,undefined,2140,swing,abstract,concrete,A,NULL
1728919569,2c7e7b51a40a347954143c2ae5acd4de,PennController,62,0,test_conc,NULL,Selector,unnamed-Selector,Selection,abstract,1728919514889,undefined,2140,swing,abstract,concrete,A,concrete;abstract
1728919569,2c7e7b51a40a347954143c2ae5acd4de,PennController,62,0,test_conc,NULL,PennController,72,_Trial_,End,1728919514889,undefined,2140,swing,abstract,concrete,A,NULL
1728919569,2c7e7b51a40a347954143c2ae5acd4de,PennController,50,0,test_conc,NULL,PennController,60,_Trial_,Start,1728919514890,undefined,1049,annoy,abstract,concrete,A,NULL
1728919569,2c7e7b51a40a347954143c2ae5acd4de,PennController,50,0,test_conc,NULL,PennController,60,_Header_,Start,1728919514890,undefined,1049,annoy,abstract,concrete,A,NULL
1728919569,2c7e7b51a40a347954143c2ae5acd4de,PennController,50,0,test_conc,NULL,PennController,60,_Header_,End,1728919515141,undefined,1049,annoy,abstract,concrete,A,NULL
1728919569,2c7e7b51a40a347954143c2ae5acd4de,PennController,50,0,test_conc,NULL,Selector,unnamed-Selector,Selection,concrete,1728919516695,undefined,1049,annoy,abstract,concrete,A,concrete;abstract
1728919569,2c7e7b51a40a347954143c2ae5acd4de,PennController,50,0,test_conc,NULL,PennController,60,_Trial_,End,1728919516696,undefined,1049,annoy,abstract,concrete,A,NULL
1728919569,2c7e7b51a40a347954143c2ae5acd4de,PennController,63,0,test_conc,NULL,PennController,73,_Trial_,Start,1728919516696,undefined,2343,cook,abstract,concrete,A,NULL
1728919569,2c7e7b51a40a347954143c2ae5acd4de,PennController,63,0,test_conc,NULL,PennController,73,_Header_,Start,1728919516696,undefined,2343,cook,abstract,concrete,A,NULL
1728919569,2c7e7b51a40a347954143c2ae5acd4de,PennController,63,0,test_conc,NULL,PennController,73,_Header_,End,1728919516946,undefined,2343,cook,abstract,concrete,A,NULL
1728919569,2c7e7b51a40a347954143c2ae5acd4de,PennController,63,0,test_conc,NULL,Selector,unnamed-Selector,Selection,abstract,1728919519794,undefined,2343,cook,abstract,concrete,A,concrete;abstract
1728919569,2c7e7b51a40a347954143c2ae5acd4de,PennController,63,0,test_conc,NULL,PennController,73,_Trial_,End,1728919519794,undefined,2343,cook,abstract,concrete,A,NULL
1728919569,2c7e7b51a40a347954143c2ae5acd4de,PennController,67,0,test_conc,NULL,PennController,77,_Trial_,Start,1728919519795,undefined,1185,zing,abstract,concrete,A,NULL
1728919569,2c7e7b51a40a347954143c2ae5acd4de,PennController,67,0,test_conc,NULL,PennController,77,_Header_,Start,1728919519795,undefined,1185,zing,abstract,concrete,A,NULL
1728919569,2c7e7b51a40a347954143c2ae5acd4de,PennController,67,0,test_conc,NULL,PennController,77,_Header_,End,1728919520047,undefined,1185,zing,abstract,concrete,A,NULL
1728919569,2c7e7b51a40a347954143c2ae5acd4de,PennController,67,0,test_conc,NULL,Selector,unnamed-Selector,Selection,concrete,1728919521733,undefined,1185,zing,abstract,concrete,A,concrete;abstract
1728919569,2c7e7b51a40a347954143c2ae5acd4de,PennController,67,0,test_conc,NULL,PennController,77,_Trial_,End,1728919521734,undefined,1185,zing,abstract,concrete,A,NULL
1728919569,2c7e7b51a40a347954143c2ae5acd4de,PennController,48,0,test_conc,NULL,PennController,58,_Trial_,Start,1728919521734,undefined,1383,displease,abstract,concrete,A,NULL
1728919569,2c7e7b51a40a347954143c2ae5acd4de,PennController,48,0,test_conc,NULL,PennController,58,_Header_,Start,1728919521734,undefined,1383,displease,abstract,concrete,A,NULL
1728919569,2c7e7b51a40a347954143c2ae5acd4de,PennController,48,0,test_conc,NULL,PennController,58,_Header_,End,1728919521985,undefined,1383,displease,abstract,concrete,A,NULL
1728919569,2c7e7b51a40a347954143c2ae5acd4de,PennController,48,0,test_conc,NULL,Selector,unnamed-Selector,Selection,concrete,1728919523871,undefined,1383,displease,abstract,concrete,A,concrete;abstract
1728919569,2c7e7b51a40a347954143c2ae5acd4de,PennController,48,0,test_conc,NULL,PennController,58,_Trial_,End,1728919523872,undefined,1383,displease,abstract,concrete,A,NULL
1728919569,2c7e7b51a40a347954143c2ae5acd4de,PennController,69,0,test_conc,NULL,PennController,79,_Trial_,Start,1728919523872,undefined,997,imagine,abstract,concrete,A,NULL
1728919569,2c7e7b51a40a347954143c2ae5acd4de,PennController,69,0,test_conc,NULL,PennController,79,_Header_,Start,1728919523872,undefined,997,imagine,abstract,concrete,A,NULL
1728919569,2c7e7b51a40a347954143c2ae5acd4de,PennController,69,0,test_conc,NULL,PennController,79,_Header_,End,1728919524125,undefined,997,imagine,abstract,concrete,A,NULL
1728919569,2c7e7b51a40a347954143c2ae5acd4de,PennController,69,0,test_conc,NULL,Selector,unnamed-Selector,Selection,concrete,1728919525626,undefined,997,imagine,abstract,concrete,A,concrete;abstract
1728919569,2c7e7b51a40a347954143c2ae5acd4de,PennController,69,0,test_conc,NULL,PennController,79,_Trial_,End,1728919525627,undefined,997,imagine,abstract,concrete,A,NULL
1728919569,2c7e7b51a40a347954143c2ae5acd4de,PennController,73,0,test_conc,NULL,PennController,83,_Trial_,Start,1728919525627,undefined,1201,wish,abstract,concrete,A,NULL
1728919569,2c7e7b51a40a347954143c2ae5acd4de,PennController,73,0,test_conc,NULL,PennController,83,_Header_,Start,1728919525627,undefined,1201,wish,abstract,concrete,A,NULL
1728919569,2c7e7b51a40a347954143c2ae5acd4de,PennController,73,0,test_conc,NULL,PennController,83,_Header_,End,1728919525879,undefined,1201,wish,abstract,concrete,A,NULL
1728919569,2c7e7b51a40a347954143c2ae5acd4de,PennController,73,0,test_conc,NULL,Selector,unnamed-Selector,Selection,concrete,1728919527582,undefined,1201,wish,abstract,concrete,A,concrete;abstract
1728919569,2c7e7b51a40a347954143c2ae5acd4de,PennController,73,0,test_conc,NULL,PennController,83,_Trial_,End,1728919527583,undefined,1201,wish,abstract,concrete,A,NULL
1728919569,2c7e7b51a40a347954143c2ae5acd4de,PennController,53,0,test_conc,NULL,PennController,63,_Trial_,Start,1728919527584,undefined,2071,intimidate,abstract,concrete,A,NULL
1728919569,2c7e7b51a40a347954143c2ae5acd4de,PennController,53,0,test_conc,NULL,PennController,63,_Header_,Start,1728919527584,undefined,2071,intimidate,abstract,concrete,A,NULL
1728919569,2c7e7b51a40a347954143c2ae5acd4de,PennController,53,0,test_conc,NULL,PennController,63,_Header_,End,1728919527838,undefined,2071,intimidate,abstract,concrete,A,NULL
1728919569,2c7e7b51a40a347954143c2ae5acd4de,PennController,53,0,test_conc,NULL,Selector,unnamed-Selector,Selection,concrete,1728919530414,undefined,2071,intimidate,abstract,concrete,A,concrete;abstract
1728919569,2c7e7b51a40a347954143c2ae5acd4de,PennController,53,0,test_conc,NULL,PennController,63,_Trial_,End,1728919530415,undefined,2071,intimidate,abstract,concrete,A,NULL
1728919569,2c7e7b51a40a347954143c2ae5acd4de,PennController,66,0,test_conc,NULL,PennController,76,_Trial_,Start,1728919530416,undefined,916,excite,abstract,concrete,A,NULL
1728919569,2c7e7b51a40a347954143c2ae5acd4de,PennController,66,0,test_conc,NULL,PennController,76,_Header_,Start,1728919530416,undefined,916,excite,abstract,concrete,A,NULL
1728919569,2c7e7b51a40a347954143c2ae5acd4de,PennController,66,0,test_conc,NULL,PennController,76,_Header_,End,1728919530666,undefined,916,excite,abstract,concrete,A,NULL
1728919569,2c7e7b51a40a347954143c2ae5acd4de,PennController,66,0,test_conc,NULL,Selector,unnamed-Selector,Selection,concrete,1728919532083,undefined,916,excite,abstract,concrete,A,concrete;abstract
1728919569,2c7e7b51a40a347954143c2ae5acd4de,PennController,66,0,test_conc,NULL,PennController,76,_Trial_,End,1728919532084,undefined,916,excite,abstract,concrete,A,NULL
1728919569,2c7e7b51a40a347954143c2ae5acd4de,PennController,74,0,test_conc,NULL,PennController,84,_Trial_,Start,1728919532084,undefined,754,vomit,abstract,concrete,A,NULL
1728919569,2c7e7b51a40a347954143c2ae5acd4de,PennController,74,0,test_conc,NULL,PennController,84,_Header_,Start,1728919532084,undefined,754,vomit,abstract,concrete,A,NULL
1728919569,2c7e7b51a40a347954143c2ae5acd4de,PennController,74,0,test_conc,NULL,PennController,84,_Header_,End,1728919532334,undefined,754,vomit,abstract,concrete,A,NULL
1728919569,2c7e7b51a40a347954143c2ae5acd4de,PennController,74,0,test_conc,NULL,Selector,unnamed-Selector,Selection,abstract,1728919533591,undefined,754,vomit,abstract,concrete,A,concrete;abstract
1728919569,2c7e7b51a40a347954143c2ae5acd4de,PennController,74,0,test_conc,NULL,PennController,84,_Trial_,End,1728919533591,undefined,754,vomit,abstract,concrete,A,NULL
1728919569,2c7e7b51a40a347954143c2ae5acd4de,PennController,57,0,test_conc,NULL,PennController,67,_Trial_,Start,1728919533592,undefined,863,bathe,abstract,concrete,A,NULL
1728919569,2c7e7b51a40a347954143c2ae5acd4de,PennController,57,0,test_conc,NULL,PennController,67,_Header_,Start,1728919533592,undefined,863,bathe,abstract,concrete,A,NULL
1728919569,2c7e7b51a40a347954143c2ae5acd4de,PennController,57,0,test_conc,NULL,PennController,67,_Header_,End,1728919533845,undefined,863,bathe,abstract,concrete,A,NULL
1728919569,2c7e7b51a40a347954143c2ae5acd4de,PennController,57,0,test_conc,NULL,Selector,unnamed-Selector,Selection,abstract,1728919535211,undefined,863,bathe,abstract,concrete,A,concrete;abstract
1728919569,2c7e7b51a40a347954143c2ae5acd4de,PennController,57,0,test_conc,NULL,PennController,67,_Trial_,End,1728919535212,undefined,863,bathe,abstract,concrete,A,NULL
1728919569,2c7e7b51a40a347954143c2ae5acd4de,PennController,49,0,test_conc,NULL,PennController,59,_Trial_,Start,1728919535213,undefined,908,distrust,abstract,concrete,A,NULL
1728919569,2c7e7b51a40a347954143c2ae5acd4de,PennController,49,0,test_conc,NULL,PennController,59,_Header_,Start,1728919535213,undefined,908,distrust,abstract,concrete,A,NULL
1728919569,2c7e7b51a40a347954143c2ae5acd4de,PennController,49,0,test_conc,NULL,PennController,59,_Header_,End,1728919535467,undefined,908,distrust,abstract,concrete,A,NULL
1728919569,2c7e7b51a40a347954143c2ae5acd4de,PennController,49,0,test_conc,NULL,Selector,unnamed-Selector,Selection,concrete,1728919536876,undefined,908,distrust,abstract,concrete,A,concrete;abstract
1728919569,2c7e7b51a40a347954143c2ae5acd4de,PennController,49,0,test_conc,NULL,PennController,59,_Trial_,End,1728919536877,undefined,908,distrust,abstract,concrete,A,NULL
1728919569,2c7e7b51a40a347954143c2ae5acd4de,PennController,55,0,test_conc,NULL,PennController,65,_Trial_,Start,1728919536878,undefined,1179,sing,abstract,concrete,A,NULL
1728919569,2c7e7b51a40a347954143c2ae5acd4de,PennController,55,0,test_conc,NULL,PennController,65,_Header_,Start,1728919536878,undefined,1179,sing,abstract,concrete,A,NULL
1728919569,2c7e7b51a40a347954143c2ae5acd4de,PennController,55,0,test_conc,NULL,PennController,65,_Header_,End,1728919537130,undefined,1179,sing,abstract,concrete,A,NULL
1728919569,2c7e7b51a40a347954143c2ae5acd4de,PennController,55,0,test_conc,NULL,Selector,unnamed-Selector,Selection,abstract,1728919538812,undefined,1179,sing,abstract,concrete,A,concrete;abstract
1728919569,2c7e7b51a40a347954143c2ae5acd4de,PennController,55,0,test_conc,NULL,PennController,65,_Trial_,End,1728919538812,undefined,1179,sing,abstract,concrete,A,NULL
1728919569,2c7e7b51a40a347954143c2ae5acd4de,PennController,76,0,test_conc,NULL,PennController,86,_Trial_,Start,1728919538813,undefined,911,barf,abstract,concrete,A,NULL
1728919569,2c7e7b51a40a347954143c2ae5acd4de,PennController,76,0,test_conc,NULL,PennController,86,_Header_,Start,1728919538813,undefined,911,barf,abstract,concrete,A,NULL
1728919569,2c7e7b51a40a347954143c2ae5acd4de,PennController,76,0,test_conc,NULL,PennController,86,_Header_,End,1728919539063,undefined,911,barf,abstract,concrete,A,NULL
1728919569,2c7e7b51a40a347954143c2ae5acd4de,PennController,76,0,test_conc,NULL,Selector,unnamed-Selector,Selection,abstract,1728919540476,undefined,911,barf,abstract,concrete,A,concrete;abstract
1728919569,2c7e7b51a40a347954143c2ae5acd4de,PennController,76,0,test_conc,NULL,PennController,86,_Trial_,End,1728919540477,undefined,911,barf,abstract,concrete,A,NULL
1728919569,2c7e7b51a40a347954143c2ae5acd4de,PennController,68,0,test_conc,NULL,PennController,78,_Trial_,Start,1728919540478,undefined,844,inspire,abstract,concrete,A,NULL
1728919569,2c7e7b51a40a347954143c2ae5acd4de,PennController,68,0,test_conc,NULL,PennController,78,_Header_,Start,1728919540478,undefined,844,inspire,abstract,concrete,A,NULL
1728919569,2c7e7b51a40a347954143c2ae5acd4de,PennController,68,0,test_conc,NULL,PennController,78,_Header_,End,1728919540728,undefined,844,inspire,abstract,concrete,A,NULL
1728919569,2c7e7b51a40a347954143c2ae5acd4de,PennController,68,0,test_conc,NULL,Selector,unnamed-Selector,Selection,concrete,1728919542074,undefined,844,inspire,abstract,concrete,A,concrete;abstract
1728919569,2c7e7b51a40a347954143c2ae5acd4de,PennController,68,0,test_conc,NULL,PennController,78,_Trial_,End,1728919542074,undefined,844,inspire,abstract,concrete,A,NULL
1728919569,2c7e7b51a40a347954143c2ae5acd4de,PennController,56,0,test_conc,NULL,PennController,66,_Trial_,Start,1728919542075,undefined,1068,laugh,abstract,concrete,A,NULL
1728919569,2c7e7b51a40a347954143c2ae5acd4de,PennController,56,0,test_conc,NULL,PennController,66,_Header_,Start,1728919542075,undefined,1068,laugh,abstract,concrete,A,NULL
1728919569,2c7e7b51a40a347954143c2ae5acd4de,PennController,56,0,test_conc,NULL,PennController,66,_Header_,End,1728919542327,undefined,1068,laugh,abstract,concrete,A,NULL
1728919569,2c7e7b51a40a347954143c2ae5acd4de,PennController,56,0,test_conc,NULL,Selector,unnamed-Selector,Selection,abstract,1728919543896,undefined,1068,laugh,abstract,concrete,A,concrete;abstract
1728919569,2c7e7b51a40a347954143c2ae5acd4de,PennController,56,0,test_conc,NULL,PennController,66,_Trial_,End,1728919543897,undefined,1068,laugh,abstract,concrete,A,NULL
1728919569,2c7e7b51a40a347954143c2ae5acd4de,PennController,70,0,test_conc,NULL,PennController,80,_Trial_,Start,1728919543897,undefined,889,fulfill,abstract,concrete,A,NULL
1728919569,2c7e7b51a40a347954143c2ae5acd4de,PennController,70,0,test_conc,NULL,PennController,80,_Header_,Start,1728919543897,undefined,889,fulfill,abstract,concrete,A,NULL
1728919569,2c7e7b51a40a347954143c2ae5acd4de,PennController,70,0,test_conc,NULL,PennController,80,_Header_,End,1728919544148,undefined,889,fulfill,abstract,concrete,A,NULL
1728919569,2c7e7b51a40a347954143c2ae5acd4de,PennController,70,0,test_conc,NULL,Selector,unnamed-Selector,Selection,concrete,1728919545539,undefined,889,fulfill,abstract,concrete,A,concrete;abstract
1728919569,2c7e7b51a40a347954143c2ae5acd4de,PennController,70,0,test_conc,NULL,PennController,80,_Trial_,End,1728919545539,undefined,889,fulfill,abstract,concrete,A,NULL
1728919569,2c7e7b51a40a347954143c2ae5acd4de,PennController,79,0,test_conc,NULL,PennController,89,_Trial_,Start,1728919545540,undefined,889,bleed,abstract,concrete,A,NULL
1728919569,2c7e7b51a40a347954143c2ae5acd4de,PennController,79,0,test_conc,NULL,PennController,89,_Header_,Start,1728919545540,undefined,889,bleed,abstract,concrete,A,NULL
1728919569,2c7e7b51a40a347954143c2ae5acd4de,PennController,79,0,test_conc,NULL,PennController,89,_Header_,End,1728919545791,undefined,889,bleed,abstract,concrete,A,NULL
1728919569,2c7e7b51a40a347954143c2ae5acd4de,PennController,79,0,test_conc,NULL,Selector,unnamed-Selector,Selection,abstract,1728919547182,undefined,889,bleed,abstract,concrete,A,concrete;abstract
1728919569,2c7e7b51a40a347954143c2ae5acd4de,PennController,79,0,test_conc,NULL,PennController,89,_Trial_,End,1728919547182,undefined,889,bleed,abstract,concrete,A,NULL
1728919569,2c7e7b51a40a347954143c2ae5acd4de,PennController,81,0,test_conc,NULL,PennController,91,_Trial_,Start,1728919547183,undefined,1089,slap,abstract,concrete,A,NULL
1728919569,2c7e7b51a40a347954143c2ae5acd4de,PennController,81,0,test_conc,NULL,PennController,91,_Header_,Start,1728919547183,undefined,1089,slap,abstract,concrete,A,NULL
1728919569,2c7e7b51a40a347954143c2ae5acd4de,PennController,81,0,test_conc,NULL,PennController,91,_Header_,End,1728919547434,undefined,1089,slap,abstract,concrete,A,NULL
1728919569,2c7e7b51a40a347954143c2ae5acd4de,PennController,81,0,test_conc,NULL,Selector,unnamed-Selector,Selection,abstract,1728919549026,undefined,1089,slap,abstract,concrete,A,concrete;abstract
1728919569,2c7e7b51a40a347954143c2ae5acd4de,PennController,81,0,test_conc,NULL,PennController,91,_Trial_,End,1728919549026,undefined,1089,slap,abstract,concrete,A,NULL
1728919569,2c7e7b51a40a347954143c2ae5acd4de,PennController,82,0,test_conc,NULL,PennController,92,_Trial_,Start,1728919549027,undefined,776,spit,abstract,concrete,A,NULL
1728919569,2c7e7b51a40a347954143c2ae5acd4de,PennController,82,0,test_conc,NULL,PennController,92,_Header_,Start,1728919549027,undefined,776,spit,abstract,concrete,A,NULL
1728919569,2c7e7b51a40a347954143c2ae5acd4de,PennController,82,0,test_conc,NULL,PennController,92,_Header_,End,1728919549278,undefined,776,spit,abstract,concrete,A,NULL
1728919569,2c7e7b51a40a347954143c2ae5acd4de,PennController,82,0,test_conc,NULL,Selector,unnamed-Selector,Selection,abstract,1728919550556,undefined,776,spit,abstract,concrete,A,concrete;abstract
1728919569,2c7e7b51a40a347954143c2ae5acd4de,PennController,82,0,test_conc,NULL,PennController,92,_Trial_,End,1728919550557,undefined,776,spit,abstract,concrete,A,NULL
# 13. NativeLang.
# 14. OtherLangs.
# 15. Gender.
# 16. Education.
# 17. Comments.
# 18. Comments.
1728919569,2c7e7b51a40a347954143c2ae5acd4de,PennController,106,0,demo,NULL,PennController,4,_Trial_,Start,1728919550558,english,no,undefined,undefined,undefined,NULL
1728919569,2c7e7b51a40a347954143c2ae5acd4de,PennController,106,0,demo,NULL,PennController,4,_Header_,Start,1728919550558,english,no,undefined,undefined,undefined,NULL
1728919569,2c7e7b51a40a347954143c2ae5acd4de,PennController,106,0,demo,NULL,PennController,4,_Header_,End,1728919550809,english,no,undefined,undefined,undefined,NULL
1728919569,2c7e7b51a40a347954143c2ae5acd4de,PennController,106,0,demo,NULL,TextInput,Gender,First,,1728919554179,english,no,undefined,undefined,undefined,f
1728919569,2c7e7b51a40a347954143c2ae5acd4de,PennController,106,0,demo,NULL,TextInput,Education,First,,1728919557735,english,no,undefined,undefined,undefined,c
1728919569,2c7e7b51a40a347954143c2ae5acd4de,PennController,106,0,demo,NULL,TextInput,NativeLang,First,,1728919561626,english,no,undefined,undefined,undefined,e
1728919569,2c7e7b51a40a347954143c2ae5acd4de,PennController,106,0,demo,NULL,TextInput,Gender,Final,female,1728919570042,english,no,undefined,undefined,undefined,NULL
1728919569,2c7e7b51a40a347954143c2ae5acd4de,PennController,106,0,demo,NULL,TextInput,Education,Final,college degree,1728919570042,english,no,undefined,undefined,undefined,NULL
1728919569,2c7e7b51a40a347954143c2ae5acd4de,PennController,106,0,demo,NULL,TextInput,NativeLang,Final,english,1728919570042,english,no,undefined,undefined,undefined,NULL
1728919569,2c7e7b51a40a347954143c2ae5acd4de,PennController,106,0,demo,NULL,PennController,4,_Trial_,End,1728919570043,english,no,undefined,undefined,undefined,NULL
#
# Results on Mon, 14 Oct 2024 15:29:51 GMT
# USER AGENT: Mozilla/5.0 (Windows NT 10.0; Win64; x64) AppleWebKit/537.36 (KHTML, like Gecko) Chrome/129.0.0.0 Safari/537.36
# Design number was non-random = 0
#
# Columns below this comment are as follows:
# 1. Results reception time.
# 2. MD5 hash of participant's IP address.
# 3. Controller name.
# 4. Order number of item.
# 5. Inner element number.
# 6. Label.
# 7. Latin Square Group.
# 8. PennElementType.
# 9. PennElementName.
# 10. Parameter.
# 11. Value.
# 12. EventTime.
# 13. Comments.
1728919791,94ae5a7be271ef22f907aacd8006c7b3,PennController,1,0,welcome,NULL,PennController,0,_Trial_,Start,1728919528044,NULL
1728919791,94ae5a7be271ef22f907aacd8006c7b3,PennController,1,0,welcome,NULL,PennController,0,_Header_,Start,1728919528044,NULL
1728919791,94ae5a7be271ef22f907aacd8006c7b3,PennController,1,0,welcome,NULL,PennController,0,_Header_,End,1728919528297,NULL
1728919791,94ae5a7be271ef22f907aacd8006c7b3,PennController,1,0,welcome,NULL,PennController,0,_Trial_,End,1728919530864,NULL
# 13. ID.
# 14. Comments.
1728919791,94ae5a7be271ef22f907aacd8006c7b3,PennController,105,0,consent,NULL,PennController,3,_Trial_,Start,1728919530866,63fb7bd7941b345c37a9c54e,NULL
1728919791,94ae5a7be271ef22f907aacd8006c7b3,PennController,105,0,consent,NULL,PennController,3,_Header_,Start,1728919530866,63fb7bd7941b345c37a9c54e,NULL
1728919791,94ae5a7be271ef22f907aacd8006c7b3,PennController,105,0,consent,NULL,PennController,3,_Header_,End,1728919531117,63fb7bd7941b345c37a9c54e,NULL
1728919791,94ae5a7be271ef22f907aacd8006c7b3,PennController,105,0,consent,NULL,TextInput,ID,Final,63fb7bd7941b345c37a9c54e,1728919549914,63fb7bd7941b345c37a9c54e,NULL
1728919791,94ae5a7be271ef22f907aacd8006c7b3,PennController,105,0,consent,NULL,PennController,3,_Trial_,End,1728919549914,63fb7bd7941b345c37a9c54e,NULL
# 13. Comments.
1728919791,94ae5a7be271ef22f907aacd8006c7b3,PennController,107,0,instructions1_val,NULL,PennController,5,_Trial_,Start,1728919549915,NULL
1728919791,94ae5a7be271ef22f907aacd8006c7b3,PennController,107,0,instructions1_val,NULL,PennController,5,_Header_,Start,1728919549915,NULL
1728919791,94ae5a7be271ef22f907aacd8006c7b3,PennController,107,0,instructions1_val,NULL,PennController,5,_Header_,End,1728919550169,NULL
1728919791,94ae5a7be271ef22f907aacd8006c7b3,PennController,107,0,instructions1_val,NULL,PennController,5,_Trial_,End,1728919560871,NULL
1728919791,94ae5a7be271ef22f907aacd8006c7b3,PennController,108,0,instructions2_val,NULL,PennController,6,_Trial_,Start,1728919560872,NULL
