"","ID.true","Word","Label","ConcValCombo","Category","Task","BlockOrder","Group","Response","Accuracy","EventTime","Value","ReactionTime","Key_value_F","Key_value_J","Comments","LogReactionTime","TrialNumber"
"1","55a2fa33fdf99b073cd94947","admire","test_syn","abstract-positive","Verb","Syntactic","SV","verb;noun","verb",1,1739899959373,"verb",1114,"noun","B","",7.01571242048723,1
"2","55a2fa33fdf99b073cd94947","running","test_syn","concrete-positive","Verb","Syntactic","SV","verb;noun","verb",1,1739899960648,"verb",518,"noun","B","",6.24997524225948,2
"3","55a2fa33fdf99b073cd94947","bleed","test_syn","concrete-negative","Verb","Syntactic","SV","verb;noun","verb",1,1739899962012,"verb",605,"noun","B","",6.40522845803084,3
"4","55a2fa33fdf99b073cd94947","gratitude","test_syn","abstract-positive","Nouns","Syntactic","SV","verb;noun","noun",1,1739899963749,"noun",981,"noun","B","",6.88857245956536,4
"5","55a2fa33fdf99b073cd94947","hatred","test_syn","abstract-negative","Nouns","Syntactic","SV","verb;noun","noun",1,1739899965149,"noun",643,"noun","B","",6.46614472423762,5
"6","55a2fa33fdf99b073cd94947","terror","test_syn","abstract-negative","Nouns","Syntactic","SV","verb;noun","noun",1,1739899966613,"noun",709,"noun","B","",6.56385552653213,6
"7","55a2fa33fdf99b073cd94947","inspiration","test_syn","abstract-positive","Nouns","Syntactic","SV","verb;noun","noun",1,1739899967875,"noun",500,"noun","B","",6.21460809842219,7
"8","55a2fa33fdf99b073cd94947","corpse","test_syn","concrete-negative","Nouns","Syntactic","SV","verb;noun","noun",1,1739899969262,"noun",629,"noun","B","",6.44413125670044,8
"9","55a2fa33fdf99b073cd94947","imagine","test_syn","abstract-positive","Verb","Syntactic","SV","verb;noun","verb",1,1739899970625,"verb",606,"noun","B","",6.40687998606931,9
"10","55a2fa33fdf99b073cd94947","glisten","test_syn","concrete-positive","Verb","Syntactic","SV","verb;noun","verb",1,1739899971874,"verb",493,"noun","B","",6.20050917404269,10
"11","55a2fa33fdf99b073cd94947","garbage","test_syn","concrete-negative","Nouns","Syntactic","SV","verb;noun","noun",1,1739899973326,"noun",689,"noun","B","",6.53524127101366,11
"12","55a2fa33fdf99b073cd94947","writhe","test_syn","concrete-negative","Verb","Syntactic","SV","verb;noun","noun",0,1739899974737,"noun",649,"noun","B","",6.47543271670409,12
"13","55a2fa33fdf99b073cd94947","fireplace","test_syn","concrete-positive","Nouns","Syntactic","SV","verb;noun","noun",1,1739899978625,"noun",3129,"noun","B","",8.04846874366888,13
"14","55a2fa33fdf99b073cd94947","anxiety","test_syn","abstract-negative","Nouns","Syntactic","SV","verb;noun","noun",1,1739899980411,"noun",1029,"noun","B","",6.93634273583405,14
"15","55a2fa33fdf99b073cd94947","cherish","test_syn","abstract-positive","Verb","Syntactic","SV","verb;noun","noun",0,1739899981875,"noun",703,"noun","B","",6.55535689181067,15
"16","55a2fa33fdf99b073cd94947","obsess","test_syn","abstract-negative","Verb","Syntactic","SV","verb;noun","verb",1,1739899984972,"verb",2337,"noun","B","",7.75662333453886,16
"17","55a2fa33fdf99b073cd94947","kindness","test_syn","abstract-positive","Nouns","Syntactic","SV","verb;noun","noun",1,1739899986587,"noun",853,"noun","B","",6.74875954749168,17
"18","55a2fa33fdf99b073cd94947","flowers","test_syn","concrete-positive","Nouns","Syntactic","SV","verb;noun","noun",1,1739899988100,"noun",750,"noun","B","",6.62007320653036,18
"19","55a2fa33fdf99b073cd94947","home","test_syn","concrete-positive","Nouns","Syntactic","SV","verb;noun","noun",1,1739899989625,"noun",768,"noun","B","",6.64378973314767,19
"20","55a2fa33fdf99b073cd94947","choke","test_syn","concrete-negative","Verb","Syntactic","SV","verb;noun","verb",1,1739899991287,"verb",903,"noun","B","",6.80572255341699,20
"21","55a2fa33fdf99b073cd94947","compassion","test_syn","abstract-positive","Nouns","Syntactic","SV","verb;noun","noun",1,1739899992774,"noun",726,"noun","B","",6.5875500148248,21
"22","55a2fa33fdf99b073cd94947","eat","test_syn","concrete-positive","Verb","Syntactic","SV","verb;noun","verb",1,1739899994625,"verb",1090,"noun","B","",6.99393297522319,22
"23","55a2fa33fdf99b073cd94947","fester","test_syn","concrete-negative","Verb","Syntactic","SV","verb;noun","verb",1,1739899996225,"verb",840,"noun","B","",6.73340189183736,23
"24","55a2fa33fdf99b073cd94947","toxin","test_syn","concrete-negative","Nouns","Syntactic","SV","verb;noun","noun",1,1739899997813,"noun",827,"noun","B","",6.71780469502369,24
"25","55a2fa33fdf99b073cd94947","breathe","test_syn","concrete-positive","Verb","Syntactic","SV","verb;noun","verb",1,1739899999425,"verb",850,"noun","B","",6.74523634948436,25
"26","55a2fa33fdf99b073cd94947","enlighten","test_syn","abstract-positive","Verb","Syntactic","SV","verb;noun","verb",1,1739900000775,"verb",587,"noun","B","",6.3750248198281,26
"27","55a2fa33fdf99b073cd94947","befall","test_syn","abstract-negative","Verb","Syntactic","SV","verb;noun","verb",1,1739900002097,"verb",557,"noun","B","",6.32256523992728,27
"28","55a2fa33fdf99b073cd94947","mud","test_syn","concrete-negative","Nouns","Syntactic","SV","verb;noun","noun",1,1739900003387,"noun",535,"noun","B","",6.28226674689601,28
"29","55a2fa33fdf99b073cd94947","slave","test_syn","concrete-negative","Nouns","Syntactic","SV","verb;noun","noun",1,1739900004800,"noun",652,"noun","B","",6.48004456192665,29
"30","55a2fa33fdf99b073cd94947","freedom","test_syn","abstract-positive","Nouns","Syntactic","SV","verb;noun","noun",1,1739900006825,"noun",1267,"noun","B","",7.14440718032114,30
"31","55a2fa33fdf99b073cd94947","beach","test_syn","concrete-positive","Nouns","Syntactic","SV","verb;noun","noun",1,1739900008787,"noun",1202,"noun","B","",7.09174211509515,31
"32","55a2fa33fdf99b073cd94947","grief","test_syn","abstract-negative","Nouns","Syntactic","SV","verb;noun","verb",0,1739900010389,"verb",842,"noun","B","",6.73578001424233,32
"33","55a2fa33fdf99b073cd94947","exploit","test_syn","abstract-negative","Verb","Syntactic","SV","verb;noun","verb",1,1739900012462,"verb",1309,"noun","B","",7.1770187659099,33
"34","55a2fa33fdf99b073cd94947","failure","test_syn","abstract-negative","Nouns","Syntactic","SV","verb;noun","noun",1,1739900014025,"noun",804,"noun","B","",6.68959926917897,34
"35","55a2fa33fdf99b073cd94947","chocolate","test_syn","concrete-positive","Nouns","Syntactic","SV","verb;noun","noun",1,1739900015525,"noun",736,"noun","B","",6.60123011872888,35
"36","55a2fa33fdf99b073cd94947","stab","test_syn","concrete-negative","Verb","Syntactic","SV","verb;noun","verb",1,1739900016849,"verb",565,"noun","B","",6.33682573114644,36
"37","55a2fa33fdf99b073cd94947","glide","test_syn","concrete-positive","Verb","Syntactic","SV","verb;noun","verb",1,1739900018263,"verb",656,"noun","B","",6.48616078894409,37
"38","55a2fa33fdf99b073cd94947","fulfill","test_syn","abstract-positive","Verb","Syntactic","SV","verb;noun","verb",1,1739900019675,"verb",655,"noun","B","",6.48463523563525,38
"39","55a2fa33fdf99b073cd94947","resent","test_syn","abstract-negative","Verb","Syntactic","SV","verb;noun","verb",1,1739900021112,"verb",679,"noun","B","",6.5206211275587,39
"40","55a2fa33fdf99b073cd94947","criticize","test_syn","abstract-negative","Verb","Syntactic","SV","verb;noun","verb",1,1739900022526,"verb",654,"noun","B","",6.4831073514572,40
"41","55a2fa33fdf99b073cd94947","fulfill","test_syn","abstract-positive","Verb","Syntactic","SV","verb;noun","verb",1,1739900023975,"verb",689,"noun","B","",6.53524127101366,41
"42","55a2fa33fdf99b073cd94947","stab","test_syn","concrete-negative","Verb","Syntactic","SV","verb;noun","noun",0,1739900025410,"noun",673,"noun","B","",6.51174532964473,42
"43","55a2fa33fdf99b073cd94947","beach","test_syn","concrete-positive","Nouns","Syntactic","SV","verb;noun","noun",1,1739900027225,"noun",1060,"noun","B","",6.96602418710611,43
"44","55a2fa33fdf99b073cd94947","freedom","test_syn","abstract-positive","Nouns","Syntactic","SV","verb;noun","noun",1,1739900028799,"noun",816,"noun","B","",6.70441435496411,44
"45","55a2fa33fdf99b073cd94947","exploit","test_syn","abstract-negative","Verb","Syntactic","SV","verb;noun","verb",1,1739900030887,"verb",1329,"noun","B","",7.19218205871325,45
"46","55a2fa33fdf99b073cd94947","writhe","test_syn","concrete-negative","Verb","Syntactic","SV","verb;noun","verb",1,1739900033673,"verb",2028,"noun","B","",7.61480536471107,46
"47","55a2fa33fdf99b073cd94947","mud","test_syn","concrete-negative","Nouns","Syntactic","SV","verb;noun","noun",1,1739900036072,"noun",1639,"noun","B","",7.40184157874383,47
"48","55a2fa33fdf99b073cd94947","compassion","test_syn","abstract-positive","Nouns","Syntactic","SV","verb;noun","noun",1,1739900037687,"noun",855,"noun","B","",6.75110146893676,48
"49","55a2fa33fdf99b073cd94947","glide","test_syn","concrete-positive","Verb","Syntactic","SV","verb;noun","verb",1,1739900039137,"verb",690,"noun","B","",6.5366915975913,49
"50","55a2fa33fdf99b073cd94947","bleed","test_syn","concrete-negative","Verb","Syntactic","SV","verb;noun","verb",1,1739900040426,"verb",528,"noun","B","",6.26909628370626,50
"51","55a2fa33fdf99b073cd94947","garbage","test_syn","concrete-negative","Nouns","Syntactic","SV","verb;noun","noun",1,1739900041787,"noun",601,"noun","B","",6.39859493453521,51
"52","55a2fa33fdf99b073cd94947","obsess","test_syn","abstract-negative","Verb","Syntactic","SV","verb;noun","verb",1,1739900043387,"verb",843,"noun","B","",6.73696695800186,52
"53","55a2fa33fdf99b073cd94947","chocolate","test_syn","concrete-positive","Nouns","Syntactic","SV","verb;noun","noun",1,1739900044787,"noun",640,"noun","B","",6.46146817635372,53
"54","55a2fa33fdf99b073cd94947","home","test_syn","concrete-positive","Nouns","Syntactic","SV","verb;noun","noun",1,1739900046374,"noun",828,"noun","B","",6.71901315438526,54
"55","55a2fa33fdf99b073cd94947","slave","test_syn","concrete-negative","Nouns","Syntactic","SV","verb;noun","noun",1,1739900047949,"noun",812,"noun","B","",6.69950034016168,55
"56","55a2fa33fdf99b073cd94947","cherish","test_syn","abstract-positive","Verb","Syntactic","SV","verb;noun","verb",1,1739900050061,"verb",1353,"noun","B","",7.21007962817079,56
"57","55a2fa33fdf99b073cd94947","admire","test_syn","abstract-positive","Verb","Syntactic","SV","verb;noun","verb",1,1739900051963,"verb",1142,"noun","B","",7.04053639021596,57
"58","55a2fa33fdf99b073cd94947","hatred","test_syn","abstract-negative","Nouns","Syntactic","SV","verb;noun","noun",1,1739900053337,"noun",613,"noun","B","",6.41836493593621,58
"59","55a2fa33fdf99b073cd94947","criticize","test_syn","abstract-negative","Verb","Syntactic","SV","verb;noun","verb",1,1739900054749,"verb",651,"noun","B","",6.47850964220857,59
"60","55a2fa33fdf99b073cd94947","eat","test_syn","concrete-positive","Verb","Syntactic","SV","verb;noun","verb",1,1739900056297,"verb",787,"noun","B","",6.6682282484174,60
"61","55a2fa33fdf99b073cd94947","grief","test_syn","abstract-negative","Nouns","Syntactic","SV","verb;noun","noun",1,1739900058200,"noun",1143,"noun","B","",7.04141166379481,61
"62","55a2fa33fdf99b073cd94947","imagine","test_syn","abstract-positive","Verb","Syntactic","SV","verb;noun","verb",1,1739900060857,"verb",1900,"noun","B","",7.54960916515453,62
"63","55a2fa33fdf99b073cd94947","befall","test_syn","abstract-negative","Verb","Syntactic","SV","verb;noun","verb",1,1739900062187,"verb",569,"noun","B","",6.34388043412633,63
"64","55a2fa33fdf99b073cd94947","flowers","test_syn","concrete-positive","Nouns","Syntactic","SV","verb;noun","noun",1,1739900063549,"noun",601,"noun","B","",6.39859493453521,64
"65","55a2fa33fdf99b073cd94947","toxin","test_syn","concrete-negative","Nouns","Syntactic","SV","verb;noun","noun",1,1739900065613,"noun",1304,"noun","B","",7.1731917424866,65
"66","55a2fa33fdf99b073cd94947","corpse","test_syn","concrete-negative","Nouns","Syntactic","SV","verb;noun","noun",1,1739900066950,"noun",577,"noun","B","",6.3578422665081,66
"67","55a2fa33fdf99b073cd94947","kindness","test_syn","abstract-positive","Nouns","Syntactic","SV","verb;noun","noun",1,1739900068350,"noun",640,"noun","B","",6.46146817635372,67
"68","55a2fa33fdf99b073cd94947","fireplace","test_syn","concrete-positive","Nouns","Syntactic","SV","verb;noun","noun",1,1739900069849,"noun",743,"noun","B","",6.61069604471776,68
"69","55a2fa33fdf99b073cd94947","glisten","test_syn","concrete-positive","Verb","Syntactic","SV","verb;noun","verb",1,1739900071212,"verb",603,"noun","B","",6.40191719672719,69
"70","55a2fa33fdf99b073cd94947","choke","test_syn","concrete-negative","Verb","Syntactic","SV","verb;noun","verb",1,1739900072725,"verb",752,"noun","B","",6.62273632394984,70
"71","55a2fa33fdf99b073cd94947","failure","test_syn","abstract-negative","Nouns","Syntactic","SV","verb;noun","verb",0,1739900073987,"verb",503,"noun","B","",6.22059017009974,71
"72","55a2fa33fdf99b073cd94947","fester","test_syn","concrete-negative","Verb","Syntactic","SV","verb;noun","verb",1,1739900075499,"verb",753,"noun","B","",6.62406522779989,72
"73","55a2fa33fdf99b073cd94947","anxiety","test_syn","abstract-negative","Nouns","Syntactic","SV","verb;noun","noun",1,1739900077150,"noun",890,"noun","B","",6.79122146272619,73
"74","55a2fa33fdf99b073cd94947","enlighten","test_syn","abstract-positive","Verb","Syntactic","SV","verb;noun","verb",1,1739900078849,"verb",942,"noun","B","",6.84800527457636,74
"75","55a2fa33fdf99b073cd94947","inspiration","test_syn","abstract-positive","Nouns","Syntactic","SV","verb;noun","noun",1,1739900080287,"noun",679,"noun","B","",6.5206211275587,75
"76","55a2fa33fdf99b073cd94947","running","test_syn","concrete-positive","Verb","Syntactic","SV","verb;noun","verb",1,1739900081725,"verb",679,"noun","B","",6.5206211275587,76
"77","55a2fa33fdf99b073cd94947","terror","test_syn","abstract-negative","Nouns","Syntactic","SV","verb;noun","noun",1,1739900083288,"noun",803,"noun","B","",6.68835471394676,77
"78","55a2fa33fdf99b073cd94947","breathe","test_syn","concrete-positive","Verb","Syntactic","SV","verb;noun","verb",1,1739900084712,"verb",665,"noun","B","",6.49978704065585,78
"79","55a2fa33fdf99b073cd94947","resent","test_syn","abstract-negative","Verb","Syntactic","SV","verb;noun","verb",1,1739900086149,"verb",678,"noun","B","",6.5191472879404,79
"80","55a2fa33fdf99b073cd94947","gratitude","test_syn","abstract-positive","Nouns","Syntactic","SV","verb;noun","noun",1,1739900087537,"noun",633,"noun","B","",6.45047042214418,80
"81","55a2fa33fdf99b073cd94947","corpse","test_syn","concrete-negative","Nouns","Syntactic","SV","verb;noun","noun",1,1739900088887,"noun",589,"noun","B","",6.37842618365159,81
"82","55a2fa33fdf99b073cd94947","flowers","test_syn","concrete-positive","Nouns","Syntactic","SV","verb;noun","noun",1,1739900090324,"noun",680,"noun","B","",6.52209279817015,82
"83","55a2fa33fdf99b073cd94947","glide","test_syn","concrete-positive","Verb","Syntactic","SV","verb;noun","verb",1,1739900091699,"verb",615,"noun","B","",6.42162226780652,83
"84","55a2fa33fdf99b073cd94947","toxin","test_syn","concrete-negative","Nouns","Syntactic","SV","verb;noun","noun",1,1739900093025,"noun",565,"noun","B","",6.33682573114644,84
"85","55a2fa33fdf99b073cd94947","freedom","test_syn","abstract-positive","Nouns","Syntactic","SV","verb;noun","noun",1,1739900094662,"noun",876,"noun","B","",6.77536609093639,85
"86","55a2fa33fdf99b073cd94947","beach","test_syn","concrete-positive","Nouns","Syntactic","SV","verb;noun","noun",1,1739900096187,"noun",767,"noun","B","",6.64248680136726,86
"87","55a2fa33fdf99b073cd94947","home","test_syn","concrete-positive","Nouns","Syntactic","SV","verb;noun","noun",1,1739900097487,"noun",540,"noun","B","",6.29156913955832,87
"88","55a2fa33fdf99b073cd94947","gratitude","test_syn","abstract-positive","Nouns","Syntactic","SV","verb;noun","noun",1,1739900098900,"noun",652,"noun","B","",6.48004456192665,88
"89","55a2fa33fdf99b073cd94947","obsess","test_syn","abstract-negative","Verb","Syntactic","SV","verb;noun","verb",1,1739900100237,"verb",577,"noun","B","",6.3578422665081,89
"90","55a2fa33fdf99b073cd94947","befall","test_syn","abstract-negative","Verb","Syntactic","SV","verb;noun","verb",1,1739900101513,"verb",514,"noun","B","",6.24222326545517,90
"91","55a2fa33fdf99b073cd94947","admire","test_syn","abstract-positive","Verb","Syntactic","SV","verb;noun","verb",1,1739900102912,"verb",640,"noun","B","",6.46146817635372,91
"92","55a2fa33fdf99b073cd94947","terror","test_syn","abstract-negative","Nouns","Syntactic","SV","verb;noun","noun",1,1739900104263,"noun",594,"noun","B","",6.38687931936265,92
"93","55a2fa33fdf99b073cd94947","chocolate","test_syn","concrete-positive","Nouns","Syntactic","SV","verb;noun","noun",1,1739900105574,"noun",549,"noun","B","",6.30809844150953,93
"94","55a2fa33fdf99b073cd94947","imagine","test_syn","abstract-positive","Verb","Syntactic","SV","verb;noun","noun",0,1739900107387,"noun",1052,"noun","B","",6.95844839329766,94
"95","55a2fa33fdf99b073cd94947","glisten","test_syn","concrete-positive","Verb","Syntactic","SV","verb;noun","verb",1,1739900108987,"verb",842,"noun","B","",6.73578001424233,95
"96","55a2fa33fdf99b073cd94947","garbage","test_syn","concrete-negative","Nouns","Syntactic","SV","verb;noun","noun",1,1739900110549,"noun",801,"noun","B","",6.68586094706836,96
"97","55a2fa33fdf99b073cd94947","stab","test_syn","concrete-negative","Verb","Syntactic","SV","verb;noun","verb",1,1739900112475,"verb",1168,"noun","B","",7.06304816338817,97
"98","55a2fa33fdf99b073cd94947","grief","test_syn","abstract-negative","Nouns","Syntactic","SV","verb;noun","noun",1,1739900113961,"noun",723,"noun","B","",6.58340922215876,98
"99","55a2fa33fdf99b073cd94947","inspiration","test_syn","abstract-positive","Nouns","Syntactic","SV","verb;noun","noun",1,1739900115611,"noun",895,"noun","B","",6.79682371827486,99
"100","55a2fa33fdf99b073cd94947","slave","test_syn","concrete-negative","Nouns","Syntactic","SV","verb;noun","verb",0,1739900117487,"verb",1117,"noun","B","",7.0184017990692,100
"101","55a2fa33fdf99b073cd94947","bleed","test_syn","concrete-negative","Verb","Syntactic","SV","verb;noun","verb",1,1739900119425,"verb",1179,"noun","B","",7.07242190053737,101
"102","55a2fa33fdf99b073cd94947","breathe","test_syn","concrete-positive","Verb","Syntactic","SV","verb;noun","verb",1,1739900120837,"verb",650,"noun","B","",6.47697236288968,102
"103","55a2fa33fdf99b073cd94947","criticize","test_syn","abstract-negative","Verb","Syntactic","SV","verb;noun","verb",1,1739900122462,"verb",861,"noun","B","",6.75809450442773,103
"104","55a2fa33fdf99b073cd94947","running","test_syn","concrete-positive","Verb","Syntactic","SV","verb;noun","verb",1,1739900124212,"verb",989,"noun","B","",6.89669433162271,104
"105","55a2fa33fdf99b073cd94947","cherish","test_syn","abstract-positive","Verb","Syntactic","SV","verb;noun","verb",1,1739900126025,"verb",1053,"noun","B","",6.95939851213398,105
"106","55a2fa33fdf99b073cd94947","resent","test_syn","abstract-negative","Verb","Syntactic","SV","verb;noun","verb",1,1739900127837,"verb",1053,"noun","B","",6.95939851213398,106
"107","55a2fa33fdf99b073cd94947","failure","test_syn","abstract-negative","Nouns","Syntactic","SV","verb;noun","noun",1,1739900129337,"noun",740,"noun","B","",6.60665018619822,107
"108","55a2fa33fdf99b073cd94947","writhe","test_syn","concrete-negative","Verb","Syntactic","SV","verb;noun","verb",1,1739900130775,"verb",679,"noun","B","",6.5206211275587,108
"109","55a2fa33fdf99b073cd94947","kindness","test_syn","abstract-positive","Nouns","Syntactic","SV","verb;noun","noun",1,1739900132284,"noun",752,"noun","B","",6.62273632394984,109
"110","55a2fa33fdf99b073cd94947","enlighten","test_syn","abstract-positive","Verb","Syntactic","SV","verb;noun","verb",1,1739900134672,"verb",1633,"noun","B","",7.39817409297047,110
"111","55a2fa33fdf99b073cd94947","choke","test_syn","concrete-negative","Verb","Syntactic","SV","verb;noun","verb",1,1739900136075,"verb",643,"noun","B","",6.46614472423762,111
"112","55a2fa33fdf99b073cd94947","compassion","test_syn","abstract-positive","Nouns","Syntactic","SV","verb;noun","noun",1,1739900137608,"noun",771,"noun","B","",6.64768837356333,112
"113","55a2fa33fdf99b073cd94947","hatred","test_syn","abstract-negative","Nouns","Syntactic","SV","verb;noun","verb",0,1739900139499,"verb",1135,"noun","B","",7.0343879299155,113
"114","55a2fa33fdf99b073cd94947","eat","test_syn","concrete-positive","Verb","Syntactic","SV","verb;noun","verb",1,1739900142861,"verb",2604,"noun","B","",7.86480400332846,114
"115","55a2fa33fdf99b073cd94947","exploit","test_syn","abstract-negative","Verb","Syntactic","SV","verb;noun","verb",1,1739900144387,"verb",766,"noun","B","",6.64118216974059,115
"116","55a2fa33fdf99b073cd94947","anxiety","test_syn","abstract-negative","Nouns","Syntactic","SV","verb;noun","noun",1,1739900146062,"noun",912,"noun","B","",6.81563999007433,116
"117","55a2fa33fdf99b073cd94947","fester","test_syn","concrete-negative","Verb","Syntactic","SV","verb;noun","verb",1,1739900147587,"verb",765,"noun","B","",6.63987583382654,117
"118","55a2fa33fdf99b073cd94947","mud","test_syn","concrete-negative","Nouns","Syntactic","SV","verb;noun","noun",1,1739900149099,"noun",754,"noun","B","",6.62539236800796,118
"119","55a2fa33fdf99b073cd94947","fireplace","test_syn","concrete-positive","Nouns","Syntactic","SV","verb;noun","noun",1,1739900151174,"noun",1315,"noun","B","",7.18159194461187,119
"120","55a2fa33fdf99b073cd94947","fulfill","test_syn","abstract-positive","Verb","Syntactic","SV","verb;noun","verb",1,1739900152758,"verb",824,"noun","B","",6.71417052990947,120
"121","55a2fa33fdf99b073cd94947","breathe","test_val","concrete-positive","Verb","Valence","SV","negative;positive","positive",1,1739900248525,"positive",1483,"positive","B","",7.30182234213793,121
"122","55a2fa33fdf99b073cd94947","compassion","test_val","abstract-positive","Nouns","Valence","SV","negative;positive","positive",1,1739900249872,"positive",588,"positive","B","",6.37672694789863,122
"123","55a2fa33fdf99b073cd94947","flowers","test_val","concrete-positive","Nouns","Valence","SV","negative;positive","positive",1,1739900251135,"positive",507,"positive","B","",6.22851100359118,123
"124","55a2fa33fdf99b073cd94947","bleed","test_val","concrete-negative","Verb","Valence","SV","negative;positive","negative",1,1739900252322,"negative",433,"positive","B","",6.07073772800249,124
"125","55a2fa33fdf99b073cd94947","beach","test_val","concrete-positive","Nouns","Valence","SV","negative;positive","positive",1,1739900253697,"positive",621,"positive","B","",6.43133108193348,125
"126","55a2fa33fdf99b073cd94947","exploit","test_val","abstract-negative","Verb","Valence","SV","negative;positive","negative",1,1739900255186,"negative",727,"positive","B","",6.58892647753352,126
"127","55a2fa33fdf99b073cd94947","fester","test_val","concrete-negative","Verb","Valence","SV","negative;positive","negative",1,1739900256636,"negative",691,"positive","B","",6.53813982376767,127
"128","55a2fa33fdf99b073cd94947","befall","test_val","abstract-negative","Verb","Valence","SV","negative;positive","negative",1,1739900258073,"negative",678,"positive","B","",6.5191472879404,128
"129","55a2fa33fdf99b073cd94947","fireplace","test_val","concrete-positive","Nouns","Valence","SV","negative;positive","positive",1,1739900259410,"positive",578,"positive","B","",6.35957386867238,129
"130","55a2fa33fdf99b073cd94947","enlighten","test_val","abstract-positive","Verb","Valence","SV","negative;positive","positive",1,1739900260736,"positive",567,"positive","B","",6.34035930372775,130
"131","55a2fa33fdf99b073cd94947","cherish","test_val","abstract-positive","Verb","Valence","SV","negative;positive","positive",1,1739900262086,"positive",590,"positive","B","",6.38012253689976,131
"132","55a2fa33fdf99b073cd94947","glide","test_val","concrete-positive","Verb","Valence","SV","negative;positive","positive",1,1739900263786,"positive",943,"positive","B","",6.84906628263346,132
"133","55a2fa33fdf99b073cd94947","mud","test_val","concrete-negative","Nouns","Valence","SV","negative;positive","negative",1,1739900265449,"negative",904,"positive","B","",6.80682936039218,133
"134","55a2fa33fdf99b073cd94947","failure","test_val","abstract-negative","Nouns","Valence","SV","negative;positive","negative",1,1739900266785,"negative",577,"positive","B","",6.3578422665081,134
"135","55a2fa33fdf99b073cd94947","obsess","test_val","abstract-negative","Verb","Valence","SV","negative;positive","negative",1,1739900268262,"negative",716,"positive","B","",6.57368016696065,135
"136","55a2fa33fdf99b073cd94947","home","test_val","concrete-positive","Nouns","Valence","SV","negative;positive","positive",1,1739900269637,"positive",614,"positive","B","",6.41999492814714,136
"137","55a2fa33fdf99b073cd94947","resent","test_val","abstract-negative","Verb","Valence","SV","negative;positive","negative",1,1739900271061,"negative",663,"positive","B","",6.49677499018586,137
"138","55a2fa33fdf99b073cd94947","kindness","test_val","abstract-positive","Nouns","Valence","SV","negative;positive","positive",1,1739900272461,"positive",642,"positive","B","",6.46458830368996,138
"139","55a2fa33fdf99b073cd94947","terror","test_val","abstract-negative","Nouns","Valence","SV","negative;positive","negative",1,1739900273949,"negative",729,"positive","B","",6.59167373200866,139
"140","55a2fa33fdf99b073cd94947","choke","test_val","concrete-negative","Verb","Valence","SV","negative;positive","negative",1,1739900275310,"negative",598,"positive","B","",6.39359075395063,140
"141","55a2fa33fdf99b073cd94947","criticize","test_val","abstract-negative","Verb","Valence","SV","negative;positive","negative",1,1739900276673,"negative",603,"positive","B","",6.40191719672719,141
"142","55a2fa33fdf99b073cd94947","grief","test_val","abstract-negative","Nouns","Valence","SV","negative;positive","negative",1,1739900277923,"negative",493,"positive","B","",6.20050917404269,142
"143","55a2fa33fdf99b073cd94947","anxiety","test_val","abstract-negative","Nouns","Valence","SV","negative;positive","negative",1,1739900279271,"negative",591,"positive","B","",6.3818160174061,143
"144","55a2fa33fdf99b073cd94947","toxin","test_val","concrete-negative","Nouns","Valence","SV","negative;positive","negative",1,1739900280609,"negative",581,"positive","B","",6.36475075685191,144
"145","55a2fa33fdf99b073cd94947","running","test_val","concrete-positive","Verb","Valence","SV","negative;positive","positive",1,1739900282234,"positive",867,"positive","B","",6.76503897678054,145
"146","55a2fa33fdf99b073cd94947","chocolate","test_val","concrete-positive","Nouns","Valence","SV","negative;positive","positive",1,1739900283587,"positive",596,"positive","B","",6.39024066706535,146
"147","55a2fa33fdf99b073cd94947","admire","test_val","abstract-positive","Verb","Valence","SV","negative;positive","positive",1,1739900284887,"positive",541,"positive","B","",6.29341927884648,147
"148","55a2fa33fdf99b073cd94947","imagine","test_val","abstract-positive","Verb","Valence","SV","negative;positive","positive",1,1739900286149,"positive",499,"positive","B","",6.21260609575152,148
"149","55a2fa33fdf99b073cd94947","glisten","test_val","concrete-positive","Verb","Valence","SV","negative;positive","positive",1,1739900287422,"positive",515,"positive","B","",6.24416690066374,149
"150","55a2fa33fdf99b073cd94947","fulfill","test_val","abstract-positive","Verb","Valence","SV","negative;positive","positive",1,1739900288712,"positive",535,"positive","B","",6.28226674689601,150
"151","55a2fa33fdf99b073cd94947","inspiration","test_val","abstract-positive","Nouns","Valence","SV","negative;positive","positive",1,1739900290073,"positive",604,"positive","B","",6.40357419793482,151
"152","55a2fa33fdf99b073cd94947","slave","test_val","concrete-negative","Nouns","Valence","SV","negative;positive","negative",1,1739900291422,"negative",588,"positive","B","",6.37672694789863,152
"153","55a2fa33fdf99b073cd94947","writhe","test_val","concrete-negative","Verb","Valence","SV","negative;positive","negative",1,1739900292822,"negative",640,"positive","B","",6.46146817635372,153
"154","55a2fa33fdf99b073cd94947","gratitude","test_val","abstract-positive","Nouns","Valence","SV","negative;positive","positive",1,1739900294172,"positive",593,"positive","B","",6.38519439899773,154
"155","55a2fa33fdf99b073cd94947","stab","test_val","concrete-negative","Verb","Valence","SV","negative;positive","negative",1,1739900295571,"negative",641,"positive","B","",6.46302945692067,155
"156","55a2fa33fdf99b073cd94947","garbage","test_val","concrete-negative","Nouns","Valence","SV","negative;positive","positive",0,1739900296987,"positive",657,"positive","B","",6.48768401848461,156
"157","55a2fa33fdf99b073cd94947","hatred","test_val","abstract-negative","Nouns","Valence","SV","negative;positive","negative",1,1739900298637,"negative",888,"positive","B","",6.78897174299217,157
"158","55a2fa33fdf99b073cd94947","eat","test_val","concrete-positive","Verb","Valence","SV","negative;positive","positive",1,1739900300337,"positive",940,"positive","B","",6.84587987526405,158
"159","55a2fa33fdf99b073cd94947","corpse","test_val","concrete-negative","Nouns","Valence","SV","negative;positive","negative",1,1739900301699,"negative",605,"positive","B","",6.40522845803084,159
"160","55a2fa33fdf99b073cd94947","freedom","test_val","abstract-positive","Nouns","Valence","SV","negative;positive","positive",1,1739900303024,"positive",567,"positive","B","",6.34035930372775,160
"161","55a2fa33fdf99b073cd94947","hatred","test_val","abstract-negative","Nouns","Valence","SV","negative;positive","negative",1,1739900304399,"negative",619,"positive","B","",6.4281052726846,161
"162","55a2fa33fdf99b073cd94947","criticize","test_val","abstract-negative","Verb","Valence","SV","negative;positive","negative",1,1739900305937,"negative",776,"positive","B","",6.65415252018322,162
"163","55a2fa33fdf99b073cd94947","exploit","test_val","abstract-negative","Verb","Valence","SV","negative;positive","negative",1,1739900307224,"negative",529,"positive","B","",6.2709884318583,163
"164","55a2fa33fdf99b073cd94947","imagine","test_val","abstract-positive","Verb","Valence","SV","negative;positive","positive",1,1739900308586,"positive",602,"positive","B","",6.40025744530882,164
"165","55a2fa33fdf99b073cd94947","fireplace","test_val","concrete-positive","Nouns","Valence","SV","negative;positive","positive",1,1739900309987,"positive",640,"positive","B","",6.46146817635372,165
"166","55a2fa33fdf99b073cd94947","compassion","test_val","abstract-positive","Nouns","Valence","SV","negative;positive","positive",1,1739900311337,"positive",590,"positive","B","",6.38012253689976,166
"167","55a2fa33fdf99b073cd94947","glide","test_val","concrete-positive","Verb","Valence","SV","negative;positive","positive",1,1739900313025,"positive",931,"positive","B","",6.83625927727707,167
"168","55a2fa33fdf99b073cd94947","corpse","test_val","concrete-negative","Nouns","Valence","SV","negative;positive","negative",1,1739900314448,"negative",660,"positive","B","",6.49223983502047,168
"169","55a2fa33fdf99b073cd94947","anxiety","test_val","abstract-negative","Nouns","Valence","SV","negative;positive","negative",1,1739900315799,"negative",589,"positive","B","",6.37842618365159,169
"170","55a2fa33fdf99b073cd94947","enlighten","test_val","abstract-positive","Verb","Valence","SV","negative;positive","positive",1,1739900317161,"positive",602,"positive","B","",6.40025744530882,170
"171","55a2fa33fdf99b073cd94947","resent","test_val","abstract-negative","Verb","Valence","SV","negative;positive","negative",1,1739900318523,"negative",601,"positive","B","",6.39859493453521,171
"172","55a2fa33fdf99b073cd94947","choke","test_val","concrete-negative","Verb","Valence","SV","negative;positive","negative",1,1739900319799,"negative",516,"positive","B","",6.24610676548156,172
"173","55a2fa33fdf99b073cd94947","toxin","test_val","concrete-negative","Nouns","Valence","SV","negative;positive","negative",1,1739900321074,"negative",516,"positive","B","",6.24610676548156,173
"174","55a2fa33fdf99b073cd94947","glisten","test_val","concrete-positive","Verb","Valence","SV","negative;positive","negative",0,1739900322312,"negative",480,"positive","B","",6.17378610390194,174
"175","55a2fa33fdf99b073cd94947","running","test_val","concrete-positive","Verb","Valence","SV","negative;positive","positive",1,1739900323774,"positive",703,"positive","B","",6.55535689181067,175
"176","55a2fa33fdf99b073cd94947","freedom","test_val","abstract-positive","Nouns","Valence","SV","negative;positive","positive",1,1739900325574,"positive",1042,"positive","B","",6.94889722231331,176
"177","55a2fa33fdf99b073cd94947","flowers","test_val","concrete-positive","Nouns","Valence","SV","negative;positive","positive",1,1739900326874,"positive",542,"positive","B","",6.29526600143965,177
"178","55a2fa33fdf99b073cd94947","garbage","test_val","concrete-negative","Nouns","Valence","SV","negative;positive","negative",1,1739900328223,"negative",592,"positive","B","",6.38350663488401,178
"179","55a2fa33fdf99b073cd94947","gratitude","test_val","abstract-positive","Nouns","Valence","SV","negative;positive","positive",1,1739900329761,"positive",781,"positive","B","",6.66057514983969,179
"180","55a2fa33fdf99b073cd94947","inspiration","test_val","abstract-positive","Nouns","Valence","SV","negative;positive","positive",1,1739900331087,"positive",568,"positive","B","",6.34212141872115,180
"181","55a2fa33fdf99b073cd94947","kindness","test_val","abstract-positive","Nouns","Valence","SV","negative;positive","positive",1,1739900332411,"positive",562,"positive","B","",6.33150184989369,181
"182","55a2fa33fdf99b073cd94947","terror","test_val","abstract-negative","Nouns","Valence","SV","negative;positive","negative",1,1739900333924,"negative",753,"positive","B","",6.62406522779989,182
"183","55a2fa33fdf99b073cd94947","chocolate","test_val","concrete-positive","Nouns","Valence","SV","negative;positive","positive",1,1739900335387,"positive",705,"positive","B","",6.55819780281227,183
"184","55a2fa33fdf99b073cd94947","grief","test_val","abstract-negative","Nouns","Valence","SV","negative;positive","negative",1,1739900337074,"negative",926,"positive","B","",6.83087423464618,184
"185","55a2fa33fdf99b073cd94947","mud","test_val","concrete-negative","Nouns","Valence","SV","negative;positive","negative",1,1739900338549,"negative",713,"positive","B","",6.5694814204143,185
"186","55a2fa33fdf99b073cd94947","admire","test_val","abstract-positive","Verb","Valence","SV","negative;positive","positive",1,1739900339911,"positive",603,"positive","B","",6.40191719672719,186
"187","55a2fa33fdf99b073cd94947","slave","test_val","concrete-negative","Nouns","Valence","SV","negative;positive","negative",1,1739900341549,"negative",880,"positive","B","",6.77992190747225,187
"188","55a2fa33fdf99b073cd94947","failure","test_val","abstract-negative","Nouns","Valence","SV","negative;positive","negative",1,1739900342899,"negative",593,"positive","B","",6.38519439899773,188
"189","55a2fa33fdf99b073cd94947","writhe","test_val","concrete-negative","Verb","Valence","SV","negative;positive","negative",1,1739900344311,"negative",651,"positive","B","",6.47850964220857,189
"190","55a2fa33fdf99b073cd94947","home","test_val","concrete-positive","Nouns","Valence","SV","negative;positive","positive",1,1739900345736,"positive",668,"positive","B","",6.50428817353665,190
"191","55a2fa33fdf99b073cd94947","stab","test_val","concrete-negative","Verb","Valence","SV","negative;positive","negative",1,1739900347074,"negative",577,"positive","B","",6.3578422665081,191
"192","55a2fa33fdf99b073cd94947","obsess","test_val","abstract-negative","Verb","Valence","SV","negative;positive","negative",1,1739900348587,"negative",752,"positive","B","",6.62273632394984,192
"193","55a2fa33fdf99b073cd94947","fester","test_val","concrete-negative","Verb","Valence","SV","negative;positive","negative",1,1739900349886,"negative",540,"positive","B","",6.29156913955832,193
"194","55a2fa33fdf99b073cd94947","breathe","test_val","concrete-positive","Verb","Valence","SV","negative;positive","positive",1,1739900351236,"positive",589,"positive","B","",6.37842618365159,194
"195","55a2fa33fdf99b073cd94947","beach","test_val","concrete-positive","Nouns","Valence","SV","negative;positive","positive",1,1739900352636,"positive",638,"positive","B","",6.45833828334479,195
"196","55a2fa33fdf99b073cd94947","eat","test_val","concrete-positive","Verb","Valence","SV","negative;positive","positive",1,1739900354049,"positive",651,"positive","B","",6.47850964220857,196
"197","55a2fa33fdf99b073cd94947","cherish","test_val","abstract-positive","Verb","Valence","SV","negative;positive","positive",1,1739900355336,"positive",526,"positive","B","",6.26530121273771,197
"198","55a2fa33fdf99b073cd94947","fulfill","test_val","abstract-positive","Verb","Valence","SV","negative;positive","positive",1,1739900357037,"positive",941,"positive","B","",6.84694313958538,198
"199","55a2fa33fdf99b073cd94947","bleed","test_val","concrete-negative","Verb","Valence","SV","negative;positive","negative",1,1739900358323,"negative",526,"positive","B","",6.26530121273771,199
"200","55a2fa33fdf99b073cd94947","befall","test_val","abstract-negative","Verb","Valence","SV","negative;positive","negative",1,1739900359698,"negative",615,"positive","B","",6.42162226780652,200
"201","55a2fa33fdf99b073cd94947","choke","test_val","concrete-negative","Verb","Valence","SV","negative;positive","negative",1,1739900360937,"negative",483,"positive","B","",6.18001665365257,201
"202","55a2fa33fdf99b073cd94947","imagine","test_val","abstract-positive","Verb","Valence","SV","negative;positive","positive",1,1739900362324,"positive",628,"positive","B","",6.4425401664682,202
"203","55a2fa33fdf99b073cd94947","slave","test_val","concrete-negative","Nouns","Valence","SV","negative;positive","negative",1,1739900363673,"negative",590,"positive","B","",6.38012253689976,203
"204","55a2fa33fdf99b073cd94947","befall","test_val","abstract-negative","Verb","Valence","SV","negative;positive","negative",1,1739900364999,"negative",566,"positive","B","",6.33859407820318,204
"205","55a2fa33fdf99b073cd94947","hatred","test_val","abstract-negative","Nouns","Valence","SV","negative;positive","negative",1,1739900366348,"negative",589,"positive","B","",6.37842618365159,205
"206","55a2fa33fdf99b073cd94947","freedom","test_val","abstract-positive","Nouns","Valence","SV","negative;positive","positive",1,1739900367624,"positive",516,"positive","B","",6.24610676548156,206
"207","55a2fa33fdf99b073cd94947","bleed","test_val","concrete-negative","Verb","Valence","SV","negative;positive","negative",1,1739900369023,"negative",643,"positive","B","",6.46614472423762,207
"208","55a2fa33fdf99b073cd94947","fireplace","test_val","concrete-positive","Nouns","Valence","SV","negative;positive","positive",1,1739900370411,"positive",633,"positive","B","",6.45047042214418,208
"209","55a2fa33fdf99b073cd94947","breathe","test_val","concrete-positive","Verb","Valence","SV","negative;positive","positive",1,1739900371774,"positive",602,"positive","B","",6.40025744530882,209
"210","55a2fa33fdf99b073cd94947","kindness","test_val","abstract-positive","Nouns","Valence","SV","negative;positive","positive",1,1739900373095,"positive",562,"positive","B","",6.33150184989369,210
"211","55a2fa33fdf99b073cd94947","eat","test_val","concrete-positive","Verb","Valence","SV","negative;positive","positive",1,1739900374448,"positive",593,"positive","B","",6.38519439899773,211
"212","55a2fa33fdf99b073cd94947","terror","test_val","abstract-negative","Nouns","Valence","SV","negative;positive","negative",1,1739900375699,"negative",493,"positive","B","",6.20050917404269,212
"213","55a2fa33fdf99b073cd94947","garbage","test_val","concrete-negative","Nouns","Valence","SV","negative;positive","negative",1,1739900376899,"negative",440,"positive","B","",6.08677472691231,213
"214","55a2fa33fdf99b073cd94947","stab","test_val","concrete-negative","Verb","Valence","SV","negative;positive","negative",1,1739900378224,"negative",564,"positive","B","",6.33505425149806,214
"215","55a2fa33fdf99b073cd94947","admire","test_val","abstract-positive","Verb","Valence","SV","negative;positive","positive",1,1739900379623,"positive",646,"positive","B","",6.4707995037826,215
"216","55a2fa33fdf99b073cd94947","failure","test_val","abstract-negative","Nouns","Valence","SV","negative;positive","negative",1,1739900380999,"negative",613,"positive","B","",6.41836493593621,216
"217","55a2fa33fdf99b073cd94947","resent","test_val","abstract-negative","Verb","Valence","SV","negative;positive","negative",1,1739900382324,"negative",562,"positive","B","",6.33150184989369,217
"218","55a2fa33fdf99b073cd94947","compassion","test_val","abstract-positive","Nouns","Valence","SV","negative;positive","negative",0,1739900383611,"negative",528,"positive","B","",6.26909628370626,218
"219","55a2fa33fdf99b073cd94947","fester","test_val","concrete-negative","Verb","Valence","SV","negative;positive","negative",1,1739900385187,"negative",818,"positive","B","",6.70686233660275,219
"220","55a2fa33fdf99b073cd94947","glisten","test_val","concrete-positive","Verb","Valence","SV","negative;positive","positive",1,1739900386649,"positive",707,"positive","B","",6.56103066589657,220
"221","55a2fa33fdf99b073cd94947","exploit","test_val","abstract-negative","Verb","Valence","SV","negative;positive","negative",1,1739900388049,"negative",641,"positive","B","",6.46302945692067,221
"222","55a2fa33fdf99b073cd94947","anxiety","test_val","abstract-negative","Nouns","Valence","SV","negative;positive","negative",1,1739900389936,"negative",1130,"positive","B","",7.02997291170639,222
"223","55a2fa33fdf99b073cd94947","writhe","test_val","concrete-negative","Verb","Valence","SV","negative;positive","negative",1,1739900391296,"negative",601,"positive","B","",6.39859493453521,223
"224","55a2fa33fdf99b073cd94947","obsess","test_val","abstract-negative","Verb","Valence","SV","negative;positive","negative",1,1739900392623,"negative",568,"positive","B","",6.34212141872115,224
"225","55a2fa33fdf99b073cd94947","home","test_val","concrete-positive","Nouns","Valence","SV","negative;positive","positive",1,1739900393986,"positive",604,"positive","B","",6.40357419793482,225
"226","55a2fa33fdf99b073cd94947","gratitude","test_val","abstract-positive","Nouns","Valence","SV","negative;positive","positive",1,1739900395411,"positive",667,"positive","B","",6.50279004591562,226
"227","55a2fa33fdf99b073cd94947","glide","test_val","concrete-positive","Verb","Valence","SV","negative;positive","positive",1,1739900396962,"positive",795,"positive","B","",6.67834211465433,227
"228","55a2fa33fdf99b073cd94947","mud","test_val","concrete-negative","Nouns","Valence","SV","negative;positive","negative",1,1739900398311,"negative",591,"positive","B","",6.3818160174061,228
"229","55a2fa33fdf99b073cd94947","inspiration","test_val","abstract-positive","Nouns","Valence","SV","negative;positive","positive",1,1739900399662,"positive",593,"positive","B","",6.38519439899773,229
"230","55a2fa33fdf99b073cd94947","flowers","test_val","concrete-positive","Nouns","Valence","SV","negative;positive","positive",1,1739900400961,"positive",540,"positive","B","",6.29156913955832,230
"231","55a2fa33fdf99b073cd94947","corpse","test_val","concrete-negative","Nouns","Valence","SV","negative;positive","negative",1,1739900402324,"negative",604,"positive","B","",6.40357419793482,231
"232","55a2fa33fdf99b073cd94947","cherish","test_val","abstract-positive","Verb","Valence","SV","negative;positive","positive",1,1739900403975,"positive",890,"positive","B","",6.79122146272619,232
"233","55a2fa33fdf99b073cd94947","chocolate","test_val","concrete-positive","Nouns","Valence","SV","negative;positive","positive",1,1739900405361,"positive",624,"positive","B","",6.43615036836943,233
"234","55a2fa33fdf99b073cd94947","enlighten","test_val","abstract-positive","Verb","Valence","SV","negative;positive","positive",1,1739900406787,"positive",666,"positive","B","",6.50128967054039,234
"235","55a2fa33fdf99b073cd94947","grief","test_val","abstract-negative","Nouns","Valence","SV","negative;positive","negative",1,1739900408249,"negative",705,"positive","B","",6.55819780281227,235
"236","55a2fa33fdf99b073cd94947","criticize","test_val","abstract-negative","Verb","Valence","SV","negative;positive","negative",1,1739900409573,"negative",568,"positive","B","",6.34212141872115,236
"237","55a2fa33fdf99b073cd94947","running","test_val","concrete-positive","Verb","Valence","SV","negative;positive","positive",1,1739900410911,"positive",577,"positive","B","",6.3578422665081,237
"238","55a2fa33fdf99b073cd94947","beach","test_val","concrete-positive","Nouns","Valence","SV","negative;positive","positive",1,1739900412199,"positive",528,"positive","B","",6.26909628370626,238
"239","55a2fa33fdf99b073cd94947","fulfill","test_val","abstract-positive","Verb","Valence","SV","negative;positive","positive",1,1739900413487,"positive",530,"positive","B","",6.27287700654617,239
"240","55a2fa33fdf99b073cd94947","toxin","test_val","concrete-negative","Nouns","Valence","SV","negative;positive","negative",1,1739900414886,"negative",641,"positive","B","",6.46302945692067,240
"241","5df2f36b617219204de98060","criticize","test_syn","abstract-negative","Verb","Syntactic","SV","noun;verb","verb",1,1739899963015,"verb",1019,"verb","A","",6.92657703322272,1
"242","5df2f36b617219204de98060","exploit","test_syn","abstract-negative","Verb","Syntactic","SV","noun;verb","verb",1,1739899964630,"verb",859,"verb","A","",6.75576892198425,2
"243","5df2f36b617219204de98060","breathe","test_syn","concrete-positive","Verb","Syntactic","SV","noun;verb","verb",1,1739899966543,"verb",1155,"verb","A","",7.05185562295589,3
"244","5df2f36b617219204de98060","choke","test_syn","concrete-negative","Verb","Syntactic","SV","noun;verb","verb",1,1739899968472,"verb",1173,"verb","A","",7.06731984865348,4
"245","5df2f36b617219204de98060","failure","test_syn","abstract-negative","Nouns","Syntactic","SV","noun;verb","verb",0,1739899971648,"verb",2419,"verb","A","",7.79110951061003,5
"246","5df2f36b617219204de98060","hatred","test_syn","abstract-negative","Nouns","Syntactic","SV","noun;verb","verb",0,1739899973231,"verb",827,"verb","A","",6.71780469502369,6
"247","5df2f36b617219204de98060","imagine","test_syn","abstract-positive","Verb","Syntactic","SV","noun;verb","verb",1,1739899975280,"verb",1293,"verb","A","",7.16472037877186,7
"248","5df2f36b617219204de98060","kindness","test_syn","abstract-positive","Nouns","Syntactic","SV","noun;verb","verb",0,1739899977568,"verb",1531,"verb","A","",7.33367639565768,8
"249","5df2f36b617219204de98060","enlighten","test_syn","abstract-positive","Verb","Syntactic","SV","noun;verb","verb",1,1739899979575,"verb",1249,"verb","A","",7.13009851012558,9
"250","5df2f36b617219204de98060","flowers","test_syn","concrete-positive","Nouns","Syntactic","SV","noun;verb","noun",1,1739899981104,"noun",768,"verb","A","",6.64378973314767,10
"251","5df2f36b617219204de98060","mud","test_syn","concrete-negative","Nouns","Syntactic","SV","noun;verb","noun",1,1739899982543,"noun",682,"verb","A","",6.52502965784346,11
"252","5df2f36b617219204de98060","running","test_syn","concrete-positive","Verb","Syntactic","SV","noun;verb","verb",1,1739899984751,"verb",1456,"verb","A","",7.28344822875663,12
"253","5df2f36b617219204de98060","resent","test_syn","abstract-negative","Verb","Syntactic","SV","noun;verb","verb",1,1739899987600,"verb",2092,"verb","A","",7.64587582518481,13
"254","5df2f36b617219204de98060","home","test_syn","concrete-positive","Nouns","Syntactic","SV","noun;verb","noun",1,1739899989416,"noun",1065,"verb","A","",6.97073007814353,14
"255","5df2f36b617219204de98060","compassion","test_syn","abstract-positive","Nouns","Syntactic","SV","noun;verb","verb",0,1739899991871,"verb",1696,"verb","A","",7.43602781635185,15
"256","5df2f36b617219204de98060","stab","test_syn","concrete-negative","Verb","Syntactic","SV","noun;verb","verb",1,1739899993600,"verb",973,"verb","A","",6.880384082186,16
"257","5df2f36b617219204de98060","writhe","test_syn","concrete-negative","Verb","Syntactic","SV","noun;verb","verb",1,1739899996231,"verb",1872,"verb","A","",7.53476265703754,17
"258","5df2f36b617219204de98060","admire","test_syn","abstract-positive","Verb","Syntactic","SV","noun;verb","verb",1,1739899997793,"verb",803,"verb","A","",6.68835471394676,18
"259","5df2f36b617219204de98060","inspiration","test_syn","abstract-positive","Nouns","Syntactic","SV","noun;verb","verb",0,1739899999857,"verb",1307,"verb","A","",7.17548971362422,19
"260","5df2f36b617219204de98060","chocolate","test_syn","concrete-positive","Nouns","Syntactic","SV","noun;verb","noun",1,1739900001288,"noun",671,"verb","A","",6.50876913697168,20
"261","5df2f36b617219204de98060","cherish","test_syn","abstract-positive","Verb","Syntactic","SV","noun;verb","verb",1,1739900003144,"verb",1102,"verb","A","",7.00488198971286,21
"262","5df2f36b617219204de98060","grief","test_syn","abstract-negative","Nouns","Syntactic","SV","noun;verb","verb",0,1739900005104,"verb",1205,"verb","A","",7.09423484592476,22
"263","5df2f36b617219204de98060","anxiety","test_syn","abstract-negative","Nouns","Syntactic","SV","noun;verb","verb",0,1739900006953,"verb",1092,"verb","A","",6.99576615630485,23
"264","5df2f36b617219204de98060","gratitude","test_syn","abstract-positive","Nouns","Syntactic","SV","noun;verb","verb",0,1739900008776,"verb",1068,"verb","A","",6.97354301952014,24
"265","5df2f36b617219204de98060","eat","test_syn","concrete-positive","Verb","Syntactic","SV","noun;verb","verb",1,1739900010584,"verb",1054,"verb","A","",6.96034772910131,25
"266","5df2f36b617219204de98060","befall","test_syn","abstract-negative","Verb","Syntactic","SV","noun;verb","noun",0,1739900012929,"noun",1590,"verb","A","",7.37148929521428,26
"267","5df2f36b617219204de98060","terror","test_syn","abstract-negative","Nouns","Syntactic","SV","noun;verb","verb",0,1739900015056,"verb",1373,"verb","A","",7.22475340576797,27
"268","5df2f36b617219204de98060","fulfill","test_syn","abstract-positive","Verb","Syntactic","SV","noun;verb","noun",0,1739900017096,"noun",1287,"verb","A","",7.16006920759613,28
"269","5df2f36b617219204de98060","beach","test_syn","concrete-positive","Nouns","Syntactic","SV","noun;verb","noun",1,1739900018528,"noun",678,"verb","A","",6.5191472879404,29
"270","5df2f36b617219204de98060","bleed","test_syn","concrete-negative","Verb","Syntactic","SV","noun;verb","verb",1,1739900020984,"verb",1695,"verb","A","",7.43543801981455,30
"271","5df2f36b617219204de98060","slave","test_syn","concrete-negative","Nouns","Syntactic","SV","noun;verb","noun",1,1739900024249,"noun",2506,"verb","A","",7.82644313545601,31
"272","5df2f36b617219204de98060","obsess","test_syn","abstract-negative","Verb","Syntactic","SV","noun;verb","noun",0,1739900026064,"noun",1059,"verb","A","",6.96508034560141,32
"273","5df2f36b617219204de98060","fester","test_syn","concrete-negative","Verb","Syntactic","SV","noun;verb","verb",1,1739900028937,"verb",2118,"verb","A","",7.65822752616135,33
"274","5df2f36b617219204de98060","toxin","test_syn","concrete-negative","Nouns","Syntactic","SV","noun;verb","noun",1,1739900031801,"noun",2109,"verb","A","",7.65396918047877,34
"275","5df2f36b617219204de98060","corpse","test_syn","concrete-negative","Nouns","Syntactic","SV","noun;verb","noun",1,1739900033409,"noun",854,"verb","A","",6.74993119378857,35
"276","5df2f36b617219204de98060","glisten","test_syn","concrete-positive","Verb","Syntactic","SV","noun;verb","noun",0,1739900035448,"noun",1285,"verb","A","",7.15851399732932,36
"277","5df2f36b617219204de98060","freedom","test_syn","abstract-positive","Nouns","Syntactic","SV","noun;verb","noun",1,1739900036864,"noun",659,"verb","A","",6.49072353450251,37
"278","5df2f36b617219204de98060","garbage","test_syn","concrete-negative","Nouns","Syntactic","SV","noun;verb","noun",1,1739900038393,"noun",773,"verb","A","",6.65027904858742,38
"279","5df2f36b617219204de98060","fireplace","test_syn","concrete-positive","Nouns","Syntactic","SV","noun;verb","noun",1,1739900040754,"noun",1603,"verb","A","",7.37963215260955,39
"280","5df2f36b617219204de98060","glide","test_syn","concrete-positive","Verb","Syntactic","SV","noun;verb","verb",1,1739900042610,"verb",1100,"verb","A","",7.00306545878646,40
"281","5df2f36b617219204de98060","flowers","test_syn","concrete-positive","Nouns","Syntactic","SV","noun;verb","noun",1,1739900044025,"noun",658,"verb","A","",6.48920493132532,41
"282","5df2f36b617219204de98060","toxin","test_syn","concrete-negative","Nouns","Syntactic","SV","noun;verb","noun",1,1739900045722,"noun",943,"verb","A","",6.84906628263346,42
"283","5df2f36b617219204de98060","mud","test_syn","concrete-negative","Nouns","Syntactic","SV","noun;verb","noun",1,1739900047050,"noun",571,"verb","A","",6.34738920965601,43
"284","5df2f36b617219204de98060","fester","test_syn","concrete-negative","Verb","Syntactic","SV","noun;verb","noun",0,1739900049120,"noun",1313,"verb","A","",7.1800698743028,44
"285","5df2f36b617219204de98060","beach","test_syn","concrete-positive","Nouns","Syntactic","SV","noun;verb","noun",1,1739900050474,"noun",599,"verb","A","",6.39526159811545,45
"286","5df2f36b617219204de98060","breathe","test_syn","concrete-positive","Verb","Syntactic","SV","noun;verb","verb",1,1739900052233,"verb",1002,"verb","A","",6.90975328164481,46
"287","5df2f36b617219204de98060","stab","test_syn","concrete-negative","Verb","Syntactic","SV","noun;verb","verb",1,1739900053562,"verb",573,"verb","A","",6.35088571671474,47
"288","5df2f36b617219204de98060","criticize","test_syn","abstract-negative","Verb","Syntactic","SV","noun;verb","verb",1,1739900055009,"verb",691,"verb","A","",6.53813982376767,48
"289","5df2f36b617219204de98060","gratitude","test_syn","abstract-positive","Nouns","Syntactic","SV","noun;verb","verb",0,1739900056602,"verb",840,"verb","A","",6.73340189183736,49
"290","5df2f36b617219204de98060","bleed","test_syn","concrete-negative","Verb","Syntactic","SV","noun;verb","verb",1,1739900060537,"verb",3177,"verb","A","",8.06369263426952,50
"291","5df2f36b617219204de98060","chocolate","test_syn","concrete-positive","Nouns","Syntactic","SV","noun;verb","noun",1,1739900062009,"noun",718,"verb","A","",6.57646956904822,51
"292","5df2f36b617219204de98060","choke","test_syn","concrete-negative","Verb","Syntactic","SV","noun;verb","verb",1,1739900063538,"verb",774,"verb","A","",6.65157187358973,52
"293","5df2f36b617219204de98060","writhe","test_syn","concrete-negative","Verb","Syntactic","SV","noun;verb","verb",1,1739900064969,"verb",676,"verb","A","",6.51619307604296,53
"294","5df2f36b617219204de98060","resent","test_syn","abstract-negative","Verb","Syntactic","SV","noun;verb","verb",1,1739900066962,"verb",1235,"verb","A","",7.11882624906208,54
"295","5df2f36b617219204de98060","grief","test_syn","abstract-negative","Nouns","Syntactic","SV","noun;verb","verb",0,1739900068337,"verb",620,"verb","A","",6.42971947803914,55
"296","5df2f36b617219204de98060","enlighten","test_syn","abstract-positive","Verb","Syntactic","SV","noun;verb","verb",1,1739900069826,"verb",733,"verb","A","",6.59714570188665,56
"297","5df2f36b617219204de98060","befall","test_syn","abstract-negative","Verb","Syntactic","SV","noun;verb","verb",1,1739900071826,"verb",1245,"verb","A","",7.12689080889881,57
"298","5df2f36b617219204de98060","compassion","test_syn","abstract-positive","Nouns","Syntactic","SV","noun;verb","verb",0,1739900073346,"verb",761,"verb","A","",6.63463335786169,58
"299","5df2f36b617219204de98060","fireplace","test_syn","concrete-positive","Nouns","Syntactic","SV","noun;verb","noun",1,1739900074882,"noun",781,"verb","A","",6.66057514983969,59
"300","5df2f36b617219204de98060","running","test_syn","concrete-positive","Verb","Syntactic","SV","noun;verb","verb",1,1739900076307,"verb",666,"verb","A","",6.50128967054039,60
"301","5df2f36b617219204de98060","cherish","test_syn","abstract-positive","Verb","Syntactic","SV","noun;verb","verb",1,1739900077859,"verb",794,"verb","A","",6.67708346124714,61
"302","5df2f36b617219204de98060","exploit","test_syn","abstract-negative","Verb","Syntactic","SV","noun;verb","verb",1,1739900079410,"verb",796,"verb","A","",6.67959918584438,62
"303","5df2f36b617219204de98060","failure","test_syn","abstract-negative","Nouns","Syntactic","SV","noun;verb","noun",1,1739900082513,"noun",2348,"verb","A","",7.76131918094799,63
"304","5df2f36b617219204de98060","garbage","test_syn","concrete-negative","Nouns","Syntactic","SV","noun;verb","noun",1,1739900083859,"noun",587,"verb","A","",6.3750248198281,64
"305","5df2f36b617219204de98060","obsess","test_syn","abstract-negative","Verb","Syntactic","SV","noun;verb","verb",1,1739900086002,"verb",1384,"verb","A","",7.23273313617761,65
"306","5df2f36b617219204de98060","imagine","test_syn","abstract-positive","Verb","Syntactic","SV","noun;verb","verb",1,1739900087635,"verb",874,"verb","A","",6.77308037565554,66
"307","5df2f36b617219204de98060","eat","test_syn","concrete-positive","Verb","Syntactic","SV","noun;verb","verb",1,1739900089003,"verb",611,"verb","A","",6.4150969591716,67
"308","5df2f36b617219204de98060","terror","test_syn","abstract-negative","Nouns","Syntactic","SV","noun;verb","verb",0,1739900090435,"verb",674,"verb","A","",6.51323011091231,68
"309","5df2f36b617219204de98060","slave","test_syn","concrete-negative","Nouns","Syntactic","SV","noun;verb","noun",1,1739900092115,"noun",922,"verb","A","",6.82654522355659,69
"310","5df2f36b617219204de98060","freedom","test_syn","abstract-positive","Nouns","Syntactic","SV","noun;verb","noun",1,1739900094354,"noun",1485,"verb","A","",7.3031700512368,70
"311","5df2f36b617219204de98060","hatred","test_syn","abstract-negative","Nouns","Syntactic","SV","noun;verb","verb",0,1739900096210,"verb",1100,"verb","A","",7.00306545878646,71
"312","5df2f36b617219204de98060","admire","test_syn","abstract-positive","Verb","Syntactic","SV","noun;verb","verb",1,1739900097714,"verb",748,"verb","A","",6.61740297797448,72
"313","5df2f36b617219204de98060","inspiration","test_syn","abstract-positive","Nouns","Syntactic","SV","noun;verb","verb",0,1739900099219,"verb",750,"verb","A","",6.62007320653036,73
"314","5df2f36b617219204de98060","glide","test_syn","concrete-positive","Verb","Syntactic","SV","noun;verb","verb",1,1739900100826,"verb",848,"verb","A","",6.7428806357919,74
"315","5df2f36b617219204de98060","home","test_syn","concrete-positive","Nouns","Syntactic","SV","noun;verb","noun",1,1739900102730,"noun",1143,"verb","A","",7.04141166379481,75
"316","5df2f36b617219204de98060","anxiety","test_syn","abstract-negative","Nouns","Syntactic","SV","noun;verb","verb",0,1739900104611,"verb",1127,"verb","A","",7.02731451403978,76
"317","5df2f36b617219204de98060","kindness","test_syn","abstract-positive","Nouns","Syntactic","SV","noun;verb","verb",0,1739900106635,"verb",1267,"verb","A","",7.14440718032114,77
"318","5df2f36b617219204de98060","corpse","test_syn","concrete-negative","Nouns","Syntactic","SV","noun;verb","noun",1,1739900108131,"noun",740,"verb","A","",6.60665018619822,78
"319","5df2f36b617219204de98060","glisten","test_syn","concrete-positive","Verb","Syntactic","SV","noun;verb","noun",0,1739900110555,"noun",1668,"verb","A","",7.41938058291869,79
"320","5df2f36b617219204de98060","fulfill","test_syn","abstract-positive","Verb","Syntactic","SV","noun;verb","verb",1,1739900112546,"verb",1232,"verb","A","",7.11639414409346,80
"321","5df2f36b617219204de98060","slave","test_syn","concrete-negative","Nouns","Syntactic","SV","noun;verb","noun",1,1739900114260,"noun",957,"verb","A","",6.86380339145295,81
"322","5df2f36b617219204de98060","writhe","test_syn","concrete-negative","Verb","Syntactic","SV","noun;verb","verb",1,1739900115666,"verb",652,"verb","A","",6.48004456192665,82
"323","5df2f36b617219204de98060","admire","test_syn","abstract-positive","Verb","Syntactic","SV","noun;verb","verb",1,1739900117267,"verb",843,"verb","A","",6.73696695800186,83
"324","5df2f36b617219204de98060","mud","test_syn","concrete-negative","Nouns","Syntactic","SV","noun;verb","noun",1,1739900118643,"noun",619,"verb","A","",6.4281052726846,84
"325","5df2f36b617219204de98060","exploit","test_syn","abstract-negative","Verb","Syntactic","SV","noun;verb","verb",1,1739900120107,"verb",709,"verb","A","",6.56385552653213,85
"326","5df2f36b617219204de98060","garbage","test_syn","concrete-negative","Nouns","Syntactic","SV","noun;verb","noun",1,1739900121476,"noun",612,"verb","A","",6.41673228251233,86
"327","5df2f36b617219204de98060","criticize","test_syn","abstract-negative","Verb","Syntactic","SV","noun;verb","verb",1,1739900122866,"verb",633,"verb","A","",6.45047042214418,87
"328","5df2f36b617219204de98060","corpse","test_syn","concrete-negative","Nouns","Syntactic","SV","noun;verb","noun",1,1739900124236,"noun",613,"verb","A","",6.41836493593621,88
"329","5df2f36b617219204de98060","eat","test_syn","concrete-positive","Verb","Syntactic","SV","noun;verb","verb",1,1739900125604,"verb",614,"verb","A","",6.41999492814714,89
"330","5df2f36b617219204de98060","kindness","test_syn","abstract-positive","Nouns","Syntactic","SV","noun;verb","verb",0,1739900127059,"verb",698,"verb","A","",6.54821910276237,90
"331","5df2f36b617219204de98060","beach","test_syn","concrete-positive","Nouns","Syntactic","SV","noun;verb","noun",1,1739900128676,"noun",858,"verb","A","",6.75460409948796,91
"332","5df2f36b617219204de98060","grief","test_syn","abstract-negative","Nouns","Syntactic","SV","noun;verb","verb",0,1739900131564,"verb",2128,"verb","A","",7.66293785046154,92
"333","5df2f36b617219204de98060","terror","test_syn","abstract-negative","Nouns","Syntactic","SV","noun;verb","verb",0,1739900132947,"verb",628,"verb","A","",6.4425401664682,93
"334","5df2f36b617219204de98060","befall","test_syn","abstract-negative","Verb","Syntactic","SV","noun;verb","verb",1,1739900134483,"verb",782,"verb","A","",6.66185474054531,94
"335","5df2f36b617219204de98060","fulfill","test_syn","abstract-positive","Verb","Syntactic","SV","noun;verb","verb",1,1739900136603,"verb",1362,"verb","A","",7.21670948670946,95
"336","5df2f36b617219204de98060","chocolate","test_syn","concrete-positive","Nouns","Syntactic","SV","noun;verb","noun",1,1739900138084,"noun",726,"verb","A","",6.5875500148248,96
"337","5df2f36b617219204de98060","inspiration","test_syn","abstract-positive","Nouns","Syntactic","SV","noun;verb","verb",0,1739900139500,"verb",656,"verb","A","",6.48616078894409,97
"338","5df2f36b617219204de98060","toxin","test_syn","concrete-negative","Nouns","Syntactic","SV","noun;verb","noun",1,1739900140948,"noun",690,"verb","A","",6.5366915975913,98
"339","5df2f36b617219204de98060","fireplace","test_syn","concrete-positive","Nouns","Syntactic","SV","noun;verb","noun",1,1739900142292,"noun",584,"verb","A","",6.36990098282823,99
"340","5df2f36b617219204de98060","imagine","test_syn","abstract-positive","Verb","Syntactic","SV","noun;verb","verb",1,1739900143740,"verb",696,"verb","A","",6.54534966033442,100
"341","5df2f36b617219204de98060","running","test_syn","concrete-positive","Verb","Syntactic","SV","noun;verb","verb",1,1739900145084,"verb",591,"verb","A","",6.3818160174061,101
"342","5df2f36b617219204de98060","fester","test_syn","concrete-negative","Verb","Syntactic","SV","noun;verb","verb",1,1739900147580,"verb",1741,"verb","A","",7.46221493976819,102
"343","5df2f36b617219204de98060","resent","test_syn","abstract-negative","Verb","Syntactic","SV","noun;verb","verb",1,1739900149244,"verb",909,"verb","A","",6.81234509417748,103
"344","5df2f36b617219204de98060","choke","test_syn","concrete-negative","Verb","Syntactic","SV","noun;verb","verb",1,1739900150829,"verb",827,"verb","A","",6.71780469502369,104
"345","5df2f36b617219204de98060","glisten","test_syn","concrete-positive","Verb","Syntactic","SV","noun;verb","noun",0,1739900152212,"noun",626,"verb","A","",6.4393503711001,105
"346","5df2f36b617219204de98060","enlighten","test_syn","abstract-positive","Verb","Syntactic","SV","noun;verb","verb",1,1739900153683,"verb",714,"verb","A","",6.57088296233958,106
"347","5df2f36b617219204de98060","failure","test_syn","abstract-negative","Nouns","Syntactic","SV","noun;verb","verb",0,1739900157404,"verb",2966,"verb","A","",7.99496952269788,107
"348","5df2f36b617219204de98060","cherish","test_syn","abstract-positive","Verb","Syntactic","SV","noun;verb","verb",1,1739900158764,"verb",601,"verb","A","",6.39859493453521,108
"349","5df2f36b617219204de98060","obsess","test_syn","abstract-negative","Verb","Syntactic","SV","noun;verb","verb",1,1739900160292,"verb",775,"verb","A","",6.65286302935335,109
"350","5df2f36b617219204de98060","flowers","test_syn","concrete-positive","Nouns","Syntactic","SV","noun;verb","noun",1,1739900161653,"noun",606,"verb","A","",6.40687998606931,110
"351","5df2f36b617219204de98060","breathe","test_syn","concrete-positive","Verb","Syntactic","SV","noun;verb","verb",1,1739900163061,"verb",653,"verb","A","",6.48157712927643,111
"352","5df2f36b617219204de98060","gratitude","test_syn","abstract-positive","Nouns","Syntactic","SV","noun;verb","verb",0,1739900164829,"verb",1014,"verb","A","",6.92165818415113,112
"353","5df2f36b617219204de98060","freedom","test_syn","abstract-positive","Nouns","Syntactic","SV","noun;verb","noun",1,1739900166973,"noun",1388,"verb","A","",7.23561914106675,113
"354","5df2f36b617219204de98060","stab","test_syn","concrete-negative","Verb","Syntactic","SV","noun;verb","verb",1,1739900168397,"verb",671,"verb","A","",6.50876913697168,114
"355","5df2f36b617219204de98060","compassion","test_syn","abstract-positive","Nouns","Syntactic","SV","noun;verb","verb",0,1739900169741,"verb",587,"verb","A","",6.3750248198281,115
"356","5df2f36b617219204de98060","glide","test_syn","concrete-positive","Verb","Syntactic","SV","noun;verb","verb",1,1739900171285,"verb",789,"verb","A","",6.67076632084587,116
"357","5df2f36b617219204de98060","bleed","test_syn","concrete-negative","Verb","Syntactic","SV","noun;verb","verb",1,1739900174445,"verb",2406,"verb","A","",7.78572089653462,117
"358","5df2f36b617219204de98060","anxiety","test_syn","abstract-negative","Nouns","Syntactic","SV","noun;verb","verb",0,1739900176117,"verb",913,"verb","A","",6.81673588059497,118
"359","5df2f36b617219204de98060","hatred","test_syn","abstract-negative","Nouns","Syntactic","SV","noun;verb","verb",0,1739900177477,"verb",604,"verb","A","",6.40357419793482,119
"360","5df2f36b617219204de98060","home","test_syn","concrete-positive","Nouns","Syntactic","SV","noun;verb","noun",1,1739900180069,"noun",1837,"verb","A","",7.51588908521513,120
"361","5df2f36b617219204de98060","slave","test_val","concrete-negative","Nouns","Valence","SV","positive;negative","negative",1,1739900350466,"negative",819,"negative","A","",6.70808408385307,121
"362","5df2f36b617219204de98060","freedom","test_val","abstract-positive","Nouns","Valence","SV","positive;negative","positive",1,1739900351930,"positive",707,"negative","A","",6.56103066589657,122
"363","5df2f36b617219204de98060","compassion","test_val","abstract-positive","Nouns","Valence","SV","positive;negative","positive",1,1739900353449,"positive",760,"negative","A","",6.63331843328038,123
"364","5df2f36b617219204de98060","toxin","test_val","concrete-negative","Nouns","Valence","SV","positive;negative","negative",1,1739900355281,"negative",1076,"negative","A","",6.98100574072173,124
"365","5df2f36b617219204de98060","criticize","test_val","abstract-negative","Verb","Valence","SV","positive;negative","negative",1,1739900356833,"negative",792,"negative","A","",6.67456139181443,125
"366","5df2f36b617219204de98060","fulfill","test_val","abstract-positive","Verb","Valence","SV","positive;negative","positive",1,1739900358410,"positive",819,"negative","A","",6.70808408385307,126
"367","5df2f36b617219204de98060","running","test_val","concrete-positive","Verb","Valence","SV","positive;negative","positive",1,1739900360065,"positive",901,"negative","A","",6.80350525760834,127
"368","5df2f36b617219204de98060","choke","test_val","concrete-negative","Verb","Valence","SV","positive;negative","negative",1,1739900361449,"negative",629,"negative","A","",6.44413125670044,128
"369","5df2f36b617219204de98060","admire","test_val","abstract-positive","Verb","Valence","SV","positive;negative","positive",1,1739900362809,"positive",601,"negative","A","",6.39859493453521,129
"370","5df2f36b617219204de98060","beach","test_val","concrete-positive","Nouns","Valence","SV","positive;negative","positive",1,1739900364306,"positive",740,"negative","A","",6.60665018619822,130
"371","5df2f36b617219204de98060","chocolate","test_val","concrete-positive","Nouns","Valence","SV","positive;negative","positive",1,1739900365666,"positive",608,"negative","A","",6.41017488196617,131
"372","5df2f36b617219204de98060","imagine","test_val","abstract-positive","Verb","Valence","SV","positive;negative","positive",1,1739900367026,"positive",603,"negative","A","",6.40191719672719,132
"373","5df2f36b617219204de98060","fester","test_val","concrete-negative","Verb","Valence","SV","positive;negative","negative",1,1739900368442,"negative",660,"negative","A","",6.49223983502047,133
"374","5df2f36b617219204de98060","writhe","test_val","concrete-negative","Verb","Valence","SV","positive;negative","negative",1,1739900369850,"negative",655,"negative","A","",6.48463523563525,134
"375","5df2f36b617219204de98060","resent","test_val","abstract-negative","Verb","Valence","SV","positive;negative","negative",1,1739900371266,"negative",661,"negative","A","",6.49375383985169,135
"376","5df2f36b617219204de98060","glisten","test_val","concrete-positive","Verb","Valence","SV","positive;negative","positive",1,1739900372835,"positive",812,"negative","A","",6.69950034016168,136
"377","5df2f36b617219204de98060","fireplace","test_val","concrete-positive","Nouns","Valence","SV","positive;negative","positive",1,1739900374529,"positive",940,"negative","A","",6.84587987526405,137
"378","5df2f36b617219204de98060","bleed","test_val","concrete-negative","Verb","Valence","SV","positive;negative","negative",1,1739900376305,"negative",1022,"negative","A","",6.92951677076365,138
"379","5df2f36b617219204de98060","terror","test_val","abstract-negative","Nouns","Valence","SV","positive;negative","negative",1,1739900377714,"negative",652,"negative","A","",6.48004456192665,139
"380","5df2f36b617219204de98060","obsess","test_val","abstract-negative","Verb","Valence","SV","positive;negative","negative",1,1739900379395,"negative",926,"negative","A","",6.83087423464618,140
"381","5df2f36b617219204de98060","home","test_val","concrete-positive","Nouns","Valence","SV","positive;negative","positive",1,1739900380907,"positive",756,"negative","A","",6.62804137617953,141
"382","5df2f36b617219204de98060","garbage","test_val","concrete-negative","Nouns","Valence","SV","positive;negative","negative",1,1739900382306,"negative",645,"negative","A","",6.46925031679577,142
"383","5df2f36b617219204de98060","glide","test_val","concrete-positive","Verb","Valence","SV","positive;negative","positive",1,1739900383899,"positive",839,"negative","A","",6.73221070646721,143
"384","5df2f36b617219204de98060","exploit","test_val","abstract-negative","Verb","Valence","SV","positive;negative","negative",1,1739900385394,"negative",740,"negative","A","",6.60665018619822,144
"385","5df2f36b617219204de98060","breathe","test_val","concrete-positive","Verb","Valence","SV","positive;negative","positive",1,1739900387731,"positive",1581,"negative","A","",7.36581283720947,145
"386","5df2f36b617219204de98060","kindness","test_val","abstract-positive","Nouns","Valence","SV","positive;negative","positive",1,1739900389067,"positive",576,"negative","A","",6.35610766069589,146
"387","5df2f36b617219204de98060","corpse","test_val","concrete-negative","Nouns","Valence","SV","positive;negative","negative",1,1739900390403,"negative",578,"negative","A","",6.35957386867238,147
"388","5df2f36b617219204de98060","eat","test_val","concrete-positive","Verb","Valence","SV","positive;negative","positive",1,1739900391859,"positive",698,"negative","A","",6.54821910276237,148
"389","5df2f36b617219204de98060","stab","test_val","concrete-negative","Verb","Valence","SV","positive;negative","negative",1,1739900393218,"negative",601,"negative","A","",6.39859493453521,149
"390","5df2f36b617219204de98060","cherish","test_val","abstract-positive","Verb","Valence","SV","positive;negative","positive",1,1739900394723,"positive",747,"negative","A","",6.61606518513282,150
"391","5df2f36b617219204de98060","befall","test_val","abstract-negative","Verb","Valence","SV","positive;negative","positive",0,1739900396395,"positive",917,"negative","A","",6.82110747225646,151
"392","5df2f36b617219204de98060","anxiety","test_val","abstract-negative","Nouns","Valence","SV","positive;negative","negative",1,1739900398355,"negative",1203,"negative","A","",7.09257371597468,152
"393","5df2f36b617219204de98060","enlighten","test_val","abstract-positive","Verb","Valence","SV","positive;negative","positive",1,1739900399731,"positive",622,"negative","A","",6.43294009273918,153
"394","5df2f36b617219204de98060","gratitude","test_val","abstract-positive","Nouns","Valence","SV","positive;negative","positive",1,1739900401219,"positive",731,"negative","A","",6.59441345974978,154
"395","5df2f36b617219204de98060","failure","test_val","abstract-negative","Nouns","Valence","SV","positive;negative","negative",1,1739900402819,"negative",844,"negative","A","",6.73815249459596,155
"396","5df2f36b617219204de98060","hatred","test_val","abstract-negative","Nouns","Valence","SV","positive;negative","negative",1,1739900404123,"negative",552,"negative","A","",6.31354804627709,156
"397","5df2f36b617219204de98060","mud","test_val","concrete-negative","Nouns","Valence","SV","positive;negative","positive",0,1739900405643,"positive",761,"negative","A","",6.63463335786169,157
"398","5df2f36b617219204de98060","grief","test_val","abstract-negative","Nouns","Valence","SV","positive;negative","negative",1,1739900407395,"negative",996,"negative","A","",6.9037472575846,158
"399","5df2f36b617219204de98060","inspiration","test_val","abstract-positive","Nouns","Valence","SV","positive;negative","positive",1,1739900409204,"positive",1055,"negative","A","",6.96129604591017,159
"400","5df2f36b617219204de98060","flowers","test_val","concrete-positive","Nouns","Valence","SV","positive;negative","positive",1,1739900410923,"positive",965,"negative","A","",6.87212810133899,160
"401","5df2f36b617219204de98060","inspiration","test_val","abstract-positive","Nouns","Valence","SV","positive;negative","positive",1,1739900413427,"positive",1749,"negative","A","",7.4667994750186,161
"402","5df2f36b617219204de98060","breathe","test_val","concrete-positive","Verb","Valence","SV","positive;negative","positive",1,1739900415179,"positive",998,"negative","A","",6.90575327631146,162
"403","5df2f36b617219204de98060","choke","test_val","concrete-negative","Verb","Valence","SV","positive;negative","negative",1,1739900416500,"negative",563,"negative","A","",6.33327962813969,163
"404","5df2f36b617219204de98060","stab","test_val","concrete-negative","Verb","Valence","SV","positive;negative","negative",1,1739900417828,"negative",572,"negative","A","",6.3491389913798,164
"405","5df2f36b617219204de98060","imagine","test_val","abstract-positive","Verb","Valence","SV","positive;negative","positive",1,1739900420531,"positive",1950,"negative","A","",7.57558465155779,165
"406","5df2f36b617219204de98060","exploit","test_val","abstract-negative","Verb","Valence","SV","positive;negative","negative",1,1739900421964,"negative",674,"negative","A","",6.51323011091231,166
"407","5df2f36b617219204de98060","eat","test_val","concrete-positive","Verb","Valence","SV","positive;negative","positive",1,1739900423347,"positive",629,"negative","A","",6.44413125670044,167
"408","5df2f36b617219204de98060","fulfill","test_val","abstract-positive","Verb","Valence","SV","positive;negative","positive",1,1739900424755,"positive",653,"negative","A","",6.48157712927643,168
"409","5df2f36b617219204de98060","kindness","test_val","abstract-positive","Nouns","Valence","SV","positive;negative","positive",1,1739900426180,"positive",667,"negative","A","",6.50279004591562,169
"410","5df2f36b617219204de98060","home","test_val","concrete-positive","Nouns","Valence","SV","positive;negative","positive",1,1739900428380,"positive",1444,"negative","A","",7.27517231945277,170
"411","5df2f36b617219204de98060","flowers","test_val","concrete-positive","Nouns","Valence","SV","positive;negative","positive",1,1739900429684,"positive",549,"negative","A","",6.30809844150953,171
"412","5df2f36b617219204de98060","criticize","test_val","abstract-negative","Verb","Valence","SV","positive;negative","negative",1,1739900431292,"negative",849,"negative","A","",6.74405918631135,172
"413","5df2f36b617219204de98060","resent","test_val","abstract-negative","Verb","Valence","SV","positive;negative","negative",1,1739900432748,"negative",702,"negative","A","",6.55393340402581,173
"414","5df2f36b617219204de98060","freedom","test_val","abstract-positive","Nouns","Valence","SV","positive;negative","positive",1,1739900434148,"positive",643,"negative","A","",6.46614472423762,174
"415","5df2f36b617219204de98060","slave","test_val","concrete-negative","Nouns","Valence","SV","positive;negative","negative",1,1739900435548,"negative",645,"negative","A","",6.46925031679577,175
"416","5df2f36b617219204de98060","cherish","test_val","abstract-positive","Verb","Valence","SV","positive;negative","positive",1,1739900436908,"positive",608,"negative","A","",6.41017488196617,176
"417","5df2f36b617219204de98060","anxiety","test_val","abstract-negative","Nouns","Valence","SV","positive;negative","negative",1,1739900438332,"negative",670,"negative","A","",6.50727771238501,177
"418","5df2f36b617219204de98060","enlighten","test_val","abstract-positive","Verb","Valence","SV","positive;negative","positive",1,1739900439796,"positive",707,"negative","A","",6.56103066589657,178
"419","5df2f36b617219204de98060","mud","test_val","concrete-negative","Nouns","Valence","SV","positive;negative","negative",1,1739900442981,"negative",2428,"negative","A","",7.79482315217939,179
"420","5df2f36b617219204de98060","befall","test_val","abstract-negative","Verb","Valence","SV","positive;negative","positive",0,1739900449532,"positive",5796,"negative","A","",8.66492330344057,180
"421","5df2f36b617219204de98060","writhe","test_val","concrete-negative","Verb","Valence","SV","positive;negative","negative",1,1739900450948,"negative",658,"negative","A","",6.48920493132532,181
"422","5df2f36b617219204de98060","running","test_val","concrete-positive","Verb","Valence","SV","positive;negative","positive",1,1739900452579,"positive",870,"negative","A","",6.76849321164863,182
"423","5df2f36b617219204de98060","terror","test_val","abstract-negative","Nouns","Valence","SV","positive;negative","negative",1,1739900453972,"negative",636,"negative","A","",6.45519856334012,183
"424","5df2f36b617219204de98060","fester","test_val","concrete-negative","Verb","Valence","SV","positive;negative","negative",1,1739900455389,"negative",660,"negative","A","",6.49223983502047,184
"425","5df2f36b617219204de98060","glisten","test_val","concrete-positive","Verb","Valence","SV","positive;negative","positive",1,1739900456893,"positive",752,"negative","A","",6.62273632394984,185
"426","5df2f36b617219204de98060","glide","test_val","concrete-positive","Verb","Valence","SV","positive;negative","positive",1,1739900458477,"positive",828,"negative","A","",6.71901315438526,186
"427","5df2f36b617219204de98060","gratitude","test_val","abstract-positive","Nouns","Valence","SV","positive;negative","positive",1,1739900459900,"positive",671,"negative","A","",6.50876913697168,187
"428","5df2f36b617219204de98060","compassion","test_val","abstract-positive","Nouns","Valence","SV","positive;negative","positive",1,1739900461397,"positive",741,"negative","A","",6.60800062529609,188
"429","5df2f36b617219204de98060","bleed","test_val","concrete-negative","Verb","Valence","SV","positive;negative","negative",1,1739900462724,"negative",572,"negative","A","",6.3491389913798,189
"430","5df2f36b617219204de98060","garbage","test_val","concrete-negative","Nouns","Valence","SV","positive;negative","negative",1,1739900464021,"negative",542,"negative","A","",6.29526600143965,190
"431","5df2f36b617219204de98060","admire","test_val","abstract-positive","Verb","Valence","SV","positive;negative","positive",1,1739900465429,"positive",653,"negative","A","",6.48157712927643,191
"432","5df2f36b617219204de98060","hatred","test_val","abstract-negative","Nouns","Valence","SV","positive;negative","negative",1,1739900467773,"negative",1587,"negative","A","",7.36960072052641,192
"433","5df2f36b617219204de98060","obsess","test_val","abstract-negative","Verb","Valence","SV","positive;negative","negative",1,1739900469196,"negative",667,"negative","A","",6.50279004591562,193
"434","5df2f36b617219204de98060","toxin","test_val","concrete-negative","Nouns","Valence","SV","positive;negative","negative",1,1739900470492,"negative",538,"negative","A","",6.28785856016178,194
"435","5df2f36b617219204de98060","failure","test_val","abstract-negative","Nouns","Valence","SV","positive;negative","negative",1,1739900471773,"negative",527,"negative","A","",6.26720054854136,195
"436","5df2f36b617219204de98060","beach","test_val","concrete-positive","Nouns","Valence","SV","positive;negative","positive",1,1739900473109,"positive",581,"negative","A","",6.36475075685191,196
"437","5df2f36b617219204de98060","fireplace","test_val","concrete-positive","Nouns","Valence","SV","positive;negative","positive",1,1739900474509,"positive",647,"negative","A","",6.4723462945009,197
"438","5df2f36b617219204de98060","grief","test_val","abstract-negative","Nouns","Valence","SV","positive;negative","negative",1,1739900476373,"negative",1107,"negative","A","",7.00940893270864,198
"439","5df2f36b617219204de98060","chocolate","test_val","concrete-positive","Nouns","Valence","SV","positive;negative","positive",1,1739900477741,"positive",614,"negative","A","",6.41999492814714,199
"440","5df2f36b617219204de98060","corpse","test_val","concrete-negative","Nouns","Valence","SV","positive;negative","negative",1,1739900479236,"negative",742,"negative","A","",6.60934924316738,200
"441","5df2f36b617219204de98060","glide","test_val","concrete-positive","Verb","Valence","SV","positive;negative","positive",1,1739900480701,"positive",711,"negative","A","",6.56667242980324,201
"442","5df2f36b617219204de98060","slave","test_val","concrete-negative","Nouns","Valence","SV","positive;negative","negative",1,1739900483565,"negative",2107,"negative","A","",7.65302041380419,202
"443","5df2f36b617219204de98060","anxiety","test_val","abstract-negative","Nouns","Valence","SV","positive;negative","negative",1,1739900484925,"negative",606,"negative","A","",6.40687998606931,203
"444","5df2f36b617219204de98060","stab","test_val","concrete-negative","Verb","Valence","SV","positive;negative","negative",1,1739900486261,"negative",580,"negative","A","",6.36302810354046,204
"445","5df2f36b617219204de98060","resent","test_val","abstract-negative","Verb","Valence","SV","positive;negative","negative",1,1739900487981,"negative",960,"negative","A","",6.86693328446188,205
"446","5df2f36b617219204de98060","choke","test_val","concrete-negative","Verb","Valence","SV","positive;negative","negative",1,1739900489397,"negative",663,"negative","A","",6.49677499018586,206
"447","5df2f36b617219204de98060","corpse","test_val","concrete-negative","Nouns","Valence","SV","positive;negative","negative",1,1739900491038,"negative",888,"negative","A","",6.78897174299217,207
"448","5df2f36b617219204de98060","inspiration","test_val","abstract-positive","Nouns","Valence","SV","positive;negative","positive",1,1739900492358,"positive",563,"negative","A","",6.33327962813969,208
"449","5df2f36b617219204de98060","imagine","test_val","abstract-positive","Verb","Valence","SV","positive;negative","positive",1,1739900493621,"positive",508,"negative","A","",6.23048144757848,209
"450","5df2f36b617219204de98060","befall","test_val","abstract-negative","Verb","Valence","SV","positive;negative","negative",1,1739900495597,"negative",1220,"negative","A","",7.1066061377273,210
"451","5df2f36b617219204de98060","running","test_val","concrete-positive","Verb","Valence","SV","positive;negative","positive",1,1739900496973,"positive",621,"negative","A","",6.43133108193348,211
"452","5df2f36b617219204de98060","home","test_val","concrete-positive","Nouns","Valence","SV","positive;negative","positive",1,1739900498478,"positive",752,"negative","A","",6.62273632394984,212
"453","5df2f36b617219204de98060","enlighten","test_val","abstract-positive","Verb","Valence","SV","positive;negative","positive",1,1739900499934,"positive",699,"negative","A","",6.54965074223381,213
"454","5df2f36b617219204de98060","glisten","test_val","concrete-positive","Verb","Valence","SV","positive;negative","positive",1,1739900501293,"positive",602,"negative","A","",6.40025744530882,214
"455","5df2f36b617219204de98060","fulfill","test_val","abstract-positive","Verb","Valence","SV","positive;negative","positive",1,1739900502742,"positive",691,"negative","A","",6.53813982376767,215
"456","5df2f36b617219204de98060","gratitude","test_val","abstract-positive","Nouns","Valence","SV","positive;negative","positive",1,1739900504246,"positive",750,"negative","A","",6.62007320653036,216
"457","5df2f36b617219204de98060","mud","test_val","concrete-negative","Nouns","Valence","SV","positive;negative","negative",1,1739900505590,"negative",590,"negative","A","",6.38012253689976,217
"458","5df2f36b617219204de98060","fireplace","test_val","concrete-positive","Nouns","Valence","SV","positive;negative","positive",1,1739900507325,"positive",980,"negative","A","",6.88755257166462,218
"459","5df2f36b617219204de98060","freedom","test_val","abstract-positive","Nouns","Valence","SV","positive;negative","positive",1,1739900509078,"positive",998,"negative","A","",6.90575327631146,219
"460","5df2f36b617219204de98060","hatred","test_val","abstract-negative","Nouns","Valence","SV","positive;negative","negative",1,1739900510599,"negative",762,"negative","A","",6.63594655568665,220
"461","5df2f36b617219204de98060","garbage","test_val","concrete-negative","Nouns","Valence","SV","positive;negative","negative",1,1739900511990,"negative",635,"negative","A","",6.45362499889269,221
"462","5df2f36b617219204de98060","grief","test_val","abstract-negative","Nouns","Valence","SV","positive;negative","negative",1,1739900514046,"negative",1304,"negative","A","",7.1731917424866,222
"463","5df2f36b617219204de98060","writhe","test_val","concrete-negative","Verb","Valence","SV","positive;negative","negative",1,1739900515414,"negative",610,"negative","A","",6.41345895716736,223
"464","5df2f36b617219204de98060","obsess","test_val","abstract-negative","Verb","Valence","SV","positive;negative","negative",1,1739900516798,"negative",630,"negative","A","",6.44571981938558,224
"465","5df2f36b617219204de98060","chocolate","test_val","concrete-positive","Nouns","Valence","SV","positive;negative","positive",1,1739900518086,"positive",532,"negative","A","",6.27664348934164,225
"466","5df2f36b617219204de98060","eat","test_val","concrete-positive","Verb","Valence","SV","positive;negative","positive",1,1739900519455,"positive",610,"negative","A","",6.41345895716736,226
"467","5df2f36b617219204de98060","compassion","test_val","abstract-positive","Nouns","Valence","SV","positive;negative","positive",1,1739900520879,"positive",668,"negative","A","",6.50428817353665,227
"468","5df2f36b617219204de98060","criticize","test_val","abstract-negative","Verb","Valence","SV","positive;negative","negative",1,1739900522239,"negative",608,"negative","A","",6.41017488196617,228
"469","5df2f36b617219204de98060","admire","test_val","abstract-positive","Verb","Valence","SV","positive;negative","positive",1,1739900523814,"positive",819,"negative","A","",6.70808408385307,229
"470","5df2f36b617219204de98060","fester","test_val","concrete-negative","Verb","Valence","SV","positive;negative","negative",1,1739900525141,"negative",572,"negative","A","",6.3491389913798,230
"471","5df2f36b617219204de98060","flowers","test_val","concrete-positive","Nouns","Valence","SV","positive;negative","positive",1,1739900526446,"positive",547,"negative","A","",6.30444880242198,231
"472","5df2f36b617219204de98060","breathe","test_val","concrete-positive","Verb","Valence","SV","positive;negative","positive",1,1739900528135,"positive",936,"negative","A","",6.84161547647759,232
"473","5df2f36b617219204de98060","failure","test_val","abstract-negative","Nouns","Valence","SV","positive;negative","negative",1,1739900529782,"negative",893,"negative","A","",6.7945865808765,233
"474","5df2f36b617219204de98060","kindness","test_val","abstract-positive","Nouns","Valence","SV","positive;negative","positive",1,1739900531510,"positive",973,"negative","A","",6.880384082186,234
"475","5df2f36b617219204de98060","beach","test_val","concrete-positive","Nouns","Valence","SV","positive;negative","positive",1,1739900533383,"positive",1115,"negative","A","",7.01660968389422,235
"476","5df2f36b617219204de98060","cherish","test_val","abstract-positive","Verb","Valence","SV","positive;negative","positive",1,1739900534678,"positive",540,"negative","A","",6.29156913955832,236
"477","5df2f36b617219204de98060","exploit","test_val","abstract-negative","Verb","Valence","SV","positive;negative","negative",1,1739900536007,"negative",575,"negative","A","",6.35437004079735,237
"478","5df2f36b617219204de98060","terror","test_val","abstract-negative","Nouns","Valence","SV","positive;negative","negative",1,1739900537239,"negative",476,"negative","A","",6.16541785423142,238
"479","5df2f36b617219204de98060","toxin","test_val","concrete-negative","Nouns","Valence","SV","positive;negative","negative",1,1739900538455,"negative",458,"negative","A","",6.12686918411419,239
"480","5df2f36b617219204de98060","bleed","test_val","concrete-negative","Verb","Valence","SV","positive;negative","negative",1,1739900539782,"negative",570,"negative","A","",6.3456363608286,240
"481","6460181fc3a15babdad7bf3e","garbage","test_syn","concrete-negative","Nouns","Syntactic","SV","verb;noun","noun",1,1739897667050,"noun",801,"noun","B","",6.68586094706836,1
"482","6460181fc3a15babdad7bf3e","kindness","test_syn","abstract-positive","Nouns","Syntactic","SV","verb;noun","noun",1,1739897668672,"noun",864,"noun","B","",6.76157276880406,2
"483","6460181fc3a15babdad7bf3e","choke","test_syn","concrete-negative","Verb","Syntactic","SV","verb;noun","verb",1,1739897670207,"verb",779,"noun","B","",6.65801104587075,3
"484","6460181fc3a15babdad7bf3e","home","test_syn","concrete-positive","Nouns","Syntactic","SV","verb;noun","noun",1,1739897671567,"noun",603,"noun","B","",6.40191719672719,4
"485","6460181fc3a15babdad7bf3e","fester","test_syn","concrete-negative","Verb","Syntactic","SV","verb;noun","verb",1,1739897673186,"verb",861,"noun","B","",6.75809450442773,5
"486","6460181fc3a15babdad7bf3e","admire","test_syn","abstract-positive","Verb","Syntactic","SV","verb;noun","verb",1,1739897674673,"verb",727,"noun","B","",6.58892647753352,6
"487","6460181fc3a15babdad7bf3e","cherish","test_syn","abstract-positive","Verb","Syntactic","SV","verb;noun","verb",1,1739897676176,"verb",747,"noun","B","",6.61606518513282,7
"488","6460181fc3a15babdad7bf3e","resent","test_syn","abstract-negative","Verb","Syntactic","SV","verb;noun","verb",1,1739897677778,"verb",842,"noun","B","",6.73578001424233,8
"489","6460181fc3a15babdad7bf3e","hatred","test_syn","abstract-negative","Nouns","Syntactic","SV","verb;noun","verb",0,1739897679203,"verb",668,"noun","B","",6.50428817353665,9
"490","6460181fc3a15babdad7bf3e","glisten","test_syn","concrete-positive","Verb","Syntactic","SV","verb;noun","verb",1,1739897681147,"verb",1188,"noun","B","",7.08002649992259,10
"491","6460181fc3a15babdad7bf3e","terror","test_syn","abstract-negative","Nouns","Syntactic","SV","verb;noun","noun",1,1739897683363,"noun",1459,"noun","B","",7.28550654852279,11
"492","6460181fc3a15babdad7bf3e","inspiration","test_syn","abstract-positive","Nouns","Syntactic","SV","verb;noun","noun",1,1739897686075,"noun",1958,"noun","B","",7.57967882309046,12
"493","6460181fc3a15babdad7bf3e","writhe","test_syn","concrete-negative","Verb","Syntactic","SV","verb;noun","verb",1,1739897687996,"verb",1162,"noun","B","",7.05789793741186,13
"494","6460181fc3a15babdad7bf3e","fireplace","test_syn","concrete-positive","Nouns","Syntactic","SV","verb;noun","noun",1,1739897689498,"noun",747,"noun","B","",6.61606518513282,14
"495","6460181fc3a15babdad7bf3e","fulfill","test_syn","abstract-positive","Verb","Syntactic","SV","verb;noun","verb",1,1739897691175,"verb",916,"noun","B","",6.82001636467413,15
"496","6460181fc3a15babdad7bf3e","befall","test_syn","abstract-negative","Verb","Syntactic","SV","verb;noun","verb",1,1739897692773,"verb",846,"noun","B","",6.74051935960622,16
"497","6460181fc3a15babdad7bf3e","chocolate","test_syn","concrete-positive","Nouns","Syntactic","SV","verb;noun","noun",1,1739897694383,"noun",849,"noun","B","",6.74405918631135,17
"498","6460181fc3a15babdad7bf3e","eat","test_syn","concrete-positive","Verb","Syntactic","SV","verb;noun","verb",1,1739897696000,"verb",860,"noun","B","",6.75693238924755,18
"499","6460181fc3a15babdad7bf3e","imagine","test_syn","abstract-positive","Verb","Syntactic","SV","verb;noun","verb",1,1739897697564,"verb",804,"noun","B","",6.68959926917897,19
"500","6460181fc3a15babdad7bf3e","anxiety","test_syn","abstract-negative","Nouns","Syntactic","SV","verb;noun","noun",1,1739897699184,"noun",861,"noun","B","",6.75809450442773,20
"501","6460181fc3a15babdad7bf3e","mud","test_syn","concrete-negative","Nouns","Syntactic","SV","verb;noun","noun",1,1739897701119,"noun",1175,"noun","B","",7.06902342657826,21
"502","6460181fc3a15babdad7bf3e","stab","test_syn","concrete-negative","Verb","Syntactic","SV","verb;noun","verb",1,1739897702890,"verb",1013,"noun","B","",6.92067150424868,22
"503","6460181fc3a15babdad7bf3e","corpse","test_syn","concrete-negative","Nouns","Syntactic","SV","verb;noun","noun",1,1739897705135,"noun",1488,"noun","B","",7.30518821539304,23
"504","6460181fc3a15babdad7bf3e","exploit","test_syn","abstract-negative","Verb","Syntactic","SV","verb;noun","verb",1,1739897706630,"verb",733,"noun","B","",6.59714570188665,24
"505","6460181fc3a15babdad7bf3e","running","test_syn","concrete-positive","Verb","Syntactic","SV","verb;noun","verb",1,1739897708146,"verb",757,"noun","B","",6.62936325343745,25
"506","6460181fc3a15babdad7bf3e","breathe","test_syn","concrete-positive","Verb","Syntactic","SV","verb;noun","verb",1,1739897709641,"verb",732,"noun","B","",6.59578051396131,26
"507","6460181fc3a15babdad7bf3e","failure","test_syn","abstract-negative","Nouns","Syntactic","SV","verb;noun","noun",1,1739897711622,"noun",1224,"noun","B","",7.10987946307227,27
"508","6460181fc3a15babdad7bf3e","grief","test_syn","abstract-negative","Nouns","Syntactic","SV","verb;noun","noun",1,1739897713307,"noun",927,"noun","B","",6.83195356556585,28
"509","6460181fc3a15babdad7bf3e","bleed","test_syn","concrete-negative","Verb","Syntactic","SV","verb;noun","verb",1,1739897714917,"verb",852,"noun","B","",6.74758652682932,29
"510","6460181fc3a15babdad7bf3e","enlighten","test_syn","abstract-positive","Verb","Syntactic","SV","verb;noun","verb",1,1739897717268,"verb",1599,"noun","B","",7.37713371283395,30
"511","6460181fc3a15babdad7bf3e","freedom","test_syn","abstract-positive","Nouns","Syntactic","SV","verb;noun","noun",1,1739897718998,"noun",967,"noun","B","",6.87419849545329,31
"512","6460181fc3a15babdad7bf3e","toxin","test_syn","concrete-negative","Nouns","Syntactic","SV","verb;noun","noun",1,1739897720716,"noun",959,"noun","B","",6.86589107488344,32
"513","6460181fc3a15babdad7bf3e","gratitude","test_syn","abstract-positive","Nouns","Syntactic","SV","verb;noun","noun",1,1739897723253,"noun",1777,"noun","B","",7.48268182815465,33
"514","6460181fc3a15babdad7bf3e","obsess","test_syn","abstract-negative","Verb","Syntactic","SV","verb;noun","verb",1,1739897724761,"verb",753,"noun","B","",6.62406522779989,34
"515","6460181fc3a15babdad7bf3e","slave","test_syn","concrete-negative","Nouns","Syntactic","SV","verb;noun","noun",1,1739897726272,"noun",754,"noun","B","",6.62539236800796,35
"516","6460181fc3a15babdad7bf3e","compassion","test_syn","abstract-positive","Nouns","Syntactic","SV","verb;noun","verb",0,1739897728304,"verb",1272,"noun","B","",7.14834574390007,36
"517","6460181fc3a15babdad7bf3e","glide","test_syn","concrete-positive","Verb","Syntactic","SV","verb;noun","verb",1,1739897730205,"verb",1141,"noun","B","",7.03966034986208,37
"518","6460181fc3a15babdad7bf3e","criticize","test_syn","abstract-negative","Verb","Syntactic","SV","verb;noun","verb",1,1739897731872,"verb",910,"noun","B","",6.8134445995109,38
"519","6460181fc3a15babdad7bf3e","beach","test_syn","concrete-positive","Nouns","Syntactic","SV","verb;noun","noun",1,1739897733355,"noun",722,"noun","B","",6.58202513889283,39
"520","6460181fc3a15babdad7bf3e","flowers","test_syn","concrete-positive","Nouns","Syntactic","SV","verb;noun","noun",1,1739897734853,"noun",740,"noun","B","",6.60665018619822,40
"521","6460181fc3a15babdad7bf3e","enlighten","test_syn","abstract-positive","Verb","Syntactic","SV","verb;noun","verb",1,1739897736442,"verb",828,"noun","B","",6.71901315438526,41
"522","6460181fc3a15babdad7bf3e","admire","test_syn","abstract-positive","Verb","Syntactic","SV","verb;noun","verb",1,1739897738020,"verb",822,"noun","B","",6.71174039505618,42
"523","6460181fc3a15babdad7bf3e","freedom","test_syn","abstract-positive","Nouns","Syntactic","SV","verb;noun","noun",1,1739897739617,"noun",836,"noun","B","",6.7286286130847,43
"524","6460181fc3a15babdad7bf3e","gratitude","test_syn","abstract-positive","Nouns","Syntactic","SV","verb;noun","noun",1,1739897742085,"noun",1712,"noun","B","",7.44541755670169,44
"525","6460181fc3a15babdad7bf3e","exploit","test_syn","abstract-negative","Verb","Syntactic","SV","verb;noun","verb",1,1739897743557,"verb",712,"noun","B","",6.56807791141198,45
"526","6460181fc3a15babdad7bf3e","glisten","test_syn","concrete-positive","Verb","Syntactic","SV","verb;noun","verb",1,1739897745293,"verb",982,"noun","B","",6.88959130835447,46
"527","6460181fc3a15babdad7bf3e","resent","test_syn","abstract-negative","Verb","Syntactic","SV","verb;noun","verb",1,1739897746904,"verb",853,"noun","B","",6.74875954749168,47
"528","6460181fc3a15babdad7bf3e","fulfill","test_syn","abstract-positive","Verb","Syntactic","SV","verb;noun","verb",1,1739897748328,"verb",665,"noun","B","",6.49978704065585,48
"529","6460181fc3a15babdad7bf3e","eat","test_syn","concrete-positive","Verb","Syntactic","SV","verb;noun","verb",1,1739897749868,"verb",781,"noun","B","",6.66057514983969,49
"530","6460181fc3a15babdad7bf3e","glide","test_syn","concrete-positive","Verb","Syntactic","SV","verb;noun","verb",1,1739897751320,"verb",692,"noun","B","",6.53958595561767,50
"531","6460181fc3a15babdad7bf3e","beach","test_syn","concrete-positive","Nouns","Syntactic","SV","verb;noun","noun",1,1739897752797,"noun",723,"noun","B","",6.58340922215876,51
"532","6460181fc3a15babdad7bf3e","criticize","test_syn","abstract-negative","Verb","Syntactic","SV","verb;noun","verb",1,1739897754381,"verb",825,"noun","B","",6.71538338633468,52
"533","6460181fc3a15babdad7bf3e","inspiration","test_syn","abstract-positive","Nouns","Syntactic","SV","verb;noun","noun",1,1739897756118,"noun",978,"noun","B","",6.88550967003482,53
"534","6460181fc3a15babdad7bf3e","chocolate","test_syn","concrete-positive","Nouns","Syntactic","SV","verb;noun","noun",1,1739897757602,"noun",725,"noun","B","",6.58617165485467,54
"535","6460181fc3a15babdad7bf3e","fester","test_syn","concrete-negative","Verb","Syntactic","SV","verb;noun","verb",1,1739897759199,"verb",840,"noun","B","",6.73340189183736,55
