"","ID.true","Word","Label","Task","BlockOrder","EventTime","Value","ReactionTime","Key_value_F","Key_value_J","Comments","Group","LogReactionTime","TrialNumber"
"1","55a2fa33fdf99b073cd94947","traffic","calibrator_syn_feedback","Syntactic","SV",1739899872422,"noun",4158,"verb","noun","verb;noun","B",8.33278946841796,1
"2","55a2fa33fdf99b073cd94947","exist","calibrator_syn_feedback","Syntactic","SV",1739899877121,"verb",1940,"verb","noun","verb;noun","B",7.57044325205737,2
"3","55a2fa33fdf99b073cd94947","wisdom","calibrator_syn_feedback","Syntactic","SV",1739899881110,"noun",1232,"verb","noun","verb;noun","B",7.11639414409346,3
"4","55a2fa33fdf99b073cd94947","concur","calibrator_syn_feedback","Syntactic","SV",1739899885021,"verb",1151,"verb","noun","verb;noun","B",7.04838640872188,4
"5","55a2fa33fdf99b073cd94947","depart","calibrator_syn_feedback","Syntactic","SV",1739899889033,"verb",1256,"verb","noun","verb;noun","B",7.13568734702814,5
"6","55a2fa33fdf99b073cd94947","reside","calibrator_syn_feedback","Syntactic","SV",1739899892597,"verb",805,"verb","noun","verb;noun","B",6.69084227741856,6
"7","55a2fa33fdf99b073cd94947","endure","calibrator_syn_feedback","Syntactic","SV",1739899896097,"verb",742,"verb","noun","verb;noun","B",6.60934924316738,7
"8","55a2fa33fdf99b073cd94947","furniture","calibrator_syn_feedback","Syntactic","SV",1739899899846,"noun",990,"verb","noun","verb;noun","B",6.89770494312864,8
"9","55a2fa33fdf99b073cd94947","luggage","calibrator_syn_feedback","Syntactic","SV",1739899903345,"noun",742,"verb","noun","verb;noun","B",6.60934924316738,9
"10","55a2fa33fdf99b073cd94947","childhood","calibrator_syn_feedback","Syntactic","SV",1739899906809,"noun",709,"verb","noun","verb;noun","B",6.56385552653213,10
"11","55a2fa33fdf99b073cd94947","traffic","calibrator_syn_no_feedback","Syntactic","SV",1739899910310,"verb",743,"B","verb;noun","","",6.61069604471776,11
"12","55a2fa33fdf99b073cd94947","depart","calibrator_syn_no_feedback","Syntactic","SV",1739899912047,"verb",978,"B","verb;noun","","",6.88550967003482,12
"13","55a2fa33fdf99b073cd94947","concur","calibrator_syn_no_feedback","Syntactic","SV",1739899913634,"verb",833,"B","verb;noun","","",6.72503364216684,13
"14","55a2fa33fdf99b073cd94947","wisdom","calibrator_syn_no_feedback","Syntactic","SV",1739899915097,"noun",706,"B","verb;noun","","",6.55961523749324,14
"15","55a2fa33fdf99b073cd94947","luggage","calibrator_syn_no_feedback","Syntactic","SV",1739899916697,"noun",846,"B","verb;noun","","",6.74051935960622,15
"16","55a2fa33fdf99b073cd94947","reside","calibrator_syn_no_feedback","Syntactic","SV",1739899918135,"verb",682,"B","verb;noun","","",6.52502965784346,16
"17","55a2fa33fdf99b073cd94947","endure","calibrator_syn_no_feedback","Syntactic","SV",1739899919647,"verb",755,"B","verb;noun","","",6.62671774924902,17
"18","55a2fa33fdf99b073cd94947","exist","calibrator_syn_no_feedback","Syntactic","SV",1739899920860,"verb",457,"B","verb;noun","","",6.12468339089421,18
"19","55a2fa33fdf99b073cd94947","childhood","calibrator_syn_no_feedback","Syntactic","SV",1739899922134,"noun",519,"B","verb;noun","","",6.25190388316589,19
"20","55a2fa33fdf99b073cd94947","furniture","calibrator_syn_no_feedback","Syntactic","SV",1739899923571,"noun",683,"B","verb;noun","","",6.52649485957079,20
"21","55a2fa33fdf99b073cd94947","hat","calibrator_val_feedback","Valence","SV",1739900184549,"positive",2391,"negative","positive","negative;positive","B",7.77946696745832,21
"22","55a2fa33fdf99b073cd94947","joke","calibrator_val_feedback","Valence","SV",1739900188984,"positive",1667,"negative","positive","negative;positive","B",7.41878088275079,22
"23","55a2fa33fdf99b073cd94947","jail","calibrator_val_feedback","Valence","SV",1739900192622,"negative",875,"negative","positive","negative;positive","B",6.77422388635761,23
"24","55a2fa33fdf99b073cd94947","icebox","calibrator_val_feedback","Valence","SV",1739900196771,"positive",1392,"negative","positive","negative;positive","B",7.23849684089437,24
"25","55a2fa33fdf99b073cd94947","grin","calibrator_val_feedback","Valence","SV",1739900200584,"positive",1050,"negative","positive","negative;positive","B",6.95654544315157,25
"26","55a2fa33fdf99b073cd94947","industry","calibrator_val_feedback","Valence","SV",1739900207273,"positive",2100,"negative","positive","negative;positive","B",7.64969262371151,26
"27","55a2fa33fdf99b073cd94947","kitten","calibrator_val_feedback","Valence","SV",1739900209275,"positive",1067,"negative","positive","negative;positive","B",6.97260625130175,27
"28","55a2fa33fdf99b073cd94947","insecure","calibrator_val_feedback","Valence","SV",1739900212858,"negative",823,"negative","positive","negative;positive","B",6.71295620067707,28
"29","55a2fa33fdf99b073cd94947","free","calibrator_val_feedback","Valence","SV",1739900216858,"positive",1236,"negative","positive","negative;positive","B",7.11963563801764,29
"30","55a2fa33fdf99b073cd94947","invader","calibrator_val_feedback","Valence","SV",1739900222023,"negative",2403,"negative","positive","negative;positive","B",7.78447323573647,30
"31","55a2fa33fdf99b073cd94947","free","calibrator_val_no_feedback","Valence","SV",1739900226058,"positive",1277,"B","negative;positive","","",7.15226885603254,31
"32","55a2fa33fdf99b073cd94947","joke","calibrator_val_no_feedback","Valence","SV",1739900227535,"positive",716,"B","negative;positive","","",6.57368016696065,32
"33","55a2fa33fdf99b073cd94947","grin","calibrator_val_no_feedback","Valence","SV",1739900228925,"positive",634,"B","negative;positive","","",6.45204895443723,33
"34","55a2fa33fdf99b073cd94947","industry","calibrator_val_no_feedback","Valence","SV",1739900230661,"negative",977,"B","negative;positive","","",6.88448665204278,34
"35","55a2fa33fdf99b073cd94947","jail","calibrator_val_no_feedback","Valence","SV",1739900232287,"negative",866,"B","negative;positive","","",6.76388490856244,35
"36","55a2fa33fdf99b073cd94947","kitten","calibrator_val_no_feedback","Valence","SV",1739900233647,"positive",602,"B","negative;positive","","",6.40025744530882,36
"37","55a2fa33fdf99b073cd94947","hat","calibrator_val_no_feedback","Valence","SV",1739900235034,"positive",632,"B","negative;positive","","",6.44888939414686,37
"38","55a2fa33fdf99b073cd94947","insecure","calibrator_val_no_feedback","Valence","SV",1739900236487,"negative",695,"B","negative;positive","","",6.54391184556479,38
"39","55a2fa33fdf99b073cd94947","invader","calibrator_val_no_feedback","Valence","SV",1739900237947,"negative",701,"B","negative;positive","","",6.55250788703459,39
"40","55a2fa33fdf99b073cd94947","icebox","calibrator_val_no_feedback","Valence","SV",1739900239572,"negative",866,"B","negative;positive","","",6.76388490856244,40
"41","5df2f36b617219204de98060","concur","calibrator_syn_feedback","Syntactic","SV",1739899899525,"verb",1454,"noun","verb","noun;verb","A",7.28207365809346,1
"42","5df2f36b617219204de98060","wisdom","calibrator_syn_feedback","Syntactic","SV",1739899904190,"noun",1431,"noun","verb","noun;verb","A",7.26612877955645,2
"43","5df2f36b617219204de98060","traffic","calibrator_syn_feedback","Syntactic","SV",1739899907469,"noun",1793,"noun","verb","noun;verb","A",7.49164547360513,3
"44","5df2f36b617219204de98060","depart","calibrator_syn_feedback","Syntactic","SV",1739899911837,"verb",1605,"noun","verb","noun;verb","A",7.38087903556412,4
"45","5df2f36b617219204de98060","reside","calibrator_syn_feedback","Syntactic","SV",1739899916006,"noun",1410,"noun","verb","noun;verb","A",7.25134498337221,5
"46","5df2f36b617219204de98060","exist","calibrator_syn_feedback","Syntactic","SV",1739899920702,"noun",1937,"noun","verb","noun;verb","A",7.568895663407,6
"47","5df2f36b617219204de98060","luggage","calibrator_syn_feedback","Syntactic","SV",1739899924453,"noun",996,"noun","verb","noun;verb","A",6.9037472575846,7
"48","5df2f36b617219204de98060","endure","calibrator_syn_feedback","Syntactic","SV",1739899928150,"verb",938,"noun","verb","noun;verb","A",6.84374994900622,8
"49","5df2f36b617219204de98060","childhood","calibrator_syn_feedback","Syntactic","SV",1739899931774,"noun",865,"noun","verb","noun;verb","A",6.76272950693188,9
"50","5df2f36b617219204de98060","furniture","calibrator_syn_feedback","Syntactic","SV",1739899935407,"noun",874,"noun","verb","noun;verb","A",6.77308037565554,10
"51","5df2f36b617219204de98060","traffic","calibrator_syn_no_feedback","Syntactic","SV",1739899939510,"noun",1340,"A","noun;verb","","",7.20042489294496,11
"52","5df2f36b617219204de98060","luggage","calibrator_syn_no_feedback","Syntactic","SV",1739899941142,"noun",874,"A","noun;verb","","",6.77308037565554,12
"53","5df2f36b617219204de98060","concur","calibrator_syn_no_feedback","Syntactic","SV",1739899942838,"verb",938,"A","noun;verb","","",6.84374994900622,13
"54","5df2f36b617219204de98060","furniture","calibrator_syn_no_feedback","Syntactic","SV",1739899944206,"noun",617,"A","noun;verb","","",6.42486902390539,14
"55","5df2f36b617219204de98060","reside","calibrator_syn_no_feedback","Syntactic","SV",1739899945622,"verb",659,"A","noun;verb","","",6.49072353450251,15
"56","5df2f36b617219204de98060","exist","calibrator_syn_no_feedback","Syntactic","SV",1739899947030,"verb",648,"A","noun;verb","","",6.47389069635227,16
"57","5df2f36b617219204de98060","wisdom","calibrator_syn_no_feedback","Syntactic","SV",1739899948671,"verb",886,"A","noun;verb","","",6.78671695060508,17
"58","5df2f36b617219204de98060","endure","calibrator_syn_no_feedback","Syntactic","SV",1739899950079,"verb",655,"A","noun;verb","","",6.48463523563525,18
"59","5df2f36b617219204de98060","depart","calibrator_syn_no_feedback","Syntactic","SV",1739899951855,"verb",1021,"A","noun;verb","","",6.92853781816467,19
"60","5df2f36b617219204de98060","childhood","calibrator_syn_no_feedback","Syntactic","SV",1739899953519,"noun",907,"A","noun;verb","","",6.81014245011514,20
"61","5df2f36b617219204de98060","industry","calibrator_val_feedback","Valence","SV",1739900276736,"negative",2807,"positive","negative","positive;negative","A",7.93987157636188,21
"62","5df2f36b617219204de98060","icebox","calibrator_val_feedback","Valence","SV",1739900282656,"positive",3158,"positive","negative","positive;negative","A",8.05769419481559,22
"63","5df2f36b617219204de98060","kitten","calibrator_val_feedback","Valence","SV",1739900286567,"positive",1157,"positive","negative","positive;negative","A",7.05358572719368,23
"64","5df2f36b617219204de98060","hat","calibrator_val_feedback","Valence","SV",1739900295600,"positive",6275,"positive","negative","positive;negative","A",8.74432876399998,24
"65","5df2f36b617219204de98060","joke","calibrator_val_feedback","Valence","SV",1739900299385,"positive",1030,"positive","negative","positive;negative","A",6.93731408122368,25
"66","5df2f36b617219204de98060","insecure","calibrator_val_feedback","Valence","SV",1739900302961,"negative",818,"positive","negative","positive;negative","A",6.70686233660275,26
"67","5df2f36b617219204de98060","invader","calibrator_val_feedback","Valence","SV",1739900306704,"negative",984,"positive","negative","positive;negative","A",6.89162589705225,27
"68","5df2f36b617219204de98060","grin","calibrator_val_feedback","Valence","SV",1739900311553,"negative",2093,"positive","negative","positive;negative","A",7.646353722446,28
"69","5df2f36b617219204de98060","jail","calibrator_val_feedback","Valence","SV",1739900315136,"negative",823,"positive","negative","positive;negative","A",6.71295620067707,29
"70","5df2f36b617219204de98060","free","calibrator_val_feedback","Valence","SV",1739900318840,"positive",946,"positive","negative","positive;negative","A",6.85224256905188,30
"71","5df2f36b617219204de98060","joke","calibrator_val_no_feedback","Valence","SV",1739900322817,"positive",1219,"A","positive;negative","","",7.10578612948127,31
"72","5df2f36b617219204de98060","jail","calibrator_val_no_feedback","Valence","SV",1739900324209,"negative",637,"A","positive;negative","","",6.45676965557216,32
"73","5df2f36b617219204de98060","hat","calibrator_val_no_feedback","Valence","SV",1739900329312,"positive",4348,"A","positive;negative","","",8.3774712482411,33
"74","5df2f36b617219204de98060","grin","calibrator_val_no_feedback","Valence","SV",1739900332105,"positive",2037,"A","positive;negative","","",7.61923341622681,34
"75","5df2f36b617219204de98060","insecure","calibrator_val_no_feedback","Valence","SV",1739900333505,"negative",644,"A","positive;negative","","",6.46769872610435,35
"76","5df2f36b617219204de98060","industry","calibrator_val_no_feedback","Valence","SV",1739900335833,"negative",1569,"A","positive;negative","","",7.35819375273303,36
"77","5df2f36b617219204de98060","icebox","calibrator_val_no_feedback","Valence","SV",1739900339945,"positive",3356,"A","positive;negative","","",8.1185050675871,37
"78","5df2f36b617219204de98060","kitten","calibrator_val_no_feedback","Valence","SV",1739900341729,"positive",1032,"A","positive;negative","","",6.93925394604151,38
"79","5df2f36b617219204de98060","invader","calibrator_val_no_feedback","Valence","SV",1739900343402,"negative",916,"A","positive;negative","","",6.82001636467413,39
"80","5df2f36b617219204de98060","free","calibrator_val_no_feedback","Valence","SV",1739900344929,"positive",771,"A","positive;negative","","",6.64768837356333,40
"81","6460181fc3a15babdad7bf3e","reside","calibrator_syn_feedback","Syntactic","SV",1739897609001,"verb",2832,"verb","noun","verb;noun","B",7.94873845481361,1
"82","6460181fc3a15babdad7bf3e","endure","calibrator_syn_feedback","Syntactic","SV",1739897612910,"verb",1784,"verb","noun","verb;noun","B",7.48661331313996,2
"83","6460181fc3a15babdad7bf3e","concur","calibrator_syn_feedback","Syntactic","SV",1739897617506,"verb",1327,"verb","noun","verb;noun","B",7.19067603433221,3
"84","6460181fc3a15babdad7bf3e","wisdom","calibrator_syn_feedback","Syntactic","SV",1739897622965,"noun",2626,"verb","noun","verb;noun","B",7.87321705486274,4
"85","6460181fc3a15babdad7bf3e","childhood","calibrator_syn_feedback","Syntactic","SV",1739897627004,"noun",1223,"verb","noun","verb;noun","B",7.10906213568717,5
"86","6460181fc3a15babdad7bf3e","depart","calibrator_syn_feedback","Syntactic","SV",1739897630717,"verb",1071,"verb","noun","verb;noun","B",6.97634807044775,6
"87","6460181fc3a15babdad7bf3e","furniture","calibrator_syn_feedback","Syntactic","SV",1739897634148,"noun",857,"verb","noun","verb;noun","B",6.75343791859778,7
"88","6460181fc3a15babdad7bf3e","traffic","calibrator_syn_feedback","Syntactic","SV",1739897637630,"noun",1335,"verb","noun","verb;noun","B",7.19668657083435,8
"89","6460181fc3a15babdad7bf3e","exist","calibrator_syn_feedback","Syntactic","SV",1739897642087,"verb",713,"verb","noun","verb;noun","B",6.5694814204143,9
"90","6460181fc3a15babdad7bf3e","luggage","calibrator_syn_feedback","Syntactic","SV",1739897645162,"noun",1130,"verb","noun","verb;noun","B",7.02997291170639,10
"91","6460181fc3a15babdad7bf3e","traffic","calibrator_syn_no_feedback","Syntactic","SV",1739897647829,"noun",1022,"B","verb;noun","","",6.92951677076365,11
"92","6460181fc3a15babdad7bf3e","childhood","calibrator_syn_no_feedback","Syntactic","SV",1739897649363,"noun",777,"B","verb;noun","","",6.65544035036765,12
"93","6460181fc3a15babdad7bf3e","luggage","calibrator_syn_no_feedback","Syntactic","SV",1739897650980,"noun",859,"B","verb;noun","","",6.75576892198425,13
"94","6460181fc3a15babdad7bf3e","endure","calibrator_syn_no_feedback","Syntactic","SV",1739897653016,"verb",1276,"B","verb;noun","","",7.15148546390474,14
"95","6460181fc3a15babdad7bf3e","exist","calibrator_syn_no_feedback","Syntactic","SV",1739897654524,"verb",749,"B","verb;noun","","",6.61873898351722,15
"96","6460181fc3a15babdad7bf3e","reside","calibrator_syn_no_feedback","Syntactic","SV",1739897656083,"verb",798,"B","verb;noun","","",6.68210859744981,16
"97","6460181fc3a15babdad7bf3e","depart","calibrator_syn_no_feedback","Syntactic","SV",1739897657530,"verb",687,"B","verb;noun","","",6.53233429222235,17
"98","6460181fc3a15babdad7bf3e","concur","calibrator_syn_no_feedback","Syntactic","SV",1739897659111,"verb",820,"B","verb;noun","","",6.7093043402583,18
"99","6460181fc3a15babdad7bf3e","wisdom","calibrator_syn_no_feedback","Syntactic","SV",1739897660658,"noun",789,"B","verb;noun","","",6.67076632084587,19
"100","6460181fc3a15babdad7bf3e","furniture","calibrator_syn_no_feedback","Syntactic","SV",1739897662180,"noun",764,"B","verb;noun","","",6.63856778916652,20
"101","6460181fc3a15babdad7bf3e","free","calibrator_val_feedback","Valence","SV",1739897900191,"positive",1500,"negative","positive","negative;positive","B",7.3132203870903,21
"102","6460181fc3a15babdad7bf3e","joke","calibrator_val_feedback","Valence","SV",1739897904307,"positive",1305,"negative","positive","negative;positive","B",7.17395831975679,22
"103","6460181fc3a15babdad7bf3e","invader","calibrator_val_feedback","Valence","SV",1739897908177,"negative",1173,"negative","positive","negative;positive","B",7.06731984865348,23
"104","6460181fc3a15babdad7bf3e","industry","calibrator_val_feedback","Valence","SV",1739897911966,"positive",1041,"negative","positive","negative;positive","B",6.94793706861497,24
"105","6460181fc3a15babdad7bf3e","icebox","calibrator_val_feedback","Valence","SV",1739897915705,"positive",950,"negative","positive","negative;positive","B",6.85646198459459,25
"106","6460181fc3a15babdad7bf3e","jail","calibrator_val_feedback","Valence","SV",1739897919588,"negative",1095,"negative","positive","negative;positive","B",6.9985096422506,26
"107","6460181fc3a15babdad7bf3e","insecure","calibrator_val_feedback","Valence","SV",1739897922120,"negative",1011,"negative","positive","negative;positive","B",6.91869521902047,27
"108","6460181fc3a15babdad7bf3e","grin","calibrator_val_feedback","Valence","SV",1739897927424,"positive",1198,"negative","positive","negative;positive","B",7.08840877867539,28
"109","6460181fc3a15babdad7bf3e","kitten","calibrator_val_feedback","Valence","SV",1739897930917,"positive",832,"negative","positive","negative;positive","B",6.72383244082121,29
"110","6460181fc3a15babdad7bf3e","hat","calibrator_val_feedback","Valence","SV",1739897933288,"positive",785,"negative","positive","negative;positive","B",6.66568371778241,30
"111","6460181fc3a15babdad7bf3e","free","calibrator_val_no_feedback","Valence","SV",1739897936060,"positive",685,"B","negative;positive","","",6.52941883826223,31
"112","6460181fc3a15babdad7bf3e","icebox","calibrator_val_no_feedback","Valence","SV",1739897937532,"positive",715,"B","negative;positive","","",6.57228254269401,32
"113","6460181fc3a15babdad7bf3e","joke","calibrator_val_no_feedback","Valence","SV",1739897938903,"positive",613,"B","negative;positive","","",6.41836493593621,33
"114","6460181fc3a15babdad7bf3e","grin","calibrator_val_no_feedback","Valence","SV",1739897940244,"positive",582,"B","negative;positive","","",6.36647044773144,34
"115","6460181fc3a15babdad7bf3e","insecure","calibrator_val_no_feedback","Valence","SV",1739897941610,"negative",607,"B","negative;positive","","",6.4085287910595,35
"116","6460181fc3a15babdad7bf3e","jail","calibrator_val_no_feedback","Valence","SV",1739897943022,"negative",654,"B","negative;positive","","",6.4831073514572,36
"117","6460181fc3a15babdad7bf3e","invader","calibrator_val_no_feedback","Valence","SV",1739897944410,"negative",628,"B","negative;positive","","",6.4425401664682,37
"118","6460181fc3a15babdad7bf3e","industry","calibrator_val_no_feedback","Valence","SV",1739897945903,"positive",739,"B","negative;positive","","",6.6052979209482,38
"119","6460181fc3a15babdad7bf3e","kitten","calibrator_val_no_feedback","Valence","SV",1739897947261,"positive",603,"B","negative;positive","","",6.40191719672719,39
"120","6460181fc3a15babdad7bf3e","hat","calibrator_val_no_feedback","Valence","SV",1739897948703,"positive",689,"B","negative;positive","","",6.53524127101366,40
"121","5d89106d1719af0001ee23e5","insecure","calibrator_val_feedback","Valence","VS",1739887678373,"negative",1894,"negative","positive","negative;positive","B",7.54644627374602,1
"122","5d89106d1719af0001ee23e5","jail","calibrator_val_feedback","Valence","VS",1739887682901,"negative",1768,"negative","positive","negative;positive","B",7.47760424319759,2
"123","5d89106d1719af0001ee23e5","free","calibrator_val_feedback","Valence","VS",1739887686357,"positive",698,"negative","positive","negative;positive","B",6.54821910276237,3
"124","5d89106d1719af0001ee23e5","industry","calibrator_val_feedback","Valence","VS",1739887689805,"positive",692,"negative","positive","negative;positive","B",6.53958595561767,4
"125","5d89106d1719af0001ee23e5","invader","calibrator_val_feedback","Valence","VS",1739887693373,"negative",810,"negative","positive","negative;positive","B",6.69703424766648,5
"126","5d89106d1719af0001ee23e5","icebox","calibrator_val_feedback","Valence","VS",1739887696950,"positive",818,"negative","positive","negative;positive","B",6.70686233660275,6
"127","5d89106d1719af0001ee23e5","hat","calibrator_val_feedback","Valence","VS",1739887700237,"positive",530,"negative","positive","negative;positive","B",6.27287700654617,7
"128","5d89106d1719af0001ee23e5","joke","calibrator_val_feedback","Valence","VS",1739887703989,"negative",999,"negative","positive","negative;positive","B",6.90675477864855,8
"129","5d89106d1719af0001ee23e5","grin","calibrator_val_feedback","Valence","VS",1739887707669,"positive",924,"negative","positive","negative;positive","B",6.82871207164168,9
"130","5d89106d1719af0001ee23e5","kitten","calibrator_val_feedback","Valence","VS",1739887711085,"positive",657,"negative","positive","negative;positive","B",6.48768401848461,10
"131","5d89106d1719af0001ee23e5","kitten","calibrator_val_no_feedback","Valence","VS",1739887714341,"positive",498,"B","negative;positive","","",6.21060007702465,11
"132","5d89106d1719af0001ee23e5","hat","calibrator_val_no_feedback","Valence","VS",1739887716085,"positive",985,"B","negative;positive","","",6.89264164117209,12
"133","5d89106d1719af0001ee23e5","free","calibrator_val_no_feedback","Valence","VS",1739887717413,"positive",571,"B","negative;positive","","",6.34738920965601,13
"134","5d89106d1719af0001ee23e5","industry","calibrator_val_no_feedback","Valence","VS",1739887718741,"positive",570,"B","negative;positive","","",6.3456363608286,14
"135","5d89106d1719af0001ee23e5","insecure","calibrator_val_no_feedback","Valence","VS",1739887720069,"negative",572,"B","negative;positive","","",6.3491389913798,15
"136","5d89106d1719af0001ee23e5","joke","calibrator_val_no_feedback","Valence","VS",1739887721517,"positive",691,"B","negative;positive","","",6.53813982376767,16
"137","5d89106d1719af0001ee23e5","jail","calibrator_val_no_feedback","Valence","VS",1739887723085,"negative",809,"B","negative;positive","","",6.69579891705849,17
"138","5d89106d1719af0001ee23e5","icebox","calibrator_val_no_feedback","Valence","VS",1739887724405,"positive",563,"B","negative;positive","","",6.33327962813969,18
"139","5d89106d1719af0001ee23e5","invader","calibrator_val_no_feedback","Valence","VS",1739887725821,"negative",660,"B","negative;positive","","",6.49223983502047,19
"140","5d89106d1719af0001ee23e5","grin","calibrator_val_no_feedback","Valence","VS",1739887727173,"positive",597,"B","negative;positive","","",6.3919171133926,20
"141","5d89106d1719af0001ee23e5","furniture","calibrator_syn_feedback","Syntactic","VS",1739887969390,"noun",1316,"verb","noun","verb;noun","B",7.18235211188526,21
"142","5d89106d1719af0001ee23e5","concur","calibrator_syn_feedback","Syntactic","VS",1739887972941,"verb",793,"verb","noun","verb;noun","B",6.67582322163485,22
"143","5d89106d1719af0001ee23e5","depart","calibrator_syn_feedback","Syntactic","VS",1739887976597,"verb",897,"verb","noun","verb;noun","B",6.7990558620588,23
"144","5d89106d1719af0001ee23e5","endure","calibrator_syn_feedback","Syntactic","VS",1739887980493,"verb",1138,"verb","noun","verb;noun","B",7.03702761468628,24
"145","5d89106d1719af0001ee23e5","childhood","calibrator_syn_feedback","Syntactic","VS",1739887985237,"noun",886,"verb","noun","verb;noun","B",6.78671695060508,25
"146","5d89106d1719af0001ee23e5","exist","calibrator_syn_feedback","Syntactic","VS",1739887988110,"verb",1205,"verb","noun","verb;noun","B",7.09423484592476,26
"147","5d89106d1719af0001ee23e5","reside","calibrator_syn_feedback","Syntactic","VS",1739887991774,"verb",907,"verb","noun","verb;noun","B",6.81014245011514,27
"148","5d89106d1719af0001ee23e5","wisdom","calibrator_syn_feedback","Syntactic","VS",1739887995558,"verb",1023,"verb","noun","verb;noun","B",6.93049476595163,28
"149","5d89106d1719af0001ee23e5","luggage","calibrator_syn_feedback","Syntactic","VS",1739887998990,"noun",674,"verb","noun","verb;noun","B",6.51323011091231,29
"150","5d89106d1719af0001ee23e5","traffic","calibrator_syn_feedback","Syntactic","VS",1739888002382,"noun",633,"verb","noun","verb;noun","B",6.45047042214418,30
"151","5d89106d1719af0001ee23e5","exist","calibrator_syn_no_feedback","Syntactic","VS",1739888006206,"verb",1063,"B","verb;noun","","",6.96885037834195,31
"152","5d89106d1719af0001ee23e5","traffic","calibrator_syn_no_feedback","Syntactic","VS",1739888007832,"noun",868,"B","verb;noun","","",6.76619171466035,32
"153","5d89106d1719af0001ee23e5","childhood","calibrator_syn_no_feedback","Syntactic","VS",1739888009181,"noun",594,"B","verb;noun","","",6.38687931936265,33
"154","5d89106d1719af0001ee23e5","concur","calibrator_syn_no_feedback","Syntactic","VS",1739888010661,"verb",721,"B","verb;noun","","",6.58063913728495,34
"155","5d89106d1719af0001ee23e5","endure","calibrator_syn_no_feedback","Syntactic","VS",1739888012062,"verb",645,"B","verb;noun","","",6.46925031679577,35
"156","5d89106d1719af0001ee23e5","luggage","calibrator_syn_no_feedback","Syntactic","VS",1739888013486,"noun",667,"B","verb;noun","","",6.50279004591562,36
"157","5d89106d1719af0001ee23e5","reside","calibrator_syn_no_feedback","Syntactic","VS",1739888015199,"noun",954,"B","verb;noun","","",6.86066367144829,37
"158","5d89106d1719af0001ee23e5","furniture","calibrator_syn_no_feedback","Syntactic","VS",1739888016630,"noun",671,"B","verb;noun","","",6.50876913697168,38
"159","5d89106d1719af0001ee23e5","wisdom","calibrator_syn_no_feedback","Syntactic","VS",1739888018134,"noun",747,"B","verb;noun","","",6.61606518513282,39
"160","5d89106d1719af0001ee23e5","depart","calibrator_syn_no_feedback","Syntactic","VS",1739888019725,"verb",836,"B","verb;noun","","",6.7286286130847,40
"161","64045393fa09ada78f0b5301","endure","calibrator_syn_feedback","Syntactic","SV",1739905135632,"noun",440,"verb","noun","verb;noun","B",6.08677472691231,1
"162","64045393fa09ada78f0b5301","traffic","calibrator_syn_feedback","Syntactic","SV",1739905138556,"noun",2037,"verb","noun","verb;noun","B",7.61923341622681,2
"163","64045393fa09ada78f0b5301","concur","calibrator_syn_feedback","Syntactic","SV",1739905142355,"noun",1011,"verb","noun","verb;noun","B",6.91869521902047,3
"164","64045393fa09ada78f0b5301","depart","calibrator_syn_feedback","Syntactic","SV",1739905147121,"verb",59,"verb","noun","verb;noun","B",4.07753744390572,4
"165","64045393fa09ada78f0b5301","luggage","calibrator_syn_feedback","Syntactic","SV",1739905150042,"noun",87,"verb","noun","verb;noun","B",4.46590811865458,5
"166","64045393fa09ada78f0b5301","reside","calibrator_syn_feedback","Syntactic","SV",1739905152808,"verb",56,"verb","noun","verb;noun","B",4.02535169073515,6
"167","64045393fa09ada78f0b5301","childhood","calibrator_syn_feedback","Syntactic","SV",1739905155694,"noun",60,"verb","noun","verb;noun","B",4.0943445622221,7
"168","64045393fa09ada78f0b5301","wisdom","calibrator_syn_feedback","Syntactic","SV",1739905158537,"verb",153,"verb","noun","verb;noun","B",5.03043792139244,8
"169","64045393fa09ada78f0b5301","exist","calibrator_syn_feedback","Syntactic","SV",1739905161500,"verb",81,"verb","noun","verb;noun","B",4.39444915467244,9
"170","64045393fa09ada78f0b5301","furniture","calibrator_syn_feedback","Syntactic","SV",1739905164319,"verb",96,"verb","noun","verb;noun","B",4.56434819146784,10
"171","64045393fa09ada78f0b5301","furniture","calibrator_syn_no_feedback","Syntactic","SV",1739905165293,"noun",114,"B","verb;noun","","",4.7361984483945,11
"172","64045393fa09ada78f0b5301","depart","calibrator_syn_no_feedback","Syntactic","SV",1739905166535,"noun",476,"B","verb;noun","","",6.16541785423142,12
"173","64045393fa09ada78f0b5301","endure","calibrator_syn_no_feedback","Syntactic","SV",1739905167430,"noun",122,"B","verb;noun","","",4.80402104473326,13
"174","64045393fa09ada78f0b5301","luggage","calibrator_syn_no_feedback","Syntactic","SV",1739905168239,"noun",43,"B","verb;noun","","",3.76120011569356,14
"175","64045393fa09ada78f0b5301","wisdom","calibrator_syn_no_feedback","Syntactic","SV",1739905169063,"noun",52,"B","verb;noun","","",3.95124371858143,15
"176","64045393fa09ada78f0b5301","childhood","calibrator_syn_no_feedback","Syntactic","SV",1739905169862,"noun",27,"B","verb;noun","","",3.29583686600433,16
"177","64045393fa09ada78f0b5301","concur","calibrator_syn_no_feedback","Syntactic","SV",1739905170686,"noun",54,"B","verb;noun","","",3.98898404656427,17
"178","64045393fa09ada78f0b5301","traffic","calibrator_syn_no_feedback","Syntactic","SV",1739905171558,"verb",100,"B","verb;noun","","",4.60517018598809,18
"179","64045393fa09ada78f0b5301","exist","calibrator_syn_no_feedback","Syntactic","SV",1739905172352,"verb",26,"B","verb;noun","","",3.25809653802148,19
"180","64045393fa09ada78f0b5301","reside","calibrator_syn_no_feedback","Syntactic","SV",1739905173200,"verb",64,"B","verb;noun","","",4.15888308335967,20
"181","64045393fa09ada78f0b5301","insecure","calibrator_val_feedback","Valence","SV",1739905508989,"positive",164,"negative","positive","negative;positive","B",5.0998664278242,21
"182","64045393fa09ada78f0b5301","jail","calibrator_val_feedback","Valence","SV",1739905511689,"negative",1201,"negative","positive","negative;positive","B",7.09090982207998,22
"183","64045393fa09ada78f0b5301","free","calibrator_val_feedback","Valence","SV",1739905515562,"positive",1095,"negative","positive","negative;positive","B",6.9985096422506,23
"184","64045393fa09ada78f0b5301","invader","calibrator_val_feedback","Valence","SV",1739905519561,"negative",1221,"negative","positive","negative;positive","B",7.1074254741107,24
"185","64045393fa09ada78f0b5301","joke","calibrator_val_feedback","Valence","SV",1739905523570,"positive",1233,"negative","positive","negative;positive","B",7.11720550316434,25
"186","64045393fa09ada78f0b5301","industry","calibrator_val_feedback","Valence","SV",1739905527119,"positive",769,"negative","positive","negative;positive","B",6.64509096950564,26
"187","64045393fa09ada78f0b5301","hat","calibrator_val_feedback","Valence","SV",1739905530987,"positive",1088,"negative","positive","negative;positive","B",6.99209642741589,27
"188","64045393fa09ada78f0b5301","icebox","calibrator_val_feedback","Valence","SV",1739905535744,"positive",1654,"negative","positive","negative;positive","B",7.41095187558364,28
"189","64045393fa09ada78f0b5301","kitten","calibrator_val_feedback","Valence","SV",1739905539402,"positive",1204,"negative","positive","negative;positive","B",7.09340462586877,29
"190","64045393fa09ada78f0b5301","grin","calibrator_val_feedback","Valence","SV",1739905545330,"positive",1490,"negative","positive","negative;positive","B",7.30653139893951,30
"191","64045393fa09ada78f0b5301","grin","calibrator_val_no_feedback","Valence","SV",1739905547759,"positive",1308,"B","negative;positive","","",7.17625453201714,31
"192","64045393fa09ada78f0b5301","industry","calibrator_val_no_feedback","Valence","SV",1739905549266,"positive",736,"B","negative;positive","","",6.60123011872888,32
"193","64045393fa09ada78f0b5301","invader","calibrator_val_no_feedback","Valence","SV",1739905550113,"positive",72,"B","negative;positive","","",4.27666611901606,33
"194","64045393fa09ada78f0b5301","jail","calibrator_val_no_feedback","Valence","SV",1739905550916,"positive",29,"B","negative;positive","","",3.36729582998647,34
"195","64045393fa09ada78f0b5301","insecure","calibrator_val_no_feedback","Valence","SV",1739905551885,"positive",195,"B","negative;positive","","",5.27299955856375,35
"196","64045393fa09ada78f0b5301","hat","calibrator_val_no_feedback","Valence","SV",1739905552897,"positive",240,"B","negative;positive","","",5.48063892334199,36
"197","64045393fa09ada78f0b5301","kitten","calibrator_val_no_feedback","Valence","SV",1739905553680,"positive",9,"B","negative;positive","","",2.19722457733622,37
"198","64045393fa09ada78f0b5301","joke","calibrator_val_no_feedback","Valence","SV",1739905554826,"positive",382,"B","negative;positive","","",5.94542060860658,38
"199","64045393fa09ada78f0b5301","free","calibrator_val_no_feedback","Valence","SV",1739905555865,"positive",265,"B","negative;positive","","",5.57972982598622,39
"200","64045393fa09ada78f0b5301","icebox","calibrator_val_no_feedback","Valence","SV",1739905557165,"positive",525,"B","negative;positive","","",6.26339826259162,40
"201","57f2da5c6c19420001438d19","traffic","calibrator_syn_feedback","Syntactic","SV",1739898665880,"noun",1597,"noun","verb","noun;verb","A",7.37588214821501,1
"202","57f2da5c6c19420001438d19","endure","calibrator_syn_feedback","Syntactic","SV",1739898669624,"verb",981,"noun","verb","noun;verb","A",6.88857245956536,2
"203","57f2da5c6c19420001438d19","depart","calibrator_syn_feedback","Syntactic","SV",1739898674875,"noun",2488,"noun","verb","noun;verb","A",7.81923445385907,3
"204","57f2da5c6c19420001438d19","luggage","calibrator_syn_feedback","Syntactic","SV",1739898679096,"noun",1460,"noun","verb","noun;verb","A",7.28619171470238,4
"205","57f2da5c6c19420001438d19","concur","calibrator_syn_feedback","Syntactic","SV",1739898682747,"verb",888,"noun","verb","noun;verb","A",6.78897174299217,5
"206","57f2da5c6c19420001438d19","reside","calibrator_syn_feedback","Syntactic","SV",1739898686966,"verb",1460,"noun","verb","noun;verb","A",7.28619171470238,6
"207","57f2da5c6c19420001438d19","wisdom","calibrator_syn_feedback","Syntactic","SV",1739898690949,"verb",1220,"noun","verb","noun;verb","A",7.1066061377273,7
"208","57f2da5c6c19420001438d19","exist","calibrator_syn_feedback","Syntactic","SV",1739898694405,"verb",693,"noun","verb","noun;verb","A",6.5410299991899,8
"209","57f2da5c6c19420001438d19","furniture","calibrator_syn_feedback","Syntactic","SV",1739898698653,"noun",1483,"noun","verb","noun;verb","A",7.30182234213793,9
"210","57f2da5c6c19420001438d19","childhood","calibrator_syn_feedback","Syntactic","SV",1739898703155,"verb",1740,"noun","verb","noun;verb","A",7.46164039220858,10
"211","57f2da5c6c19420001438d19","furniture","calibrator_syn_no_feedback","Syntactic","SV",1739898706808,"noun",895,"A","noun;verb","","",6.79682371827486,11
"212","57f2da5c6c19420001438d19","concur","calibrator_syn_no_feedback","Syntactic","SV",1739898708412,"verb",846,"A","noun;verb","","",6.74051935960622,12
"213","57f2da5c6c19420001438d19","exist","calibrator_syn_no_feedback","Syntactic","SV",1739898710123,"verb",954,"A","noun;verb","","",6.86066367144829,13
"214","57f2da5c6c19420001438d19","childhood","calibrator_syn_no_feedback","Syntactic","SV",1739898712085,"noun",1206,"A","noun;verb","","",7.09506437728713,14
"215","57f2da5c6c19420001438d19","depart","calibrator_syn_no_feedback","Syntactic","SV",1739898714089,"noun",1247,"A","noun;verb","","",7.12849594568004,15
"216","57f2da5c6c19420001438d19","luggage","calibrator_syn_no_feedback","Syntactic","SV",1739898715813,"noun",965,"A","noun;verb","","",6.87212810133899,16
"217","57f2da5c6c19420001438d19","endure","calibrator_syn_no_feedback","Syntactic","SV",1739898717319,"verb",752,"A","noun;verb","","",6.62273632394984,17
"218","57f2da5c6c19420001438d19","wisdom","calibrator_syn_no_feedback","Syntactic","SV",1739898719139,"verb",1063,"A","noun;verb","","",6.96885037834195,18
"219","57f2da5c6c19420001438d19","reside","calibrator_syn_no_feedback","Syntactic","SV",1739898720743,"verb",848,"A","noun;verb","","",6.7428806357919,19
"220","57f2da5c6c19420001438d19","traffic","calibrator_syn_no_feedback","Syntactic","SV",1739898722200,"verb",701,"A","noun;verb","","",6.55250788703459,20
"221","57f2da5c6c19420001438d19","insecure","calibrator_val_feedback","Valence","SV",1739898935306,"negative",524,"positive","negative","positive;negative","A",6.26149168432104,21
"222","57f2da5c6c19420001438d19","jail","calibrator_val_feedback","Valence","SV",1739898938636,"negative",574,"positive","negative","positive;negative","A",6.35262939631957,22
"223","57f2da5c6c19420001438d19","free","calibrator_val_feedback","Valence","SV",1739898941910,"positive",508,"positive","negative","positive;negative","A",6.23048144757848,23
"224","57f2da5c6c19420001438d19","grin","calibrator_val_feedback","Valence","SV",1739898945391,"positive",719,"positive","negative","positive;negative","A",6.57786135772105,24
"225","57f2da5c6c19420001438d19","industry","calibrator_val_feedback","Valence","SV",1739898949027,"positive",875,"positive","negative","positive;negative","A",6.77422388635761,25
"226","57f2da5c6c19420001438d19","kitten","calibrator_val_feedback","Valence","SV",1739898952276,"positive",490,"positive","negative","positive;negative","A",6.19440539110467,26
"227","57f2da5c6c19420001438d19","icebox","calibrator_val_feedback","Valence","SV",1739898955600,"positive",570,"positive","negative","positive;negative","A",6.3456363608286,27
"228","57f2da5c6c19420001438d19","joke","calibrator_val_feedback","Valence","SV",1739898958931,"positive",567,"positive","negative","positive;negative","A",6.34035930372775,28
"229","57f2da5c6c19420001438d19","hat","calibrator_val_feedback","Valence","SV",1739898963088,"positive",469,"positive","negative","positive;negative","A",6.15060276844628,29
"230","57f2da5c6c19420001438d19","invader","calibrator_val_feedback","Valence","SV",1739898965576,"negative",654,"positive","negative","positive;negative","A",6.4831073514572,30
"231","57f2da5c6c19420001438d19","free","calibrator_val_no_feedback","Valence","SV",1739898968903,"positive",567,"A","positive;negative","","",6.34035930372775,31
"232","57f2da5c6c19420001438d19","jail","calibrator_val_no_feedback","Valence","SV",1739898970188,"negative",531,"A","positive;negative","","",6.27476202124194,32
"233","57f2da5c6c19420001438d19","joke","calibrator_val_no_feedback","Valence","SV",1739898971490,"positive",548,"A","positive;negative","","",6.30627528694802,33
"234","57f2da5c6c19420001438d19","icebox","calibrator_val_no_feedback","Valence","SV",1739898972790,"positive",541,"A","positive;negative","","",6.29341927884648,34
"235","57f2da5c6c19420001438d19","kitten","calibrator_val_no_feedback","Valence","SV",1739898974024,"positive",478,"A","positive;negative","","",6.16961073249146,35
"236","57f2da5c6c19420001438d19","insecure","calibrator_val_no_feedback","Valence","SV",1739898975250,"negative",472,"A","positive;negative","","",6.15697898558556,36
"237","57f2da5c6c19420001438d19","invader","calibrator_val_no_feedback","Valence","SV",1739898976449,"negative",442,"A","positive;negative","","",6.0913098820777,37
"238","57f2da5c6c19420001438d19","hat","calibrator_val_no_feedback","Valence","SV",1739898977720,"positive",516,"A","positive;negative","","",6.24610676548156,38
"239","57f2da5c6c19420001438d19","industry","calibrator_val_no_feedback","Valence","SV",1739898979260,"positive",785,"A","positive;negative","","",6.66568371778241,39
"240","57f2da5c6c19420001438d19","grin","calibrator_val_no_feedback","Valence","SV",1739898980448,"positive",433,"A","positive;negative","","",6.07073772800249,40
"241","5b915c9d22d85d000115c0f5","insecure","calibrator_val_feedback","Valence","VS",1739892516440,"negative",1157,"positive","negative","positive;negative","A",7.05358572719368,1
"242","5b915c9d22d85d000115c0f5","invader","calibrator_val_feedback","Valence","VS",1739892518433,"negative",1066,"positive","negative","positive;negative","A",6.97166860472579,2
"243","5b915c9d22d85d000115c0f5","joke","calibrator_val_feedback","Valence","VS",1739892522228,"positive",1025,"positive","negative","positive;negative","A",6.93244789157251,3
"244","5b915c9d22d85d000115c0f5","kitten","calibrator_val_feedback","Valence","VS",1739892525737,"positive",739,"positive","negative","positive;negative","A",6.6052979209482,4
"245","5b915c9d22d85d000115c0f5","hat","calibrator_val_feedback","Valence","VS",1739892529212,"positive",708,"positive","negative","positive;negative","A",6.56244409369372,5
"246","5b915c9d22d85d000115c0f5","jail","calibrator_val_feedback","Valence","VS",1739892532698,"negative",714,"positive","negative","positive;negative","A",6.57088296233958,6
"247","5b915c9d22d85d000115c0f5","icebox","calibrator_val_feedback","Valence","VS",1739892536298,"positive",837,"positive","negative","positive;negative","A",6.72982407048948,7
"248","5b915c9d22d85d000115c0f5","free","calibrator_val_feedback","Valence","VS",1739892539830,"positive",762,"positive","negative","positive;negative","A",6.63594655568665,8
"249","5b915c9d22d85d000115c0f5","grin","calibrator_val_feedback","Valence","VS",1739892543289,"positive",694,"positive","negative","positive;negative","A",6.5424719605068,9
"250","5b915c9d22d85d000115c0f5","industry","calibrator_val_feedback","Valence","VS",1739892546287,"negative",231,"positive","negative","positive;negative","A",5.44241771052179,10
"251","5b915c9d22d85d000115c0f5","jail","calibrator_val_no_feedback","Valence","VS",1739892549772,"negative",715,"A","positive;negative","","",6.57228254269401,11
"252","5b915c9d22d85d000115c0f5","insecure","calibrator_val_no_feedback","Valence","VS",1739892551214,"negative",675,"A","positive;negative","","",6.51471269087253,12
"253","5b915c9d22d85d000115c0f5","kitten","calibrator_val_no_feedback","Valence","VS",1739892552744,"positive",767,"A","positive;negative","","",6.64248680136726,13
"254","5b915c9d22d85d000115c0f5","industry","calibrator_val_no_feedback","Valence","VS",1739892554195,"negative",688,"A","positive;negative","","",6.53378883793334,14
"255","5b915c9d22d85d000115c0f5","joke","calibrator_val_no_feedback","Valence","VS",1739892555533,"positive",572,"A","positive;negative","","",6.3491389913798,15
"256","5b915c9d22d85d000115c0f5","hat","calibrator_val_no_feedback","Valence","VS",1739892556867,"positive",574,"A","positive;negative","","",6.35262939631957,16
"257","5b915c9d22d85d000115c0f5","grin","calibrator_val_no_feedback","Valence","VS",1739892558150,"positive",525,"A","positive;negative","","",6.26339826259162,17
"258","5b915c9d22d85d000115c0f5","icebox","calibrator_val_no_feedback","Valence","VS",1739892559506,"positive",593,"A","positive;negative","","",6.38519439899773,18
"259","5b915c9d22d85d000115c0f5","free","calibrator_val_no_feedback","Valence","VS",1739892560801,"positive",534,"A","positive;negative","","",6.2803958389602,19
"260","5b915c9d22d85d000115c0f5","invader","calibrator_val_no_feedback","Valence","VS",1739892562214,"negative",648,"A","positive;negative","","",6.47389069635227,20
"261","5b915c9d22d85d000115c0f5","endure","calibrator_syn_feedback","Syntactic","VS",1739892751750,"verb",2378,"noun","verb","noun;verb","A",7.77401507725073,21
"262","5b915c9d22d85d000115c0f5","reside","calibrator_syn_feedback","Syntactic","VS",1739892756060,"verb",1542,"noun","verb","noun;verb","A",7.34083555412327,22
"263","5b915c9d22d85d000115c0f5","concur","calibrator_syn_feedback","Syntactic","VS",1739892761579,"verb",1148,"noun","verb","noun;verb","A",7.04577657687951,23
"264","5b915c9d22d85d000115c0f5","exist","calibrator_syn_feedback","Syntactic","VS",1739892764463,"verb",1727,"noun","verb","noun;verb","A",7.45414107814668,24
"265","5b915c9d22d85d000115c0f5","traffic","calibrator_syn_feedback","Syntactic","VS",1739892768092,"noun",859,"noun","verb","noun;verb","A",6.75576892198425,25
"266","5b915c9d22d85d000115c0f5","furniture","calibrator_syn_feedback","Syntactic","VS",1739892771458,"noun",599,"noun","verb","noun;verb","A",6.39526159811545,26
"267","5b915c9d22d85d000115c0f5","luggage","calibrator_syn_feedback","Syntactic","VS",1739892774865,"noun",642,"noun","verb","noun;verb","A",6.46458830368996,27
"268","5b915c9d22d85d000115c0f5","childhood","calibrator_syn_feedback","Syntactic","VS",1739892778309,"noun",682,"noun","verb","noun;verb","A",6.52502965784346,28
"269","5b915c9d22d85d000115c0f5","wisdom","calibrator_syn_feedback","Syntactic","VS",1739892781830,"noun",752,"noun","verb","noun;verb","A",6.62273632394984,29
"270","5b915c9d22d85d000115c0f5","depart","calibrator_syn_feedback","Syntactic","VS",1739892785634,"verb",1038,"noun","verb","noun;verb","A",6.94505106372583,30
"271","5b915c9d22d85d000115c0f5","luggage","calibrator_syn_no_feedback","Syntactic","VS",1739892789023,"noun",620,"A","noun;verb","","",6.42971947803914,31
"272","5b915c9d22d85d000115c0f5","depart","calibrator_syn_no_feedback","Syntactic","VS",1739892790718,"noun",930,"A","noun;verb","","",6.8351845861473,32
"273","5b915c9d22d85d000115c0f5","wisdom","calibrator_syn_no_feedback","Syntactic","VS",1739892792411,"noun",935,"A","noun;verb","","",6.84054652928869,33
"274","5b915c9d22d85d000115c0f5","endure","calibrator_syn_no_feedback","Syntactic","VS",1739892794291,"verb",1114,"A","noun;verb","","",7.01571242048723,34
"275","5b915c9d22d85d000115c0f5","exist","calibrator_syn_no_feedback","Syntactic","VS",1739892795676,"verb",624,"A","noun;verb","","",6.43615036836943,35
"276","5b915c9d22d85d000115c0f5","concur","calibrator_syn_no_feedback","Syntactic","VS",1739892797013,"verb",573,"A","noun;verb","","",6.35088571671474,36
"277","5b915c9d22d85d000115c0f5","furniture","calibrator_syn_no_feedback","Syntactic","VS",1739892798371,"noun",595,"A","noun;verb","","",6.38856140554563,37
"278","5b915c9d22d85d000115c0f5","reside","calibrator_syn_no_feedback","Syntactic","VS",1739892799811,"verb",676,"A","noun;verb","","",6.51619307604296,38
"279","5b915c9d22d85d000115c0f5","traffic","calibrator_syn_no_feedback","Syntactic","VS",1739892801239,"noun",671,"A","noun;verb","","",6.50876913697168,39
"280","5b915c9d22d85d000115c0f5","childhood","calibrator_syn_no_feedback","Syntactic","VS",1739892802675,"noun",671,"A","noun;verb","","",6.50876913697168,40
"281","58a477c660cd820001e9a5d6","icebox","calibrator_val_feedback","Valence","VS",1739885245606,"negative",1197,"negative","positive","negative;positive","B",7.08757370555797,1
"282","58a477c660cd820001e9a5d6","kitten","calibrator_val_feedback","Valence","VS",1739885249594,"positive",1224,"negative","positive","negative;positive","B",7.10987946307227,2
"283","58a477c660cd820001e9a5d6","joke","calibrator_val_feedback","Valence","VS",1739885253416,"positive",1061,"negative","positive","negative;positive","B",6.96696713861398,3
"284","58a477c660cd820001e9a5d6","insecure","calibrator_val_feedback","Valence","VS",1739885257215,"negative",1041,"negative","positive","negative;positive","B",6.94793706861497,4
"285","58a477c660cd820001e9a5d6","jail","calibrator_val_feedback","Valence","VS",1739885261270,"negative",1295,"negative","positive","negative;positive","B",7.16626597413364,5
"286","58a477c660cd820001e9a5d6","hat","calibrator_val_feedback","Valence","VS",1739885265289,"positive",1258,"negative","positive","negative;positive","B",7.13727843726039,6
"287","58a477c660cd820001e9a5d6","industry","calibrator_val_feedback","Valence","VS",1739885269275,"positive",1218,"negative","positive","negative;positive","B",7.10496544826984,7
"288","58a477c660cd820001e9a5d6","invader","calibrator_val_feedback","Valence","VS",1739885272972,"negative",938,"negative","positive","negative;positive","B",6.84374994900622,8
"289","58a477c660cd820001e9a5d6","free","calibrator_val_feedback","Valence","VS",1739885276827,"positive",1091,"negative","positive","negative;positive","B",6.99484998583307,9
"290","58a477c660cd820001e9a5d6","grin","calibrator_val_feedback","Valence","VS",1739885280754,"positive",1167,"negative","positive","negative;positive","B",7.06219163228656,10
"291","58a477c660cd820001e9a5d6","free","calibrator_val_no_feedback","Valence","VS",1739885284285,"positive",768,"B","negative;positive","","",6.64378973314767,11
"292","58a477c660cd820001e9a5d6","insecure","calibrator_val_no_feedback","Valence","VS",1739885285832,"negative",787,"B","negative;positive","","",6.6682282484174,12
"293","58a477c660cd820001e9a5d6","joke","calibrator_val_no_feedback","Valence","VS",1739885287363,"positive",772,"B","negative;positive","","",6.64898455002478,13
"294","58a477c660cd820001e9a5d6","invader","calibrator_val_no_feedback","Valence","VS",1739885289014,"negative",893,"B","negative;positive","","",6.7945865808765,14
"295","58a477c660cd820001e9a5d6","industry","calibrator_val_no_feedback","Valence","VS",1739885290619,"positive",846,"B","negative;positive","","",6.74051935960622,15
"296","58a477c660cd820001e9a5d6","grin","calibrator_val_no_feedback","Valence","VS",1739885292902,"positive",1525,"B","negative;positive","","",7.32974968904151,16
"297","58a477c660cd820001e9a5d6","icebox","calibrator_val_no_feedback","Valence","VS",1739885294524,"positive",868,"B","negative;positive","","",6.76619171466035,17
"298","58a477c660cd820001e9a5d6","jail","calibrator_val_no_feedback","Valence","VS",1739885296261,"negative",979,"B","negative;positive","","",6.88653164253051,18
"299","58a477c660cd820001e9a5d6","kitten","calibrator_val_no_feedback","Valence","VS",1739885297974,"positive",955,"B","negative;positive","","",6.86171134048073,19
"300","58a477c660cd820001e9a5d6","hat","calibrator_val_no_feedback","Valence","VS",1739885299484,"positive",753,"B","negative;positive","","",6.62406522779989,20
"301","58a477c660cd820001e9a5d6","traffic","calibrator_syn_feedback","Syntactic","VS",1739885501384,"noun",1552,"verb","noun","verb;noun","B",7.34729970074316,21
"302","58a477c660cd820001e9a5d6","endure","calibrator_syn_feedback","Syntactic","VS",1739885504309,"verb",1675,"verb","noun","verb;noun","B",7.42356844425917,22
"303","58a477c660cd820001e9a5d6","wisdom","calibrator_syn_feedback","Syntactic","VS",1739885508400,"noun",1331,"verb","noun","verb;noun","B",7.19368581839511,23
"304","58a477c660cd820001e9a5d6","exist","calibrator_syn_feedback","Syntactic","VS",1739885512275,"noun",1115,"verb","noun","verb;noun","B",7.01660968389422,24
"305","58a477c660cd820001e9a5d6","concur","calibrator_syn_feedback","Syntactic","VS",1739885516203,"verb",1169,"verb","noun","verb;noun","B",7.06390396147207,25
"306","58a477c660cd820001e9a5d6","depart","calibrator_syn_feedback","Syntactic","VS",1739885520034,"verb",1075,"verb","noun","verb;noun","B",6.98007594056176,26
"307","58a477c660cd820001e9a5d6","furniture","calibrator_syn_feedback","Syntactic","VS",1739885523414,"noun",618,"verb","noun","verb;noun","B",6.42648845745769,27
"308","58a477c660cd820001e9a5d6","luggage","calibrator_syn_feedback","Syntactic","VS",1739885526710,"noun",540,"verb","noun","verb;noun","B",6.29156913955832,28
"309","58a477c660cd820001e9a5d6","childhood","calibrator_syn_feedback","Syntactic","VS",1739885531039,"noun",1571,"verb","noun","verb;noun","B",7.35946763825562,29
"310","58a477c660cd820001e9a5d6","reside","calibrator_syn_feedback","Syntactic","VS",1739885534986,"verb",1184,"verb","noun","verb;noun","B",7.07665381544395,30
"311","58a477c660cd820001e9a5d6","childhood","calibrator_syn_no_feedback","Syntactic","VS",1739885538503,"noun",758,"B","verb;noun","","",6.63068338564237,31
"312","58a477c660cd820001e9a5d6","concur","calibrator_syn_no_feedback","Syntactic","VS",1739885540702,"verb",1442,"B","verb;noun","","",7.27378631784489,32
"313","58a477c660cd820001e9a5d6","depart","calibrator_syn_no_feedback","Syntactic","VS",1739885542548,"verb",1087,"B","verb;noun","","",6.99117688712121,33
"314","58a477c660cd820001e9a5d6","endure","calibrator_syn_no_feedback","Syntactic","VS",1739885543959,"verb",653,"B","verb;noun","","",6.48157712927643,34
"315","58a477c660cd820001e9a5d6","traffic","calibrator_syn_no_feedback","Syntactic","VS",1739885545914,"noun",1195,"B","verb;noun","","",7.08590146436561,35
"316","58a477c660cd820001e9a5d6","furniture","calibrator_syn_no_feedback","Syntactic","VS",1739885547524,"noun",854,"B","verb;noun","","",6.74993119378857,36
"317","58a477c660cd820001e9a5d6","exist","calibrator_syn_no_feedback","Syntactic","VS",1739885549025,"verb",748,"B","verb;noun","","",6.61740297797448,37
"318","58a477c660cd820001e9a5d6","luggage","calibrator_syn_no_feedback","Syntactic","VS",1739885550398,"noun",609,"B","verb;noun","","",6.4118182677099,38
"319","58a477c660cd820001e9a5d6","wisdom","calibrator_syn_no_feedback","Syntactic","VS",1739885552061,"noun",903,"B","verb;noun","","",6.80572255341699,39
"320","58a477c660cd820001e9a5d6","reside","calibrator_syn_no_feedback","Syntactic","VS",1739885553536,"verb",722,"B","verb;noun","","",6.58202513889283,40
"321","5fa62963d5f64b209953d321","industry","calibrator_val_feedback","Valence","VS",1739892122016,"positive",2132,"positive","negative","positive;negative","A",7.66481578528574,1
"322","5fa62963d5f64b209953d321","free","calibrator_val_feedback","Valence","VS",1739892124226,"positive",1288,"positive","negative","positive;negative","A",7.1608459066643,2
"323","5fa62963d5f64b209953d321","insecure","calibrator_val_feedback","Valence","VS",1739892128354,"negative",1367,"positive","negative","positive;negative","A",7.22037383672395,3
"324","5fa62963d5f64b209953d321","kitten","calibrator_val_feedback","Valence","VS",1739892132009,"positive",897,"positive","negative","positive;negative","A",6.7990558620588,4
"325","5fa62963d5f64b209953d321","jail","calibrator_val_feedback","Valence","VS",1739892135754,"negative",982,"positive","negative","positive;negative","A",6.88959130835447,5
"326","5fa62963d5f64b209953d321","hat","calibrator_val_feedback","Valence","VS",1739892140512,"positive",2000,"positive","negative","positive;negative","A",7.60090245954208,6
"327","5fa62963d5f64b209953d321","grin","calibrator_val_feedback","Valence","VS",1739892144633,"positive",1360,"positive","negative","positive;negative","A",7.2152399787301,7
"328","5fa62963d5f64b209953d321","icebox","calibrator_val_feedback","Valence","VS",1739892149281,"positive",1885,"positive","negative","positive;negative","A",7.54168309988211,8
"329","5fa62963d5f64b209953d321","invader","calibrator_val_feedback","Valence","VS",1739892153130,"negative",1086,"positive","negative","positive;negative","A",6.99025650049388,9
"330","5fa62963d5f64b209953d321","joke","calibrator_val_feedback","Valence","VS",1739892156857,"positive",969,"positive","negative","positive;negative","A",6.87626461189077,10
"331","5fa62963d5f64b209953d321","hat","calibrator_val_no_feedback","Valence","VS",1739892160937,"positive",1319,"A","positive;negative","","",7.18462915271731,11
"332","5fa62963d5f64b209953d321","joke","calibrator_val_no_feedback","Valence","VS",1739892162513,"positive",817,"A","positive;negative","","",6.70563909486,12
"333","5fa62963d5f64b209953d321","icebox","calibrator_val_no_feedback","Valence","VS",1739892163961,"positive",688,"A","positive;negative","","",6.53378883793334,13
"334","5fa62963d5f64b209953d321","insecure","calibrator_val_no_feedback","Valence","VS",1739892165375,"negative",660,"A","positive;negative","","",6.49223983502047,14
"335","5fa62963d5f64b209953d321","jail","calibrator_val_no_feedback","Valence","VS",1739892166712,"negative",575,"A","positive;negative","","",6.35437004079735,15
"336","5fa62963d5f64b209953d321","free","calibrator_val_no_feedback","Valence","VS",1739892168017,"positive",547,"A","positive;negative","","",6.30444880242198,16
"337","5fa62963d5f64b209953d321","industry","calibrator_val_no_feedback","Valence","VS",1739892169465,"positive",688,"A","positive;negative","","",6.53378883793334,17
"338","5fa62963d5f64b209953d321","invader","calibrator_val_no_feedback","Valence","VS",1739892170833,"negative",613,"A","positive;negative","","",6.41836493593621,18
"339","5fa62963d5f64b209953d321","kitten","calibrator_val_no_feedback","Valence","VS",1739892172105,"positive",513,"A","positive;negative","","",6.24027584517077,19
"340","5fa62963d5f64b209953d321","grin","calibrator_val_no_feedback","Valence","VS",1739892173385,"positive",518,"A","positive;negative","","",6.24997524225948,20
"341","5fa62963d5f64b209953d321","concur","calibrator_syn_feedback","Syntactic","VS",1739892447609,"verb",3166,"noun","verb","noun;verb","A",8.06022424044096,21
"342","5fa62963d5f64b209953d321","reside","calibrator_syn_feedback","Syntactic","VS",1739892453017,"verb",2646,"noun","verb","noun;verb","A",7.8808043446749,22
"343","5fa62963d5f64b209953d321","furniture","calibrator_syn_feedback","Syntactic","VS",1739892456745,"noun",963,"noun","verb","noun;verb","A",6.87005341179813,23
"344","5fa62963d5f64b209953d321","childhood","calibrator_syn_feedback","Syntactic","VS",1739892460713,"noun",1207,"noun","verb","noun;verb","A",7.09589322109753,24
"345","5fa62963d5f64b209953d321","endure","calibrator_syn_feedback","Syntactic","VS",1739892465137,"verb",1665,"noun","verb","noun;verb","A",7.41758040241454,25
"346","5fa62963d5f64b209953d321","exist","calibrator_syn_feedback","Syntactic","VS",1739892471377,"verb",3479,"noun","verb","noun;verb","A",8.15450017515194,26
"347","5fa62963d5f64b209953d321","wisdom","calibrator_syn_feedback","Syntactic","VS",1739892475537,"noun",1402,"noun","verb","noun;verb","A",7.24565506759454,27
"348","5fa62963d5f64b209953d321","depart","calibrator_syn_feedback","Syntactic","VS",1739892479937,"verb",1641,"noun","verb","noun;verb","A",7.40306109109009,28
"349","5fa62963d5f64b209953d321","traffic","calibrator_syn_feedback","Syntactic","VS",1739892484201,"noun",1505,"noun","verb","noun;verb","A",7.31654817718298,29
"350","5fa62963d5f64b209953d321","luggage","calibrator_syn_feedback","Syntactic","VS",1739892488049,"noun",1087,"noun","verb","noun;verb","A",6.99117688712121,30
"351","5fa62963d5f64b209953d321","furniture","calibrator_syn_no_feedback","Syntactic","VS",1739892491561,"noun",753,"A","noun;verb","","",6.62406522779989,31
"352","5fa62963d5f64b209953d321","luggage","calibrator_syn_no_feedback","Syntactic","VS",1739892493545,"noun",1229,"A","noun;verb","","",7.11395610956603,32
"353","5fa62963d5f64b209953d321","concur","calibrator_syn_no_feedback","Syntactic","VS",1739892495025,"verb",724,"A","noun;verb","","",6.58479139238572,33
"354","5fa62963d5f64b209953d321","depart","calibrator_syn_no_feedback","Syntactic","VS",1739892496761,"verb",979,"A","noun;verb","","",6.88653164253051,34
"355","5fa62963d5f64b209953d321","exist","calibrator_syn_no_feedback","Syntactic","VS",1739892498209,"verb",692,"A","noun;verb","","",6.53958595561767,35
"356","5fa62963d5f64b209953d321","traffic","calibrator_syn_no_feedback","Syntactic","VS",1739892499641,"noun",676,"A","noun;verb","","",6.51619307604296,36
"357","5fa62963d5f64b209953d321","reside","calibrator_syn_no_feedback","Syntactic","VS",1739892501993,"verb",1596,"A","noun;verb","","",7.37525577800975,37
"358","5fa62963d5f64b209953d321","childhood","calibrator_syn_no_feedback","Syntactic","VS",1739892503385,"noun",635,"A","noun;verb","","",6.45362499889269,38
"359","5fa62963d5f64b209953d321","wisdom","calibrator_syn_no_feedback","Syntactic","VS",1739892505393,"noun",1246,"A","noun;verb","","",7.1276936993474,39
"360","5fa62963d5f64b209953d321","endure","calibrator_syn_no_feedback","Syntactic","VS",1739892507769,"verb",1620,"A","noun;verb","","",7.39018142822643,40
"361","6640262ed0b9e3f217df4086","industry","calibrator_val_feedback","Valence","VS",1739886191082,"negative",114,"negative","positive","negative;positive","B",4.7361984483945,1
"362","6640262ed0b9e3f217df4086","icebox","calibrator_val_feedback","Valence","VS",1739886195065,"negative",1420,"negative","positive","negative;positive","B",7.25841215059531,2
"363","6640262ed0b9e3f217df4086","kitten","calibrator_val_feedback","Valence","VS",1739886198401,"negative",640,"negative","positive","negative;positive","B",6.46146817635372,3
"364","6640262ed0b9e3f217df4086","invader","calibrator_val_feedback","Valence","VS",1739886200930,"positive",1378,"negative","positive","negative;positive","B",7.2283884515736,4
"365","6640262ed0b9e3f217df4086","joke","calibrator_val_feedback","Valence","VS",1739886208320,"positive",4634,"negative","positive","negative;positive","B",8.44117570499232,5
"366","6640262ed0b9e3f217df4086","hat","calibrator_val_feedback","Valence","VS",1739886212498,"positive",1422,"negative","positive","negative;positive","B",7.25981961036319,6
"367","6640262ed0b9e3f217df4086","free","calibrator_val_feedback","Valence","VS",1739886216042,"positive",787,"negative","positive","negative;positive","B",6.6682282484174,7
"368","6640262ed0b9e3f217df4086","grin","calibrator_val_feedback","Valence","VS",1739886219866,"positive",1061,"negative","positive","negative;positive","B",6.96696713861398,8
"369","6640262ed0b9e3f217df4086","jail","calibrator_val_feedback","Valence","VS",1739886223563,"negative",937,"negative","positive","negative;positive","B",6.84268328223842,9
"370","6640262ed0b9e3f217df4086","insecure","calibrator_val_feedback","Valence","VS",1739886228770,"negative",2443,"negative","positive","negative;positive","B",7.80098207125774,10
"371","6640262ed0b9e3f217df4086","insecure","calibrator_val_no_feedback","Valence","VS",1739886232091,"negative",565,"B","negative;positive","","",6.33682573114644,11
"372","6640262ed0b9e3f217df4086","kitten","calibrator_val_no_feedback","Valence","VS",1739886233634,"positive",788,"B","negative;positive","","",6.66949808985788,12
"373","6640262ed0b9e3f217df4086","invader","calibrator_val_no_feedback","Valence","VS",1739886236266,"negative",1874,"B","negative;positive","","",7.53583046279837,13
"374","6640262ed0b9e3f217df4086","grin","calibrator_val_no_feedback","Valence","VS",1739886237635,"positive",611,"B","negative;positive","","",6.4150969591716,14
"375","6640262ed0b9e3f217df4086","free","calibrator_val_no_feedback","Valence","VS",1739886239028,"positive",635,"B","negative;positive","","",6.45362499889269,15
"376","6640262ed0b9e3f217df4086","hat","calibrator_val_no_feedback","Valence","VS",1739886240522,"negative",735,"B","negative;positive","","",6.59987049921284,16
"377","6640262ed0b9e3f217df4086","industry","calibrator_val_no_feedback","Valence","VS",1739886242002,"negative",724,"B","negative;positive","","",6.58479139238572,17
"378","6640262ed0b9e3f217df4086","jail","calibrator_val_no_feedback","Valence","VS",1739886243811,"negative",1052,"B","negative;positive","","",6.95844839329766,18
"379","6640262ed0b9e3f217df4086","icebox","calibrator_val_no_feedback","Valence","VS",1739886245363,"negative",798,"B","negative;positive","","",6.68210859744981,19
"380","6640262ed0b9e3f217df4086","joke","calibrator_val_no_feedback","Valence","VS",1739886246725,"positive",602,"B","negative;positive","","",6.40025744530882,20
"381","6640262ed0b9e3f217df4086","luggage","calibrator_syn_feedback","Syntactic","VS",1739886627356,"noun",1408,"verb","noun","verb;noun","B",7.24992553671799,21
"382","6640262ed0b9e3f217df4086","traffic","calibrator_syn_feedback","Syntactic","VS",1739886631429,"noun",1314,"verb","noun","verb;noun","B",7.18083119904456,22
"383","6640262ed0b9e3f217df4086","depart","calibrator_syn_feedback","Syntactic","VS",1739886635180,"verb",988,"verb","noun","verb;noun","B",6.89568269774787,23
"384","6640262ed0b9e3f217df4086","furniture","calibrator_syn_feedback","Syntactic","VS",1739886638500,"noun",562,"verb","noun","verb;noun","B",6.33150184989369,24
"385","6640262ed0b9e3f217df4086","childhood","calibrator_syn_feedback","Syntactic","VS",1739886642501,"noun",1238,"verb","noun","verb;noun","B",7.12125245324454,25
"386","6640262ed0b9e3f217df4086","wisdom","calibrator_syn_feedback","Syntactic","VS",1739886647100,"verb",1845,"verb","noun","verb;noun","B",7.52023455647463,26
"387","6640262ed0b9e3f217df4086","exist","calibrator_syn_feedback","Syntactic","VS",1739886650996,"noun",1137,"verb","noun","verb;noun","B",7.03614849375054,27
"388","6640262ed0b9e3f217df4086","concur","calibrator_syn_feedback","Syntactic","VS",1739886656341,"verb",2587,"verb","noun","verb;noun","B",7.85825418218603,28
"389","6640262ed0b9e3f217df4086","endure","calibrator_syn_feedback","Syntactic","VS",1739886659765,"verb",669,"verb","noun","verb;noun","B",6.50578406012823,29
"390","6640262ed0b9e3f217df4086","reside","calibrator_syn_feedback","Syntactic","VS",1739886663973,"verb",1447,"verb","noun","verb;noun","B",7.27724772663148,30
"391","6640262ed0b9e3f217df4086","traffic","calibrator_syn_no_feedback","Syntactic","VS",1739886667789,"verb",1054,"B","verb;noun","","",6.96034772910131,31
"392","6640262ed0b9e3f217df4086","reside","calibrator_syn_no_feedback","Syntactic","VS",1739886669758,"verb",1210,"B","verb;noun","","",7.09837563859079,32
"393","6640262ed0b9e3f217df4086","childhood","calibrator_syn_no_feedback","Syntactic","VS",1739886672590,"noun",2076,"B","verb;noun","","",7.63819824428578,33
"394","6640262ed0b9e3f217df4086","wisdom","calibrator_syn_no_feedback","Syntactic","VS",1739886676229,"noun",2887,"B","verb;noun","","",7.96797317966293,34
"395","6640262ed0b9e3f217df4086","endure","calibrator_syn_no_feedback","Syntactic","VS",1739886677654,"verb",667,"B","verb;noun","","",6.50279004591562,35
"396","6640262ed0b9e3f217df4086","furniture","calibrator_syn_no_feedback","Syntactic","VS",1739886680502,"noun",2089,"B","verb;noun","","",7.64444076155657,36
"397","6640262ed0b9e3f217df4086","concur","calibrator_syn_no_feedback","Syntactic","VS",1739886684310,"verb",3047,"B","verb;noun","","",8.02191277898571,37
"398","6640262ed0b9e3f217df4086","depart","calibrator_syn_no_feedback","Syntactic","VS",1739886686054,"verb",991,"B","verb;noun","","",6.89871453432999,38
"399","6640262ed0b9e3f217df4086","exist","calibrator_syn_no_feedback","Syntactic","VS",1739886687446,"verb",635,"B","verb;noun","","",6.45362499889269,39
"400","6640262ed0b9e3f217df4086","luggage","calibrator_syn_no_feedback","Syntactic","VS",1739886688862,"noun",660,"B","verb;noun","","",6.49223983502047,40
"401","5bfbfeed249c390001f875be","kitten","calibrator_val_feedback","Valence","VS",1739886517179,"positive",1289,"negative","positive","negative;positive","B",7.16162200293919,1
"402","5bfbfeed249c390001f875be","joke","calibrator_val_feedback","Valence","VS",1739886520634,"positive",692,"negative","positive","negative;positive","B",6.53958595561767,2
"403","5bfbfeed249c390001f875be","free","calibrator_val_feedback","Valence","VS",1739886524187,"positive",789,"negative","positive","negative;positive","B",6.67076632084587,3
"404","5bfbfeed249c390001f875be","icebox","calibrator_val_feedback","Valence","VS",1739886529131,"negative",2174,"negative","positive","negative;positive","B",7.68432406768116,4
"405","5bfbfeed249c390001f875be","grin","calibrator_val_feedback","Valence","VS",1739886533043,"positive",1147,"negative","positive","negative;positive","B",7.04490511712937,5
"406","5bfbfeed249c390001f875be","hat","calibrator_val_feedback","Valence","VS",1739886536898,"positive",1091,"negative","positive","negative;positive","B",6.99484998583307,6
"407","5bfbfeed249c390001f875be","jail","calibrator_val_feedback","Valence","VS",1739886540381,"negative",719,"negative","positive","negative;positive","B",6.57786135772105,7
"408","5bfbfeed249c390001f875be","invader","calibrator_val_feedback","Valence","VS",1739886543639,"negative",493,"negative","positive","negative;positive","B",6.20050917404269,8
"409","5bfbfeed249c390001f875be","insecure","calibrator_val_feedback","Valence","VS",1739886547062,"negative",654,"negative","positive","negative;positive","B",6.4831073514572,9
"410","5bfbfeed249c390001f875be","industry","calibrator_val_feedback","Valence","VS",1739886551180,"positive",1355,"negative","positive","negative;positive","B",7.2115567333138,10
"411","5bfbfeed249c390001f875be","grin","calibrator_val_no_feedback","Valence","VS",1739886554565,"positive",621,"B","negative;positive","","",6.43133108193348,11
"412","5bfbfeed249c390001f875be","free","calibrator_val_no_feedback","Valence","VS",1739886555875,"positive",547,"B","negative;positive","","",6.30444880242198,12
"413","5bfbfeed249c390001f875be","insecure","calibrator_val_no_feedback","Valence","VS",1739886557295,"negative",658,"B","negative;positive","","",6.48920493132532,13
"414","5bfbfeed249c390001f875be","icebox","calibrator_val_no_feedback","Valence","VS",1739886558975,"negative",922,"B","negative;positive","","",6.82654522355659,14
"415","5bfbfeed249c390001f875be","kitten","calibrator_val_no_feedback","Valence","VS",1739886560414,"positive",682,"B","negative;positive","","",6.52502965784346,15
"416","5bfbfeed249c390001f875be","invader","calibrator_val_no_feedback","Valence","VS",1739886561843,"negative",665,"B","negative;positive","","",6.49978704065585,16
"417","5bfbfeed249c390001f875be","hat","calibrator_val_no_feedback","Valence","VS",1739886563348,"positive",745,"B","negative;positive","","",6.61338421837956,17
"418","5bfbfeed249c390001f875be","joke","calibrator_val_no_feedback","Valence","VS",1739886564642,"positive",529,"B","negative;positive","","",6.2709884318583,18
"419","5bfbfeed249c390001f875be","industry","calibrator_val_no_feedback","Valence","VS",1739886566278,"positive",875,"B","negative;positive","","",6.77422388635761,19
"420","5bfbfeed249c390001f875be","jail","calibrator_val_no_feedback","Valence","VS",1739886567699,"negative",661,"B","negative;positive","","",6.49375383985169,20
"421","5bfbfeed249c390001f875be","childhood","calibrator_syn_feedback","Syntactic","VS",1739886929434,"noun",1821,"verb","noun","verb;noun","B",7.50714107972761,21
"422","5bfbfeed249c390001f875be","exist","calibrator_syn_feedback","Syntactic","VS",1739886933641,"verb",1440,"verb","noun","verb;noun","B",7.27239839257005,22
"423","5bfbfeed249c390001f875be","traffic","calibrator_syn_feedback","Syntactic","VS",1739886937391,"noun",989,"verb","noun","verb;noun","B",6.89669433162271,23
"424","5bfbfeed249c390001f875be","endure","calibrator_syn_feedback","Syntactic","VS",1739886941232,"verb",1078,"verb","noun","verb;noun","B",6.98286275146894,24
"425","5bfbfeed249c390001f875be","reside","calibrator_syn_feedback","Syntactic","VS",1739886945152,"verb",1158,"verb","noun","verb;noun","B",7.05444965813294,25
"426","5bfbfeed249c390001f875be","concur","calibrator_syn_feedback","Syntactic","VS",1739886948886,"verb",975,"verb","noun","verb;noun","B",6.88243747099785,26
"427","5bfbfeed249c390001f875be","depart","calibrator_syn_feedback","Syntactic","VS",1739886952558,"verb",911,"verb","noun","verb;noun","B",6.81454289725996,27
"428","5bfbfeed249c390001f875be","luggage","calibrator_syn_feedback","Syntactic","VS",1739886956257,"noun",934,"verb","noun","verb;noun","B",6.83947643822884,28
"429","5bfbfeed249c390001f875be","furniture","calibrator_syn_feedback","Syntactic","VS",1739886959834,"noun",817,"verb","noun","verb;noun","B",6.70563909486,29
"430","5bfbfeed249c390001f875be","wisdom","calibrator_syn_feedback","Syntactic","VS",1739886963883,"noun",1285,"verb","noun","verb;noun","B",7.15851399732932,30
"431","5bfbfeed249c390001f875be","exist","calibrator_syn_no_feedback","Syntactic","VS",1739886967582,"verb",934,"B","verb;noun","","",6.83947643822884,31
"432","5bfbfeed249c390001f875be","endure","calibrator_syn_no_feedback","Syntactic","VS",1739886969065,"verb",722,"B","verb;noun","","",6.58202513889283,32
"433","5bfbfeed249c390001f875be","luggage","calibrator_syn_no_feedback","Syntactic","VS",1739886970926,"noun",1101,"B","verb;noun","","",7.00397413672268,33
"434","5bfbfeed249c390001f875be","traffic","calibrator_syn_no_feedback","Syntactic","VS",1739886972846,"noun",1158,"B","verb;noun","","",7.05444965813294,34
"435","5bfbfeed249c390001f875be","depart","calibrator_syn_no_feedback","Syntactic","VS",1739886974515,"verb",912,"B","verb;noun","","",6.81563999007433,35
"436","5bfbfeed249c390001f875be","childhood","calibrator_syn_no_feedback","Syntactic","VS",1739886976234,"noun",962,"B","verb;noun","","",6.86901445066571,36
"437","5bfbfeed249c390001f875be","wisdom","calibrator_syn_no_feedback","Syntactic","VS",1739886977999,"noun",1008,"B","verb;noun","","",6.91572344863131,37
"438","5bfbfeed249c390001f875be","reside","calibrator_syn_no_feedback","Syntactic","VS",1739886979547,"verb",788,"B","verb;noun","","",6.66949808985788,38
"439","5bfbfeed249c390001f875be","furniture","calibrator_syn_no_feedback","Syntactic","VS",1739886980973,"noun",666,"B","verb;noun","","",6.50128967054039,39
"440","5bfbfeed249c390001f875be","concur","calibrator_syn_no_feedback","Syntactic","VS",1739886982876,"verb",1142,"B","verb;noun","","",7.04053639021596,40
"441","5fc5ab0e7bad151445fc8594","traffic","calibrator_syn_feedback","Syntactic","SV",1739898586322,"noun",1979,"noun","verb","noun;verb","A",7.59034694560257,1
"442","5fc5ab0e7bad151445fc8594","reside","calibrator_syn_feedback","Syntactic","SV",1739898598009,"noun",8928,"noun","verb","noun;verb","A",9.09694768462109,2
"443","5fc5ab0e7bad151445fc8594","childhood","calibrator_syn_feedback","Syntactic","SV",1739898604465,"noun",1789,"noun","verb","noun;verb","A",7.48941208350872,3
"444","5fc5ab0e7bad151445fc8594","furniture","calibrator_syn_feedback","Syntactic","SV",1739898608921,"noun",1665,"noun","verb","noun;verb","A",7.41758040241454,4
"445","5fc5ab0e7bad151445fc8594","luggage","calibrator_syn_feedback","Syntactic","SV",1739898613178,"noun",1521,"noun","verb","noun;verb","A",7.32712329225929,5
"446","5fc5ab0e7bad151445fc8594","concur","calibrator_syn_feedback","Syntactic","SV",1739898621530,"noun",7503,"noun","verb","noun;verb","A",8.92305821954573,6
"447","5fc5ab0e7bad151445fc8594","wisdom","calibrator_syn_feedback","Syntactic","SV",1739898627962,"noun",2144,"noun","verb","noun;verb","A",7.67042852219069,7
"448","5fc5ab0e7bad151445fc8594","endure","calibrator_syn_feedback","Syntactic","SV",1739898660993,"verb",31807,"noun","verb","noun;verb","A",10.3674416703303,8
"449","5fc5ab0e7bad151445fc8594","depart","calibrator_syn_feedback","Syntactic","SV",1739898666858,"verb",1197,"noun","verb","noun;verb","A",7.08757370555797,9
"450","5fc5ab0e7bad151445fc8594","exist","calibrator_syn_feedback","Syntactic","SV",1739898670770,"verb",2700,"noun","verb","noun;verb","A",7.90100705199242,10
"451","5fc5ab0e7bad151445fc8594","endure","calibrator_syn_no_feedback","Syntactic","SV",1739898676026,"verb",2868,"A","noun;verb","","",7.96137020171951,11
"452","5fc5ab0e7bad151445fc8594","depart","calibrator_syn_no_feedback","Syntactic","SV",1739898679178,"verb",2396,"A","noun;verb","","",7.78155595923534,12
"453","5fc5ab0e7bad151445fc8594","exist","calibrator_syn_no_feedback","Syntactic","SV",1739898681010,"noun",1077,"A","noun;verb","","",6.98193467715639,13
"454","5fc5ab0e7bad151445fc8594","reside","calibrator_syn_no_feedback","Syntactic","SV",1739898683898,"verb",2133,"A","noun;verb","","",7.66528471847135,14
"455","5fc5ab0e7bad151445fc8594","wisdom","calibrator_syn_no_feedback","Syntactic","SV",1739898686018,"noun",1365,"A","noun;verb","","",7.21890970761906,15
"456","5fc5ab0e7bad151445fc8594","furniture","calibrator_syn_no_feedback","Syntactic","SV",1739898687506,"noun",734,"A","noun;verb","","",6.59850902861452,16
"457","5fc5ab0e7bad151445fc8594","traffic","calibrator_syn_no_feedback","Syntactic","SV",1739898689018,"noun",758,"A","noun;verb","","",6.63068338564237,17
"458","5fc5ab0e7bad151445fc8594","luggage","calibrator_syn_no_feedback","Syntactic","SV",1739898690378,"noun",602,"A","noun;verb","","",6.40025744530882,18
"459","5fc5ab0e7bad151445fc8594","concur","calibrator_syn_no_feedback","Syntactic","SV",1739898692323,"verb",1190,"A","noun;verb","","",7.08170858610557,19
"460","5fc5ab0e7bad151445fc8594","childhood","calibrator_syn_no_feedback","Syntactic","SV",1739898693898,"noun",822,"A","noun;verb","","",6.71174039505618,20
"461","5fc5ab0e7bad151445fc8594","grin","calibrator_val_feedback","Valence","SV",1739899890886,"positive",1878,"positive","negative","positive;negative","A",7.53796265976821,21
"462","5fc5ab0e7bad151445fc8594","industry","calibrator_val_feedback","Valence","SV",1739899895558,"positive",1912,"positive","negative","positive;negative","A",7.55590509361135,22
"463","5fc5ab0e7bad151445fc8594","hat","calibrator_val_feedback","Valence","SV",1739899901502,"positive",1201,"positive","negative","positive;negative","A",7.09090982207998,23
"464","5fc5ab0e7bad151445fc8594","invader","calibrator_val_feedback","Valence","SV",1739899904526,"negative",416,"positive","negative","positive;negative","A",6.03068526026126,24
"465","5fc5ab0e7bad151445fc8594","joke","calibrator_val_feedback","Valence","SV",1739899906695,"positive",1248,"positive","negative","positive;negative","A",7.12929754892937,25
"466","5fc5ab0e7bad151445fc8594","kitten","calibrator_val_feedback","Valence","SV",1739899910327,"positive",877,"positive","negative","positive;negative","A",6.77650699237218,26
"467","5fc5ab0e7bad151445fc8594","insecure","calibrator_val_feedback","Valence","SV",1739899914135,"positive",1051,"positive","negative","positive;negative","A",6.95749737087695,27
"468","5fc5ab0e7bad151445fc8594","jail","calibrator_val_feedback","Valence","SV",1739899918335,"positive",1441,"positive","negative","positive;negative","A",7.27309259599952,28
"469","5fc5ab0e7bad151445fc8594","icebox","calibrator_val_feedback","Valence","SV",1739899922544,"positive",1450,"positive","negative","positive;negative","A",7.27931883541462,29
"470","5fc5ab0e7bad151445fc8594","free","calibrator_val_feedback","Valence","SV",1739899926551,"positive",1254,"positive","negative","positive;negative","A",7.13409372119287,30
"471","5fc5ab0e7bad151445fc8594","icebox","calibrator_val_no_feedback","Valence","SV",1739899929903,"positive",594,"A","positive;negative","","",6.38687931936265,31
"472","5fc5ab0e7bad151445fc8594","invader","calibrator_val_no_feedback","Valence","SV",1739899931840,"negative",1180,"A","positive;negative","","",7.07326971745971,32
"473","5fc5ab0e7bad151445fc8594","joke","calibrator_val_no_feedback","Valence","SV",1739899933175,"positive",581,"A","positive;negative","","",6.36475075685191,33
"474","5fc5ab0e7bad151445fc8594","industry","calibrator_val_no_feedback","Valence","SV",1739899934687,"positive",756,"A","positive;negative","","",6.62804137617953,34
"475","5fc5ab0e7bad151445fc8594","insecure","calibrator_val_no_feedback","Valence","SV",1739899936263,"negative",826,"A","positive;negative","","",6.71659477352098,35
"476","5fc5ab0e7bad151445fc8594","grin","calibrator_val_no_feedback","Valence","SV",1739899937543,"positive",525,"A","positive;negative","","",6.26339826259162,36
"477","5fc5ab0e7bad151445fc8594","free","calibrator_val_no_feedback","Valence","SV",1739899938831,"positive",531,"A","positive;negative","","",6.27476202124194,37
"478","5fc5ab0e7bad151445fc8594","jail","calibrator_val_no_feedback","Valence","SV",1739899940447,"negative",861,"A","positive;negative","","",6.75809450442773,38
"479","5fc5ab0e7bad151445fc8594","hat","calibrator_val_no_feedback","Valence","SV",1739899941719,"positive",517,"A","positive;negative","","",6.24804287450843,39
"480","5fc5ab0e7bad151445fc8594","kitten","calibrator_val_no_feedback","Valence","SV",1739899943272,"positive",797,"A","positive;negative","","",6.68085467879022,40
"481","65006ac193352f62ba59a095","childhood","calibrator_syn_feedback","Syntactic","SV",1739902094295,"noun",982,"noun","verb","noun;verb","A",6.88959130835447,1
"482","65006ac193352f62ba59a095","concur","calibrator_syn_feedback","Syntactic","SV",1739902098182,"verb",1130,"noun","verb","noun;verb","A",7.02997291170639,2
"483","65006ac193352f62ba59a095","depart","calibrator_syn_feedback","Syntactic","SV",1739902101950,"verb",1007,"noun","verb","noun;verb","A",6.91473089271856,3
"484","65006ac193352f62ba59a095","furniture","calibrator_syn_feedback","Syntactic","SV",1739902105643,"noun",929,"noun","verb","noun;verb","A",6.83410873881384,4
"485","65006ac193352f62ba59a095","endure","calibrator_syn_feedback","Syntactic","SV",1739902109426,"verb",1025,"noun","verb","noun;verb","A",6.93244789157251,5
"486","65006ac193352f62ba59a095","wisdom","calibrator_syn_feedback","Syntactic","SV",1739902113358,"noun",1171,"noun","verb","noun;verb","A",7.06561336359772,6
"487","65006ac193352f62ba59a095","reside","calibrator_syn_feedback","Syntactic","SV",1739902117826,"verb",1709,"noun","verb","noun;verb","A",7.44366368311559,7
"488","65006ac193352f62ba59a095","traffic","calibrator_syn_feedback","Syntactic","SV",1739902121753,"noun",1172,"noun","verb","noun;verb","A",7.06646697013696,8
"489","65006ac193352f62ba59a095","exist","calibrator_syn_feedback","Syntactic","SV",1739902126686,"verb",2176,"noun","verb","noun;verb","A",7.68524360797583,9
"490","65006ac193352f62ba59a095","luggage","calibrator_syn_feedback","Syntactic","SV",1739902131538,"noun",2094,"noun","verb","noun;verb","A",7.64683139143048,10
"491","65006ac193352f62ba59a095","wisdom","calibrator_syn_no_feedback","Syntactic","SV",1739902135782,"noun",1478,"A","noun;verb","","",7.29844510150815,11
"492","65006ac193352f62ba59a095","traffic","calibrator_syn_no_feedback","Syntactic","SV",1739902138017,"noun",1481,"A","noun;verb","","",7.3004728142678,12
"493","65006ac193352f62ba59a095","exist","calibrator_syn_no_feedback","Syntactic","SV",1739902141434,"verb",2661,"A","noun;verb","","",7.88645727097769,13
"494","65006ac193352f62ba59a095","reside","calibrator_syn_no_feedback","Syntactic","SV",1739902143174,"verb",984,"A","noun;verb","","",6.89162589705225,14
"495","65006ac193352f62ba59a095","concur","calibrator_syn_no_feedback","Syntactic","SV",1739902144777,"verb",846,"A","noun;verb","","",6.74051935960622,15
"496","65006ac193352f62ba59a095","endure","calibrator_syn_no_feedback","Syntactic","SV",1739902146398,"verb",863,"A","noun;verb","","",6.76041469108343,16
"497","65006ac193352f62ba59a095","childhood","calibrator_syn_no_feedback","Syntactic","SV",1739902148434,"noun",1278,"A","noun;verb","","",7.15305163493748,17
"498","65006ac193352f62ba59a095","depart","calibrator_syn_no_feedback","Syntactic","SV",1739902154978,"verb",5787,"A","noun;verb","","",8.66336930157384,18
"499","65006ac193352f62ba59a095","luggage","calibrator_syn_no_feedback","Syntactic","SV",1739902156562,"noun",826,"A","noun;verb","","",6.71659477352098,19
"500","65006ac193352f62ba59a095","furniture","calibrator_syn_no_feedback","Syntactic","SV",1739902157994,"noun",677,"A","noun;verb","","",6.51767127291227,20
"501","65006ac193352f62ba59a095","industry","calibrator_val_feedback","Valence","SV",1739902428730,"negative",2188,"positive","negative","positive;negative","A",7.69074316354187,21
"502","65006ac193352f62ba59a095","joke","calibrator_val_feedback","Valence","SV",1739902434786,"positive",1883,"positive","negative","positive;negative","A",7.54062152865715,22
"503","65006ac193352f62ba59a095","hat","calibrator_val_feedback","Valence","SV",1739902438061,"positive",1930,"positive","negative","positive;negative","A",7.56527528189893,23
"504","65006ac193352f62ba59a095","invader","calibrator_val_feedback","Valence","SV",1739902442334,"negative",1514,"positive","negative","positive;negative","A",7.32251043399739,24
"505","65006ac193352f62ba59a095","jail","calibrator_val_feedback","Valence","SV",1739902445934,"negative",841,"positive","negative","positive;negative","A",6.73459165997295,25
"506","65006ac193352f62ba59a095","icebox","calibrator_val_feedback","Valence","SV",1739902449814,"positive",1123,"positive","negative","positive;negative","A",7.02375895473844,26
"507","65006ac193352f62ba59a095","grin","calibrator_val_feedback","Valence","SV",1739902453306,"positive",732,"positive","negative","positive;negative","A",6.59578051396131,27
"508","65006ac193352f62ba59a095","free","calibrator_val_feedback","Valence","SV",1739902456922,"positive",858,"positive","negative","positive;negative","A",6.75460409948796,28
"509","65006ac193352f62ba59a095","kitten","calibrator_val_feedback","Valence","SV",1739902460289,"positive",612,"positive","negative","positive;negative","A",6.41673228251233,29
"510","65006ac193352f62ba59a095","insecure","calibrator_val_feedback","Valence","SV",1739902463882,"negative",835,"positive","negative","positive;negative","A",6.72743172485086,30
"511","65006ac193352f62ba59a095","free","calibrator_val_no_feedback","Valence","SV",1739902467439,"positive",800,"A","positive;negative","","",6.68461172766793,31
"512","65006ac193352f62ba59a095","kitten","calibrator_val_no_feedback","Valence","SV",1739902468802,"positive",605,"A","positive;negative","","",6.40522845803084,32
"513","65006ac193352f62ba59a095","hat","calibrator_val_no_feedback","Valence","SV",1739902470323,"positive",763,"A","positive;negative","","",6.63725803128446,33
"514","65006ac193352f62ba59a095","joke","calibrator_val_no_feedback","Valence","SV",1739902471769,"positive",692,"A","positive;negative","","",6.53958595561767,34
"515","65006ac193352f62ba59a095","invader","calibrator_val_no_feedback","Valence","SV",1739902473217,"negative",693,"A","positive;negative","","",6.5410299991899,35
"516","65006ac193352f62ba59a095","industry","calibrator_val_no_feedback","Valence","SV",1739902475146,"negative",1170,"A","positive;negative","","",7.0647590277918,36
"517","65006ac193352f62ba59a095","insecure","calibrator_val_no_feedback","Valence","SV",1739902476542,"negative",639,"A","positive;negative","","",6.45990445437753,37
"518","65006ac193352f62ba59a095","jail","calibrator_val_no_feedback","Valence","SV",1739902478131,"negative",833,"A","positive;negative","","",6.72503364216684,38
"519","65006ac193352f62ba59a095","grin","calibrator_val_no_feedback","Valence","SV",1739902479578,"positive",690,"A","positive;negative","","",6.5366915975913,39
"520","65006ac193352f62ba59a095","icebox","calibrator_val_no_feedback","Valence","SV",1739902480958,"positive",624,"A","positive;negative","","",6.43615036836943,40
"521","6234965d3869b875dc31d93a","invader","calibrator_val_feedback","Valence","VS",1739889729651,"negative",732,"positive","negative","positive;negative","A",6.59578051396131,1
"522","6234965d3869b875dc31d93a","jail","calibrator_val_feedback","Valence","VS",1739889732969,"negative",533,"positive","negative","positive;negative","A",6.27852142416584,2
"523","6234965d3869b875dc31d93a","icebox","calibrator_val_feedback","Valence","VS",1739889736763,"positive",1013,"positive","negative","positive;negative","A",6.92067150424868,3
"524","6234965d3869b875dc31d93a","insecure","calibrator_val_feedback","Valence","VS",1739889740433,"negative",895,"positive","negative","positive;negative","A",6.79682371827486,4
"525","6234965d3869b875dc31d93a","joke","calibrator_val_feedback","Valence","VS",1739889744181,"positive",978,"positive","negative","positive;negative","A",6.88550967003482,5
"526","6234965d3869b875dc31d93a","kitten","calibrator_val_feedback","Valence","VS",1739889747520,"positive",553,"positive","negative","positive;negative","A",6.31535800152233,6
"527","6234965d3869b875dc31d93a","hat","calibrator_val_feedback","Valence","VS",1739889751521,"positive",1234,"positive","negative","positive;negative","A",7.11801620446533,7
"528","6234965d3869b875dc31d93a","grin","calibrator_val_feedback","Valence","VS",1739889755027,"positive",720,"positive","negative","positive;negative","A",6.5792512120101,8
"529","6234965d3869b875dc31d93a","free","calibrator_val_feedback","Valence","VS",1739889758575,"positive",760,"positive","negative","positive;negative","A",6.63331843328038,9
"530","6234965d3869b875dc31d93a","industry","calibrator_val_feedback","Valence","VS",1739889762285,"positive",923,"positive","negative","positive;negative","A",6.82762923450285,10
"531","6234965d3869b875dc31d93a","icebox","calibrator_val_no_feedback","Valence","VS",1739889765896,"positive",833,"A","positive;negative","","",6.72503364216684,11
"532","6234965d3869b875dc31d93a","kitten","calibrator_val_no_feedback","Valence","VS",1739889767465,"positive",805,"A","positive;negative","","",6.69084227741856,12
"533","6234965d3869b875dc31d93a","hat","calibrator_val_no_feedback","Valence","VS",1739889768937,"positive",714,"A","positive;negative","","",6.57088296233958,13
"534","6234965d3869b875dc31d93a","industry","calibrator_val_no_feedback","Valence","VS",1739889770322,"positive",623,"A","positive;negative","","",6.43454651878745,14
"535","6234965d3869b875dc31d93a","insecure","calibrator_val_no_feedback","Valence","VS",1739889771692,"negative",583,"A","positive;negative","","",6.36818718635049,15
"536","6234965d3869b875dc31d93a","free","calibrator_val_no_feedback","Valence","VS",1739889773255,"positive",793,"A","positive;negative","","",6.67582322163485,16
"537","6234965d3869b875dc31d93a","joke","calibrator_val_no_feedback","Valence","VS",1739889774564,"positive",529,"A","positive;negative","","",6.2709884318583,17
"538","6234965d3869b875dc31d93a","invader","calibrator_val_no_feedback","Valence","VS",1739889776364,"negative",1017,"A","positive;negative","","",6.92461239604856,18
"539","6234965d3869b875dc31d93a","jail","calibrator_val_no_feedback","Valence","VS",1739889777630,"negative",493,"A","positive;negative","","",6.20050917404269,19
"540","6234965d3869b875dc31d93a","grin","calibrator_val_no_feedback","Valence","VS",1739889779021,"positive",614,"A","positive;negative","","",6.41999492814714,20
"541","6234965d3869b875dc31d93a","depart","calibrator_syn_feedback","Syntactic","VS",1739890135511,"verb",1225,"noun","verb","noun;verb","A",7.11069612297883,21
"542","6234965d3869b875dc31d93a","endure","calibrator_syn_feedback","Syntactic","VS",1739890139579,"verb",1276,"noun","verb","noun;verb","A",7.15148546390474,22
"543","6234965d3869b875dc31d93a","childhood","calibrator_syn_feedback","Syntactic","VS",1739890143347,"noun",1004,"noun","verb","noun;verb","A",6.91174730025167,23
"544","6234965d3869b875dc31d93a","reside","calibrator_syn_feedback","Syntactic","VS",1739890147565,"verb",1447,"noun","verb","noun;verb","A",7.27724772663148,24
"545","6234965d3869b875dc31d93a","wisdom","calibrator_syn_feedback","Syntactic","VS",1739890151039,"noun",697,"noun","verb","noun;verb","A",6.54678541076052,25
"546","6234965d3869b875dc31d93a","furniture","calibrator_syn_feedback","Syntactic","VS",1739890154418,"noun",602,"noun","verb","noun;verb","A",6.40025744530882,26
"547","6234965d3869b875dc31d93a","luggage","calibrator_syn_feedback","Syntactic","VS",1739890157979,"noun",785,"noun","verb","noun;verb","A",6.66568371778241,27
"548","6234965d3869b875dc31d93a","exist","calibrator_syn_feedback","Syntactic","VS",1739890161895,"verb",1122,"noun","verb","noun;verb","A",7.02286808608264,28
"549","6234965d3869b875dc31d93a","traffic","calibrator_syn_feedback","Syntactic","VS",1739890165470,"noun",789,"noun","verb","noun;verb","A",6.67076632084587,29
"550","6234965d3869b875dc31d93a","concur","calibrator_syn_feedback","Syntactic","VS",1739890168810,"noun",577,"noun","verb","noun;verb","A",6.3578422665081,30
"551","6234965d3869b875dc31d93a","depart","calibrator_syn_no_feedback","Syntactic","VS",1739890173177,"verb",1603,"A","noun;verb","","",7.37963215260955,31
"552","6234965d3869b875dc31d93a","luggage","calibrator_syn_no_feedback","Syntactic","VS",1739890174594,"noun",651,"A","noun;verb","","",6.47850964220857,32
"553","6234965d3869b875dc31d93a","exist","calibrator_syn_no_feedback","Syntactic","VS",1739890176321,"verb",961,"A","noun;verb","","",6.86797440897029,33
"554","6234965d3869b875dc31d93a","endure","calibrator_syn_no_feedback","Syntactic","VS",1739890178099,"verb",1005,"A","noun;verb","","",6.91274282049318,34
"555","6234965d3869b875dc31d93a","wisdom","calibrator_syn_no_feedback","Syntactic","VS",1739890179576,"noun",703,"A","noun;verb","","",6.55535689181067,35
"556","6234965d3869b875dc31d93a","concur","calibrator_syn_no_feedback","Syntactic","VS",1739890181557,"verb",1213,"A","noun;verb","","",7.10085190894405,36
"557","6234965d3869b875dc31d93a","childhood","calibrator_syn_no_feedback","Syntactic","VS",1739890184394,"noun",2064,"A","noun;verb","","",7.63240112660145,37
"558","6234965d3869b875dc31d93a","reside","calibrator_syn_no_feedback","Syntactic","VS",1739890185977,"verb",819,"A","noun;verb","","",6.70808408385307,38
"559","6234965d3869b875dc31d93a","traffic","calibrator_syn_no_feedback","Syntactic","VS",1739890187432,"noun",681,"A","noun;verb","","",6.52356230614951,39
"560","6234965d3869b875dc31d93a","furniture","calibrator_syn_no_feedback","Syntactic","VS",1739890189190,"noun",996,"A","noun;verb","","",6.9037472575846,40
"561","5dd9f0e719eecb97dfab7b48","hat","calibrator_val_feedback","Valence","VS",1739896660957,"positive",1121,"positive","negative","positive;negative","A",7.02197642307216,1
"562","5dd9f0e719eecb97dfab7b48","grin","calibrator_val_feedback","Valence","VS",1739896665153,"positive",1877,"positive","negative","positive;negative","A",7.53743003658651,2
"563","5dd9f0e719eecb97dfab7b48","invader","calibrator_val_feedback","Valence","VS",1739896668142,"positive",1421,"positive","negative","positive;negative","A",7.2591161280971,3
"564","5dd9f0e719eecb97dfab7b48","free","calibrator_val_feedback","Valence","VS",1739896672379,"positive",1476,"positive","negative","positive;negative","A",7.29709100516042,4
"565","5dd9f0e719eecb97dfab7b48","icebox","calibrator_val_feedback","Valence","VS",1739896676861,"positive",1721,"positive","negative","positive;negative","A",7.45066079621154,5
"566","5dd9f0e719eecb97dfab7b48","jail","calibrator_val_feedback","Valence","VS",1739896680225,"negative",602,"positive","negative","positive;negative","A",6.40025744530882,6
"567","5dd9f0e719eecb97dfab7b48","kitten","calibrator_val_feedback","Valence","VS",1739896683956,"positive",971,"positive","negative","positive;negative","A",6.87832646829133,7
"568","5dd9f0e719eecb97dfab7b48","industry","calibrator_val_feedback","Valence","VS",1739896688056,"negative",1336,"positive","negative","positive;negative","A",7.19743535409659,8
"569","5dd9f0e719eecb97dfab7b48","joke","calibrator_val_feedback","Valence","VS",1739896692064,"positive",1250,"positive","negative","positive;negative","A",7.13089883029635,9
"570","5dd9f0e719eecb97dfab7b48","insecure","calibrator_val_feedback","Valence","VS",1739896696689,"negative",1860,"positive","negative","positive;negative","A",7.52833176670725,10
"571","5dd9f0e719eecb97dfab7b48","joke","calibrator_val_no_feedback","Valence","VS",1739896701066,"positive",1615,"A","positive;negative","","",7.38709023565676,11
"572","5dd9f0e719eecb97dfab7b48","free","calibrator_val_no_feedback","Valence","VS",1739896702497,"positive",672,"A","positive;negative","","",6.51025834052315,12
"573","5dd9f0e719eecb97dfab7b48","jail","calibrator_val_no_feedback","Valence","VS",1739896704042,"negative",789,"A","positive;negative","","",6.67076632084587,13
"574","5dd9f0e719eecb97dfab7b48","insecure","calibrator_val_no_feedback","Valence","VS",1739896705701,"negative",898,"A","positive;negative","","",6.8001700683022,14
"575","5dd9f0e719eecb97dfab7b48","industry","calibrator_val_no_feedback","Valence","VS",1739896707269,"negative",809,"A","positive;negative","","",6.69579891705849,15
"576","5dd9f0e719eecb97dfab7b48","grin","calibrator_val_no_feedback","Valence","VS",1739896708970,"positive",936,"A","positive;negative","","",6.84161547647759,16
"577","5dd9f0e719eecb97dfab7b48","kitten","calibrator_val_no_feedback","Valence","VS",1739896710405,"positive",677,"A","positive;negative","","",6.51767127291227,17
"578","5dd9f0e719eecb97dfab7b48","icebox","calibrator_val_no_feedback","Valence","VS",1739896711924,"positive",758,"A","positive;negative","","",6.63068338564237,18
"579","5dd9f0e719eecb97dfab7b48","invader","calibrator_val_no_feedback","Valence","VS",1739896713470,"negative",786,"A","positive;negative","","",6.66695679242921,19
"580","5dd9f0e719eecb97dfab7b48","hat","calibrator_val_no_feedback","Valence","VS",1739896714886,"positive",652,"A","positive;negative","","",6.48004456192665,20
"581","6163d3ea0d13c617bb46c99b","joke","calibrator_val_feedback","Valence","VS",1739887718029,"positive",1750,"negative","positive","negative;positive","B",7.46737106691756,1
"582","6163d3ea0d13c617bb46c99b","hat","calibrator_val_feedback","Valence","VS",1739887721928,"positive",1104,"negative","positive","negative;positive","B",7.00669522683704,2
"583","6163d3ea0d13c617bb46c99b","grin","calibrator_val_feedback","Valence","VS",1739887726061,"positive",1348,"negative","positive","negative;positive","B",7.20637729147225,3
"584","6163d3ea0d13c617bb46c99b","industry","calibrator_val_feedback","Valence","VS",1739887731798,"negative",2961,"negative","positive","negative;positive","B",7.99328232810159,4
"585","6163d3ea0d13c617bb46c99b","free","calibrator_val_feedback","Valence","VS",1739887735939,"positive",1372,"negative","positive","negative;positive","B",7.22402480828583,5
"586","6163d3ea0d13c617bb46c99b","icebox","calibrator_val_feedback","Valence","VS",1739887739584,"positive",858,"negative","positive","negative;positive","B",6.75460409948796,6
"587","6163d3ea0d13c617bb46c99b","insecure","calibrator_val_feedback","Valence","VS",1739887743656,"negative",1287,"negative","positive","negative;positive","B",7.16006920759613,7
"588","6163d3ea0d13c617bb46c99b","jail","calibrator_val_feedback","Valence","VS",1739887747797,"negative",1382,"negative","positive","negative;positive","B",7.23128700432762,8
"589","6163d3ea0d13c617bb46c99b","invader","calibrator_val_feedback","Valence","VS",1739887751441,"negative",860,"negative","positive","negative;positive","B",6.75693238924755,9
"590","6163d3ea0d13c617bb46c99b","kitten","calibrator_val_feedback","Valence","VS",1739887755446,"positive",1234,"negative","positive","negative;positive","B",7.11801620446533,10
"591","6163d3ea0d13c617bb46c99b","invader","calibrator_val_no_feedback","Valence","VS",1739887759069,"negative",839,"B","negative;positive","","",6.73221070646721,11
"592","6163d3ea0d13c617bb46c99b","grin","calibrator_val_no_feedback","Valence","VS",1739887760606,"positive",768,"B","negative;positive","","",6.64378973314767,12
"593","6163d3ea0d13c617bb46c99b","insecure","calibrator_val_no_feedback","Valence","VS",1739887762450,"negative",1082,"B","negative;positive","","",6.98656645940643,13
"594","6163d3ea0d13c617bb46c99b","industry","calibrator_val_no_feedback","Valence","VS",1739887763801,"negative",580,"B","negative;positive","","",6.36302810354046,14
"595","6163d3ea0d13c617bb46c99b","free","calibrator_val_no_feedback","Valence","VS",1739887765218,"positive",656,"B","negative;positive","","",6.48616078894409,15
"596","6163d3ea0d13c617bb46c99b","jail","calibrator_val_no_feedback","Valence","VS",1739887766906,"negative",919,"B","negative;positive","","",6.82328612235569,16
"597","6163d3ea0d13c617bb46c99b","joke","calibrator_val_no_feedback","Valence","VS",1739887768368,"positive",701,"B","negative;positive","","",6.55250788703459,17
"598","6163d3ea0d13c617bb46c99b","icebox","calibrator_val_no_feedback","Valence","VS",1739887770461,"positive",1331,"B","negative;positive","","",7.19368581839511,18
"599","6163d3ea0d13c617bb46c99b","kitten","calibrator_val_no_feedback","Valence","VS",1739887772148,"positive",919,"B","negative;positive","","",6.82328612235569,19
"600","6163d3ea0d13c617bb46c99b","hat","calibrator_val_no_feedback","Valence","VS",1739887773589,"positive",670,"B","negative;positive","","",6.50727771238501,20
"601","6163d3ea0d13c617bb46c99b","luggage","calibrator_syn_feedback","Syntactic","VS",1739888071643,"noun",1436,"verb","noun","verb;noun","B",7.26961674960817,21
"602","6163d3ea0d13c617bb46c99b","endure","calibrator_syn_feedback","Syntactic","VS",1739888077021,"verb",2606,"verb","noun","verb;noun","B",7.86557175768479,22
"603","6163d3ea0d13c617bb46c99b","wisdom","calibrator_syn_feedback","Syntactic","VS",1739888080711,"noun",918,"verb","noun","verb;noun","B",6.82219739062049,23
"604","6163d3ea0d13c617bb46c99b","concur","calibrator_syn_feedback","Syntactic","VS",1739888084446,"verb",965,"verb","noun","verb;noun","B",6.87212810133899,24
"605","6163d3ea0d13c617bb46c99b","reside","calibrator_syn_feedback","Syntactic","VS",1739888087978,"verb",762,"verb","noun","verb;noun","B",6.63594655568665,25
